time,seconds_elapsed,z,y,x
1788880991238809900,0.081809814453125,-0.1280868649482727,0.774070680141449,0.029138443991541862
1788880991248839700,0.091839599609375,-0.20187506079673767,0.7953330874443054,0.14664989709854126
1788880991258869800,0.101869873046875,0.0020692760590463877,0.6768447756767273,0.18395279347896576
1788880991268899600,0.111899658203125,0.2430427372455597,0.7037445902824402,0.20824748277664185
1788880991278929700,0.1219296875,0.30875223875045776,0.6855032444000244,0.22855567932128906
1788880991288959700,0.131959716796875,0.31881019473075867,0.6079762578010559,0.2637624144554138
1788880991298989800,0.14198974609375,0.2558536231517792,0.577790379524231,0.31991755962371826
1788880991309020000,0.15202001953125,0.13556288182735443,0.5375574827194214,0.36425837874412537
1788880991319049700,0.1620498046875,0.003312173532322049,0.45530200004577637,0.35229361057281494
1788880991329079600,0.17207958984375,-0.08861135691404343,0.4105025827884674,0.2878895699977875
1788880991339110700,0.182110595703125,-0.05222991481423378,0.4243065416812897,0.1855006217956543
1788880991349141800,0.192141845703125,0.11918524652719498,0.31656914949417114,0.10844498127698898
1788880991359171600,0.202171630859375,0.5043542385101318,-0.010245713405311108,0.21333864331245422
1788880991369201700,0.21220166015625,0.7000491619110107,-0.19374975562095642,0.30227410793304443
1788880991379231700,0.222231689453125,0.7261867523193359,-0.3429642915725708,0.3529101312160492
1788880991389261800,0.23226171875,0.654680073261261,-0.569202184677124,0.3528211712837219
1788880991399291600,0.242291748046875,0.5399020910263062,-0.7840309143066406,0.2967613637447357
1788880991409321700,0.25232177734375,0.3485254943370819,-0.9224002361297607,0.15990684926509857
1788880991419351800,0.262351806640625,0.10748837888240814,-0.9323774576187134,0.0016578177455812693
1788880991429381600,0.272381591796875,-0.15567775070667267,-0.846919059753418,-0.10588568449020386
1788880991439411700,0.28241162109375,-0.3748476505279541,-0.805986762046814,-0.11568691581487656
1788880991449441800,0.29244189453125,-0.4678731858730316,-0.5192578434944153,0.024883246049284935
1788880991459471600,0.3024716796875,-0.42365193367004395,0.04027099162340164,0.21491044759750366
1788880991469501700,0.312501708984375,-0.2840128242969513,0.5308271050453186,0.3169926106929779
1788880991479532800,0.32253271484375,-0.15725992619991302,0.8659853935241699,0.2673579454421997
1788880991489562600,0.332562744140625,-0.05102004110813141,1.0067939758300781,0.17813165485858917
1788880991499592700,0.3425927734375,0.03683790937066078,1.0373483896255493,0.12719283998012543
1788880991509622800,0.352622802734375,0.04699520394206047,0.8227969408035278,0.14384637773036957
1788880991519652900,0.36265283203125,-0.03804778307676315,0.46271783113479614,0.28981637954711914
1788880991529682700,0.3726826171875,-0.11650823801755905,0.07034020870923996,0.4232040047645569
1788880991539712800,0.382712646484375,-0.2500218152999878,-0.3661574721336365,0.42981448769569397
1788880991549742600,0.39274267578125,-0.4026137590408325,-0.7605242133140564,0.32167842984199524
1788880991559772700,0.402772705078125,-0.4970987141132355,-0.9371666312217712,0.2226855456829071
1788880991569802800,0.412802734375,-0.3884555995464325,-0.75142502784729,0.1648336946964264
1788880991579832800,0.422832763671875,-0.25025004148483276,-0.2794087529182434,0.11426026374101639
1788880991589863000,0.43286279296875,-0.12741760909557343,-0.06401440501213074,0.1726793646812439
1788880991599892700,0.442892822265625,-0.1214236319065094,-0.1818731278181076,0.15801626443862915
1788880991609923800,0.452923828125,-0.27361342310905457,-0.24070075154304504,0.0057500312104821205
1788880991619953700,0.46295361328125,-0.4609830677509308,-0.13124936819076538,-0.18301323056221008
1788880991629983700,0.472983642578125,-0.5963813662528992,-0.05566858872771263,-0.2992793917655945
1788880991640013600,0.483013671875,-0.5652082562446594,-0.049368880689144135,-0.2910664677619934
1788880991650043600,0.493043701171875,-0.41469013690948486,0.04572567716240883,-0.15123718976974487
1788880991660073700,0.50307373046875,-0.28549033403396606,0.037750307470560074,0.04628920182585716
1788880991670103800,0.513103759765625,-0.1879723072052002,-0.1188342422246933,0.25676387548446655
1788880991680134000,0.5231337890625,-0.14272892475128174,-0.1603475958108902,0.4269593060016632
1788880991690163700,0.533163818359375,-0.14842489361763,-0.09177945554256439,0.48652225732803345
1788880991700193500,0.543193603515625,-0.19501610100269318,0.0005781722720712423,0.4117034077644348
1788880991710223600,0.5532236328125,-0.15000654757022858,-0.002889529801905155,0.2715825140476227
1788880991720253700,0.563253662109375,-0.04483964294195175,-0.08685526996850967,0.09899395704269409
1788880991730283800,0.57328369140625,0.046660978347063065,-0.21770542860031128,-0.07664763927459717
1788880991740314600,0.583314697265625,0.1515679508447647,-0.36118510365486145,-0.15079323947429657
1788880991750344700,0.5933447265625,0.2566309869289398,-0.5433050990104675,-0.16343100368976593
1788880991760374800,0.603374755859375,0.31515979766845703,-0.6663489937782288,-0.17758570611476898
1788880991770404900,0.61340478515625,0.3330107033252716,-0.6383181810379028,-0.1838822215795517
1788880991780434700,0.6234345703125,0.3597685694694519,-0.5706885457038879,-0.17158693075180054
1788880991790464500,0.633464599609375,0.33625417947769165,-0.46901142597198486,-0.1464858502149582
1788880991800494600,0.64349462890625,0.2924289405345917,-0.4938182532787323,-0.05994749069213867
1788880991810524700,0.653524658203125,0.19985079765319824,-0.5985598564147949,0.060814615339040756
1788880991820554800,0.6635546875,0.03766295686364174,-0.7362468838691711,0.19527681171894073
1788880991830584800,0.673584716796875,-0.20451904833316803,-0.8294116854667664,0.2813914716243744
1788880991840615000,0.683614990234375,-0.506284236907959,-0.859992504119873,0.26160603761672974
1788880991850644700,0.693644775390625,-0.6902247667312622,-0.7890059351921082,0.13886627554893494
1788880991860674600,0.703674560546875,-0.2847142815589905,-0.6576697826385498,0.008917861618101597
1788880991870706000,0.713705810546875,0.325019896030426,-0.36136937141418457,-0.06569698452949524
1788880991880735700,0.72373583984375,0.5302966237068176,-0.23002654314041138,-0.20925548672676086
1788880991890765600,0.733765625,0.5296865105628967,-0.28384077548980713,-0.20907466113567352
1788880991900795600,0.743795654296875,0.5412829518318176,-0.2659270167350769,0.0025595640763640404
1788880991910825700,0.75382568359375,0.4114360213279724,-0.17720140516757965,0.2042253017425537
1788880991920855800,0.763855712890625,0.3659540116786957,-0.019905798137187958,0.31252622604370117
1788880991930886000,0.773885986328125,0.31538084149360657,0.22879616916179657,0.3417855501174927
1788880991940915700,0.783915771484375,0.2661142349243164,0.3879658281803131,0.2836644649505615
1788880991950945500,0.793945556640625,0.1909867376089096,0.48701387643814087,0.1669892519712448
1788880991960975600,0.8039755859375,0.083328977227211,0.5396235585212708,0.01895531453192234
1788880991971005700,0.814005615234375,-0.031261514872312546,0.47324851155281067,-0.09052963554859161
1788880991981035800,0.824035888671875,-0.14628663659095764,0.24862845242023468,-0.18374133110046387
1788880991991066600,0.834066650390625,-0.22417664527893066,-0.001359277404844761,-0.26599812507629395
1788880992001096700,0.8440966796875,-0.308095246553421,-0.04128725081682205,-0.26968473196029663
1788880992011126800,0.854126708984375,-0.2796556055545807,0.0030301446095108986,-0.307015597820282
1788880992021156900,0.864156982421875,-0.1403573751449585,0.06162448227405548,-0.368730366230011
1788880992031187000,0.87418701171875,-0.023661918938159943,0.045457761734724045,-0.4299015700817108
1788880992041216500,0.884216552734375,0.03669223561882973,-0.05006689578294754,-0.46402838826179504
1788880992051246600,0.89424658203125,0.07990388572216034,-0.18276634812355042,-0.48197969794273376
1788880992061276700,0.904276611328125,0.13151808083057404,-0.2627203166484833,-0.4770413935184479
1788880992071306800,0.914306640625,0.16791683435440063,-0.17969359457492828,-0.46920478343963623
1788880992081336800,0.9243369140625,0.17421361804008484,0.06179599091410637,-0.3768244981765747
1788880992091366700,0.93436669921875,0.13372397422790527,0.02395806275308132,-0.2788119316101074
1788880992101396700,0.944396728515625,0.09966906905174255,-0.11462324857711792,-0.17532441020011902
1788880992111427800,0.954427734375,0.09896839410066605,-0.27230581641197205,-0.09888236969709396
1788880992121458000,0.9644580078125,0.1277875155210495,-0.3473707437515259,-0.02593892253935337
1788880992131487500,0.974487548828125,0.12549853324890137,-0.2679171860218048,0.023791614919900894
1788880992141517600,0.984517578125,0.059652410447597504,-0.08189273625612259,0.03991119563579559
1788880992151547600,0.994547607421875,-0.016742493957281113,0.11462298780679703,0.07128376513719559
1788880992161577700,1.00457763671875,-0.039801742881536484,0.17292410135269165,0.10688996315002441
1788880992171607800,1.01460791015625,-0.023811589926481247,0.10828252881765366,0.16585874557495117
1788880992181638000,1.024637939453125,0.004250937607139349,0.057802580296993256,0.2650074362754822
1788880992191667700,1.034667724609375,0.012830577790737152,-0.03809971362352371,0.38443368673324585
1788880992201697800,1.04469775390625,-0.03948375955224037,-0.07203717529773712,0.4783362150192261
1788880992211727600,1.0547275390625,-0.07473735511302948,-0.08945238590240479,0.47968217730522156
1788880992221758700,1.0647587890625,-0.08425336331129074,-0.06058318540453911,0.4191719591617584
1788880992231788500,1.07478857421875,-0.07107950001955032,0.11537826061248779,0.31328919529914856
1788880992241818600,1.084818603515625,-0.055443815886974335,0.258113294839859,0.18834887444972992
1788880992251848700,1.0948486328125,-0.06580884009599686,0.2818966507911682,0.11991655081510544
1788880992261878800,1.104878662109375,-0.07553363591432571,0.24967055022716522,0.12349184602499008
1788880992271908900,1.114908935546875,-0.07473256438970566,0.1926533430814743,0.15865568816661835
1788880992281938700,1.124938720703125,-0.09926906228065491,0.13768862187862396,0.17481228709220886
1788880992291968800,1.13496875,-0.11525468528270721,0.12956438958644867,0.12373285740613937
1788880992301998600,1.14499853515625,-0.12710948288440704,0.11800520122051239,0.046903859823942184
1788880992312028700,1.155028564453125,-0.11289326101541519,0.00830746442079544,0.01661066897213459
1788880992322058800,1.165058837890625,-0.074688620865345,-0.11265890300273895,0.03291933238506317
1788880992332089600,1.175089599609375,-0.01044385228306055,-0.17515237629413605,0.04634645953774452
1788880992342119700,1.18511962890625,0.029162412509322166,-0.17475396394729614,0.10920025408267975
1788880992352149200,1.195149169921875,0.0638764500617981,-0.055024903267621994,0.2008228451013565
1788880992362179300,1.205179443359375,0.0891924574971199,0.06285806000232697,0.27953070402145386
1788880992372209400,1.21520947265625,0.07268192619085312,0.14417767524719238,0.3338133990764618
1788880992382239200,1.2252392578125,0.03952477127313614,0.2174212634563446,0.35182833671569824
1788880992392269300,1.235269287109375,0.0005137237603776157,0.23221087455749512,0.3499060869216919
1788880992402299400,1.24529931640625,-0.017247695475816727,0.1405579149723053,0.3108811676502228
1788880992412329500,1.25532958984375,0.0032581111881881952,0.012207929976284504,0.2495323270559311
1788880992422359600,1.265359619140625,0.011488877236843109,-0.038603316992521286,0.18427103757858276
1788880992432389400,1.275389404296875,-0.028711538761854172,-0.04963413253426552,0.14998523890972137
1788880992442420200,1.285420166015625,-0.08008445054292679,-0.040708016604185104,0.12861603498458862
1788880992452450300,1.2954501953125,-0.09145241975784302,-0.018862104043364525,0.09306203573942184
1788880992462480400,1.30548046875,-0.06502161175012589,0.019360382109880447,0.03856523707509041
1788880992472510500,1.315510498046875,-0.06602029502391815,0.041918687522411346,-0.02310718409717083
1788880992482540300,1.325540283203125,-0.07663752138614655,0.06065509095788002,-0.06456167995929718
1788880992492570400,1.3355703125,-0.09653826057910919,0.06391692906618118,-0.059465192258358
1788880992502600400,1.345600341796875,-0.11486000567674637,-0.016626114025712013,-0.029576268047094345
1788880992512630500,1.355630615234375,-0.12458933144807816,-0.21480843424797058,0.03368020057678223
1788880992522660400,1.365660400390625,-0.10768518596887589,-0.35065680742263794,0.12962085008621216
1788880992532690200,1.375690185546875,-0.07959309965372086,-0.40805378556251526,0.2131282538175583
1788880992542721300,1.38572119140625,-0.06721339374780655,-0.4209269881248474,0.2746898829936981
1788880992552751400,1.39575146484375,-0.027715517207980156,-0.2766140103340149,0.259981244802475
1788880992562781400,1.405781494140625,0.019532155245542526,-0.09478163719177246,0.2136414498090744
1788880992572811300,1.415811279296875,0.04946209117770195,0.04818323999643326,0.15861546993255615
1788880992582841300,1.42584130859375,-0.038415830582380295,-0.016682308167219162,0.13396260142326355
1788880992592871400,1.435871337890625,-0.08769496530294418,-0.29925063252449036,0.10104698687791824
1788880992602901500,1.445901611328125,-0.056891776621341705,-0.46917200088500977,-0.011599131859838963
1788880992612931300,1.455931396484375,0.02190023846924305,-0.4234465956687927,-0.1503538191318512
1788880992622961400,1.46596142578125,0.06136775389313698,-0.2650817334651947,-0.2139120250940323
1788880992632991200,1.4759912109375,0.06473265588283539,-0.10792993009090424,-0.21999788284301758
1788880992643022300,1.486022216796875,0.11306024342775345,0.0832461565732956,-0.1851101964712143
1788880992653052400,1.496052490234375,0.17025242745876312,0.3167393207550049,-0.09896466135978699
1788880992663082200,1.506082275390625,0.19649948179721832,0.4882112145423889,0.05149221792817116
1788880992673112300,1.5161123046875,0.14468128979206085,0.4099859297275543,0.15585723519325256
1788880992683142400,1.526142333984375,0.05729604512453079,0.07644949853420258,0.194547638297081
1788880992693172500,1.53617236328125,0.0769464448094368,-0.1875419318675995,0.26065370440483093
1788880992703202300,1.546202392578125,0.1698574721813202,-0.1810145229101181,0.3421749174594879
1788880992713232400,1.556232421875,0.24292130768299103,-0.12975187599658966,0.48786288499832153
1788880992723263200,1.56626318359375,0.3296721875667572,-0.036545492708683014,0.7002936601638794
1788880992733293300,1.576293212890625,0.4715624749660492,0.047919854521751404,0.8601975440979004
1788880992743323400,1.586323486328125,0.5868544578552246,0.10989081114530563,0.9008874893188477
1788880992753353500,1.596353515625,0.6456072330474854,0.18498343229293823,0.8027942180633545
1788880992763383300,1.60638330078125,0.5743628740310669,0.17477872967720032,0.5976902842521667
1788880992773413400,1.616413330078125,0.4236980080604553,0.11384134739637375,0.37904584407806396
1788880992783443500,1.626443359375,0.28836309909820557,0.13995550572872162,0.1637207567691803
1788880992793473300,1.636473388671875,0.2566267251968384,0.2533465027809143,-0.021042434498667717
1788880992803503400,1.64650341796875,0.31901606917381287,0.33839643001556396,-0.13050740957260132
1788880992813534200,1.6565341796875,0.41508615016937256,0.33204078674316406,-0.14345836639404297
1788880992823564300,1.666564208984375,0.4938123822212219,0.1765715777873993,-0.12287957966327667
1788880992833594400,1.676594482421875,0.5400562882423401,-0.030072947964072227,-0.14366289973258972
1788880992843624400,1.68662451171875,0.4534870684146881,-0.21566864848136902,-0.23697073757648468
1788880992853654300,1.696654296875,0.3220190405845642,-0.331632524728775,-0.34753960371017456
1788880992863684400,1.706684326171875,0.21145685017108917,-0.4203765094280243,-0.48155197501182556
1788880992873714400,1.71671435546875,0.07552911341190338,-0.40033888816833496,-0.6855266690254211
1788880992883744300,1.726744140625,-0.02516074664890766,-0.2805964946746826,-0.8721021413803101
1788880992893774300,1.7367744140625,-0.7264477610588074,-0.43361401557922363,-1.019370198249817
1788880992903805200,1.74680517578125,-0.9481204748153687,-0.13023149967193604,-1.1758266687393188
1788880992913835300,1.756835205078125,-0.8709303736686707,-0.06760220974683762,-1.5389840602874756
1788880992923865300,1.766865234375,-0.3438678979873657,-0.5817909836769104,-2.112121820449829
1788880992933895400,1.7768955078125,0.48918992280960083,-0.6670419573783875,-2.331240653991699
1788880992943925500,1.786925537109375,1.3071234226226807,-0.8005808591842651,-2.355302095413208
1788880992953955300,1.796955322265625,1.852612018585205,-1.2256360054016113,-2.3325142860412598
1788880992963985400,1.8069853515625,2.088651418685913,-1.6330591440200806,-2.272946357727051
1788880992974015200,1.81701513671875,2.115183115005493,-1.7029529809951782,-2.176815986633301
1788880992984045300,1.82704541015625,2.0101847648620605,-1.488903284072876,-2.085637331008911
1788880992994076200,1.837076171875,1.797629714012146,-1.369561791419983,-2.027830123901367
1788880993004106200,1.847106201171875,1.4938082695007324,-1.4519338607788086,-2.030097246170044
1788880993014136300,1.85713623046875,1.1298772096633911,-1.8610526323318481,-2.0872886180877686
1788880993024166400,1.86716650390625,0.938521683216095,-2.647329568862915,-2.1657023429870605
1788880993034196500,1.877196533203125,0.9307263493537903,-3.3629140853881836,-2.1962485313415527
1788880993044226300,1.887226318359375,1.0005027055740356,-4.0160627365112305,-2.249687433242798
1788880993054256400,1.89725634765625,1.0306657552719116,-4.21826171875,-2.268885374069214
1788880993064286500,1.907286376953125,1.0572741031646729,-4.255499362945557,-2.1023900508880615
1788880993074316300,1.91731640625,0.8477648496627808,-4.034143924713135,-1.7804781198501587
1788880993084347100,1.92734716796875,0.5166130065917969,-3.4058992862701416,-1.3457629680633545
1788880993094377200,1.937377197265625,0.38003042340278625,-2.6632349491119385,-0.852756142616272
1788880993104407300,1.9474072265625,0.44916635751724243,-2.0800862312316895,-0.35989877581596375
1788880993114437400,1.957437255859375,0.5965603590011597,-1.884161114692688,0.005615807604044676
1788880993124467500,1.967467529296875,0.6632565259933472,-2.140937566757202,0.1565411388874054
1788880993134497300,1.977497314453125,0.5998549461364746,-2.6843321323394775,0.09216028451919556
1788880993144527400,1.98752734375,0.4907638728618622,-3.3134734630584717,-0.09584982693195343
1788880993154557400,1.997557373046875,0.4211059510707855,-3.9727067947387695,-0.27712109684944153
1788880993164587300,2.007587158203125,0.3988320827484131,-4.531896591186523,-0.3743658661842346
1788880993174618400,2.017618408203125,0.46930330991744995,-4.756983757019043,-0.32005682587623596
1788880993184648200,2.027648193359375,0.6849855184555054,-4.506429195404053,-0.05453115329146385
1788880993194678300,2.03767822265625,1.1744776964187622,-4.0622711181640625,0.5358578562736511
1788880993204708400,2.047708251953125,1.8509174585342407,-4.130051136016846,1.3935868740081787
1788880993214738400,2.057738525390625,2.4764280319213867,-4.494075775146484,2.310183048248291
1788880993224768500,2.0677685546875,2.904994249343872,-4.648693561553955,3.0152831077575684
1788880993234798300,2.07779833984375,3.135950803756714,-4.280402660369873,3.1714248657226562
1788880993244828400,2.087828369140625,3.1802473068237305,-3.830353021621704,2.7653026580810547
1788880993254859500,2.097859619140625,3.252192974090576,-3.4600932598114014,2.046034097671509
1788880993264889300,2.107889404296875,3.397700309753418,-3.4285216331481934,1.3778069019317627
1788880993274919200,2.117919189453125,3.9676897525787354,-3.442514181137085,0.9198814034461975
1788880993284949200,2.12794921875,4.7268595695495605,-3.420952081680298,0.7293229103088379
1788880993294979300,2.137979248046875,5.381972789764404,-3.335543632507324,0.753292977809906
1788880993305009400,2.148009521484375,5.691004753112793,-2.934889316558838,0.7941847443580627
1788880993315039500,2.15803955078125,5.896672248840332,-2.6257388591766357,0.7804787755012512
1788880993325069300,2.1680693359375,6.161256313323975,-2.5780293941497803,0.8045436143875122
1788880993335100400,2.178100341796875,6.433103084564209,-2.608976125717163,0.9316208958625793
1788880993345130500,2.188130615234375,6.8913254737854,-3.1745426654815674,0.901545524597168
1788880993355164200,2.1981640625,7.359859943389893,-4.034955024719238,0.8519018292427063
1788880993365194000,2.208194091796875,7.710114479064941,-4.900376796722412,1.0073401927947998
1788880993375224000,2.21822412109375,7.938085079193115,-5.523410320281982,1.3021084070205688
1788880993385254100,2.228254150390625,8.08781909942627,-5.817545413970947,1.6398749351501465
1788880993395284200,2.2382841796875,8.170461654663086,-5.74532413482666,2.1268467903137207
1788880993405314000,2.24831396484375,8.273175239562988,-5.127763271331787,2.66207218170166
1788880993415345000,2.258344970703125,8.420097351074219,-4.198362827301025,3.028871774673462
1788880993425375000,2.268375,8.458351135253906,-3.084275960922241,3.2760097980499268
1788880993435405000,2.278405029296875,8.136739730834961,-1.7864234447479248,3.453280448913574
1788880993445435100,2.28843505859375,7.477004051208496,-0.6715860962867737,3.5955464839935303
1788880993455465000,2.29846484375,6.613202095031738,0.02906334213912487,3.7509665489196777
1788880993465495000,2.3084951171875,5.523046493530273,0.6803686618804932,4.088396072387695
1788880993475525000,2.318525146484375,4.215366840362549,0.9067946076393127,4.77395486831665
1788880993485555200,2.32855517578125,2.916304588317871,0.7368532419204712,5.381368637084961
1788880993495586000,2.3385859375,1.6111301183700562,0.49363207817077637,5.3898701667785645
1788880993505616000,2.348615966796875,0.41669681668281555,0.3344043493270874,5.163905620574951
1788880993515646000,2.35864599609375,-0.6294594407081604,0.36685097217559814,4.686562538146973
1788880993525676000,2.368676025390625,-1.4071218967437744,0.3432665467262268,4.025943756103516
1788880993535706000,2.3787060546875,-1.9928767681121826,0.3722310960292816,3.0800869464874268
1788880993545739300,2.3887392578125,-2.551237106323242,0.8392747044563293,2.3270201683044434
1788880993555769000,2.39876904296875,-2.9970242977142334,1.2124797105789185,1.9067026376724243
1788880993565799000,2.408798828125,-3.2827558517456055,1.1453601121902466,1.5395352840423584
1788880993575829000,2.4188291015625,-3.6185996532440186,0.734251856803894,1.1499348878860474
1788880993585859000,2.428859130859375,-3.922750949859619,0.24472559988498688,0.6731389760971069
1788880993595889200,2.43888916015625,-4.105367660522461,-0.36266687512397766,0.04785913601517677
1788880993605919200,2.448919189453125,-4.173254489898682,-1.0213449001312256,-0.6888202428817749
1788880993615949000,2.458948974609375,-3.9899814128875732,-1.583984613418579,-1.2523866891860962
1788880993625980200,2.468980224609375,-3.5751891136169434,-2.0470428466796875,-1.6742420196533203
1788880993636010200,2.47901025390625,-3.2381575107574463,-2.707064390182495,-1.882185935974121
1788880993646040000,2.4890400390625,-3.204698085784912,-3.1879467964172363,-1.866220474243164
1788880993656070000,2.49906982421875,-3.2943434715270996,-3.240417003631592,-1.93621826171875
1788880993666100000,2.509099853515625,-3.270350694656372,-2.8950986862182617,-2.1741397380828857
1788880993676130000,2.519130126953125,-3.11226224899292,-2.2626254558563232,-2.47605037689209
1788880993686160100,2.52916015625,-2.988713026046753,-1.663725733757019,-2.7096080780029297
1788880993696191000,2.53919091796875,-2.975713014602661,-1.2577556371688843,-2.5420784950256348
1788880993706221000,2.549220947265625,-3.0188019275665283,-1.0847419500350952,-2.1251533031463623
1788880993716251100,2.559251220703125,-3.0551626682281494,-1.158097743988037,-1.741807222366333
1788880993726281200,2.56928125,-2.8989219665527344,-1.094611406326294,-1.4218480587005615
1788880993736311000,2.57931103515625,-2.5292813777923584,-0.648916482925415,-0.9876309037208557
1788880993746340900,2.5893408203125,-2.0729942321777344,0.15223826467990875,-0.7101318836212158
1788880993756371000,2.599370849609375,-1.6225026845932007,1.0257843732833862,-0.4622059762477875
1788880993766401000,2.609401123046875,-1.3424403667449951,2.0190529823303223,-0.4956212043762207
1788880993776432000,2.61943212890625,-1.3849796056747437,2.6975314617156982,-0.5562243461608887
1788880993786462000,2.6294619140625,-1.6489832401275635,3.2174012660980225,-0.584882378578186
1788880993796492000,2.639491943359375,-1.9791492223739624,3.408267021179199,-0.6509702801704407
1788880993806522000,2.649522216796875,-2.072019100189209,3.2977049350738525,-0.6077855825424194
1788880993816552200,2.65955224609375,-2.034928798675537,3.1055641174316406,-0.6509053111076355
1788880993826582000,2.66958203125,-1.726203203201294,2.8333206176757812,-0.7981584072113037
1788880993836612000,2.679612060546875,-1.6049185991287231,2.856325626373291,-1.1190820932388306
1788880993846643000,2.689642822265625,-1.3594518899917603,2.986006498336792,-1.299483299255371
1788880993856673000,2.699673095703125,-1.911269187927246,3.636382579803467,-1.814292550086975
1788880993866703000,2.709703125,-1.941692590713501,3.6879794597625732,-2.1185922622680664
1788880993876733200,2.719733154296875,-1.5566391944885254,3.3176980018615723,-1.4621849060058594
1788880993886763000,2.729762939453125,-1.24553382396698,2.738393545150757,-0.8596689105033875
1788880993896793000,2.73979296875,-1.9455389976501465,2.2827060222625732,-1.0594403743743896
1788880993906823200,2.7498232421875,-2.7798731327056885,2.2010955810546875,-0.9821293354034424
1788880993916854000,2.75985400390625,-2.796926259994507,2.311211585998535,-1.0181258916854858
1788880993926884000,2.769884033203125,-2.351165533065796,1.6645365953445435,-0.8686885237693787
1788880993936914000,2.779913818359375,-1.5713335275650024,1.0027709007263184,-0.6192198395729065
1788880993946944000,2.789944091796875,-0.8166074752807617,0.6388044357299805,-0.2305607795715332
1788880993956974000,2.79997412109375,-0.6913542151451111,0.4300832152366638,0.04609265923500061
1788880993967004200,2.810004150390625,-1.0314518213272095,0.18620343506336212,0.010095776990056038
1788880993977034000,2.820033935546875,-1.3302265405654907,0.21361029148101807,-0.18958696722984314
1788880993987065000,2.830065185546875,-1.552618384361267,0.2676929533481598,-0.6605044007301331
1788880993997095200,2.84009521484375,-1.577131986618042,0.6997575759887695,-1.0059760808944702
1788880994007125200,2.850125244140625,-1.6033440828323364,1.197416067123413,-1.4753248691558838
1788880994017155000,2.860155029296875,-1.5552716255187988,1.6594891548156738,-1.8866491317749023
1788880994027185000,2.870184814453125,-1.063463807106018,1.5555648803710938,-2.1085140705108643
1788880994037215000,2.880215087890625,-0.29837605357170105,1.833270788192749,-2.0855178833007812
1788880994047245000,2.8902451171875,0.7682521939277649,1.570955514907837,-1.947569727897644
1788880994057276000,2.90027587890625,1.4890286922454834,0.5581708550453186,-1.691582441329956
1788880994067306000,2.910305908203125,1.7311582565307617,-1.0829662084579468,-1.5436209440231323
1788880994077336000,2.920336181640625,1.8871878385543823,-2.666551351547241,-1.4689126014709473
1788880994087366100,2.9303662109375,2.225184679031372,-4.090603351593018,-1.3520991802215576
1788880994097396200,2.940396240234375,2.4200589656829834,-5.125768184661865,-1.2475711107254028
1788880994107426000,2.950426025390625,2.2857162952423096,-5.554116249084473,-1.1659654378890991
1788880994117456000,2.960455810546875,1.966640830039978,-5.673150062561035,-1.4166972637176514
1788880994127487000,2.970487060546875,1.8625138998031616,-5.341157913208008,-1.5122277736663818
1788880994137517000,2.98051708984375,2.1339030265808105,-4.7982306480407715,-1.3885128498077393
1788880994147547000,2.990546875,2.379788637161255,-4.5147480964660645,-0.8221785426139832
1788880994157577000,3.000576904296875,2.4175961017608643,-4.56824254989624,0.11277768015861511
1788880994167607000,3.01060693359375,2.086883544921875,-6.18979549407959,1.3367862701416016
1788880994177637000,3.02063720703125,1.6932783126831055,-7.356295585632324,2.6288700103759766
1788880994187667200,3.030667236328125,1.3486958742141724,-7.1194891929626465,3.6985816955566406
1788880994197698000,3.040697998046875,1.2025668621063232,-4.83825159072876,3.377755880355835
1788880994207728000,3.05072802734375,1.3977640867233276,-3.787780284881592,2.016361951828003
1788880994217758200,3.06075830078125,1.6712672710418701,-4.11253023147583,1.0617096424102783
1788880994227788000,3.0707880859375,1.7600247859954834,-3.9315295219421387,0.7489176392555237
1788880994237818000,3.080818115234375,1.554695963859558,-3.568525552749634,0.5568451285362244
1788880994247848000,3.090847900390625,1.2192471027374268,-2.9039175510406494,0.49294260144233704
1788880994257879000,3.100879150390625,1.0052884817123413,-2.152623414993286,0.6396909952163696
1788880994267909000,3.1109091796875,0.885628879070282,-1.8292286396026611,0.788796067237854
1788880994277939200,3.120939208984375,0.7680833339691162,-1.6339752674102783,1.0271186828613281
1788880994287969000,3.130968994140625,0.726844847202301,-1.426439642906189,1.2594128847122192
1788880994297999000,3.1409990234375,0.8248952031135559,-1.1588423252105713,1.661105990409851
1788880994308029200,3.151029296875,0.8973659873008728,-0.6807242035865784,2.2245588302612305
1788880994318059000,3.16105908203125,0.7911021113395691,-0.42653214931488037,2.6603031158447266
1788880994328089900,3.17108984375,0.6844358444213867,-0.902353823184967,2.8282430171966553
1788880994338120000,3.181119873046875,0.6084764003753662,-1.9173617362976074,2.8981008529663086
1788880994348150300,3.191150390625,0.6008543968200684,-3.1721127033233643,2.879136085510254
1788880994358180400,3.201180419921875,0.6250510811805725,-4.739847660064697,2.5680363178253174
1788880994368210200,3.211210205078125,0.3856491446495056,-6.25529670715332,2.072464942932129
1788880994378240000,3.221239990234375,-0.028751753270626068,-7.264899730682373,1.4538947343826294
1788880994388271000,3.23127099609375,-0.4232015907764435,-7.534433364868164,0.7344047427177429
1788880994398301200,3.24130126953125,-0.7384766936302185,-8.288338661193848,0.04302789270877838
1788880994408331300,3.251331298828125,-1.1275709867477417,-8.535284996032715,-0.4130634665489197
1788880994418361000,3.261361083984375,-1.4428482055664062,-8.601760864257812,-0.8158165216445923
1788880994428391200,3.27139111328125,-1.477892518043518,-8.159980773925781,-1.0845084190368652
1788880994438421200,3.281421142578125,-0.9235911965370178,-6.573302745819092,-0.8634969592094421
1788880994448451300,3.291451416015625,-0.04506334662437439,-3.575042963027954,-0.5822415947914124
1788880994458482200,3.301482177734375,0.901393711566925,-1.0334724187850952,-0.09553185105323792
1788880994468512300,3.31151220703125,1.6920194625854492,0.5200487971305847,0.40732356905937195
1788880994478542000,3.3215419921875,2.1640217304229736,1.6533141136169434,0.7548077702522278
1788880994488572200,3.331572265625,2.4390196800231934,2.1569783687591553,0.9313598871231079
1788880994498602200,3.341602294921875,2.5115129947662354,1.6497139930725098,0.8947201371192932
1788880994508632000,3.351632080078125,2.2497668266296387,1.1575901508331299,0.8816000819206238
1788880994518663200,3.3616630859375,1.4764082431793213,0.44641369581222534,0.803727924823761
1788880994528693200,3.371693359375,0.27186959981918335,0.010783671401441097,0.6563330888748169
1788880994538723300,3.381723388671875,-1.022881031036377,-0.06331878155469894,0.3296782970428467
1788880994548753200,3.391753173828125,-2.0303666591644287,-0.04318581894040108,-0.030732346698641777
1788880994558783200,3.401783203125,-2.703325033187866,0.4726671576499939,-0.3243767321109772
1788880994568813000,3.41181298828125,-2.913717269897461,1.5289667844772339,-0.5260904431343079
1788880994578843100,3.421843017578125,-2.8268332481384277,2.4364511966705322,-0.730950653553009
1788880994588874000,3.4318740234375,-2.6182138919830322,2.971639394760132,-0.9196747541427612
1788880994598904000,3.441904052734375,-2.2889602184295654,3.7333598136901855,-1.0925452709197998
1788880994608934100,3.45193408203125,-1.7039685249328613,5.436280250549316,-1.214993953704834
1788880994618964200,3.461964111328125,-0.6118252873420715,5.833691596984863,-1.7807064056396484
1788880994628994300,3.471994384765625,1.0274670124053955,4.448070526123047,-2.015789747238159
1788880994639024400,3.4820244140625,2.8023123741149902,2.174567461013794,-1.6499875783920288
1788880994649055200,3.49205517578125,4.110870838165283,-0.16875386238098145,-0.8252403736114502
1788880994659085300,3.502085205078125,4.5591020584106445,-1.402664065361023,0.1388321816921234
1788880994669115100,3.512115234375,4.381945610046387,-1.7897305488586426,0.9885408878326416
1788880994679145200,3.522145263671875,4.018157005310059,-2.2002503871917725,1.5999009609222412
1788880994689175000,3.532175048828125,3.582418918609619,-2.6062989234924316,1.9606719017028809
1788880994699205000,3.542205078125,2.843386173248291,-3.376763105392456,1.6468034982681274
1788880994709235200,3.552235107421875,2.2926950454711914,-4.194882392883301,1.0605138540267944
1788880994719266300,3.562266357421875,2.1655499935150146,-4.322434425354004,1.0469980239868164
1788880994729296100,3.572296142578125,2.027777910232544,-4.723556041717529,1.0332151651382446
1788880994739326200,3.582326171875,1.9790008068084717,-3.9910123348236084,0.869188666343689
1788880994749356300,3.592356201171875,2.0870883464813232,-3.2618656158447266,0.7788329124450684
1788880994759386400,3.602386474609375,2.277745485305786,-2.6974129676818848,0.8210472464561462
1788880994769416200,3.612416259765625,2.5258302688598633,-2.0212340354919434,0.9117227792739868
1788880994779447000,3.622447021484375,2.813396453857422,-1.2193914651870728,1.0158973932266235
1788880994789477000,3.63247705078125,3.142110824584961,-0.5275226831436157,0.7836945056915283
1788880994799507200,3.642507080078125,2.3473451137542725,-0.9367725253105164,-0.7541810870170593
1788880994809537300,3.652537353515625,1.2828081846237183,-1.0791480541229248,-2.587409496307373
1788880994819567000,3.662567138671875,1.0104856491088867,-0.10537009686231613,-3.4141886234283447
1788880994829597200,3.67259716796875,0.8989495038986206,0.45010459423065186,-4.086959362030029
1788880994839628300,3.682628173828125,0.7364058494567871,0.4451604187488556,-4.659692287445068
1788880994849658400,3.692658447265625,0.483717143535614,0.5896888375282288,-4.730869293212891
1788880994859688200,3.702688232421875,0.041072335094213486,-0.8168115019798279,-3.6340689659118652
1788880994869718000,3.712718017578125,-0.4174840450286865,-1.1853573322296143,-2.3849921226501465
1788880994879748000,3.722748046875,-0.6202789545059204,-0.5722459554672241,-1.5412312746047974
1788880994889778200,3.732778076171875,-0.13918772339820862,0.21638131141662598,-2.1430063247680664
1788880994899809000,3.74280908203125,1.0463980436325073,0.5496194362640381,-4.185532093048096
1788880994909839000,3.752839111328125,0.9288756847381592,-0.04113411903381348,-4.857248783111572
1788880994919869200,3.762869140625,0.26469850540161133,0.9381917119026184,-4.302309989929199
1788880994929899300,3.772899169921875,0.18055406212806702,2.435040235519409,-3.229837417602539
1788880994939929300,3.782929443359375,0.3435951769351959,3.1154205799102783,-2.8162343502044678
1788880994949959200,3.792959228515625,0.25799959897994995,3.344599485397339,-2.781144857406616
1788880994959990300,3.802990234375,0.15415547788143158,3.5563604831695557,-2.782191038131714
1788880994970020400,3.813020263671875,-0.016575781628489494,3.8409652709960938,-2.5945889949798584
1788880994980050200,3.82305029296875,0.03599661588668823,4.1597795486450195,-2.3195993900299072
1788880994990080000,3.833080078125,0.12077515572309494,4.557727336883545,-2.1221392154693604
1788880995000110000,3.843110107421875,0.13959623873233795,5.056718826293945,-1.865560531616211
1788880995010140200,3.85314013671875,0.28598859906196594,5.443691253662109,-1.4868340492248535
1788880995020170200,3.863170166015625,0.6266210079193115,5.77179479598999,-0.8853881359100342
1788880995030201000,3.873201171875,1.123166561126709,5.868646144866943,-0.25929227471351624
1788880995040231200,3.883231201171875,1.5500609874725342,5.7529072761535645,0.36067190766334534
1788880995050261200,3.89326123046875,1.8907325267791748,5.74470329284668,0.8769139647483826
1788880995060291300,3.903291259765625,2.176551103591919,5.305861473083496,1.5132224559783936
1788880995070321200,3.913321044921875,2.3010904788970947,4.661246299743652,2.129481077194214
1788880995080351200,3.923351318359375,2.429875373840332,3.6862356662750244,2.359822988510132
1788880995090382000,3.933382080078125,2.390918731689453,2.662868022918701,2.235891580581665
1788880995100412200,3.943412109375,2.1877663135528564,2.213728189468384,2.104735851287842
1788880995110442200,3.953442138671875,1.8898893594741821,1.640854001045227,2.080273151397705
1788880995120472300,3.963472412109375,1.7258594036102295,0.7681531310081482,2.199786424636841
1788880995130502100,3.973502197265625,1.8529912233352661,-0.20552599430084229,2.4922657012939453
1788880995140532200,3.9835322265625,2.146158218383789,-1.088409185409546,2.727389097213745
1788880995150563300,3.993563232421875,2.271193265914917,-1.6685212850570679,3.0030605792999268
1788880995160593200,4.00359326171875,2.407750129699707,-2.362330436706543,3.37148118019104
1788880995170623200,4.013623291015625,2.4538822174072266,-3.004577159881592,3.867985248565674
1788880995180653000,4.023653076171875,2.2727630138397217,-3.3914783000946045,4.361645698547363
1788880995190683100,4.03368310546875,1.8483773469924927,-3.762882709503174,4.670069694519043
1788880995200713200,4.043713134765625,1.3378772735595703,-4.149986743927002,4.6389665603637695
1788880995210744000,4.053744140625,0.923435389995575,-4.4455180168151855,4.322867393493652
1788880995220774100,4.063774169921875,0.790355384349823,-4.649518013000488,3.912111520767212
1788880995230804200,4.07380419921875,1.0341986417770386,-4.618805408477783,3.3374383449554443
1788880995240834300,4.083834228515625,0.6196570992469788,-4.461808204650879,2.9021217823028564
1788880995250864400,4.093864501953125,0.22475135326385498,-4.487636566162109,3.1626291275024414
1788880995260894200,4.103894287109375,0.3208099603652954,-4.467256546020508,3.6413967609405518
1788880995270925300,4.11392529296875,0.5511635541915894,-3.763467311859131,3.3952884674072266
1788880995280955100,4.123955078125,0.8795619606971741,-2.2339870929718018,2.6230530738830566
1788880995290985200,4.133985107421875,1.1718782186508179,-0.7866336107254028,2.021153688430786
1788880995301015000,4.14401513671875,1.2826266288757324,0.14556652307510376,1.6805174350738525
1788880995311045000,4.154045166015625,0.9803793430328369,0.5994767546653748,1.2842955589294434
1788880995321075200,4.1640751953125,0.7155525088310242,0.6878827810287476,0.925970196723938
1788880995331106300,4.174106201171875,0.7018132209777832,0.6473942399024963,0.6470450758934021
1788880995341136100,4.18413623046875,0.8294476270675659,0.3784242570400238,0.4893622398376465
1788880995351165700,4.194165771484375,1.0445783138275146,-0.026265958324074745,0.5539183020591736
1788880995361195800,4.20419580078125,1.281038522720337,-0.2523387670516968,0.6703789234161377
1788880995371225900,4.214225830078125,1.1684989929199219,-0.1782911717891693,0.7682037353515625
1788880995381255700,4.224255615234375,0.9594189524650574,0.11126447468996048,0.9853736162185669
1788880995391286500,4.23428662109375,0.8050685524940491,0.18243558704853058,1.1784673929214478
1788880995401316600,4.244316650390625,0.8043012619018555,0.22165648639202118,0.9934672117233276
1788880995411346700,4.2543466796875,0.7400205731391907,0.22429248690605164,0.6420383453369141
1788880995421376800,4.264376708984375,0.8338415622711182,0.5015552639961243,0.30731654167175293
1788880995431406800,4.27440673828125,1.124872088432312,0.95182865858078,-0.11733541637659073
1788880995441436700,4.284436767578125,1.1488863229751587,0.2509629726409912,-0.755547821521759
1788880995451467800,4.2944677734375,1.0258249044418335,-0.7262560129165649,-1.7157942056655884
1788880995461497900,4.304497802734375,0.6586106419563293,0.46154579520225525,-2.488079309463501
1788880995471528000,4.31452783203125,0.5941286087036133,2.29229998588562,-2.8868062496185303
1788880995481557500,4.3245576171875,0.33064690232276917,4.224275588989258,-3.350179433822632
1788880995491587600,4.334587646484375,-0.014999722130596638,5.786498069763184,-3.647754669189453
1788880995501617700,4.34461767578125,-0.14973756670951843,6.1601457595825195,-3.9084372520446777
1788880995511648800,4.354648681640625,-0.04222441837191582,5.617733955383301,-4.18760871887207
1788880995521678600,4.3646787109375,0.24680152535438538,4.430019855499268,-4.212738990783691
1788880995531708700,4.374708740234375,0.8906310796737671,2.0338006019592285,-2.2389655113220215
1788880995541738800,4.38473876953125,1.2532074451446533,0.062309712171554565,-1.3075239658355713
1788880995551768800,4.394768798828125,1.678682804107666,-1.011152744293213,-1.64280366897583
1788880995561799000,4.404798828125,2.121049642562866,-1.8536722660064697,-2.6538548469543457
1788880995571829800,4.414829833984375,1.8758078813552856,-1.1768285036087036,-3.5821452140808105
1788880995581859800,4.42485986328125,0.7613125443458557,0.54715895652771,-3.9256656169891357
1788880995591889700,4.4348896484375,-0.6731799840927124,2.0656659603118896,-3.8987255096435547
1788880995601919700,4.444919677734375,-1.4476640224456787,2.8832943439483643,-3.7802047729492188
1788880995611949600,4.454949462890625,-1.4164965152740479,3.003800630569458,-3.7807726860046387
1788880995621979600,4.464979736328125,-1.18137526512146,2.87518572807312,-3.6152169704437256
1788880995632010800,4.4750107421875,-0.9428290724754333,2.3283846378326416,-3.2040820121765137
1788880995642040800,4.485040771484375,-0.7929487228393555,1.5547456741333008,-2.4962708950042725
1788880995652070700,4.495070556640625,-0.7447261214256287,0.8021515607833862,-1.7775987386703491
1788880995662100700,4.505100830078125,-0.7255566716194153,0.04857339337468147,-1.1355968713760376
1788880995672130800,4.515130859375,-0.6175481677055359,-0.6229069828987122,-0.7711643576622009
1788880995682160600,4.52516064453125,-0.45096343755722046,-1.0259404182434082,-0.6237802505493164
1788880995692191700,4.535191650390625,-0.38492104411125183,-1.2795519828796387,-0.366788387298584
1788880995702221600,4.5452216796875,-0.4077017307281494,-1.4115054607391357,-0.04959764704108238
1788880995712251600,4.555251708984375,-0.4417979121208191,-1.3242064714431763,0.22375932335853577
1788880995722281700,4.56528173828125,-0.6521466374397278,-0.9860585331916809,0.5530056357383728
1788880995732311800,4.575311767578125,-0.7486904859542847,-0.7852293252944946,0.6379628777503967
1788880995742341600,4.585341552734375,-0.777144193649292,-0.5098984241485596,0.5577037334442139
1788880995752372700,4.595372802734375,-0.6090644001960754,-0.3927174508571625,0.33564645051956177
1788880995762402800,4.60540283203125,-0.36442217230796814,-0.13761645555496216,0.016141418367624283
1788880995772433000,4.615432861328125,-0.20133018493652344,0.35750752687454224,-0.21795442700386047
1788880995782462700,4.625462646484375,-0.21954406797885895,1.0490484237670898,-0.23895426094532013
1788880995792492500,4.635492431640625,-0.2805941104888916,1.5085794925689697,-0.1360534429550171
1788880995802522600,4.645522705078125,-0.29827484488487244,1.555389642715454,0.08110816776752472
1788880995812553700,4.6555537109375,-0.24368083477020264,1.0842986106872559,0.3678922653198242
1788880995822583600,4.66558349609375,-0.000010120012120751198,0.5887391567230225,0.6376230716705322
1788880995832613600,4.675613525390625,-0.004216849338263273,0.1399051696062088,0.7974966168403625
1788880995842643700,4.685643798828125,-0.13595916330814362,-0.0008250473183579743,0.7967600226402283
1788880995852673800,4.695673828125,-0.23200073838233948,0.06115896254777908,0.6462514400482178
1788880995862704600,4.70570458984375,-0.2633352279663086,0.2492833286523819,0.47829973697662354
1788880995872734700,4.715734619140625,-0.22758150100708008,0.3129033148288727,0.4061887860298157
1788880995882764800,4.725764892578125,-0.11455507576465607,0.12404818087816238,0.5145541429519653
1788880995892794600,4.735794677734375,-0.04486973583698273,0.0021374530624598265,0.6171204447746277
1788880995902824700,4.74582470703125,-0.026523219421505928,0.04791266471147537,0.6982187628746033
1788880995912854800,4.755854736328125,-0.039628103375434875,0.2033664435148239,0.823677122592926
1788880995922885600,4.7658857421875,-0.08148207515478134,0.3666515052318573,1.0019302368164062
1788880995932915700,4.775915771484375,-0.10441615432500839,0.47424080967903137,1.1874505281448364
1788880995942945800,4.78594580078125,-0.10423612594604492,0.47002342343330383,1.313072681427002
1788880995952976000,4.795975830078125,-0.11780546605587006,0.21107682585716248,1.339664340019226
1788880995963005700,4.806005615234375,-0.14759238064289093,-0.1681634485721588,1.3430765867233276
1788880995973035800,4.816035888671875,-0.14542058110237122,-0.49451011419296265,1.3525841236114502
1788880995983067000,4.82606689453125,-0.15436427295207977,-0.761602520942688,1.3720155954360962
1788880995993096700,4.8360966796875,-0.24441799521446228,-0.9400644302368164,1.4133896827697754
1788880996003126500,4.84612646484375,-0.29660823941230774,-1.1148903369903564,1.460263967514038
1788880996013156600,4.856156494140625,-0.29570889472961426,-1.2144466638565063,1.512186050415039
1788880996023186700,4.866186767578125,-0.20183777809143066,-1.3583229780197144,1.5042787790298462
1788880996033216800,4.876216796875,-0.04718349128961563,-1.4549181461334229,1.5005120038986206
1788880996043247600,4.88624755859375,0.0008362325606867671,-1.5095438957214355,1.500489354133606
1788880996053277700,4.896277587890625,-0.11162932217121124,-1.510032057762146,1.4859166145324707
1788880996063307800,4.906307861328125,-0.3401069641113281,-1.4894649982452393,1.4461441040039062
1788880996073337900,4.916337890625,-0.6027542948722839,-1.5029488801956177,1.3348948955535889
1788880996083368000,4.926367919921875,-0.8121315240859985,-1.4487109184265137,1.223573088645935
1788880996093397500,4.9363974609375,-0.7957224249839783,-1.392714500427246,1.1105517148971558
1788880996103428900,4.946428955078125,-0.6155931353569031,-1.3057513236999512,0.9591984748840332
1788880996113458700,4.956458740234375,-0.6828648447990417,-1.043359637260437,0.867016613483429
1788880996123488800,4.96648876953125,-0.8831625580787659,-0.4559384882450104,0.7193083763122559
1788880996133518600,4.9765185546875,-0.843867301940918,0.5547609329223633,0.4008947014808655
1788880996143548700,4.986548583984375,-0.8229503035545349,1.7175590991973877,-0.08246984332799911
1788880996153579800,4.996579833984375,-1.003537654876709,2.393791675567627,-0.5999854207038879
1788880996163609900,5.00660986328125,-1.2847940921783447,2.4838809967041016,-1.0316390991210938
1788880996173639700,5.0166396484375,-1.4766088724136353,2.155282735824585,-1.369727611541748
1788880996183669800,5.026669677734375,-1.496731162071228,1.7585664987564087,-1.6807856559753418
1788880996193699800,5.036699951171875,-1.4639703035354614,1.3813214302062988,-1.8619447946548462
1788880996203729700,5.046729736328125,-1.4140429496765137,0.8968591690063477,-1.840820074081421
1788880996213760500,5.056760498046875,-1.2817381620407104,0.35009676218032837,-1.6215667724609375
1788880996223790600,5.06679052734375,-1.1358948945999146,-0.1990337371826172,-1.2937979698181152
1788880996233820700,5.076820556640625,-0.9546593427658081,-0.7193203568458557,-0.9130908846855164
1788880996243850800,5.086850830078125,-0.8111828565597534,-0.8454047441482544,-0.5361294746398926
1788880996253880800,5.096880859375,-0.7749239206314087,-0.6318482756614685,-0.1736823171377182
1788880996263911700,5.10691162109375,-0.780950665473938,-0.3220861554145813,0.11143198609352112
1788880996273941800,5.116941650390625,-0.7489104270935059,-0.01619255170226097,0.3233373165130615
1788880996283971800,5.126971923828125,-0.6639052629470825,0.16487790644168854,0.3894928991794586
1788880996294002000,5.137001953125,-0.5378972887992859,0.25601208209991455,0.26119643449783325
1788880996304031500,5.147031494140625,-0.4005013406276703,0.33500808477401733,-0.07578051090240479
1788880996314061600,5.1570615234375,-0.2567300498485565,0.23590867221355438,-0.5006154179573059
1788880996324092700,5.1670927734375,-0.11906487494707108,-0.10929213464260101,-0.814039409160614
1788880996334122800,5.177122802734375,0.11744886636734009,-0.6584945321083069,-1.0111676454544067
1788880996344152600,5.187152587890625,0.4630912244319916,-1.369343876838684,-1.1497066020965576
1788880996354178800,5.1971787109375,0.7584229707717896,-2.08670711517334,-1.2074476480484009
1788880996364209000,5.207208984375,0.9521338939666748,-2.5445871353149414,-1.0169789791107178
1788880996374239000,5.217239013671875,1.0319209098815918,-2.526535749435425,-0.6941254734992981
1788880996384270000,5.22727001953125,1.0196317434310913,-2.141087770462036,-0.33872345089912415
1788880996394300000,5.2372998046875,0.9813138842582703,-1.5310063362121582,0.006708236411213875
1788880996404330000,5.247330078125,1.0491727590560913,-0.9494744539260864,0.28564560413360596
1788880996414360000,5.257360107421875,1.2079882621765137,-0.5994916558265686,0.45867782831192017
1788880996424390100,5.26739013671875,1.4005047082901,-0.5146305561065674,0.5440300107002258
1788880996434421000,5.2774208984375,1.6113327741622925,-1.3021444082260132,0.29004406929016113
1788880996444451000,5.287451171875,1.5285923480987549,-2.806548595428467,-0.31775426864624023
1788880996454481000,5.29748095703125,1.1464229822158813,-4.352200984954834,-1.0223398208618164
1788880996464511000,5.307510986328125,0.7682053446769714,-5.36936092376709,-1.5713609457015991
1788880996474541000,5.317541015625,0.48111629486083984,-5.712249279022217,-1.8659251928329468
1788880996484571000,5.32757080078125,0.22697775065898895,-5.39896297454834,-1.9410500526428223
1788880996494602000,5.33760205078125,0.07160521298646927,-4.821602821350098,-2.008089065551758
1788880996504632000,5.347632080078125,-0.03533774986863136,-4.306148529052734,-2.11500883102417
1788880996514662100,5.357662109375,-0.02719167433679104,-3.768862247467041,-2.1269969940185547
1788880996524692000,5.36769189453125,0.06370227783918381,-3.1534790992736816,-2.047171115875244
1788880996534722000,5.37772216796875,0.18451152741909027,-2.5737249851226807,-1.9330922365188599
1788880996544753200,5.387753173828125,0.25735270977020264,-2.2088823318481445,-1.9040923118591309
1788880996554783000,5.397782958984375,0.20080341398715973,-2.0143544673919678,-2.0094990730285645
1788880996564812800,5.407812744140625,0.0662490576505661,-1.79374361038208,-2.1554768085479736
1788880996574843000,5.4178427734375,-0.06060422584414482,-1.6069130897521973,-2.3545122146606445
1788880996584873000,5.427873046875,-0.10633975267410278,-1.302916169166565,-2.479135513305664
1788880996594903000,5.437903076171875,-0.12128514796495438,-0.9027804732322693,-2.5531411170959473
1788880996604934000,5.447933837890625,-0.10697225481271744,-0.625983476638794,-2.71724009513855
1788880996614964000,5.4579638671875,-0.06437286734580994,-0.5028184056282043,-2.964834451675415
1788880996624994000,5.467994140625,0.023798540234565735,-0.2291298508644104,-3.134553909301758
1788880996635024100,5.478024169921875,0.07726895809173584,0.2118571251630783,-3.1245667934417725
1788880996645054000,5.488053955078125,0.04825354740023613,0.5385004878044128,-3.0266199111938477
1788880996655085000,5.4980849609375,-0.0823686420917511,0.7191243171691895,-2.8599681854248047
1788880996665115000,5.508114990234375,-0.26383456587791443,0.6425826549530029,-2.696469306945801
1788880996675145000,5.51814501953125,-0.36565306782722473,0.44745686650276184,-2.5301153659820557
1788880996685175000,5.528175048828125,-0.35915815830230713,0.1638166308403015,-2.323934316635132
1788880996695204900,5.538204833984375,-0.24812538921833038,-0.16740843653678894,-1.950581431388855
1788880996705235000,5.54823486328125,-0.2540266811847687,-0.5192319750785828,-1.5132664442062378
1788880996715266000,5.55826611328125,-0.31644344329833984,-0.6628453731536865,-1.0222152471542358
1788880996725296000,5.568296142578125,-0.38129594922065735,-0.5796953439712524,-0.540796160697937
1788880996735326000,5.578325927734375,-0.41731229424476624,-0.31877264380455017,-0.015988819301128387
1788880996745356000,5.58835595703125,-0.4237635135650635,-0.061401575803756714,0.37365588545799255
1788880996755385900,5.5983857421875,-0.4082562029361725,0.19359903037548065,0.5580438375473022
1788880996765417000,5.6084169921875,-0.3965896964073181,0.38668379187583923,0.537076473236084
1788880996775446800,5.61844677734375,-0.37442126870155334,0.7360876202583313,0.5720502138137817
1788880996785476900,5.628476806640625,-0.365891695022583,1.1860637664794922,0.7234988212585449
1788880996795507000,5.6385068359375,-0.3410201668739319,1.6636847257614136,0.9257014989852905
1788880996805537000,5.648537109375,-0.3136972188949585,1.9991825819015503,1.077039361000061
1788880996815568000,5.65856787109375,-0.252877801656723,2.233538866043091,1.218039870262146
1788880996825598000,5.668597900390625,-0.2049480825662613,2.4614899158477783,1.429569959640503
1788880996835628000,5.6786279296875,-0.18015645444393158,2.5956223011016846,1.7040328979492188
1788880996845658000,5.688658203125,-0.1107022762298584,2.550971746444702,2.007114887237549
1788880996855688200,5.698688232421875,0.00869255792349577,2.434082269668579,2.2964022159576416
1788880996865717800,5.7087177734375,0.0906422883272171,2.2401506900787354,2.52896785736084
1788880996875748900,5.718748779296875,0.2200745791196823,1.9810149669647217,2.6970319747924805
1788880996885779000,5.728779052734375,0.3118763864040375,1.7769896984100342,2.8149783611297607
1788880996895809000,5.73880908203125,0.3612532615661621,1.6878236532211304,2.850431442260742
1788880996905838800,5.7488388671875,0.38928037881851196,1.623828411102295,2.750162124633789
1788880996915869000,5.758868896484375,0.36392202973365784,1.5776922702789307,2.5206856727600098
1788880996925900000,5.768900146484375,0.3070920407772064,1.6573213338851929,2.21683669090271
1788880996935930000,5.77893017578125,0.23439651727676392,1.8219835758209229,1.8918709754943848
1788880996945960000,5.7889599609375,0.20973485708236694,1.8940238952636719,1.6116130352020264
1788880996955990000,5.798989990234375,0.21489739418029785,1.8086600303649902,1.3368240594863892
1788880996966019800,5.809019775390625,0.09988638013601303,1.7501527070999146,1.1697663068771362
1788880996976051200,5.81905126953125,-0.035708729177713394,1.6524847745895386,1.0757663249969482
1788880996986080800,5.829080810546875,-0.12871377170085907,1.5336953401565552,0.9756911396980286
1788880996996110800,5.83911083984375,-0.20876465737819672,1.2243385314941406,0.7774592638015747
1788880997006141000,5.849140869140625,-0.3529684543609619,0.9960874915122986,0.5764100551605225
1788880997016171000,5.8591708984375,-0.5035779476165771,0.9131513237953186,0.29201987385749817
1788880997026201900,5.869201904296875,-0.6442626118659973,0.8087466359138489,-0.07485026866197586
1788880997036232000,5.87923193359375,-0.7405843734741211,0.7415284514427185,-0.46383610367774963
1788880997046262000,5.889261962890625,-0.801186203956604,0.7835848331451416,-0.8050757050514221
1788880997056292000,5.8992919921875,-0.8258749842643738,1.0145727396011353,-1.0697367191314697
1788880997066322200,5.909322265625,-0.8236421942710876,1.1808488368988037,-1.0858842134475708
1788880997076352000,5.91935205078125,-0.753889262676239,1.26920747756958,-0.9249006509780884
1788880997086382800,5.9293828125,-0.6270314455032349,1.20542573928833,-0.7131223678588867
1788880997096413000,5.939412841796875,-0.4342217445373535,1.0411465167999268,-0.49402916431427
1788880997106443000,5.949443115234375,-0.2803690731525421,0.9663420915603638,-0.28288841247558594
1788880997116472800,5.959472900390625,-0.16843055188655853,0.9396708011627197,-0.09468336403369904
1788880997126503000,5.9695029296875,-0.05607818439602852,0.9505330324172974,0.02215190790593624
1788880997136534000,5.979533935546875,0.042149849236011505,0.9974885582923889,0.10468007624149323
1788880997146564000,5.989564208984375,0.0776926651597023,0.9672068357467651,0.16594316065311432
1788880997156594000,5.999593994140625,0.0465557835996151,0.9789750576019287,0.2771330773830414
1788880997166624000,6.0096240234375,0.01050643716007471,0.9710042476654053,0.34977293014526367
1788880997176653800,6.01965380859375,0.08454790711402893,0.9830193519592285,0.2931717038154602
1788880997186685200,6.029685302734375,0.2682655453681946,0.9605481624603271,0.185224711894989
1788880997196714800,6.03971484375,0.45264843106269836,0.8023347854614258,0.09736836701631546
1788880997206744800,6.049744873046875,0.5408664345741272,0.584219753742218,0.09291369467973709
1788880997216775000,6.05977490234375,0.555978536605835,0.14164981245994568,0.20944643020629883
1788880997226805000,6.069804931640625,0.5995616912841797,-0.4346925914287567,0.3211660385131836
1788880997236835800,6.0798359375,0.6456906199455261,-0.8306870460510254,0.462609201669693
1788880997246866000,6.089865966796875,0.691139280796051,-0.9985913634300232,0.6092950105667114
1788880997256896000,6.09989599609375,0.8615847826004028,-1.129598617553711,0.6499764323234558
1788880997266926000,6.109926025390625,1.043878436088562,-1.1113238334655762,0.6079946160316467
1788880997276956200,6.1199560546875,1.1156737804412842,-1.0081710815429688,0.6057221293449402
1788880997286987000,6.129987060546875,1.1884108781814575,-0.9105912446975708,0.5943728089332581
1788880997297016800,6.140016845703125,1.2063075304031372,-0.7736413478851318,0.6157196164131165
1788880997307047000,6.150046875,1.1903702020645142,-0.7475391626358032,0.655046820640564
1788880997317077000,6.160076904296875,1.1863412857055664,-0.988436758518219,0.6382092237472534
1788880997327107000,6.170107177734375,1.1659045219421387,-1.4961057901382446,0.4693664312362671
1788880997337137000,6.180136962890625,1.0200625658035278,-2.4784717559814453,-0.011049188673496246
1788880997347168000,6.19016796875,0.6853448152542114,-3.8799631595611572,-0.8492826223373413
1788880997357198600,6.200198486328125,0.3563282787799835,-4.721432209014893,-1.5212393999099731
1788880997367228400,6.210228515625,0.18490593135356903,-4.9146623611450195,-1.9160956144332886
1788880997377258500,6.220258544921875,0.17970211803913116,-4.605148792266846,-2.0330801010131836
1788880997387288600,6.23028857421875,0.2842727303504944,-4.00363826751709,-1.9509217739105225
1788880997397319700,6.240319580078125,0.3640165627002716,-3.3887689113616943,-1.8031421899795532
1788880997407349500,6.250349609375,0.41158488392829895,-2.8782565593719482,-1.782536268234253
1788880997417379300,6.26037939453125,0.387631356716156,-2.5212130546569824,-1.892442226409912
1788880997427409400,6.270409423828125,0.33893197774887085,-2.3652801513671875,-2.128634214401245
1788880997437439500,6.280439453125,0.32432669401168823,-2.2282910346984863,-2.4367427825927734
1788880997447470300,6.29047021484375,0.4548964202404022,-1.978068470954895,-2.682666063308716
1788880997457500400,6.30050048828125,0.4599151313304901,-1.5176814794540405,-2.8140532970428467
1788880997467530500,6.310530517578125,0.39015257358551025,-0.8951243758201599,-2.7938456535339355
1788880997477560600,6.320560546875,0.4038904905319214,-0.2868373692035675,-2.7516603469848633
1788880997487590700,6.330590576171875,0.46136710047721863,0.09354966133832932,-2.8992183208465576
1788880997497621500,6.34062158203125,0.5070038437843323,0.49999091029167175,-3.1102802753448486
1788880997507651600,6.350651611328125,0.4876415729522705,0.8604801297187805,-3.2989256381988525
1788880997517681400,6.360681396484375,0.40638506412506104,1.1030030250549316,-3.432041883468628
1788880997527711500,6.37071142578125,0.27533063292503357,1.1765254735946655,-3.50885272026062
1788880997537741300,6.3807412109375,0.14474253356456757,1.2521607875823975,-3.4294464588165283
1788880997547772400,6.3907724609375,0.032457008957862854,1.279015064239502,-3.2002241611480713
1788880997557802500,6.400802490234375,0.026008164510130882,1.1771880388259888,-2.75089430809021
1788880997567832600,6.41083251953125,0.10907002538442612,0.9141271114349365,-2.119581699371338
1788880997577862400,6.4208623046875,0.14750663936138153,0.49584731459617615,-1.6697747707366943
1788880997587892500,6.430892578125,0.1315806657075882,0.11683767288923264,-1.303053855895996
1788880997597923600,6.440923583984375,0.14617878198623657,-0.033903904259204865,-0.8180221319198608
1788880997607953700,6.45095361328125,0.14004285633563995,-0.026403112336993217,-0.3273528218269348
1788880997617983500,6.4609833984375,0.12534940242767334,0.10868946462869644,0.056227054446935654
1788880997628013300,6.471013427734375,0.06893672049045563,0.3243434429168701,0.36362773180007935
1788880997638043400,6.48104345703125,0.03374624624848366,0.5294857025146484,0.6009111404418945
1788880997648074500,6.491074462890625,-0.00999004952609539,0.6646680235862732,0.8202922344207764
1788880997658104300,6.501104248046875,-0.009865413419902325,0.8844219446182251,1.1037542819976807
1788880997668134400,6.511134521484375,0.025551965460181236,1.1055415868759155,1.425022840499878
1788880997678164500,6.52116455078125,0.09193311631679535,1.3027845621109009,1.7050590515136719
1788880997688194600,6.531194580078125,0.11313693970441818,1.3783615827560425,1.9115076065063477
1788880997698225400,6.541225341796875,0.14970293641090393,1.1743013858795166,2.0731499195098877
1788880997708255500,6.55125537109375,0.18885114789009094,0.8771398067474365,2.2575981616973877
1788880997718285600,6.56128564453125,0.1985996514558792,0.7018793225288391,2.504303216934204
1788880997728315600,6.571315673828125,0.21211358904838562,0.7400570511817932,2.748903751373291
1788880997738345500,6.581345458984375,0.18317781388759613,0.8963550329208374,3.0147359371185303
1788880997748376300,6.591376220703125,0.13512426614761353,0.6632823944091797,3.177217960357666
1788880997758406400,6.601406494140625,0.126423180103302,0.463251531124115,3.3320655822753906
1788880997768436500,6.6114365234375,0.17762751877307892,0.46644601225852966,3.469407558441162
1788880997778466600,6.621466552734375,0.20615769922733307,0.6692981719970703,3.5731074810028076
1788880997788496400,6.631496337890625,0.25404372811317444,0.9495809674263,3.563396692276001
1788880997798527500,6.641527587890625,0.3786381185054779,1.2713483572006226,3.3398962020874023
1788880997808557600,6.6515576171875,0.3804972767829895,1.5282113552093506,3.068171739578247
1788880997818587600,6.661587646484375,0.37983042001724243,1.9497846364974976,2.864485025405884
1788880997828617500,6.671617431640625,0.38308587670326233,2.286494016647339,2.7128746509552
1788880997838647300,6.681647216796875,0.3233319818973541,2.454592704772949,2.586682081222534
1788880997848678700,6.6916787109375,0.21190613508224487,2.465521812438965,2.4052960872650146
1788880997858708500,6.70170849609375,0.02640843763947487,2.218600273132324,2.1986031532287598
1788880997868738300,6.71173828125,-0.18790997564792633,1.756169319152832,1.9063180685043335
1788880997878768400,6.721768310546875,-0.3530150353908539,1.2965352535247803,1.4919912815093994
1788880997888798500,6.731798583984375,-0.45757314562797546,0.9457817077636719,1.0876775979995728
1788880997898829600,6.74182958984375,-0.5407319664955139,0.9046452045440674,0.7278360724449158
1788880997908859400,6.751859375,-0.6068078875541687,1.1565128564834595,0.45655450224876404
1788880997918889500,6.761889404296875,-0.6199093461036682,1.462736964225769,0.264948308467865
1788880997928919600,6.77191943359375,-0.5909171104431152,1.6526429653167725,0.06887254118919373
1788880997938949600,6.78194970703125,-0.5391409993171692,1.7432982921600342,-0.0990605354309082
1788880997948980500,6.79198046875,-0.5026500821113586,1.7155143022537231,-0.19468852877616882
1788880997959010300,6.80201025390625,-0.4615737497806549,1.5522743463516235,-0.31437817215919495
1788880997969040400,6.812040283203125,-0.5077385902404785,1.366146206855774,-0.4549776315689087
1788880997979070500,6.822070556640625,-0.6371272206306458,1.0947967767715454,-0.5470060706138611
1788880997989100500,6.8321005859375,-0.7103627920150757,0.8041854500770569,-0.5628364682197571
1788880997999131400,6.84213134765625,-0.7182390689849854,0.5651432871818542,-0.4677243232727051
1788880998009161500,6.852161376953125,-0.7039358019828796,0.419948011636734,-0.3688954710960388
1788880998019191600,6.862191650390625,-0.6336213946342468,0.5498996376991272,-0.30190473794937134
1788880998029221600,6.8722216796875,-0.6041389107704163,0.7005106806755066,-0.197813481092453
1788880998039251500,6.88225146484375,-0.643464207649231,0.8320804238319397,-0.09053442627191544
1788880998049282600,6.892282470703125,-0.567857563495636,0.9341256022453308,-0.021152956411242485
1788880998059312600,6.902312744140625,-0.4508052468299866,0.9856827855110168,0.03942996263504028
1788880998069342500,6.912342529296875,-0.29152610898017883,1.015021800994873,0.09571640938520432
1788880998079372300,6.922372314453125,-0.13319240510463715,0.8888827562332153,0.14647625386714935
1788880998089403400,6.9324033203125,0.10646972060203552,0.6123539209365845,0.1968667209148407
1788880998099433500,6.94243359375,0.37746259570121765,0.23809751868247986,0.2555771768093109
1788880998109463600,6.952463623046875,0.6113973259925842,-0.06281092017889023,0.26858752965927124
1788880998119493400,6.962493408203125,0.8355225920677185,-0.35630831122398376,0.27068981528282166
1788880998129523500,6.9725234375,1.0176159143447876,-0.7523978352546692,0.2797967493534088
1788880998139554600,6.982554443359375,1.1348563432693481,-1.2492585182189941,0.2529238760471344
1788880998149584600,6.992584716796875,1.1959036588668823,-1.7644305229187012,0.21154659986495972
1788880998159614500,7.002614501953125,1.238669753074646,-2.136314630508423,0.1841282993555069
1788880998169644500,7.01264453125,1.3020024299621582,-2.316319227218628,0.16741962730884552
1788880998179674400,7.02267431640625,1.3851910829544067,-2.3277106285095215,0.11057551205158234
1788880998189705500,7.03270556640625,1.4703381061553955,-2.266784906387329,0.019813384860754013
1788880998199735300,7.0427353515625,1.4367938041687012,-2.030285596847534,-0.03415583819150925
1788880998209765400,7.052765380859375,1.2779273986816406,-2.262376546859741,-0.2914443612098694
1788880998219795500,7.06279541015625,1.0139341354370117,-3.131167411804199,-0.9158546924591064
1788880998229825500,7.072825439453125,0.6956877112388611,-3.385596990585327,-1.363596796989441
1788880998239856400,7.0828564453125,0.33671489357948303,-3.3209874629974365,-1.6670653820037842
1788880998249886500,7.092886474609375,0.12628576159477234,-3.1158976554870605,-1.8561681509017944
1788880998259916500,7.10291650390625,-0.01847488060593605,-2.8083481788635254,-1.9634429216384888
1788880998269946600,7.112946533203125,-0.10855470597743988,-2.813775062561035,-2.186166524887085
1788880998279976400,7.1229765625,-0.1473628282546997,-2.970689058303833,-2.425649881362915
1788880998290007600,7.133007568359375,-0.15063850581645966,-3.0330448150634766,-2.572915554046631
1788880998300037400,7.143037353515625,-0.09244364500045776,-2.907581090927124,-2.5598928928375244
1788880998310067500,7.1530673828125,0.04490835219621658,-2.739018440246582,-2.350755453109741
1788880998320097500,7.16309765625,0.13456739485263824,-2.461426019668579,-1.9486823081970215
1788880998330127400,7.17312744140625,0.16968490183353424,-2.1823890209198,-1.6215587854385376
1788880998340158500,7.183158447265625,0.10652591288089752,-2.063084363937378,-1.4988038539886475
1788880998350188500,7.1931884765625,0.19970326125621796,-2.213300943374634,-1.4806512594223022
1788880998360218000,7.203218017578125,0.35065948963165283,-2.3827128410339355,-1.455857515335083
1788880998370248000,7.213248046875,0.3990965187549591,-2.3356688022613525,-1.363803744316101
1788880998380277800,7.22327783203125,0.3587091565132141,-2.1350836753845215,-1.1892333030700684
1788880998390308900,7.233308837890625,0.3508291244506836,-1.8044663667678833,-1.3087471723556519
1788880998400339000,7.2433388671875,0.43765881657600403,-1.293591022491455,-1.5423574447631836
1788880998410369000,7.253369140625,0.43702125549316406,-0.8393127918243408,-1.7708841562271118
1788880998420398800,7.26339892578125,0.36039119958877563,-0.49437403678894043,-1.987566590309143
1788880998430430000,7.273429931640625,0.23741814494132996,-0.17788344621658325,-2.152087450027466
1788880998440460000,7.2834599609375,0.23469772934913635,0.1586058884859085,-2.224008798599243
1788880998450490000,7.293489990234375,0.22950536012649536,0.5848751664161682,-2.0897486209869385
1788880998460520000,7.30352001953125,0.16555407643318176,0.4693533778190613,-1.7986105680465698
1788880998470549800,7.3135498046875,0.12267398834228516,0.009125853888690472,-1.328540563583374
1788880998480581000,7.3235810546875,0.10364729911088943,-0.30473726987838745,-0.8471006751060486
1788880998490611000,7.33361083984375,0.08324269205331802,-0.30234840512275696,-0.4498390555381775
1788880998500640800,7.343640869140625,0.02942020632326603,-0.03169561177492142,-0.02828223817050457
1788880998510670800,7.3536708984375,-0.07079161703586578,0.10643349587917328,0.23044732213020325
1788880998520701000,7.363700927734375,-0.13459189236164093,0.2143479734659195,0.35163554549217224
1788880998530732000,7.37373193359375,-0.14898495376110077,0.4012930989265442,0.4750940799713135
1788880998540761900,7.383761962890625,-0.18423642218112946,0.5673041939735413,0.5998865962028503
1788880998550792000,7.3937919921875,-0.29237115383148193,0.7457529902458191,0.7186859846115112
1788880998560822000,7.403822021484375,-0.4170398414134979,0.9611684083938599,0.8619901537895203
1788880998570852000,7.41385205078125,-0.5103514194488525,1.1739016771316528,0.9869611263275146
1788880998580883000,7.423883056640625,-0.6052067875862122,1.5185527801513672,1.1825796365737915
1788880998590912800,7.433912841796875,-0.69203120470047,1.908502459526062,1.3822224140167236
1788880998600942800,7.44394287109375,-0.7240825891494751,2.2220163345336914,1.46974778175354
1788880998610973000,7.453972900390625,-0.6890689730644226,2.5497994422912598,1.475756049156189
1788880998621003000,7.4640029296875,-0.624120831489563,3.008777618408203,1.5043584108352661
1788880998631033900,7.474033935546875,-0.581077516078949,3.4530656337738037,1.6268998384475708
1788880998641064000,7.48406396484375,-0.5647211670875549,3.6969118118286133,1.8295831680297852
1788880998651094000,7.494093994140625,-0.48633477091789246,3.6119747161865234,2.012387275695801
1788880998661124000,7.5041240234375,-0.39048677682876587,3.2566885948181152,2.1720638275146484
1788880998671155000,7.514155029296875,-0.2523864507675171,2.729222297668457,2.38384747505188
1788880998681185000,7.52418505859375,-0.18895021080970764,2.1972615718841553,2.582317352294922
1788880998691215000,7.534215087890625,-0.23776808381080627,1.969265103340149,2.653860569000244
1788880998701245000,7.544244873046875,-0.33143413066864014,1.8900309801101685,2.615874767303467
1788880998711274800,7.554274658203125,-0.3392816483974457,1.7009114027023315,2.465797185897827
1788880998721305900,7.564305908203125,-0.3121893107891083,1.5337200164794922,2.2867913246154785
1788880998731336000,7.5743359375,-0.2128361016511917,1.5066434144973755,1.9569144248962402
1788880998741366000,7.584365966796875,-0.039020635187625885,1.3378552198410034,1.6589245796203613
1788880998751395800,7.594395751953125,0.22916847467422485,0.9172642827033997,1.4086828231811523
1788880998761426000,7.604426025390625,0.3251970112323761,0.5750033855438232,1.0952961444854736
1788880998771457000,7.61445703125,0.2690378427505493,0.5510748624801636,0.8167201280593872
1788880998781487000,7.624487060546875,0.1515655517578125,0.8691652417182922,0.6763715147972107
1788880998791517000,7.634516845703125,-0.0018604843644425273,1.1930588483810425,0.5823798179626465
1788880998801547000,7.644547119140625,-0.10933580994606018,1.2012685537338257,0.418753057718277
1788880998811576800,7.654576904296875,-0.22554151713848114,0.7860596776008606,0.08037739992141724
1788880998821608000,7.66460791015625,-0.4901209771633148,0.3738012909889221,-0.3751145005226135
1788880998831637800,7.6746376953125,-0.6615638136863708,0.12709642946720123,-0.7620070576667786
1788880998841667800,7.684667724609375,-0.6112013459205627,-0.12282845377922058,-1.0260536670684814
1788880998851698000,7.694697998046875,-0.37023210525512695,-0.4264778196811676,-1.1399719715118408
1788880998861729000,7.70472900390625,-0.18216660618782043,-0.8301984071731567,-1.126595377922058
1788880998871758800,7.7147587890625,-0.035353463143110275,-0.8478325009346008,-0.9705837368965149
1788880998881789000,7.724788818359375,0.6086241602897644,-0.45771324634552,-0.8347832560539246
1788880998891819000,7.734819091796875,1.672935962677002,-0.4026728868484497,-0.8727008104324341
1788880998901849000,7.74484912109375,2.1699020862579346,-0.592369556427002,-1.010558009147644
1788880998911880000,7.7548798828125,2.4069135189056396,-1.117841124534607,-0.9796525835990906
1788880998921910000,7.764909912109375,2.5452558994293213,-1.5977081060409546,-0.7863651514053345
1788880998931939800,7.77493994140625,2.5255868434906006,-2.048093795776367,-0.4720146656036377
1788880998941970000,7.784969970703125,2.263735294342041,-1.9759888648986816,-0.010997257195413113
1788880998952000000,7.795,1.8705796003341675,-1.4750196933746338,0.3219529986381531
1788880998962030800,7.80503076171875,1.5389693975448608,-0.7842106819152832,0.2579742968082428
1788880998972061000,7.81506103515625,1.4000946283340454,-0.577418863773346,0.06362798064947128
1788880998982091000,7.825091064453125,1.2305564880371094,-0.5658040046691895,-0.18729186058044434
1788880998992121000,7.83512109375,1.030718207359314,-0.8775264620780945,-0.28632602095603943
1788880999002152000,7.84515185546875,0.7670676112174988,-1.1636232137680054,-0.2646905183792114
1788880999012182000,7.85518212890625,0.5613834261894226,-1.3719223737716675,-0.12070617824792862
1788880999022212000,7.865212158203125,0.48481833934783936,-1.4175199270248413,0.11585070192813873
1788880999032242000,7.875241943359375,0.41320860385894775,-1.1727211475372314,0.3443954586982727
1788880999042271700,7.885271728515625,0.3878694474697113,-0.6588138341903687,0.4617692232131958
1788880999052302800,7.895302734375,0.35580310225486755,-0.1471060961484909,0.5642194151878357
1788880999062333000,7.9053330078125,0.2744235694408417,0.19393084943294525,0.6235911250114441
1788880999072363000,7.915363037109375,0.1611500084400177,0.36868828535079956,0.6919611692428589
1788880999082392800,7.925392822265625,-0.025899773463606834,0.6295180320739746,0.8509478569030762
1788880999092423000,7.9354228515625,-0.26554593443870544,0.9962174296379089,1.028470516204834
1788880999102454000,7.9454541015625,-0.603790283203125,1.2915444374084473,1.247624397277832
1788880999112484000,7.955484130859375,-0.9409464597702026,1.5095369815826416,1.5099228620529175
1788880999122514000,7.965513916015625,-1.2613303661346436,1.895958662033081,1.8081172704696655
1788880999132544000,7.9755439453125,-1.471192717552185,2.486516237258911,2.177190065383911
1788880999142575000,7.9855751953125,-1.3339717388153076,-2.4516234397888184,-0.5392850637435913
1788880999152605000,7.99560498046875,-1.2457809448242188,-5.232779502868652,-2.4904544353485107
1788880999162634800,8.005634765625,-1.1191819906234741,-4.867653846740723,-3.0308291912078857
1788880999172664800,8.015664794921875,-0.9144285917282104,-4.046530246734619,-3.3548314571380615
1788880999182695000,8.02569482421875,-0.45788660645484924,-3.2920663356781006,-3.462019443511963
1788880999192726000,8.03572607421875,0.20691190659999847,-2.576713800430298,-3.2103538513183594
1788880999202755800,8.045755859375,0.678806722164154,-1.885416030883789,-2.6797523498535156
1788880999212786000,8.055785888671876,0.856703519821167,-1.4621087312698364,-2.1707582473754883
1788880999222816000,8.06581591796875,0.8238837718963623,-1.397719383239746,-1.881602168083191
1788880999232846000,8.07584619140625,0.756889283657074,-1.5251630544662476,-1.8203272819519043
1788880999242877000,8.085876953125,0.671110987663269,-1.5207267999649048,-1.9205063581466675
1788880999252907000,8.095906982421875,0.5347875356674194,-1.3411074876785278,-2.122506618499756
1788880999262936800,8.105936767578125,0.47602298855781555,-0.9267667531967163,-2.313385248184204
1788880999272967000,8.115966796875,0.5430992245674133,-0.4009239971637726,-2.421060800552368
1788880999282997000,8.1259970703125,0.5300199389457703,-0.17996151745319366,-2.6399927139282227
1788880999293027800,8.13602783203125,0.4941154420375824,-0.18686655163764954,-2.8910558223724365
1788880999303058000,8.146057861328124,0.44117578864097595,-0.3096121847629547,-3.013713836669922
1788880999313088000,8.156087890625,0.42573320865631104,-0.30389171838760376,-2.885589838027954
1788880999323118000,8.1661181640625,0.40095648169517517,-0.10787693411111832,-2.467505931854248
1788880999333149000,8.17614892578125,0.3619920313358307,0.14034245908260345,-2.1107394695281982
1788880999343179000,8.186178955078125,0.25327274203300476,0.18259884417057037,-1.9737693071365356
1788880999353209900,8.1962099609375,0.16214603185653687,0.09463276714086533,-1.8380330801010132
1788880999363240000,8.206239990234375,0.11752742528915405,0.049186453223228455,-1.5286089181900024
1788880999373270000,8.21627001953125,0.06875482946634293,0.2449927031993866,-1.1313248872756958
1788880999383301000,8.226301025390624,-0.01649082638323307,0.3014240264892578,-0.7240266799926758
1788880999393331000,8.2363310546875,-0.11022557318210602,0.23814386129379272,-0.4267539978027344
1788880999403360800,8.24636083984375,-0.19939886033535004,0.35124218463897705,-0.11394733935594559
1788880999413390800,8.256390869140626,-0.29121506214141846,0.42161834239959717,0.13318069279193878
1788880999423421000,8.2664208984375,-0.35137826204299927,0.4492827355861664,0.3192134201526642
1788880999433451800,8.27645166015625,-0.4221280813217163,0.5523659586906433,0.5354205369949341
1788880999443481900,8.28648193359375,-0.516817569732666,0.7893761396408081,0.845581591129303
1788880999453512000,8.296511962890625,-0.5950835943222046,1.1862648725509644,1.1737030744552612
1788880999463542000,8.3065419921875,-0.6657151579856873,1.4359993934631348,1.3811382055282593
1788880999473572000,8.316572021484374,-0.7319442629814148,1.471335530281067,1.5082919597625732
1788880999483603000,8.32660302734375,-0.805524468421936,1.4874905347824097,1.6840051412582397
1788880999493633000,8.336633056640625,-0.8873096108436584,1.5797240734100342,1.9119834899902344
1788880999503662800,8.346662841796874,-0.9577917456626892,1.654531478881836,2.162919282913208
1788880999513693000,8.35669287109375,-0.9873661398887634,1.562201738357544,2.3860552310943604
1788880999523723800,8.366723876953126,-0.964748203754425,1.4762282371520996,2.5891239643096924
1788880999533753900,8.37675390625,-0.9257837533950806,1.4602599143981934,2.755889654159546
1788880999543784000,8.386783935546875,-0.8759336471557617,1.492623209953308,2.840235471725464
1788880999553814000,8.39681396484375,-0.8536078333854675,1.439947247505188,2.8485770225524902
1788880999563843800,8.40684375,-0.8395370244979858,1.4169013500213623,2.8610308170318604
1788880999573875000,8.416875,-0.9483156800270081,1.569581151008606,2.9218456745147705
1788880999583905000,8.426905029296876,-1.0955888032913208,1.9091554880142212,3.0446112155914307
1788880999593935000,8.43693505859375,-1.2654143571853638,2.181490659713745,3.16690731048584
1788880999603965000,8.44696484375,-1.3768428564071655,2.3198630809783936,3.2585246562957764
1788880999613996000,8.45699609375,-1.4533535242080688,2.3102800846099854,3.2471320629119873
1788880999624025900,8.46702587890625,-1.5136924982070923,2.2397592067718506,3.116809606552124
1788880999634056000,8.477055908203125,-1.4566564559936523,2.1731345653533936,2.833559989929199
1788880999644085800,8.487085693359376,-1.3967573642730713,2.2146048545837402,2.521434783935547
1788880999654115800,8.49711572265625,-1.353885293006897,2.3385651111602783,2.178269386291504
1788880999664147000,8.50714697265625,-1.2596874237060547,2.526512861251831,1.8116251230239868
1788880999674177000,8.517177001953126,-1.207433819770813,2.6297338008880615,1.3938980102539062
1788880999684206800,8.527206787109375,-1.2139204740524292,2.645965814590454,0.9937132596969604
1788880999694237000,8.53723681640625,-1.2071629762649536,2.478327989578247,0.5947427153587341
1788880999704267000,8.54726708984375,-1.1597752571105957,2.2878847122192383,0.18791237473487854
1788880999714298000,8.557298095703125,-1.1089061498641968,2.159971237182617,-0.16870513558387756
1788880999724328000,8.567327880859375,-1.0367363691329956,2.096076488494873,-0.47451353073120117
1788880999734357800,8.577357666015626,-1.0019237995147705,1.9678608179092407,-0.7274826765060425
1788880999744387800,8.587387939453125,-0.9959316849708557,1.7935130596160889,-0.8389596343040466
1788880999754418000,8.59741796875,-0.9628880023956299,1.589085578918457,-0.832202672958374
1788880999764448800,8.60744873046875,-0.8551902770996094,1.5206137895584106,-0.8637262582778931
1788880999774478800,8.617478759765625,-0.7467759251594543,1.4375476837158203,-0.9241858720779419
1788880999784509000,8.627509033203125,-0.7402040362358093,1.2519352436065674,-0.951978325843811
1788880999794539000,8.6375390625,-0.7174398899078369,0.9456728100776672,-0.8997862339019775
1788880999804569900,8.64756982421875,-0.6026059985160828,0.6016309857368469,-0.7849646210670471
1788880999814600000,8.657599853515626,-0.4634597897529602,0.1711653620004654,-0.5955904126167297
1788880999824630000,8.667630126953124,-0.3039873242378235,-0.22883184254169464,-0.37023505568504333
1788880999834660000,8.67766015625,-0.15682077407836914,-0.4126528203487396,-0.14846670627593994
1788880999844690000,8.68768994140625,-0.11838603019714355,-0.3718864619731903,0.07251414656639099
1788880999854720800,8.697720703125,-0.09312861412763596,-0.2083798348903656,0.2830492854118347
1788880999864750800,8.707750732421875,0.09066864848136902,0.1239088922739029,0.3586540222167969
1788880999874781000,8.717781005859376,0.3008168339729309,0.4083760380744934,0.2964244782924652
1788880999884811000,8.72781103515625,0.46001899242401123,0.4006211757659912,0.16722121834754944
1788880999894840800,8.7378408203125,0.5907266736030579,0.17660114169120789,0.08065569400787354
1788880999904872000,8.747871826171876,0.7007551789283752,-0.2154361456632614,0.017376858741044998
1788880999914902000,8.757902099609375,0.7671000957489014,-0.6586726903915405,0.008377505466341972
1788880999924932000,8.76793212890625,0.8383130431175232,-1.0685038566589355,0.05497456714510918
1788880999934962000,8.7779619140625,0.9468603134155273,-1.431143045425415,0.1758866012096405
1788880999944993000,8.787992919921875,1.0609424114227295,-1.7742327451705933,0.33214491605758667
1788880999955023000,8.798023193359375,1.2380177974700928,-2.0703227519989014,0.5071883797645569
1788880999965053000,8.808052978515626,1.4186714887619019,-2.3259449005126953,0.6516097187995911
1788880999975082800,8.818082763671875,1.5805999040603638,-2.543318510055542,0.6868476271629333
1788880999985112800,8.82811279296875,1.7221192121505737,-2.7925548553466797,0.5800380706787109
1788880999995144000,8.83814404296875,1.7912911176681519,-3.4131948947906494,0.24109703302383423
1788881000005174000,8.848174072265625,1.621358871459961,-4.702826976776123,-0.5611842274665833
1788881000015203800,8.858203857421875,1.3792327642440796,-5.202558994293213,-1.2718067169189453
1788881000025234000,8.86823388671875,1.2046250104904175,-4.702499866485596,-1.651248812675476
1788881000035264000,8.878263916015625,1.0362216234207153,-3.909748077392578,-1.8161557912826538
1788881000045295000,8.888295166015626,0.8757096529006958,-3.1233272552490234,-1.9207689762115479
1788881000055325000,8.898324951171874,0.8348389267921448,-2.603182792663574,-2.0914461612701416
1788881000065354800,8.908354736328125,0.880324125289917,-2.24076509475708,-2.2931101322174072
1788881000075384800,8.918384765625,0.9355748891830444,-1.8531837463378906,-2.459684371948242
1788881000085416000,8.928416015625,1.003219723701477,-1.4823212623596191,-2.6399407386779785
1788881000095445800,8.93844580078125,1.0662779808044434,-1.104488492012024,-2.8606932163238525
1788881000105475800,8.948475830078126,1.0941498279571533,-0.7728099226951599,-3.059235095977783
1788881000115506000,8.958505859375,1.093636155128479,-0.6466187238693237,-3.21018385887146
1788881000125536000,8.968535888671875,1.0640990734100342,-0.6147116422653198,-3.31304669380188
1788881000135566800,8.97856689453125,1.0126893520355225,-0.597741425037384,-3.4069581031799316
1788881000145597000,8.988596923828124,0.8900933861732483,-0.47216060757637024,-3.435944080352783
1788881000155627000,8.998626953125,0.7005980610847473,-0.285232812166214,-3.330435276031494
1788881000165657000,9.008656982421876,0.543419361114502,-0.20238906145095825,-3.1397156715393066
1788881000175688000,9.01868798828125,0.4573694169521332,-0.33648747205734253,-2.978872776031494
1788881000185717800,9.0287177734375,0.37785542011260986,-0.5819408893585205,-2.7933387756347656
1788881000195747800,9.038747802734376,0.30151617527008057,-0.6821252703666687,-2.535346746444702
1788881000205778000,9.04877783203125,0.2747623324394226,-0.9052627682685852,-2.31219220161438
1788881000215808000,9.05880810546875,0.318894624710083,-1.228428602218628,-2.1185686588287354
1788881000225838800,9.0688388671875,0.40006139874458313,-1.2023307085037231,-1.8784111738204956
1788881000235869000,9.078868896484375,0.39843738079071045,-0.9355745911598206,-1.6320830583572388
1788881000245899000,9.08889892578125,0.36048123240470886,-0.5147624015808105,-1.4596596956253052
1788881000255929000,9.09892919921875,0.2855340242385864,-0.19614288210868835,-1.3040951490402222
1788881000265959000,9.108958984375,0.2552221715450287,0.031181886792182922,-1.1039170026779175
1788881000275990000,9.118989990234375,0.21694669127464294,0.14504987001419067,-0.8313446044921875
1788881000286020000,9.12902001953125,0.19818472862243652,0.29461804032325745,-0.4993818402290344
1788881000296050000,9.1390498046875,0.14500859379768372,0.5152444243431091,-0.09344925731420517
1788881000306079700,9.149079833984375,0.07732168585062027,0.6896676421165466,0.3265687823295593
1788881000316110800,9.15911083984375,0.01888980157673359,0.8100393414497375,0.6897714734077454
1788881000326141000,9.169140869140625,-0.018099108710885048,0.9130339026451111,0.9654629826545715
1788881000336171000,9.1791708984375,-0.023142337799072266,1.0909790992736816,1.2405468225479126
1788881000346200800,9.189200927734374,-0.05506937578320503,1.271325945854187,1.5262397527694702
1788881000356230100,9.199230224609375,-0.14315076172351837,1.2921793460845947,1.7732181549072266
1788881000366261000,9.209260986328125,-0.23185959458351135,1.1622556447982788,1.9437943696975708
1788881000376291000,9.219291015625,-0.33919137716293335,0.9973133206367493,2.0990042686462402
1788881000386321200,9.229321044921875,-0.4462571144104004,0.9322366118431091,2.277714490890503
1788881000396351000,9.23935107421875,-0.542892336845398,0.9315007925033569,2.464172124862671
1788881000406380800,9.249380859375,-0.6426125168800354,0.8892472982406616,2.6024651527404785
1788881000416412000,9.259411865234375,-0.718621551990509,0.9125062823295593,2.7302117347717285
1788881000426442000,9.26944189453125,-0.7963868975639343,1.0017328262329102,2.8679933547973633
1788881000436472000,9.27947216796875,-0.8541553616523743,1.1314631700515747,3.017246723175049
1788881000446502000,9.289501953125,-0.9043335914611816,1.244418740272522,3.1455225944519043
1788881000456533000,9.299532958984376,-0.9714064002037048,1.3124148845672607,3.2718873023986816
1788881000466563000,9.30956298828125,-1.042600393295288,1.3521950244903564,3.3717987537384033
1788881000476593000,9.319593017578125,-1.0991557836532593,1.4120476245880127,3.4790399074554443
1788881000486623000,9.329623046875,-1.1201140880584717,1.4901288747787476,3.5597856044769287
1788881000496653000,9.339653076171874,-1.1223015785217285,1.5811240673065186,3.549971103668213
1788881000506684200,9.34968408203125,-1.0976871252059937,1.7186944484710693,3.467320203781128
1788881000516714000,9.3597138671875,-1.093035340309143,1.953252911567688,3.3088595867156982
1788881000526743800,9.369743896484374,-1.2058061361312866,2.278761148452759,2.986872673034668
1788881000536774000,9.37977392578125,-1.3179759979248047,2.6696619987487793,2.513800859451294
1788881000546805000,9.389804931640626,-1.3533159494400024,2.9963159561157227,1.8848767280578613
1788881000556834800,9.399834716796875,-1.3205102682113647,3.188438653945923,1.2948946952819824
1788881000566865000,9.409864990234375,-1.3235691785812378,3.2419309616088867,0.7302321195602417
1788881000576895000,9.41989501953125,-1.2722258567810059,2.9943747520446777,0.26911190152168274
1788881000586925000,9.429925048828125,-1.182629108428955,2.4681620597839355,-0.059481434524059296
1788881000596956000,9.439955810546875,-1.0823270082473755,1.8452262878417969,-0.24223101139068604
1788881000606986000,9.449986083984374,-1.0170987844467163,1.37912917137146,-0.3718350827693939
1788881000617016000,9.46001611328125,-0.9081035852432251,1.0769681930541992,-0.5072344541549683
1788881000627046000,9.4700458984375,-0.7204327583312988,0.9778139591217041,-0.6343596577644348
1788881000637077000,9.480076904296874,-0.6258830428123474,0.9729738831520081,-0.7479743361473083
1788881000647106800,9.49010693359375,-0.562399685382843,0.9531149864196777,-0.7802526354789734
1788881000657137000,9.500136962890625,-0.5814372897148132,0.9092774987220764,-0.7785466313362122
1788881000667167000,9.5101669921875,-0.6386638283729553,0.7681072950363159,-0.7294963002204895
1788881000677197000,9.520197021484375,-0.6832688450813293,0.6695871353149414,-0.6346368789672852
1788881000687228000,9.530227783203125,-0.6812818646430969,0.5267689824104309,-0.47928670048713684
1788881000697258000,9.540258056640624,-0.6539322733879089,0.3377828299999237,-0.3012482523918152
1788881000707288000,9.5502880859375,-0.576362669467926,0.1904759407043457,-0.13257108628749847
1788881000717318100,9.560318115234375,-0.37422898411750793,0.20858542621135712,-0.013007145375013351
1788881000727348000,9.570347900390624,-0.2038511335849762,0.2280142605304718,0.056833986192941666
1788881000737379000,9.580379150390625,-0.001531850197352469,0.27367761731147766,0.10945458710193634
1788881000747409000,9.590408935546876,0.19934186339378357,0.1814669966697693,0.2190130352973938
1788881000757439000,9.60043896484375,0.367718905210495,0.06702430546283722,0.3045433759689331
1788881000767469000,9.610468994140625,0.5134981870651245,0.03592924028635025,0.35196229815483093
1788881000777500000,9.6205,0.5926867723464966,-0.01673956587910652,0.3738734722137451
1788881000787530000,9.630530029296875,0.6480943560600281,-0.060315005481243134,0.331970751285553
1788881000797560000,9.64056005859375,0.7494500279426575,-0.19061948359012604,0.2523813843727112
1788881000807590000,9.65058984375,0.8622300624847412,-0.39394810795783997,0.17011074721813202
1788881000817621000,9.66062109375,1.0039464235305786,-0.6920256018638611,0.15046966075897217
1788881000827651000,9.670651123046875,1.1542675495147705,-1.012271761894226,0.20945575833320618
1788881000837681200,9.68068115234375,1.2828949689865112,-1.3020790815353394,0.30103787779808044
1788881000847711000,9.6907109375,1.372788906097412,-1.5856328010559082,0.37036794424057007
1788881000857740800,9.70074072265625,1.465498447418213,-1.8877769708633423,0.3643220365047455
1788881000867772000,9.71077197265625,1.5816375017166138,-2.2687594890594482,0.23397015035152435
1788881000877802000,9.720802001953125,1.601942539215088,-3.204368829727173,-0.20605196058750153
1788881000887831800,9.730831787109375,1.5028612613677979,-4.477714538574219,-0.9864596128463745
1788881000897862000,9.74086181640625,1.3876882791519165,-4.775404453277588,-1.456536889076233
1788881000907893000,9.75089306640625,1.2594517469406128,-4.2280354499816895,-1.56943941116333
1788881000917923000,9.760923095703125,1.1964222192764282,-3.411285400390625,-1.5603114366531372
1788881000927953000,9.770952880859374,1.164412021636963,-2.6934993267059326,-1.5928678512573242
1788881000937983000,9.78098291015625,1.1452511548995972,-2.236696243286133,-1.741743803024292
1788881000948013000,9.791012939453125,1.1517359018325806,-2.0527474880218506,-2.029961347579956
1788881000958044200,9.801044189453124,1.1398100852966309,-1.980309247970581,-2.362445592880249
1788881000968074000,9.811073974609375,1.132182240486145,-1.8361883163452148,-2.685302257537842
1788881000978103800,9.821103759765625,1.1265368461608887,-1.5614861249923706,-2.9373092651367188
1788881000988134000,9.8311337890625,1.102908968925476,-1.270293951034546,-3.114251136779785
1788881000998165000,9.8411650390625,1.089599609375,-1.0471376180648804,-3.2270736694335938
1788881001008194800,9.85119482421875,1.0754832029342651,-0.8786146640777588,-3.2463133335113525
1788881001018225000,9.861224853515624,1.083268404006958,-0.7132560610771179,-3.2209205627441406
1788881001028255000,9.8712548828125,1.0318715572357178,-0.5570946931838989,-3.1641223430633545
1788881001038285000,9.88128515625,0.8812253475189209,-0.3733038008213043,-3.0994081497192383
1788881001048316000,9.89131591796875,0.7417801022529602,-0.35106003284454346,-3.0390849113464355
1788881001058346000,9.901345947265625,0.6374651789665222,-0.42641177773475647,-2.9886622428894043
1788881001068376000,9.9113759765625,0.5623009204864502,-0.5427596569061279,-2.9456608295440674
1788881001078406100,9.92140625,0.5429234504699707,-0.7231590151786804,-2.8774735927581787
1788881001088437000,9.93143701171875,0.46976563334465027,-0.8772633671760559,-2.7297027111053467
1788881001098466800,9.941466796875,0.48013198375701904,-1.1529998779296875,-2.5591046810150146
1788881001108497000,9.951496826171875,0.6349809765815735,-1.1999963521957397,-2.2287681102752686
1788881001118527000,9.96152685546875,0.5860080718994141,-0.9665626287460327,-1.832980751991272
1788881001128557000,9.97155712890625,0.4937404692173004,-0.6541820764541626,-1.5612800121307373
1788881001138588000,9.981587890625,0.413631796836853,-0.47051504254341125,-1.3835108280181885
1788881001148618000,9.991617919921875,0.32336899638175964,-0.309438556432724,-1.129277229309082
1788881001158648000,10.00164794921875,0.2565430998802185,-0.05236733332276344,-0.7376636862754822
1788881001168678100,10.01167822265625,0.15804024040699005,0.1294376105070114,-0.37057220935821533
1788881001178709000,10.021708984375,0.08941856026649475,0.19006207585334778,-0.07185554504394531
1788881001188739000,10.031739013671874,0.06729675084352493,0.28828293085098267,0.25655534863471985
1788881001198769200,10.04176904296875,0.05264803022146225,0.5321544408798218,0.6315558552742004
1788881001208799000,10.051799072265625,0.01672038994729519,0.9095517992973328,1.0086506605148315
1788881001218828800,10.061828857421874,-0.01913800835609436,1.3416669368743896,1.3706371784210205
1788881001228860000,10.07185986328125,-0.02996375784277916,1.5823214054107666,1.6666810512542725
1788881001238890000,10.081889892578126,-0.051420312374830246,1.5650033950805664,1.8980731964111328
1788881001248920000,10.091920166015624,-0.10101476311683655,1.4016536474227905,2.1020095348358154
1788881001258950000,10.101949951171875,-0.15453045070171356,1.2407933473587036,2.2897114753723145
1788881001268981000,10.11198095703125,-0.22382403910160065,1.1028975248336792,2.474730968475342
1788881001279011000,10.122010986328124,-0.2911761701107025,1.0351911783218384,2.6736154556274414
1788881001289041200,10.132041259765625,-0.3899232745170593,1.0410544872283936,2.885420083999634
1788881001299071000,10.142071044921876,-0.502471387386322,1.0425982475280762,3.0906145572662354
1788881001309102000,10.15210205078125,-0.5848240256309509,0.9980790019035339,3.267552614212036
1788881001319132200,10.162132080078125,-0.6724231243133545,0.9118495583534241,3.4022250175476074
1788881001329162000,10.172161865234376,-0.771468997001648,0.8335973620414734,3.539386510848999
1788881001339191800,10.18219189453125,-0.8705588579177856,0.889739990234375,3.7178149223327637
1788881001349222000,10.192221923828125,-0.9741880297660828,1.093024730682373,3.956265687942505
1788881001359256600,10.202256591796875,-1.0592057704925537,1.214902639389038,4.149991989135742
1788881001369286700,10.21228662109375,-1.1348549127578735,1.184356451034546,4.236786365509033
1788881001379316500,10.22231640625,-1.098580002784729,1.1695903539657593,4.241649627685547
1788881001389346600,10.2323466796875,-0.9974957704544067,1.2385549545288086,4.108209609985352
1788881001399377700,10.242377685546876,-1.0023443698883057,1.5029178857803345,3.81131649017334
1788881001409407500,10.252407470703124,-1.1808445453643799,2.0408520698547363,3.3751354217529297
1788881001419437600,10.2624375,-1.3595889806747437,2.524280071258545,2.733447790145874
1788881001429467600,10.272467529296875,-1.4506717920303345,2.9393415451049805,1.9584451913833618
1788881001439498800,10.282498779296875,-1.4924266338348389,3.2119858264923096,1.2098122835159302
1788881001449528600,10.292528564453125,-1.500333309173584,3.2268943786621094,0.5385167598724365
1788881001459558400,10.302558349609376,-1.5082110166549683,2.848842144012451,0.03197071701288223
1788881001469588500,10.31258837890625,-1.4962302446365356,2.2508184909820557,-0.302010715007782
1788881001479618600,10.32261865234375,-1.4692156314849854,1.7867472171783447,-0.5272108316421509
1788881001489649400,10.3326494140625,-1.3321202993392944,1.4662868976593018,-0.6940858364105225
1788881001499679500,10.342679443359375,-1.1554700136184692,1.3178585767745972,-0.873084306716919
1788881001509709600,10.35270947265625,-1.0446240901947021,1.3244330883026123,-1.0306305885314941
1788881001519739600,10.36273974609375,-1.010561466217041,1.2631548643112183,-1.0939432382583618
1788881001529770500,10.3727705078125,-1.0508806705474854,1.0928881168365479,-1.055670976638794
1788881001539800600,10.382800537109375,-1.112687587738037,0.8956170678138733,-0.9527839422225952
1788881001549830700,10.39283056640625,-1.1211636066436768,0.6910732388496399,-0.773404061794281
1788881001559860500,10.402860595703125,-1.0863507986068726,0.43734991550445557,-0.5357978940010071
1788881001569891300,10.412891357421875,-1.0043734312057495,0.1552572250366211,-0.250679075717926
1788881001579921400,10.42292138671875,-0.8971347808837891,-0.038968704640865326,-0.009328254498541355
1788881001589951500,10.432951416015625,-0.6972302198410034,-0.12029365450143814,0.1595393270254135
1788881001599981600,10.442981689453125,-0.504703938961029,-0.12543781101703644,0.25598251819610596
1788881001610012400,10.453012451171874,-0.34280529618263245,-0.07892277836799622,0.31439414620399475
1788881001620042500,10.46304248046875,-0.15055488049983978,0.002603772561997175,0.3309507668018341
1788881001630072600,10.473072509765625,0.03249429166316986,0.003890878288075328,0.3291243612766266
1788881001640102700,10.4831025390625,0.1707770675420761,-0.08708829432725906,0.3256899416446686
1788881001650132700,10.4931328125,0.2784217596054077,-0.2132587432861328,0.32892942428588867
1788881001660163600,10.50316357421875,0.36451297998428345,-0.48871561884880066,0.37934812903404236
1788881001670193700,10.513193603515624,0.4536497890949249,-0.8528674840927124,0.44600969552993774
1788881001680223500,10.523223388671875,0.5643776059150696,-1.2061443328857422,0.5082919597625732
1788881001690253600,10.533253662109376,0.6930629014968872,-1.4949939250946045,0.553504228591919
1788881001700284400,10.543284423828124,0.8599355220794678,-1.7025269269943237,0.584437370300293
1788881001710314500,10.553314453125,1.010015845298767,-1.81839120388031,0.5728243589401245
1788881001720344600,10.563344482421876,1.1370185613632202,-1.9228523969650269,0.5831337571144104
1788881001730374700,10.573374755859374,1.2603117227554321,-2.029386520385742,0.5620716214179993
1788881001740405500,10.583405517578125,1.3834900856018066,-2.2903265953063965,0.4507245719432831
1788881001750435600,10.593435546875,1.4821453094482422,-2.836580753326416,0.20399707555770874
1788881001760465700,10.603465576171875,1.4469693899154663,-3.9647531509399414,-0.373809814453125
1788881001770495700,10.613495849609375,1.3551337718963623,-4.663054466247559,-0.9614996910095215
1788881001780526600,10.623526611328124,1.3116909265518188,-4.451413631439209,-1.239410400390625
1788881001790556700,10.633556640625,1.2864577770233154,-3.8410751819610596,-1.3911794424057007
1788881001800586500,10.64358642578125,1.286356806755066,-3.3630518913269043,-1.6017608642578125
1788881001810616600,10.653616455078126,1.328398585319519,-2.9155759811401367,-1.871014952659607
1788881001820646400,10.663646484375,1.3165326118469238,-2.4361660480499268,-2.1379735469818115
1788881001830677500,10.673677490234375,1.292903184890747,-1.9334211349487305,-2.431635856628418
1788881001840707600,10.68370751953125,1.2904757261276245,-1.371366262435913,-2.7429630756378174
1788881001850737700,10.693737548828125,1.2249845266342163,-0.8119741082191467,-3.027933120727539
1788881001860767500,10.703767578125,1.1601378917694092,-0.40002837777137756,-3.2766807079315186
1788881001870798600,10.713798583984374,1.096268653869629,-0.12161591649055481,-3.4676482677459717
1788881001880828700,10.72382861328125,1.0441868305206299,0.011845207773149014,-3.5345349311828613
1788881001890858800,10.733858642578125,0.9587923288345337,0.0740252286195755,-3.490656852722168
1788881001900888300,10.743888427734374,0.8510312438011169,-0.008260592818260193,-3.428501844406128
1788881001910919700,10.753919677734375,0.7331871390342712,-0.08961830288171768,-3.2895469665527344
1788881001920949500,10.763949462890626,0.6133846044540405,-0.13800181448459625,-3.1189522743225098
1788881001930979600,10.7739794921875,0.4914320409297943,-0.26501354575157166,-3.0077242851257324
1788881001941009400,10.784009521484375,0.4467274248600006,-0.42965230345726013,-2.9148831367492676
1788881001951040500,10.79404052734375,0.4843224585056305,-0.6862888932228088,-2.823890447616577
1788881001961070600,10.804070556640625,0.5033994913101196,-0.903040885925293,-2.626004695892334
1788881001971100700,10.8141005859375,0.4240146577358246,-0.8265535831451416,-2.2807204723358154
1788881001981130500,10.824130615234376,0.3634762167930603,-0.7501930594444275,-1.991970181465149
1788881001991160600,10.83416064453125,0.46834349632263184,-0.6175066232681274,-1.6946457624435425
1788881002001191700,10.844191650390625,0.4661373496055603,-0.3148122727870941,-1.348487138748169
1788881002011221800,10.8542216796875,0.4355730414390564,-0.05769019573926926,-1.0568506717681885
1788881002021251600,10.86425146484375,0.3885895609855652,0.05157211422920227,-0.8055660128593445
1788881002031281400,10.874281494140625,0.31218773126602173,0.06436806917190552,-0.5669667720794678
1788881002041312500,10.8843125,0.22740279138088226,0.17782139778137207,-0.27537670731544495
1788881002051342600,10.894342529296875,0.15812012553215027,0.37055835127830505,0.08489145338535309
1788881002061372400,10.904372314453125,0.09733746945858002,0.539686918258667,0.46043843030929565
1788881002071402500,10.914402587890624,0.04578905925154686,0.6927611827850342,0.8102576732635498
1788881002081433600,10.92443359375,0.006266151554882526,0.964536726474762,1.1766362190246582
1788881002091463700,10.934463623046875,-0.0037974014412611723,1.2379696369171143,1.5552051067352295
1788881002101493500,10.944493408203124,-0.030595991760492325,1.3550515174865723,1.862917423248291
1788881002111523600,10.954523681640625,-0.08856741338968277,1.1596788167953491,2.0179731845855713
1788881002121554700,10.9645546875,-0.16013720631599426,0.9043394327163696,2.120035409927368
1788881002131584800,10.974584716796874,-0.2443532794713974,0.854391872882843,2.3016247749328613
1788881002141614600,10.984614501953125,-0.32883861660957336,0.9788017272949219,2.5348052978515625
1788881002151644400,10.99464453125,-0.432161808013916,1.131356954574585,2.752673864364624
1788881002161675500,11.004675537109375,-0.5633863806724548,1.184127926826477,2.918822765350342
1788881002171705600,11.01470556640625,-0.7058295607566833,1.1932178735733032,3.047266721725464
1788881002181735400,11.0247353515625,-0.8240174651145935,1.150206446647644,3.1619622707366943
1788881002191765500,11.034765625,-0.9260343909263611,1.0796550512313843,3.2592713832855225
1788881002201795600,11.044795654296875,-0.9938304424285889,1.0363012552261353,3.33229923248291
1788881002211826700,11.05482666015625,-1.0716155767440796,1.0357896089553833,3.432818651199341
1788881002221856500,11.0648564453125,-1.0601698160171509,1.0820567607879639,3.5597450733184814
1788881002231886600,11.074886474609375,-0.9844553470611572,1.2351189851760864,3.6635422706604004
1788881002241916700,11.084916748046876,-0.8761682510375977,1.5154515504837036,3.6691906452178955
1788881002251947500,11.094947509765625,-0.8266574740409851,1.9817662239074707,3.5473484992980957
1788881002261977600,11.1049775390625,-0.8821774125099182,2.4212512969970703,3.244957208633423
1788881002272007400,11.11500732421875,-0.8752561211585999,2.7504680156707764,2.8059608936309814
1788881002282037500,11.12503759765625,-0.9031618237495422,2.9732754230499268,2.262244462966919
1788881002292068600,11.135068603515625,-0.9440287947654724,3.002769947052002,1.641239881515503
1788881002302098400,11.145098388671874,-0.9739187955856323,2.8092124462127686,1.0452725887298584
1788881002312128500,11.15512841796875,-0.9809061288833618,2.5109899044036865,0.5177267789840698
1788881002322158600,11.16515869140625,-0.9619550704956055,2.1110615730285645,0.15789616107940674
1788881002332189400,11.175189453125,-0.9013146162033081,1.5936172008514404,-0.03636040538549423
1788881002342219500,11.185219482421875,-0.8180210590362549,1.0785698890686035,-0.11679931730031967
1788881002352249600,11.19524951171875,-0.7307032346725464,0.6505827903747559,-0.19246532022953033
1788881002362276400,11.2052763671875,-0.6652187705039978,0.4372106194496155,-0.327374130487442
1788881002372307500,11.215307373046874,-0.6311681270599365,0.3900417685508728,-0.5636261105537415
1788881002382337300,11.225337158203125,-0.5978983044624329,0.4230700433254242,-0.7492862343788147
1788881002392367400,11.235367431640626,-0.5492215752601624,0.556490957736969,-0.881358802318573
1788881002402397400,11.2453974609375,-0.6171596050262451,0.6906325221061707,-0.924331545829773
1788881002412428300,11.25542822265625,-0.7648505568504333,0.6896862983703613,-0.8485161662101746
1788881002422458400,11.265458251953126,-0.8293768167495728,0.6541860699653625,-0.6909486055374146
1788881002432488400,11.275488525390625,-0.7675980925559998,0.6953375339508057,-0.5101098418235779
1788881002442518500,11.2855185546875,-0.6267496347427368,0.7206686735153198,-0.35410746932029724
1788881002452549400,11.29554931640625,-0.4693696200847626,0.6248723864555359,-0.2489517629146576
1788881002462579500,11.305579345703125,-0.3353758752346039,0.42797690629959106,-0.15120309591293335
1788881002472609500,11.315609619140625,-0.2005424201488495,0.15230032801628113,-0.035583559423685074
1788881002482639600,11.3256396484375,-0.08352019637823105,-0.11761930584907532,0.08825316280126572
1788881002492670500,11.33567041015625,0.1520979255437851,-0.27942073345184326,0.1790270060300827
1788881002502700300,11.3457001953125,0.37818804383277893,-0.31451478600502014,0.277611643075943
1788881002512730400,11.35573046875,0.491644024848938,-0.33082371950149536,0.3684360980987549
1788881002522760400,11.365760498046875,0.6193745732307434,-0.3905312716960907,0.3896492123603821
1788881002532790500,11.37579052734375,0.7341395020484924,-0.5363337397575378,0.36426079273223877
1788881002542821400,11.3858212890625,0.8385835886001587,-0.78544020652771,0.35783296823501587
1788881002552851500,11.3958515625,0.9346595406532288,-1.0775046348571777,0.38632240891456604
1788881002562881500,11.405881591796875,1.0406177043914795,-1.3837382793426514,0.43591633439064026
1788881002572911600,11.41591162109375,1.1607595682144165,-1.6105402708053589,0.44655460119247437
1788881002582942500,11.4259423828125,1.2602765560150146,-1.7064361572265625,0.43558183312416077
1788881002592972500,11.43597265625,1.3371249437332153,-1.73963463306427,0.40742796659469604
1788881002603002600,11.446002685546874,1.339471459388733,-1.8237375020980835,0.35451653599739075
1788881002613032400,11.456032470703125,1.3481464385986328,-2.1676981449127197,0.19522328674793243
1788881002623063300,11.466063232421876,1.242253303527832,-3.632441520690918,-0.5195600986480713
1788881002633093400,11.47609326171875,1.074082374572754,-4.755940914154053,-1.3162223100662231
1788881002643123500,11.48612353515625,0.972000241279602,-4.4933180809021,-1.6500400304794312
1788881002653153500,11.496153564453126,0.8601999878883362,-3.795720100402832,-1.7322720289230347
1788881002663184400,11.506184326171875,0.8651316165924072,-3.112419843673706,-1.8296509981155396
1788881002673214500,11.51621435546875,0.9406617879867554,-2.6787967681884766,-2.026357650756836
1788881002683244500,11.52624462890625,1.0124691724777222,-2.344480037689209,-2.274998188018799
1788881002693274600,11.536274658203125,1.085927128791809,-1.9590750932693481,-2.5413525104522705
1788881002703305500,11.546305419921875,1.1509191989898682,-1.4526222944259644,-2.7572269439697266
1788881002713335600,11.55633544921875,1.1984273195266724,-0.9336376786231995,-2.9372711181640625
1788881002723365600,11.56636572265625,1.2131074666976929,-0.5705870389938354,-3.1202375888824463
1788881002733395500,11.5763955078125,1.1784002780914307,-0.39375847578048706,-3.2942068576812744
1788881002743426300,11.58642626953125,1.0638340711593628,-0.34050166606903076,-3.455216407775879
1788881002753456400,11.596456298828125,0.933452844619751,-0.23826156556606293,-3.477203369140625
1788881002763486500,11.606486572265625,0.8477856516838074,-0.1649676412343979,-3.399435043334961
1788881002773516500,11.6165166015625,0.8104776740074158,-0.15095755457878113,-3.298161745071411
1788881002783546400,11.62654638671875,0.7749409675598145,-0.08640812337398529,-3.0901646614074707
1788881002793577500,11.636577392578126,0.7235401272773743,-0.04161748290061951,-2.848405599594116
1788881002803607600,11.646607666015624,0.6421648263931274,-0.19105757772922516,-2.670095443725586
1788881002813637400,11.656637451171875,0.5452311038970947,-0.45227134227752686,-2.5543699264526367
1788881002823668500,11.66666845703125,0.524816632270813,-0.7754363417625427,-2.492738962173462
1788881002833698600,11.676698486328124,0.4554194509983063,-1.1017646789550781,-2.3491263389587402
1788881002843728600,11.686728759765625,0.4460565745830536,-1.2285335063934326,-2.0955631732940674
1788881002853758200,11.69675830078125,0.4342835545539856,-1.0857601165771484,-1.7845882177352905
1788881002863788300,11.706788330078124,0.4123300313949585,-0.7257124781608582,-1.4455115795135498
1788881002873819400,11.7168193359375,0.3790983259677887,-0.3260287046432495,-1.1362762451171875
1788881002883849500,11.726849365234376,0.2806684076786041,-0.11094755679368973,-0.805903971195221
1788881002893879300,11.73687939453125,0.19992482662200928,-0.11420433968305588,-0.5134177803993225
1788881002903909400,11.746909423828125,0.11635297536849976,-0.10649927705526352,-0.2693585157394409
1788881002913940500,11.7569404296875,0.0323139987885952,0.009314405731856823,-0.006059224251657724
1788881002923970600,11.766970458984375,-0.037461355328559875,0.15065555274486542,0.29579463601112366
1788881002934000400,11.77700048828125,-0.08213934302330017,0.3902644217014313,0.6067719459533691
1788881002944030500,11.787030517578126,-0.11503817141056061,0.6576692461967468,0.9288362860679626
1788881002954061600,11.7970615234375,-0.149061381816864,0.8508378863334656,1.2661067247390747
1788881002964091600,11.807091552734375,-0.18960241973400116,0.9892604947090149,1.6204850673675537
1788881002974121200,11.817121337890624,-0.25122982263565063,1.0513118505477905,1.9701237678527832
1788881002984151300,11.8271513671875,-0.3448687195777893,1.0972042083740234,2.308698892593384
1788881002994182400,11.837182373046875,-0.47098615765571594,1.160137414932251,2.626922369003296
1788881003004212500,11.84721240234375,-0.6088050007820129,1.1496703624725342,2.879953384399414
1788881003014242300,11.8572421875,-0.7274682521820068,1.0443991422653198,3.0401484966278076
1788881003024272400,11.8672724609375,-0.8197097778320312,0.895265519618988,3.1511034965515137
1788881003034303500,11.877303466796874,-0.9092867970466614,0.8545652627944946,3.280305862426758
1788881003044333600,11.88733349609375,-0.9988476037979126,0.9587368965148926,3.4522531032562256
1788881003054363400,11.89736328125,-1.0888723134994507,1.0941407680511475,3.6201741695404053
1788881003064393500,11.9073935546875,-1.181565761566162,1.1769754886627197,3.734241485595703
1788881003074424600,11.917424560546875,-1.2551733255386353,1.2296850681304932,3.789302110671997
1788881003084454700,11.92745458984375,-1.2128627300262451,1.232314944267273,3.7909364700317383
1788881003094484200,11.937484130859374,-1.1714086532592773,1.254514455795288,3.748054027557373
1788881003104514300,11.947514404296875,-1.178080677986145,1.3352484703063965,3.640021800994873
1788881003114545400,11.95754541015625,-1.1747113466262817,1.6366509199142456,3.4775218963623047
1788881003124575500,11.967575439453125,-1.1839498281478882,2.174891471862793,3.242685317993164
1788881003134605300,11.977605224609375,-1.2139545679092407,2.6775691509246826,2.9080088138580322
1788881003144635400,11.987635498046876,-1.2724533081054688,3.0029664039611816,2.536604166030884
1788881003154666500,11.99766650390625,-1.334657073020935,3.073262929916382,2.14986515045166
1788881003164696600,12.007696533203125,-1.314493179321289,2.8793838024139404,1.6934393644332886
1788881003174726400,12.017726318359376,-1.2766187191009521,2.6390678882598877,1.2351386547088623
1788881003184756500,12.027756591796875,-1.270503282546997,2.3413679599761963,0.8177486658096313
1788881003194787600,12.03778759765625,-1.2101683616638184,1.855526328086853,0.4734248220920563
1788881003204817400,12.0478173828125,-1.0932153463363647,1.2779815196990967,0.19619081914424896
1788881003214847200,12.05784716796875,-0.9287060499191284,0.7615000009536743,-0.01575765758752823
1788881003224877300,12.067877197265625,-0.8351371884346008,0.46002644300460815,-0.263864666223526
1788881003234908400,12.077908447265624,-0.7921029329299927,0.3806253671646118,-0.5489688515663147
1788881003244938500,12.0879384765625,-0.6610162854194641,0.49960875511169434,-0.8177896738052368
1788881003254968300,12.09796826171875,-0.6883576512336731,0.7060343623161316,-0.9705661535263062
1788881003264998400,12.107998291015624,-0.7241358757019043,0.7915295362472534,-1.0147954225540161
1788881003275029500,12.118029541015625,-0.8184255957603455,0.702420175075531,-0.9468815922737122
1788881003285059300,12.128059326171876,-0.9262146353721619,0.5630183219909668,-0.7991528511047363
1788881003295089400,12.13808935546875,-0.8995979428291321,0.4220314025878906,-0.6028105020523071
1788881003305119500,12.148119384765625,-0.7730967402458191,0.26205185055732727,-0.4346824884414673
1788881003315150600,12.158150634765626,-0.6166355013847351,0.10815896093845367,-0.3352869153022766
1788881003325180400,12.168180419921875,-0.5010798573493958,-0.016817862167954445,-0.2543310821056366
1788881003335210200,12.178210205078125,-0.3867482542991638,-0.09868263453245163,-0.15801680088043213
1788881003345240300,12.188240234375,-0.2508934736251831,-0.12392647564411163,-0.02298627607524395
1788881003355271400,12.198271484375,-0.0070861391723155975,-0.030312098562717438,0.13027438521385193
1788881003365301200,12.20830126953125,0.2172340452671051,0.0903642475605011,0.2655472457408905
1788881003375331000,12.2183310546875,0.33364880084991455,0.09188251942396164,0.3425336480140686
1788881003385361000,12.22836083984375,0.4542196989059448,0.012591958045959473,0.3555668890476227
1788881003395392000,12.23839208984375,0.5879538059234619,-0.20433183014392853,0.36376863718032837
1788881003405422000,12.248422119140624,0.722973644733429,-0.5150470733642578,0.4376668334007263
1788881003415452000,12.258451904296875,0.8749251365661621,-0.8519731760025024,0.5735418200492859
1788881003425482000,12.26848193359375,1.0098466873168945,-1.0687627792358398,0.6815119981765747
1788881003435512000,12.278511962890626,1.1457723379135132,-1.2232450246810913,0.7573217749595642
1788881003445543200,12.288543212890625,1.2616885900497437,-1.307172417640686,0.8213556408882141
1788881003455573000,12.298572998046875,1.3753743171691895,-1.3451826572418213,0.8320274353027344
1788881003465603000,12.30860302734375,1.465710163116455,-1.5474499464035034,0.7130318284034729
1788881003475633200,12.318633056640625,1.5608030557632446,-2.198989152908325,0.37448757886886597
1788881003485664300,12.328664306640626,1.4351534843444824,-3.90104603767395,-0.5508192181587219
1788881003495694000,12.338694091796874,1.2986923456192017,-4.380459785461426,-1.2148927450180054
1788881003505724000,12.348723876953125,1.192041039466858,-3.9085440635681152,-1.4845865964889526
1788881003515754000,12.35875390625,1.0532341003417969,-3.5039758682250977,-1.6832573413848877
1788881003525785000,12.36878515625,1.0557907819747925,-3.3032145500183105,-1.8933300971984863
1788881003535815000,12.37881494140625,1.0939749479293823,-3.1173017024993896,-2.1003189086914062
1788881003545845000,12.388844970703126,1.1260724067687988,-2.787879467010498,-2.280241012573242
1788881003555875000,12.398875,1.164552092552185,-2.2875921726226807,-2.4223580360412598
1788881003565906000,12.408906005859375,1.1540555953979492,-1.703108310699463,-2.5859925746917725
1788881003575936000,12.41893603515625,1.1147485971450806,-1.0796034336090088,-2.7549355030059814
1788881003585966000,12.428966064453125,1.088862657546997,-0.5586912631988525,-2.912949562072754
1788881003595996200,12.43899609375,1.02969229221344,-0.3225948214530945,-3.108140230178833
1788881003606027000,12.449027099609374,0.9010853171348572,-0.2722528278827667,-3.3216302394866943
1788881003616057000,12.45905712890625,0.78019779920578,-0.34036344289779663,-3.522181987762451
1788881003626087000,12.4690869140625,0.6898348927497864,-0.4026646316051483,-3.6383183002471924
1788881003636117000,12.479116943359376,0.6445432901382446,-0.35520124435424805,-3.658355236053467
1788881003646147800,12.48914794921875,0.5345693826675415,-0.14301201701164246,-3.4878575801849365
1788881003656178000,12.499177978515625,0.4582301378250122,0.082309789955616,-3.286167860031128
1788881003666208000,12.5092080078125,0.38029754161834717,0.1733243763446808,-3.0894672870635986
1788881003676238000,12.519238037109375,0.3160674273967743,0.10996245592832565,-2.906785726547241
1788881003686269000,12.52926904296875,0.2561502754688263,-0.21652591228485107,-2.788109064102173
1788881003696299000,12.539299072265624,0.17640912532806396,-0.7405459880828857,-2.618748664855957
1788881003706329000,12.5493291015625,0.1677629053592682,-0.8358384370803833,-2.2760205268859863
1788881003716359200,12.559359130859375,0.17932341992855072,-0.5750135183334351,-1.8367486000061035
1788881003726390000,12.56939013671875,0.1583358496427536,-0.317251980304718,-1.458482027053833
1788881003736420000,12.579420166015625,0.1413286328315735,-0.15929457545280457,-1.191278338432312
1788881003746450000,12.589449951171876,0.09429480880498886,-0.035896215587854385,-0.9635918736457825
1788881003756480000,12.59947998046875,0.08512528240680695,0.22196142375469208,-0.6665180921554565
1788881003766510800,12.6095107421875,0.05823241546750069,0.414758563041687,-0.31003350019454956
1788881003776541000,12.619541015625,0.010499779134988785,0.5413596630096436,0.07724818587303162
