time,seconds_elapsed,z,y,x
1789116107654436900,0.146436767578125,9.059226989746094,2.8824539184570312,0.38793638348579407
1789116107673287000,0.165286865234375,8.93240737915039,2.810669183731079,0.6272186636924744
1789116107692137000,0.184136962890625,9.047262191772461,2.942274570465088,0.9122636318206787
1789116107710987000,0.202987060546875,8.958727836608887,2.9542386531829834,0.924227774143219
1789116107729837000,0.221837158203125,8.889336585998535,2.659921407699585,0.9385846853256226
1789116107748687000,0.24068701171875,8.611469268798828,2.525923490524292,0.8066803216934204
1789116107767537200,0.259537109375,8.803194046020508,2.597707986831665,0.5027918815612793
1789116107786387200,0.27838720703125,9.193224906921387,2.7675983905792236,0.035892341285943985
1789116107805237200,0.2972373046875,9.018548965454102,3.0020952224731445,-0.15314064919948578
1789116107824087600,0.316087646484375,8.858229637145996,2.839383125305176,0.2799602448940277
1789116107842937600,0.3349375,9.018548965454102,2.9303104877471924,0.5913262963294983
1789116107861787600,0.35378759765625,9.267701148986816,3.0643084049224854,0.5554339289665222
1789116107880637700,0.3726376953125,9.243474006652832,3.1148569583892822,0.41904306411743164
1789116107899487700,0.39148779296875,9.243474006652832,3.193819999694824,0.4094717800617218
1789116107918337800,0.410337890625,9.542876243591309,3.277568817138672,0.5171487927436829
1789116107937187800,0.429187744140625,10.050453186035156,3.0957143306732178,0.7085745930671692
1789116107956038100,0.4480380859375,10.337592124938965,2.7412774562835693,1.0151549577713013
1789116107974888200,0.46688818359375,9.978668212890625,2.6958138942718506,1.189831018447876
1789116107993738200,0.48573828125,9.339486122131348,3.0499515533447266,1.2065808773040771
1789116108012588300,0.50458837890625,9.042476654052734,3.6293137073516846,0.4453641176223755
1789116108031438300,0.523438232421875,9.145368576049805,3.801896095275879,-0.05742774158716202
1789116108050288400,0.542288330078125,9.214759826660156,3.5575289726257324,0.16271193325519562
1789116108069138400,0.561138427734375,9.20279598236084,3.5359935760498047,0.5913262963294983
1789116108087988700,0.57998876953125,9.20997428894043,3.6460635662078857,0.8739784955978394
1789116108106838800,0.5988388671875,9.365806579589844,3.5647075176239014,0.7468597888946533
1789116108125688800,0.617688720703125,9.282057762145996,3.507279872894287,0.5673980712890625
1789116108144539000,0.636538818359375,8.941978454589844,3.5168511867523193,0.6655037999153137
1789116108163389000,0.655388916015625,8.884550094604492,3.559921979904175,0.7301099896430969
1789116108182239200,0.6742392578125,9.028120040893555,3.5647075176239014,0.6990033388137817
1789116108201089300,0.69308935546875,8.994620323181152,3.490530014038086,0.7444669604301453
1789116108219939300,0.711939208984375,8.965906143188477,3.5096726417541504,0.5506483316421509
1789116108238789400,0.730789306640625,9.236295700073242,3.569493293762207,0.2153540402650833
1789116108257639400,0.749639404296875,9.332307815551758,3.5024940967559814,0.27756741642951965
1789116108276489700,0.76848974609375,8.884550094604492,3.5718860626220703,0.42382872104644775
1789116108295339800,0.78733984375,8.391329765319824,3.6269209384918213,0.3616153299808502
1789116108314189800,0.80618994140625,8.374580383300781,3.614956855773926,0.08135596662759781
1789116108333039900,0.825039794921875,8.695218086242676,3.6870405673980713,-0.17946170270442963
1789116108351890200,0.84389013671875,8.922835350036621,3.7253258228302,-0.28983065485954285
1789116108370740200,0.862740234375,9.011369705200195,3.699004650115967,-0.31375887989997864
1789116108389590300,0.88159033203125,9.212367057800293,3.61017107963562,-0.3233301639556885
1789116108408440300,0.9004404296875,9.490233421325684,3.5503506660461426,-0.39032918214797974
1789116108427290600,0.91929052734375,9.700801849365234,3.483351469039917,-0.44775694608688354
1789116108446140700,0.938140625,9.72233772277832,3.3469607830047607,-0.4214358925819397
1789116108464990700,0.95699072265625,9.638588905334473,3.303889751434326,-0.47168517112731934
1789116108483840800,0.9758408203125,9.47348403930664,3.397209882736206,-0.5554339289665222
1789116108502691000,0.994691162109375,9.365806579589844,3.418745279312134,-0.6248258352279663
1789116108521541000,1.013541015625,9.265308380126953,3.4570305347442627,-0.7205387353897095
1789116108540391200,1.03239111328125,9.181260108947754,3.670290946960449,-0.8548358678817749
1789116108559241500,1.051241455078125,9.142974853515625,3.780360698699951,-0.8739784955978394
1789116108578091500,1.070091552734375,9.226723670959473,3.7612180709838867,-0.7420741319656372
1789116108596941600,1.088941650390625,9.392127990722656,3.7253258228302,-0.5578267574310303
1789116108615791900,1.1077919921875,9.485447883605957,3.70139741897583,-0.3927220106124878
1789116108634642000,1.126641845703125,9.499805450439453,3.5742788314819336,-0.34725838899612427
1789116108653492000,1.145491943359375,9.404091835021973,3.452244758605957,-0.4262215197086334
1789116108672342000,1.164342041015625,9.121439933776855,3.4618160724639893,-0.4692923426628113
1789116108691192300,1.1831923828125,8.930013656616211,3.5647075176239014,-0.26560330390930176
1789116108710042400,1.20204248046875,8.908478736877441,3.6293137073516846,-0.064606212079525
1789116108728892700,1.220892578125,8.817551612854004,3.660719633102417,0.14835500717163086
1789116108747742700,1.23974267578125,8.609076499938965,3.770789384841919,0.29700911045074463
1789116108766592800,1.2585927734375,8.585148811340332,3.833002805709839,0.3448655605316162
1789116108785443000,1.277443115234375,8.755337715148926,3.770789384841919,0.38315072655677795
1789116108804293000,1.296293212890625,8.733802795410156,3.7109687328338623,0.4214358925819397
1789116108823143200,1.31514306640625,8.616254806518555,3.583850145339966,0.4573282301425934
1789116108841993500,1.333993408203125,8.487042427062988,3.521636724472046,0.33529427647590637
1789116108860843500,1.352843505859375,8.43440055847168,3.4785659313201904,0.24167509377002716
1789116108879693800,1.37169384765625,8.510971069335938,3.5742788314819336,0.16031911969184875
1789116108898543900,1.3905439453125,8.68325424194336,3.6511483192443848,0.15074782073497772
1789116108917394000,1.409393798828125,8.582756042480469,3.6340994834899902,0.1866401731967926
1789116108936244200,1.428244140625,8.479864120483398,3.70139741897583,0.2632105052471161
1789116108955094300,1.44709423828125,8.436793327331543,3.7540395259857178,0.36640095710754395
1789116108973944300,1.4659443359375,8.451150894165039,3.833002805709839,0.33050861954689026
1789116108992794600,1.484794677734375,8.451150894165039,3.8210387229919434,0.39990049600601196
1789116109011644700,1.503644775390625,8.482256889343262,3.7588253021240234,0.4860421121120453
1789116109030495000,1.522494873046875,8.757730484008789,3.7731821537017822,0.6032904386520386
1789116109049345000,1.541344970703125,8.786444664001465,3.6966118812561035,0.610468864440918
1789116109068195300,1.5601953125,8.642576217651367,3.57906436920166,0.7851449251174927
1789116109087045400,1.57904541015625,8.398508071899414,3.7444684505462646,0.6200401782989502
1789116109105895700,1.597895751953125,8.324331283569336,3.538386583328247,0.8739784955978394
1789116109124745700,1.616745849609375,8.487042427062988,2.30069899559021,1.6806588172912598
1789116109143595800,1.635595703125,8.633005142211914,1.872084617614746,2.0374884605407715
1789116109162446000,1.654446044921875,8.73619556427002,2.17627215385437,1.9896320104599
1789116109181296000,1.673296142578125,8.609076499938965,2.5450658798217773,1.4246268272399902
1789116109200146400,1.692146484375,7.618149280548096,2.0039889812469482,1.9199410676956177
1789116109218996500,1.71099658203125,7.438388347625732,1.7979071140289307,1.6160526275634766
1789116109237846800,1.7298466796875,6.894918441772461,1.6447664499282837,1.1467602252960205
1789116109256696800,1.74869677734375,6.99541711807251,1.3357932567596436,0.8018946647644043
1789116109275547100,1.767547119140625,7.282855033874512,1.0295119285583496,0.4980062246322632
1789116109294397200,1.786397216796875,7.249355316162109,0.6367899179458618,0.40229329466819763
1789116109322672400,1.81467236328125,7.251748085021973,-0.5027918815612793,0.9553344249725342
1789116109341522700,1.833522705078125,7.2182488441467285,-1.2951152324676514,0.9290133714675903
1789116109360372700,1.852372802734375,6.792026996612549,-1.342971682548523,0.5195416212081909
1789116109379223000,1.87122314453125,7.656434059143066,-2.3820550441741943,0.8715856671333313
1789116109398073000,1.890072998046875,7.716254711151123,-3.4498519897460938,0.8401798605918884
1789116109416923400,1.90892333984375,7.022037029266357,-4.146462440490723,0.39511483907699585
1789116109435773400,1.9277734375,7.091429233551025,-5.211866855621338,-0.3089732229709625
1789116109454623700,1.946623779296875,7.6253275871276855,-6.114559173583984,-1.55623197555542
1789116109473473800,1.965473876953125,8.250153541564941,-6.957131862640381,-2.880061149597168
1789116109492324000,1.984323974609375,8.870193481445312,-7.531708240509033,-3.8162529468536377
1789116109511174100,2.003174072265625,8.934800148010254,-7.8382887840271,-4.677968502044678
1789116109530024400,2.0220244140625,9.135796546936035,-8.839086532592773,-5.085047245025635
1789116109548874800,2.040874755859375,9.813264846801758,-9.700801849365234,-5.870192050933838
1789116109567724800,2.059724853515625,11.91296672821045,-9.923633575439453,-6.911668300628662
1789116109586575000,2.0785751953125,15.659828186035156,-8.922835350036621,-7.163213729858398
1789116109605425200,2.097425048828125,15.705291748046875,-7.833503246307373,-7.5412797927856445
1789116109624275500,2.116275390625,15.566507339477539,-7.1488566398620605,-9.08554744720459
1789116109643125500,2.13512548828125,14.43889045715332,-6.468996047973633,-11.235498428344727
1789116109661975800,2.153975830078125,11.953644752502441,-6.023632049560547,-13.696516990661621
1789116109680825900,2.172825927734375,10.323235511779785,-5.709873199462891,-12.944870948791504
1789116109699676200,2.19167626953125,12.109477043151855,-3.7205400466918945,-4.622933387756348
1789116109727951400,2.219951416015625,11.654541969299316,-1.4126626253128052,-3.325425386428833
1789116109746801700,2.2388017578125,10.205986976623535,-2.3198416233062744,-5.504090309143066
1789116109765651700,2.257651611328125,6.413661956787109,-3.311068296432495,-6.964310169219971
1789116109784502000,2.276501953125,5.099404335021973,-3.631706476211548,-9.916455268859863
1789116109803352300,2.295352294921875,4.412364959716797,-3.801896095275879,-9.509376525878906
1789116109822202400,2.314202392578125,3.085843801498413,-2.7508487701416016,-9.40169906616211
1789116109841052700,2.333052734375,2.4370899200439453,-4.144069671630859,-8.460721969604492
1789116109859902700,2.35190283203125,2.324627161026001,-4.170390605926514,-6.236593246459961
1789116109878753000,2.3707529296875,2.3509483337402344,-4.860121726989746,-3.7995033264160156
1789116109897603300,2.389603271484375,3.873680830001831,-3.5958142280578613,-3.3230323791503906
1789116109916453400,2.408453369140625,4.91037130355835,-5.535196781158447,-1.922333836555481
1789116109935303700,2.4273037109375,3.75643253326416,-6.480959892272949,-1.8744773864746094
1789116109954153700,2.44615380859375,3.442673683166504,-7.479066371917725,-3.490530014038086
1789116109973004000,2.465004150390625,4.050749778747559,-8.803194046020508,-5.4418768882751465
1789116109991854300,2.483854248046875,4.570291042327881,-10.071989059448242,-7.3043904304504395
1789116110010704600,2.50270458984375,5.3748779296875,-10.392926216125488,-7.287640571594238
1789116110029554700,2.5215546875,5.516054630279541,-11.211570739746094,-8.28843879699707
1789116110048405000,2.540405029296875,5.757729530334473,-11.613863945007324,-8.235795974731445
1789116110067255000,2.559255126953125,6.021239280700684,-10.723135948181152,-7.538887023925781
1789116110086105300,2.578105224609375,6.054738521575928,-9.416056632995605,-6.966702938079834
1789116110104955600,2.59695556640625,5.903990745544434,-7.972286701202393,-6.7417778968811035
1789116110123806000,2.615805908203125,5.867799282073975,-6.516852378845215,-6.768098831176758
1789116110142656000,2.634656005859375,5.776872158050537,-6.310770511627197,-7.254140853881836
1789116110161506300,2.65350634765625,6.258128643035889,-6.15045166015625,-7.560422420501709
1789116110180356400,2.6723564453125,6.425626277923584,-6.0523457527160645,-7.5341010093688965
1789116110199206700,2.69120654296875,6.729813575744629,-5.250152111053467,-8.448758125305176
1789116110218057000,2.710056884765625,5.9901323318481445,-3.098107099533081,-9.001798629760742
1789116110236907000,2.728906982421875,5.56151819229126,-3.1148569583892822,-8.563612937927246
1789116110255757300,2.74775732421875,5.700301647186279,-4.66361141204834,-8.30997371673584
1789116110274607600,2.766607666015625,5.642873764038086,-6.272485256195068,-7.416852951049805
1789116110293458000,2.7854580078125,5.336592674255371,-6.703492641448975,-6.057131290435791
1789116110312308000,2.804307861328125,4.979763031005859,-6.339484691619873,-4.761716842651367
1789116110331158300,2.823158203125,4.388436794281006,-5.432305812835693,-4.359723091125488
1789116110350008600,2.842008544921875,5.087440013885498,-4.599005222320557,-4.467400074005127
1789116110368858600,2.860858642578125,5.420341491699219,-3.6822550296783447,-4.512863636016846
1789116110387709000,2.879708984375,4.206283092498779,-2.5088746547698975,-4.587040901184082
1789116110406559200,2.898559326171875,4.802694320678711,-1.6686947345733643,-4.426722049713135
1789116110425409500,2.917409423828125,6.976274490356445,-1.0965110063552856,-4.919942378997803
1789116110444259800,2.936259765625,6.488138675689697,-0.890728235244751,-5.257330417633057
1789116110463110000,2.95510986328125,6.246164321899414,-0.8668000102043152,-4.91037130355835
1789116110481960200,2.973960205078125,6.133701801300049,-0.8883354067802429,-4.577469825744629
1789116110500810500,2.992810546875,6.057131290435791,-1.2424731254577637,-4.069892406463623
1789116110519660800,3.011660888671875,6.250949859619141,-1.7715860605239868,-3.9000017642974854
1789116110538510800,3.0305107421875,6.286842346191406,-2.0207388401031494,-3.9478583335876465
1789116110557361200,3.049361083984375,6.540780544281006,-1.9103697538375854,-4.144069671630859
1789116110576211500,3.06821142578125,6.6245293617248535,-1.8026927709579468,-4.141676902770996
1789116110595061800,3.087061767578125,6.605386734008789,-1.6375880241394043,-4.194318771362305
1789116110613911800,3.105911865234375,6.744170665740967,-1.5634105205535889,-4.534399032592773
1789116110632762000,3.12476220703125,6.799205780029297,-1.4820544719696045,-5.199902534484863
1789116110651612400,3.1436123046875,6.521637916564941,-1.3381860256195068,-5.207081317901611
1789116110670462700,3.162462646484375,6.236593246459961,-1.781157374382019,-5.544768333435059
1789116110689313000,3.18131298828125,6.1073808670043945,-2.5474588871002197,-6.138487339019775
1789116110708163000,3.2001630859375,6.160022735595703,-2.98295259475708,-5.90877628326416
1789116110727013400,3.219013427734375,6.272485256195068,-3.0571300983428955,-5.113760948181152
1789116110745863700,3.23786376953125,6.777669906616211,-2.9614171981811523,-3.9478583335876465
1789116110764714000,3.2567138671875,6.81595516204834,-3.7253258228302,-4.285545349121094
1789116110783564300,3.275564208984375,6.140880107879639,-4.033999919891357,-7.536494255065918
1789116110802414600,3.29441455078125,5.192724227905273,-5.037190914154053,-8.44157886505127
1789116110821264600,3.3132646484375,4.124927043914795,-6.784848690032959,-8.341080665588379
1789116110840115000,3.332114990234375,4.0196428298950195,-7.670791149139404,-8.470293045043945
1789116110858965200,3.35096533203125,4.953442096710205,-8.563612937927246,-7.550850868225098
1789116110877815600,3.369815673828125,4.713860511779785,-10.28734302520752,-6.564708709716797
1789116110896665900,3.388665771484375,4.701896667480469,-12.20518970489502,-5.911169052124023
1789116110915516200,3.40751611328125,5.140082359313965,-13.148261070251465,-4.213760852813721
1789116110934366200,3.4263662109375,5.425127029418945,-12.145369529724121,-2.9231319427490234
1789116110953216500,3.445216552734375,5.597410202026367,-11.431710243225098,-2.1714866161346436
1789116110972066800,3.46406689453125,5.290830135345459,-11.242676734924316,-2.0709879398345947
1789116110990917000,3.482917236328125,5.061119079589844,-10.742278099060059,-1.8505492210388184
1789116111009767400,3.501767333984375,4.860121726989746,-9.930811882019043,-1.5777673721313477
1789116111028617700,3.52061767578125,4.651647090911865,-9.138189315795898,-1.3836497068405151
1789116111047468000,3.539468017578125,4.084249019622803,-8.388936996459961,-1.0821540355682373
1789116111066318000,3.558318115234375,4.285545349121094,-7.960322856903076,-0.5195416212081909
1789116111085168400,3.57716845703125,4.9486565589904785,-7.6013994216918945,-0.8282157182693481
1789116111104018700,3.596018798828125,5.015655517578125,-7.630113124847412,-1.4365909099578857
1789116111122869000,3.614868896484375,5.5136613845825195,-7.886145114898682,-1.8792630434036255
1789116111141719300,3.63371923828125,6.22702169418335,-7.766504287719727,-1.5777673721313477
1789116111160569600,3.652569580078125,6.674778938293457,-7.716254711151123,-1.0510473251342773
1789116111179420000,3.671419921875,6.756134510040283,-8.058428764343262,-1.067797064781189
1789116111198270200,3.690270263671875,6.777669906616211,-8.187939643859863,-1.2783654928207397
1789116111217120500,3.70912060546875,7.177570819854736,-8.522934913635254,-1.781157374382019
1789116111235970600,3.727970458984375,7.519744396209717,-8.254939079284668,-3.119642496109009
1789116111254820900,3.74682080078125,8.250153541564941,-8.656932830810547,-3.270390272140503
1789116111273671200,3.765671142578125,8.257331848144531,-9.212367057800293,-2.997309446334839
1789116111292521500,3.784521484375,8.144868850708008,-8.66889762878418,-3.13639235496521
1789116111311371800,3.803371826171875,7.5652079582214355,-7.450352191925049,-3.4331023693084717
1789116111330222000,3.82222216796875,7.416852951049805,-7.019644260406494,-2.700599431991577
1789116111349072400,3.841072265625,7.531708240509033,-6.9475603103637695,-2.2911276817321777
1789116111367922700,3.859922607421875,7.752147197723389,-6.945167541503906,-1.812264084815979
1789116111386773000,3.87877294921875,7.833503246307373,-6.866204738616943,-1.6375880241394043
1789116111405623300,3.897623291015625,7.345067977905273,-6.133701801300049,-1.9486548900604248
1789116111424473600,3.9164736328125,7.196712970733643,-4.718646049499512,-2.513660192489624
1789116111443324000,3.935323974609375,7.146463871002197,-3.895216226577759,-2.8441689014434814
1789116111462174200,3.95417431640625,6.253343105316162,-3.4857444763183594,-2.7795627117156982
1789116111481024500,3.9730244140625,5.647659778594971,-2.99013090133667,-2.2337000370025635
1789116111499874800,3.991874755859375,5.389235019683838,-2.6096723079681396,-1.501197099685669
1789116111528150300,4.020150390625,5.827121257781982,-2.231307029724121,-1.0534402132034302
1789116111547000600,4.03900048828125,6.1313090324401855,-2.2648067474365234,-1.2041879892349243
1789116111565851000,4.057850830078125,6.679564476013184,-2.36291241645813,-1.378864049911499
1789116111594126000,4.0861259765625,7.227819919586182,-2.4705893993377686,-1.2735798358917236
1789116111612976400,4.104976318359375,7.156035423278809,-2.540280342102051,-1.3645070791244507
1789116111631827000,4.123826904296875,7.208677291870117,-2.5160529613494873,-1.5945172309875488
1789116111650677000,4.142677001953125,7.172784805297852,-2.4323041439056396,-2.0207388401031494
1789116111669527300,4.16152734375,7.105785846710205,-2.4562325477600098,-2.4466612339019775
1789116111688377600,4.180377685546875,7.043572425842285,-2.506481647491455,-2.731706142425537
1789116111707228000,4.199227783203125,6.902096748352051,-2.441875457763672,-2.8154549598693848
1789116111726078200,4.218078125,6.825526714324951,-2.3270199298858643,-2.755634307861328
1789116111744928800,4.2369287109375,7.022037029266357,-2.3150558471679688,-2.8752756118774414
1789116111763778800,4.25577880859375,7.3761749267578125,-2.5112674236297607,-3.0957143306732178
1789116111782629000,4.274629150390625,7.34267520904541,-3.0643084049224854,-3.263211965560913
1789116111801479400,4.2934794921875,6.99541711807251,-4.201497554779053,-3.129213809967041
1789116111820329700,4.312329833984375,6.708278179168701,-5.90159797668457,-2.753241539001465
1789116111839180000,4.331179931640625,6.62931489944458,-7.64447021484375,-2.389233350753784
1789116111858030600,4.350030517578125,6.62931489944458,-8.86062240600586,-2.149951219558716
1789116111876881000,4.368880859375,6.574280261993408,-9.301200866699219,-2.025524377822876
1789116111895731200,4.387731201171875,6.696314334869385,-9.416056632995605,-2.042274236679077
1789116111914581500,4.40658154296875,6.949953556060791,-9.435198783874512,-2.169093608856201
1789116111933431800,4.425431884765625,6.926024913787842,-9.432806015014648,-2.293520450592041
1789116111952282000,4.4442822265625,6.442375659942627,-9.528518676757812,-2.3150558471679688
1789116111971132400,4.46313232421875,5.982954025268555,-9.861420631408691,-2.1930220127105713
1789116111989982700,4.481982666015625,5.793622016906738,-10.13180923461914,-2.001596212387085
1789116112008833000,4.5008330078125,5.831906795501709,-10.064809799194336,-1.9127626419067383
1789116112027683300,4.519683349609375,5.719444274902344,-9.823135375976562,-1.8457635641098022
1789116112046533600,4.53853369140625,5.7170515060424805,-9.459127426147461,-1.6064813137054443
1789116112065384000,4.557384033203125,5.899205207824707,-9.291629791259766,-1.2687941789627075
1789116112084234200,4.576234130859375,6.069095611572266,-9.655338287353516,-1.2281162738800049
1789116112103084500,4.59508447265625,5.944668769836426,-10.174880027770996,-1.4964114427566528
1789116112121934800,4.613934814453125,5.602196216583252,-10.414461135864258,-1.7715860605239868
1789116112140785200,4.63278515625,5.463412284851074,-10.239486694335938,-1.89840567111969
1789116112159635500,4.651635498046875,5.501697540283203,-9.75344467163086,-2.025524377822876
1789116112178485800,4.67048583984375,5.518447399139404,-9.152546882629395,-2.2743778228759766
1789116112197336000,4.689336181640625,5.520840167999268,-8.642576217651367,-2.6240291595458984
1789116112216186400,4.708186279296875,5.528018474578857,-8.290831565856934,-2.99013090133667
1789116112235036700,4.72703662109375,5.645267009735107,-7.950751304626465,-3.184248685836792
1789116112253887000,4.745886962890625,5.843871116638184,-7.71386194229126,-3.4378879070281982
1789116112272737500,4.764737548828125,6.21984338760376,-7.574779033660889,-3.7516467571258545
1789116112291587800,4.783587890625,6.720242500305176,-7.543672561645508,-4.242474555969238
1789116112310438100,4.802438232421875,7.089035987854004,-7.574779033660889,-4.692325115203857
1789116112329288400,4.821288330078125,7.412067413330078,-7.52931547164917,-4.78594446182251
1789116112348138800,4.840138671875,7.52931547164917,-7.309175968170166,-4.429114818572998
1789116112366989000,4.858989013671875,7.416852951049805,-6.861418724060059,-3.880859136581421
1789116112385839400,4.87783935546875,7.306783199310303,-6.435197353363037,-3.279961585998535
1789116112404689700,4.896689697265625,7.3043904304504395,-6.255735874176025,-2.7723841667175293
1789116112423540000,4.9155400390625,7.3522467613220215,-6.133701801300049,-2.535494804382324
1789116112442390300,4.934390380859375,7.2110700607299805,-5.879763603210449,-2.458625316619873
1789116112461240600,4.953240478515625,7.036394119262695,-5.118546962738037,-2.496910333633423
1789116112480091100,4.972091064453125,7.270890712738037,-4.376472473144531,-2.9374887943267822
1789116112498941400,4.99094140625,6.820741176605225,-4.1368913650512695,-3.3134610652923584
1789116112517791700,5.009791748046875,6.305984973907471,-3.64127779006958,-2.8058836460113525
1789116112536642000,5.02864208984375,6.188736438751221,-3.239283561706543,-2.008774518966675
1789116112555492400,5.047492431640625,6.078666687011719,-3.2105698585510254,-1.5418751239776611
1789116112574342700,5.0663427734375,5.877370834350586,-3.090928554534912,-1.5490535497665405
1789116112593193000,5.08519287109375,6.081059455871582,-2.9614171981811523,-1.2640085220336914
1789116112612043300,5.104043212890625,6.447161674499512,-2.856132984161377,-1.1084750890731812
1789116112630893800,5.122893798828125,6.21266508102417,-2.8274190425872803,-1.1874382495880127
1789116112649744100,5.141744140625,6.035595893859863,-2.6790640354156494,-1.2041879892349243
1789116112668594400,5.160594482421875,6.081059455871582,-2.3820550441741943,-1.1563315391540527
1789116112687444700,5.17944482421875,6.171987056732178,-2.1643080711364746,-1.2640085220336914
1789116112706295000,5.198294921875,6.310770511627197,-2.018345832824707,-1.7117655277252197
1789116112725145300,5.217145263671875,6.669992923736572,-1.9007984399795532,-2.231307029724121
1789116112743996000,5.235995849609375,6.787241458892822,-1.9007984399795532,-2.667099952697754
1789116112762846200,5.25484619140625,6.799205780029297,-2.1308085918426514,-3.0092735290527344
1789116112781696500,5.273696533203125,6.81595516204834,-2.817847728729248,-3.239283561706543
1789116112800546800,5.292546875,7.012166976928711,-4.117748737335205,-3.390031576156616
1789116112819397000,5.311397216796875,7.323532581329346,-5.7792649269104,-3.387638568878174
1789116112838247400,5.330247314453125,7.122535705566406,-7.0025954246521,-3.3062827587127686
1789116112857097700,5.34909765625,6.818347930908203,-7.610970497131348,-3.215355396270752
1789116112875948300,5.3679482421875,6.674778938293457,-7.888537883758545,-2.9087750911712646
1789116112894798600,5.386798583984375,6.531209468841553,-7.996214866638184,-2.6958138942718506
1789116112913649000,5.40564892578125,6.372983932495117,-8.056035995483398,-2.7029922008514404
1789116112932499200,5.424499267578125,6.339484691619873,-8.345866203308105,-2.705385208129883
1789116112951349500,5.443349609375,6.428019046783447,-9.157332420349121,-2.674278497695923
1789116112970199800,5.46219970703125,6.3514485359191895,-10.24905776977539,-2.7987051010131836
1789116112989050400,5.48105029296875,6.325127601623535,-10.909775733947754,-3.0571300983428955
1789116113007900700,5.499900634765625,6.15762996673584,-10.82124137878418,-3.2608189582824707
1789116113026751000,5.5187509765625,6.1241302490234375,-10.227521896362305,-3.2177481651306152
1789116113045601300,5.537601318359375,6.408876419067383,-9.842277526855469,-3.169891834259033
1789116113064451600,5.55645166015625,6.521637916564941,-9.746265411376953,-3.349353551864624
1789116113083302000,5.575302001953125,6.5288166999816895,-9.667302131652832,-3.2057840824127197
1789116113102152400,5.59415234375,6.411269187927246,-9.384949684143066,-2.504088878631592
1789116113121002800,5.613002685546875,6.011667728424072,-9.142974853515625,-1.9968105554580688
1789116113139853000,5.63185302734375,5.595017433166504,-9.119047164916992,-2.183450698852539
1789116113158703400,5.650703369140625,5.1783671379089355,-9.279664993286133,-2.3676979541778564
1789116113177553700,5.6695537109375,5.087440013885498,-9.212367057800293,-2.3054845333099365
1789116113196404200,5.688404296875,5.408377170562744,-8.906085968017578,-2.365305185317993
1789116113215254500,5.707254638671875,5.798407554626465,-8.56600570678711,-2.738884687423706
1789116113234104800,5.726104736328125,6.069095611572266,-8.477471351623535,-3.1555347442626953
1789116113252955100,5.744955078125,6.205486297607422,-8.465507507324219,-3.4402806758880615
1789116113271805400,5.763805419921875,6.425626277923584,-8.257331848144531,-3.8856449127197266
1789116113290656000,5.782656005859375,6.581458568572998,-7.89332389831543,-4.618147850036621
1789116113309506300,5.80150634765625,6.705885410308838,-7.4862446784973145,-5.12811803817749
1789116113328356600,5.820356689453125,7.165606498718262,-7.2589263916015625,-5.290830135345459
1789116113347207000,5.83920703125,7.689933776855469,-7.426424026489258,-5.219045162200928
1789116113366057200,5.85805712890625,7.888537883758545,-7.550850868225098,-4.9414777755737305
1789116113384907800,5.87690771484375,7.723433494567871,-7.483851909637451,-4.436293125152588
1789116113403758000,5.895758056640625,7.5652079582214355,-7.318747043609619,-3.6942191123962402
1789116113422608400,5.9146083984375,7.4001030921936035,-6.894918441772461,-3.07627272605896
1789116113441458700,5.933458740234375,7.28046178817749,-6.339484691619873,-2.5689942836761475
1789116113460309200,5.952309326171875,7.0097737312316895,-5.738586902618408,-2.310270309448242
1789116113479159600,5.97115966796875,6.3993048667907715,-4.955834865570068,-2.472982168197632
1789116113498009900,5.990009765625,6.291627883911133,-4.381258487701416,-3.0188448429107666
1789116113516860200,6.008860107421875,6.339484691619873,-3.9622151851654053,-3.0667014122009277
1789116113535710700,6.027710693359375,5.9901323318481445,-3.3828530311584473,-2.573779821395874
1789116113554561000,6.04656103515625,5.62373161315918,-2.6623141765594482,-2.0518453121185303
1789116113573411300,6.065411376953125,5.520840167999268,-2.1954147815704346,-1.8385851383209229
1789116113592261600,6.08426171875,5.386841773986816,-2.2600209712982178,-1.7835501432418823
1789116113611112200,6.1031123046875,5.566303730010986,-2.417947292327881,-1.6088740825653076
1789116113629962500,6.12196240234375,5.822335720062256,-2.36291241645813,-1.4318052530288696
1789116113648812800,6.140812744140625,6.535995006561279,-2.2241287231445312,-1.410269856452942
1789116113667663000,6.1596630859375,6.626922130584717,-2.14516544342041,-1.5586248636245728
1789116113686513700,6.178513671875,6.332305908203125,-1.994417667388916,-1.8864415884017944
1789116113705364000,6.197364013671875,6.3442702293396,-1.9800606966018677,-1.994417667388916
1789116113724214300,6.21621435546875,6.392126560211182,-2.018345832824707,-1.9199410676956177
1789116113743064600,6.235064697265625,6.186343669891357,-2.111665964126587,-2.0709879398345947
1789116113761915100,6.2539150390625,5.987739562988281,-2.3437697887420654,-2.4370899200439453
1789116113780765400,6.272765380859375,6.207879066467285,-2.9255247116088867,-2.7508487701416016
1789116113799615700,6.29161572265625,6.480959892272949,-3.9502511024475098,-3.1148569583892822
1789116113818466300,6.31046630859375,6.545566558837891,-5.147260665893555,-3.5192439556121826
1789116113837316600,6.329316650390625,6.655636310577393,-6.116951942443848,-3.9502511024475098
1789116113856167000,6.3481669921875,6.6006011962890625,-6.799205780029297,-4.084249019622803
1789116113875017200,6.367017333984375,6.4905314445495605,-7.414460182189941,-4.017250061035156
1789116113893867800,6.38586767578125,6.404090881347656,-8.144868850708008,-3.8928234577178955
1789116113912718000,6.404718017578125,6.346662998199463,-8.922835350036621,-3.7827534675598145
1789116113931568400,6.423568359375,6.435197353363037,-9.789336204528809,-3.660719633102417
1789116113950418700,6.442418701171875,6.507281303405762,-10.390533447265625,-3.79471755027771
1789116113969269200,6.461269287109375,6.535995006561279,-10.306485176086426,-3.8162529468536377
1789116113988119600,6.48011962890625,6.540780544281006,-10.071989059448242,-3.6966118812561035
1789116114006969900,6.498969970703125,6.28205680847168,-10.44078254699707,-2.8992037773132324
1789116114025820400,6.5178203125,6.540780544281006,-9.583553314208984,-2.9949166774749756
1789116114044670700,6.536670654296875,5.602196216583252,-9.016156196594238,-4.577469825744629
1789116114063521000,6.55552099609375,6.119344711303711,-9.267701148986816,-3.6942191123962402
1789116114082371600,6.57437158203125,6.672386169433594,-9.27009391784668,-2.2265214920043945
1789116114101222000,6.593221923828125,6.207879066467285,-8.692825317382812,-2.1379871368408203
1789116114120072200,6.612072265625,5.547161102294922,-8.927620887756348,-2.738884687423706
1789116114138922500,6.630922607421875,4.756931304931641,-9.995418548583984,-2.3748764991760254
1789116114157773000,6.64977294921875,4.986941337585449,-10.016953468322754,-2.2648067474365234
1789116114176623400,6.668623291015625,5.341378211975098,-8.666504859924316,-2.17627215385437
1789116114195474000,6.687473876953125,5.2477593421936035,-7.476673603057861,-2.310270309448242
1789116114214324200,6.70632421875,5.638088226318359,-8.022536277770996,-3.1746773719787598
1789116114233174500,6.725174560546875,6.502495765686035,-9.147761344909668,-4.295116424560547
1789116114252024800,6.74402490234375,7.58225679397583,-9.09272575378418,-5.556732177734375
1789116114270875400,6.76287548828125,7.998608112335205,-7.895716667175293,-5.937490463256836
1789116114289725700,6.7817255859375,8.355437278747559,-7.045965194702148,-5.949454307556152
1789116114308576000,6.800575927734375,8.214261054992676,-7.290033340454102,-5.511268615722656
1789116114327426600,6.819426513671875,7.685148239135742,-7.141678333282471,-4.735395908355713
1789116114346276900,6.83827685546875,7.165606498718262,-7.230212688446045,-4.235296249389648
1789116114365127200,6.857127197265625,6.880561351776123,-7.435995578765869,-3.9885363578796387
1789116114383977700,6.875977783203125,6.476174354553223,-6.562315940856934,-3.342175006866455
1789116114402828000,6.894828125,6.942774772644043,-5.427519798278809,-2.676671266555786
1789116114421678300,6.91367822265625,7.084250450134277,-5.0826544761657715,-1.9247267246246338
1789116114440529000,6.93252880859375,5.709873199462891,-4.4482574462890625,-1.8337994813919067
1789116114459379200,6.951379150390625,5.697908878326416,-2.8298118114471436,-2.183450698852539
1789116114478229800,6.970229736328125,8.211868286132812,-2.793919563293457,-3.500101327896118
1789116114497080000,6.989080078125,7.184749126434326,-3.828217029571533,-3.8712878227233887
1789116114515930400,7.007930419921875,4.1368913650512695,-2.714956283569336,-2.6862425804138184
1789116114534781000,7.026781005859375,5.84147834777832,-1.2975081205368042,-1.529910922050476
1789116114553631200,7.04563134765625,5.484947681427002,-2.2911276817321777,-1.695015788078308
1789116114572481500,7.0644814453125,5.101797103881836,-2.475374937057495,-1.5418751239776611
1789116114591332000,7.08333203125,6.093023777008057,-2.3772692680358887,-1.3980066776275635
1789116114610182400,7.102182373046875,6.835097789764404,-1.9824535846710205,-1.0247262716293335
1789116114629032700,7.12103271484375,6.28205680847168,-1.3142578601837158,-1.4940186738967896
1789116114647883300,7.13988330078125,5.398806095123291,-1.3334003686904907,-1.6663018465042114
1789116114666733600,7.158733642578125,6.361020088195801,-1.3884353637695312,-1.4003994464874268
1789116114685584100,7.177584228515625,6.315556049346924,-1.2664014101028442,-1.7356936931610107
1789116114723284700,7.21528466796875,6.349055767059326,-2.056631088256836,-2.92073917388916
1789116114742135300,7.23413525390625,6.62931489944458,-2.9327032566070557,-3.5048868656158447
1789116114779836000,7.2718359375,7.208677291870117,-6.547959327697754,-4.759324073791504
1789116114808111600,7.300111572265625,6.961917400360107,-9.39452075958252,-4.958227634429932
1789116114826962000,7.3189619140625,6.112166404724121,-9.320343017578125,-4.551148891448975
1789116114855237600,7.347237548828125,6.502495765686035,-8.262117385864258,-3.6125640869140625
1789116114874088000,7.366087890625,7.026822566986084,-8.891729354858398,-3.253640651702881
1789116114892938500,7.3849384765625,5.819942951202393,-9.902098655700684,-4.108177185058594
1789116114921214000,7.4132138671875,6.4905314445495605,-9.301200866699219,-4.9486565589904785
1789116114940064500,7.432064453125,6.272485256195068,-8.724231719970703,-4.625326156616211
1789116114958914800,7.450914794921875,6.55992317199707,-10.174880027770996,-4.390829563140869
1789116114977765000,7.46976513671875,5.889334678649902,-11.075180053710938,-4.342973232269287
1789116114996615700,7.48861572265625,6.27487850189209,-10.56520938873291,-3.7827534675598145
1789116115015466000,7.507466064453125,6.10259485244751,-10.375877380371094,-2.8920252323150635
1789116115034316500,7.526316650390625,6.698707103729248,-9.6433744430542,-3.0020952224731445
1789116115053166800,7.545166748046875,6.918846607208252,-8.951549530029297,-3.0643084049224854
1789116115072017200,7.56401708984375,6.136094570159912,-8.515756607055664,-3.452244758605957
1789116115090867700,7.58286767578125,4.694717884063721,-8.130212783813477,-3.514458179473877
1789116115109718000,7.601718017578125,3.8832521438598633,-7.9627156257629395,-2.9614171981811523
1789116115175694600,7.667694580078125,6.777669906616211,-9.119047164916992,-3.9023945331573486
1789116115194545000,7.686544921875,6.8997039794921875,-8.81515884399414,-5.087440013885498
1789116115213395200,7.705395263671875,6.535995006561279,-8.443971633911133,-5.386841773986816
1789116115232245800,7.724245849609375,6.478567123413086,-7.8382887840271,-5.721837043762207
1789116115260521500,7.752521484375,6.538387775421143,-6.957131862640381,-5.484947681427002
1789116115279371800,7.771371826171875,6.86381196975708,-7.227819919586182,-4.599005222320557
1789116115307647500,7.7996474609375,8.012965202331543,-7.618149280548096,-4.467400074005127
1789116115326497800,7.818497802734375,7.395317554473877,-6.973881721496582,-5.166403293609619
1789116115345348400,7.837348388671875,7.227819919586182,-5.683551788330078,-4.505684852600098
1789116115373623800,7.865623779296875,7.778468132019043,-5.590231895446777,-3.9000017642974854
1789116115392474400,7.884474365234375,6.981060028076172,-5.714658737182617,-3.2297122478485107
1789116115411324700,7.90332470703125,6.308377742767334,-4.805087089538574,-2.729313373565674
1789116115430175000,7.922175048828125,6.562315940856934,-3.840181350708008,-3.617349624633789
1789116115467875800,7.959875732421875,5.8821563720703125,-3.2823543548583984,-4.091427803039551
1789116115505576700,7.99757666015625,4.843372344970703,-2.204986095428467,-0.8428717851638794
1789116115562128000,8.0541279296875,5.089832782745361,-2.3365912437438965,-1.4964114427566528
1789116115618679300,8.11067919921875,5.666802406311035,-1.6686947345733643,-1.7715860605239868
1789116115675230500,8.16723046875,6.610172748565674,-2.0829520225524902,-2.26959228515625
1789116115694081000,8.1860810546875,5.595017433166504,-2.564208507537842,-3.2297122478485107
1789116115797758200,8.28975830078125,6.6006011962890625,-10.06002426147461,-5.365306377410889
1789116115854309400,8.346309326171875,6.176772594451904,-9.978668212890625,-4.862514495849609
1789116115910860800,8.40286083984375,6.937989234924316,-9.040083885192871,-5.166403293609619
1789116115976837000,8.468837158203126,6.488138675689697,-9.09272575378418,-3.500101327896118
1789116116014538200,8.506538330078126,6.0762739181518555,-7.716254711151123,-4.271188259124756
1789116116071089400,8.56308935546875,4.766502857208252,-9.767801284790039,-2.746062994003296
1789116116089939700,8.581939697265625,4.656432628631592,-9.842277526855469,-2.087737798690796
1789116116184192000,8.67619189453125,6.914061069488525,-8.379365921020508,-5.125725269317627
1789116116203042300,8.695042236328124,6.567101955413818,-7.572386264801025,-5.24536657333374
1789116116287869400,8.779869384765625,5.812764644622803,-6.631708145141602,-5.817550182342529
1789116116325570000,8.817570068359375,8.618648529052734,-5.453841209411621,-2.9566314220428467
1789116116410397200,8.902397216796874,5.254937648773193,-2.738884687423706,-4.280759811401367
1789116116429247500,8.92124755859375,4.474578380584717,-2.090130567550659,-3.0260233879089355
1789116116448098000,8.94009814453125,4.982155799865723,-1.6016956567764282,-1.8936200141906738
1789116116466948400,8.9589482421875,5.867799282073975,-2.36291241645813,-1.3645070791244507
1789116116485799000,8.977798828125,4.256831645965576,-2.7963123321533203,-2.0398812294006348
1789116116504649200,8.996649169921875,4.716253280639648,-1.1850453615188599,-1.6208382844924927
1789116116523499800,9.015499755859375,5.925526142120361,-1.7237296104431152,-0.9649057388305664
1789116116551775500,9.043775390625,5.733801364898682,-1.4294124841690063,-1.7787644863128662
1789116116570625800,9.062625732421875,5.475376605987549,-1.572981834411621,-2.465803623199463
1789116116589476400,9.081476318359375,6.258128643035889,-1.9055840969085693,-2.181057929992676
1789116116608326700,9.10032666015625,6.784848690032959,-2.3772692680358887,-2.1858434677124023
1789116116627177200,9.11917724609375,6.011667728424072,-2.7915267944335938,-2.542673110961914
1789116116646027500,9.138027587890624,6.27487850189209,-2.810669183731079,-3.325425386428833
1789116116664878000,9.156878173828124,5.855835437774658,-2.8824539184570312,-4.0435709953308105
1789116116683728400,9.175728271484376,6.138487339019775,-3.5096726417541504,-4.211368083953857
1789116116702579000,9.194578857421876,6.485745906829834,-4.888835906982422,-4.508078098297119
1789116116721429200,9.21342919921875,7.450352191925049,-6.985845565795898,-4.840979099273682
1789116116740279800,9.23227978515625,6.439982891082764,-8.992227554321289,-5.276473045349121
1789116116759130000,9.251130126953125,6.045167446136475,-9.818050384521484,-5.358128070831299
1789116116777980700,9.269980712890625,6.272485256195068,-9.810872077941895,-4.730610370635986
1789116116796831000,9.2888310546875,6.3442702293396,-9.530911445617676,-4.974977493286133
1789116116815681500,9.307681640625,5.650052547454834,-8.86780071258545,-4.915156841278076
1789116116834532000,9.326531982421875,5.7792649269104,-8.300402641296387,-4.5583271980285645
1789116116862807600,9.3548076171875,6.332305908203125,-8.647361755371094,-4.16799783706665
1789116116881658000,9.373658203125,5.978168487548828,-9.859027862548828,-4.163212299346924
1789116116900508400,9.39250830078125,6.796812534332275,-10.43360424041748,-3.9622151851654053
1789116116919359000,9.41135888671875,6.203093528747559,-9.334700584411621,-4.249652862548828
1789116116938209300,9.430209228515626,6.507281303405762,-8.692825317382812,-4.321437835693359
1789116116957059800,9.449059814453125,6.93320369720459,-8.95394229888916,-4.050749778747559
1789116116975910100,9.46791015625,6.432804584503174,-8.963513374328613,-3.576671600341797
1789116116994760700,9.4867607421875,6.028417587280273,-9.59791088104248,-4.563112735748291
1789116117013611300,9.505611328125,4.884049892425537,-10.103095054626465,-4.316651821136475
1789116117032461600,9.524461669921875,4.776372909545898,-9.741479873657227,-4.3310089111328125
1789116117051312000,9.54331201171875,5.250152111053467,-8.55164909362793,-4.2281174659729
1789116117079587600,9.571587646484375,5.683551788330078,-6.904489517211914,-4.40757942199707
1789116117098438100,9.590438232421874,6.138487339019775,-7.282855033874512,-5.211866855621338
1789116117117288700,9.609288818359374,6.325127601623535,-8.152048110961914,-5.427519798278809
1789116117136139000,9.628138916015626,6.55992317199707,-8.594719886779785,-5.2405805587768555
1789116117154989600,9.646989501953126,6.897311210632324,-8.144868850708008,-5.1305108070373535
1789116117173840000,9.66583984375,7.134500026702881,-7.574779033660889,-5.3748779296875
1789116117192690400,9.6846904296875,7.177570819854736,-7.268497943878174,-5.532804012298584
1789116117211540700,9.703540771484375,7.40488862991333,-7.33549690246582,-5.9422760009765625
1789116117230391300,9.722391357421875,7.428816795349121,-7.354639530181885,-5.714658737182617
1789116117249241900,9.741241943359375,7.048357963562012,-6.574280261993408,-4.548755645751953
1789116117268092200,9.760092041015625,7.46710205078125,-5.982954025268555,-3.675076484680176
1789116117286942700,9.778942626953125,7.668398380279541,-6.0140604972839355,-3.653541088104248
1789116117305793000,9.79779296875,7.380960464477539,-5.461019515991211,-3.57906436920166
1789116117324643600,9.8166435546875,6.9690961837768555,-4.809872627258301,-3.562314748764038
1789116117343494000,9.835493896484374,6.200700759887695,-3.7277185916900635,-4.840979099273682
1789116117362344400,9.854344482421874,5.480162143707275,-3.2129626274108887,-5.535196781158447
1789116117381195000,9.873195068359376,5.140082359313965,-2.9925239086151123,-3.79471755027771
1789116117400045300,9.89204541015625,4.309473514556885,-2.504088878631592,-1.1419745683670044
1789116117418896000,9.910895751953126,5.168796062469482,-1.3812568187713623,-0.44297128915786743
1789116117437746200,9.92974609375,4.450650215148926,-0.8763712644577026,-0.8018946647644043
1789116117456596700,9.9485966796875,5.142475128173828,-0.8066803216934204,-1.311864972114563
1789116117475447000,9.967447021484375,5.405984401702881,-1.4676976203918457,-1.55623197555542
1789116117494297600,9.986297607421875,6.298806667327881,-1.4413765668869019,-2.1164517402648926
1789116117513148000,10.00514794921875,5.944668769836426,-1.537089467048645,-2.063809633255005
1789116117531998500,10.02399853515625,5.978168487548828,-1.9896320104599,-2.111665964126587
1789116117550849000,10.04284912109375,5.6931233406066895,-2.2193429470062256,-2.324627161026001
1789116117569699300,10.06169921875,5.784050464630127,-2.533101797103882,-2.1571295261383057
1789116117588550000,10.0805498046875,6.205486297607422,-2.676671266555786,-2.6192433834075928
1789116117607400200,10.099400146484374,5.96381139755249,-2.7987051010131836,-3.1483564376831055
1789116117626250800,10.118250732421876,5.535196781158447,-3.3589248657226562,-4.271188259124756
1789116117645101300,10.137101318359376,6.298806667327881,-4.756931304931641,-4.551148891448975
1789116117663951600,10.15595166015625,6.7657060623168945,-6.5766730308532715,-4.713860511779785
1789116117682802200,10.17480224609375,6.363412857055664,-8.484649658203125,-5.269294738769531
1789116117701652500,10.193652587890625,5.738586902618408,-8.965906143188477,-5.642873764038086
1789116117739353600,10.231353515625,6.317949295043945,-9.011369705200195,-3.6726837158203125
1789116117758204000,10.250203857421875,6.143272876739502,-9.238688468933105,-4.213760852813721
1789116117777054500,10.269054443359375,6.246164321899414,-9.808479309082031,-4.728217601776123
1789116117795904800,10.28790478515625,6.780063152313232,-10.759027481079102,-5.25972318649292
1789116117814755300,10.30675537109375,7.153642177581787,-11.613863945007324,-5.748157978057861
1789116117833605600,10.325605712890624,7.1871418952941895,-10.670493125915527,-5.542375564575195
1789116117852456200,10.344456298828124,6.80159854888916,-9.040083885192871,-4.6061835289001465
1789116117871306800,10.363306640625,6.8757758140563965,-8.824729919433594,-4.328616142272949
1789116117890157000,10.382156982421876,6.480959892272949,-9.255437850952148,-4.718646049499512
1789116117909007600,10.401007568359375,5.9901323318481445,-8.518149375915527,-4.1368913650512695
1789116117927858000,10.41985791015625,6.380162239074707,-8.570791244506836,-3.9478583335876465
1789116117946708500,10.43870849609375,5.752943992614746,-8.487042427062988,-3.866502285003662
1789116117965558800,10.457558837890625,4.829015254974365,-8.053643226623535,-3.9143588542938232
1789116117984409300,10.476409423828125,4.474578380584717,-8.185546875,-4.235296249389648
1789116118003260000,10.495260009765625,4.939085006713867,-8.633005142211914,-4.309473514556885
1789116118022110200,10.514110107421875,5.616552829742432,-8.369794845581055,-4.314259052276611
1789116118040960800,10.532960693359374,5.930311679840088,-8.369794845581055,-4.419543266296387
1789116118059811000,10.55181103515625,6.234200477600098,-9.09990406036377,-4.409972190856934
1789116118078661600,10.57066162109375,6.918846607208252,-9.245866775512695,-5.118546962738037
1789116118097512200,10.58951220703125,6.772884368896484,-7.919644832611084,-5.683551788330078
1789116118116362500,10.608362548828126,5.736194133758545,-6.62213659286499,-5.3557353019714355
1789116118135213000,10.627213134765626,5.7888360023498535,-6.296413898468018,-5.839085578918457
1789116118154063600,10.646063720703125,6.916453838348389,-7.163213729858398,-5.197509765625
1789116118172914000,10.664913818359375,7.493422985076904,-7.175177574157715,-4.893621444702148
1789116118191764500,10.683764404296875,7.481459140777588,-6.945167541503906,-4.876871585845947
1789116118210614800,10.70261474609375,7.591827869415283,-6.727420806884766,-4.7473602294921875
1789116118229465300,10.72146533203125,7.45274543762207,-5.733801364898682,-4.756931304931641
1789116118248316000,10.74031591796875,8.424829483032227,-5.532804012298584,-4.500899314880371
1789116118267166200,10.759166259765625,7.615756034851074,-5.334199905395508,-3.7133617401123047
1789116118286016800,10.778016845703124,4.800301551818848,-4.172783374786377,-4.292723655700684
1789116118304867000,10.7968671875,5.113760948181152,-2.9015965461730957,-5.022833824157715
1789116118323717600,10.815717529296874,5.688337802886963,-2.92073917388916,-3.7827534675598145
1789116118342568200,10.834568115234376,4.934299468994141,-3.1435706615448,-2.5283162593841553
1789116118361418500,10.85341845703125,4.627718925476074,-2.420340061187744,-1.1802598237991333
1789116118380269000,10.87226904296875,4.9965128898620605,-1.2376874685287476,-0.8979067206382751
1789116118399119400,10.891119384765625,4.781158924102783,-1.1515458822250366,-1.3549357652664185
1789116118417970000,10.909969970703125,5.32911491394043,-1.6136597394943237,-1.1252248287200928
1789116118436820500,10.928820556640625,6.74656343460083,-1.7931214570999146,-1.7237296104431152
1789116118455670800,10.9476708984375,6.02602481842041,-1.7955143451690674,-2.525923490524292
1789116118474521300,10.966521240234375,5.152046203613281,-2.0997018814086914,-2.9255247116088867
1789116118493371600,10.98537158203125,7.388139247894287,-2.2097716331481934,-2.1020946502685547
1789116118512222200,11.00422216796875,7.469494819641113,-2.1547367572784424,-2.3461625576019287
1789116118531072800,11.02307275390625,4.60857629776001,-2.896811008453369,-3.119642496109009
1789116118549923000,11.041923095703124,5.44426965713501,-3.4139597415924072,-3.4618160724639893
1789116118568773600,11.060773681640624,5.886941909790039,-3.593421459197998,-3.78753924369812
1789116118587624000,11.0796240234375,6.160022735595703,-4.311866283416748,-3.842574119567871
1789116118606474500,11.098474609375,6.538387775421143,-5.9566330909729,-4.108177185058594
1789116118625325000,11.117324951171875,7.0292158126831055,-7.323532581329346,-5.66201639175415
1789116118644175400,11.13617529296875,6.736992359161377,-8.781659126281738,-6.887740135192871
1789116118663026000,11.15502587890625,5.695516109466553,-9.861420631408691,-7.191927433013916
1789116118681876200,11.173876220703125,6.533602237701416,-9.863813400268555,-5.899205207824707
1789116118700726800,11.192726806640625,7.297211647033691,-8.460721969604492,-4.35254430770874
1789116118719577300,11.211577392578125,5.652445316314697,-8.73619556427002,-3.9789650440216064
1789116118738427600,11.230427734375,5.4514479637146,-8.666504859924316,-4.888835906982422
1789116118757278200,11.2492783203125,5.628517150878906,-7.809575080871582,-4.213760852813721
1789116118823254800,11.3152548828125,5.915955066680908,-10.27059268951416,-5.398806095123291
1789116118860955600,11.35295556640625,7.40488862991333,-10.217950820922852,-3.78753924369812
1789116118879806200,11.37180615234375,7.144071102142334,-8.786444664001465,-4.881657123565674
1789116118898656500,11.390656494140625,5.504090309143066,-8.635397911071777,-5.32193660736084
1789116118917507000,11.409507080078125,4.768895626068115,-9.052047729492188,-5.037190914154053
1789116118936357400,11.428357421875,5.099404335021973,-8.987442016601562,-4.374079704284668
1789116118955208000,11.4472080078125,5.317151069641113,-8.93958568572998,-3.78753924369812
1789116118974058500,11.46605859375,5.678766250610352,-8.918049812316895,-4.455435752868652
1789116118992908800,11.48490869140625,5.195116996765137,-8.589934349060059,-4.072285175323486
1789116119011759400,11.50375927734375,5.520840167999268,-7.797610759735107,-4.500899314880371
1789116119030610000,11.52260986328125,6.009274959564209,-7.689933776855469,-5.180759906768799
1789116119049460200,11.541460205078126,6.222236156463623,-7.584649562835693,-4.922335147857666
1789116119068310800,11.560310791015626,6.921239376068115,-7.294818878173828,-5.556732177734375
1789116119087161000,11.5791611328125,6.736992359161377,-7.220641613006592,-5.2477593421936035
1789116119106011600,11.59801171875,7.263712406158447,-7.306783199310303,-5.266901969909668
1789116119124862200,11.6168623046875,7.165606498718262,-7.395317554473877,-5.496912002563477
1789116119143712500,11.63571240234375,6.315556049346924,-6.6006011962890625,-5.470590591430664
1789116119162563000,11.65456298828125,6.183950901031494,-6.1241302490234375,-5.288437366485596
1789116119181413400,11.673413330078125,7.414460182189941,-6.3514485359191895,-4.182354927062988
1789116119200264000,11.692263916015625,7.632505893707275,-5.975775241851807,-3.9239299297332764
1789116119219114500,11.711114501953125,6.109773635864258,-5.501697540283203,-3.538386583328247
1789116119237964800,11.72996484375,6.818347930908203,-4.2281174659729,-3.911965847015381
1789116119256815400,11.7488154296875,7.826324462890625,-4.1991047859191895,-5.578267574310303
1789116119275666000,11.767666015625,5.25972318649292,-4.182354927062988,-5.008476734161377
1789116119294516200,11.78651611328125,4.761716842651367,-2.643171787261963,-2.7364916801452637
1789116119313366800,11.80536669921875,5.025226593017578,-2.372483730316162,-1.8026927709579468
1789116119332217000,11.824217041015626,4.970191955566406,-2.142772674560547,-1.4629119634628296
1789116119351067600,11.843067626953125,5.640480995178223,-1.4940186738967896,-0.7133602499961853
1789116119369918200,11.861918212890625,6.1241302490234375,-1.628016710281372,-2.1332013607025146
1789116119388768500,11.8807685546875,4.292723655700684,-2.475374937057495,-2.590529680252075
1789116119407619000,11.899619140625,5.288437366485596,-1.2041879892349243,-1.7380865812301636
1789116119426469600,11.9184697265625,6.593422889709473,-1.072582721710205,-1.9992033243179321
1789116119445320000,11.93731982421875,6.250949859619141,-1.0534402132034302,-1.714158296585083
1789116119464170500,11.95617041015625,5.705087184906006,-1.350150227546692,-2.5833511352539062
1789116119483020800,11.975020751953124,5.6859450340271,-2.245664119720459,-3.468994617462158
1789116119501871400,11.993871337890624,6.296413898468018,-3.07627272605896,-3.1435706615448
1789116119520722000,12.012721923828124,5.36769962310791,-3.670290946960449,-3.5431721210479736
1789116119539572200,12.031572265625,6.569494724273682,-5.1305108070373535,-4.170390605926514
1789116119558422800,12.0504228515625,7.426424026489258,-6.713063716888428,-4.622933387756348
1789116119577273300,12.0692734375,6.7345991134643555,-7.558029651641846,-5.549553871154785
1789116119596123600,12.08812353515625,5.614160060882568,-7.599006652832031,-6.387341022491455
1789116119614974200,12.10697412109375,6.310770511627197,-7.474280834197998,-5.992525100708008
1789116119633824500,12.125824462890625,7.505387306213379,-8.063214302062988,-5.175974369049072
1789116119652675000,12.144675048828125,5.673980712890625,-8.824729919433594,-4.9414777755737305
1789116119671525600,12.163525634765625,5.293222904205322,-8.93240737915039,-5.18315315246582
1789116119690376000,12.1823759765625,5.372485160827637,-7.912466049194336,-4.773980140686035
1789116119709226500,12.2012265625,5.860620975494385,-7.414460182189941,-4.156033992767334
1789116119728076800,12.220076904296874,6.949953556060791,-9.60508918762207,-4.8074798583984375
1789116119746927400,12.23892724609375,6.557530403137207,-11.594720840454102,-5.810371398925781
1789116119765778000,12.25777783203125,6.176772594451904,-10.744670867919922,-5.408377170562744
1789116119784628200,12.276628173828126,6.167201042175293,-9.229117393493652,-3.4809587001800537
1789116119803478800,12.295478759765626,6.557530403137207,-9.59073257446289,-4.079463481903076
1789116119822329300,12.314329345703126,6.579065799713135,-9.135796546936035,-4.781158924102783
1789116119841179600,12.3331796875,6.818347930908203,-8.568398475646973,-4.852943420410156
1789116119860030200,12.3520302734375,5.9422760009765625,-8.106285095214844,-4.826622486114502
1789116119878880500,12.370880615234375,4.6061835289001465,-7.505387306213379,-4.292723655700684
1789116119897731000,12.38973095703125,3.675076484680176,-7.321139812469482,-3.607778310775757
1789116119916581600,12.40858154296875,4.139284133911133,-7.996214866638184,-3.3924243450164795
1789116119935432000,12.427431884765625,4.59421968460083,-8.73619556427002,-2.975774049758911
1789116119954282500,12.446282470703125,4.881657123565674,-8.398508071899414,-3.098107099533081
1789116119973132800,12.4651328125,6.009274959564209,-8.01775074005127,-3.7372899055480957
1789116119991983400,12.4839833984375,6.408876419067383,-8.087141990661621,-4.781158924102783
1789116120010834000,12.502833984375,7.223034381866455,-8.123034477233887,-6.2413787841796875
1789116120029684200,12.521684326171876,7.419245719909668,-7.941180229187012,-7.11775016784668
1789116120048534800,12.54053466796875,7.2182488441467285,-7.8382887840271,-6.2892351150512695
1789116120067385000,12.559385009765625,7.749754428863525,-8.137690544128418,-5.810371398925781
1789116120086235600,12.578235595703125,7.045965194702148,-7.821538925170898,-5.609374523162842
1789116120105086200,12.597086181640625,6.358626842498779,-6.428019046783447,-5.111368179321289
1789116120123936500,12.6159365234375,7.380960464477539,-5.492125988006592,-5.001298427581787
1789116120142787000,12.634787109375,8.00100040435791,-5.824728488922119,-5.719444274902344
1789116120161637400,12.653637451171875,7.7832536697387695,-5.954239845275879,-5.822335720062256
1789116120180488000,12.672488037109375,7.773682594299316,-5.889334678649902,-4.347758769989014
1789116120199338500,12.69133837890625,7.120142936706543,-5.705087184906006,-3.5479576587677
1789116120218188800,12.710188720703124,5.032404899597168,-4.266402721405029,-4.285545349121094
1789116120237039400,12.729039306640624,5.101797103881836,-2.7412774562835693,-4.764110088348389
1789116120255890000,12.747889892578126,4.673182487487793,-2.6024937629699707,-3.5742788314819336
1789116120274740200,12.766740234375,4.771587371826172,-2.183450698852539,-1.628016710281372
1789116120293590800,12.7855908203125,5.468197822570801,-1.5753746032714844,-0.7037889361381531
1789116120312441000,12.804441162109375,5.358128070831299,-1.5179468393325806,-0.5458626747131348
1789116120331291600,12.823291748046875,3.9335012435913086,-2.018345832824707,-2.1858434677124023
1789116120350142200,12.84214208984375,4.874478816986084,-2.341377019882202,-1.2496516704559326
1789116120368992500,12.860992431640625,6.873383045196533,-1.3764712810516357,-1.1395817995071411
1789116120387843000,12.879843017578125,6.033203125,-1.3070793151855469,-2.2025933265686035
1789116120406693600,12.898693603515625,5.7409796714782715,-1.2161520719528198,-2.8609185218811035
1789116120425544000,12.9175439453125,6.959524631500244,-1.6686947345733643,-2.8513472080230713
1789116120444394500,12.93639453125,6.447161674499512,-2.4011974334716797,-2.7747769355773926
1789116120463244800,12.955244873046874,5.053940296173096,-3.01405930519104,-3.160320520401001
1789116120482095400,12.974095458984374,5.954239845275879,-3.507279872894287,-4.07467794418335
1789116120500946000,12.99294580078125,7.026822566986084,-3.976572036743164,-4.460221290588379
1789116120519796200,13.011796142578126,6.16480827331543,-4.486542224884033,-4.706682205200195
1789116120538646800,13.030646728515626,5.690730571746826,-6.428019046783447,-5.4514479637146
1789116120557497000,13.0494970703125,6.5527448654174805,-8.39611530303955,-5.947061538696289
1789116120576347600,13.06834765625,5.7888360023498535,-8.534899711608887,-6.035595893859863
1789116120595198200,13.0871982421875,5.961418628692627,-8.484649658203125,-5.353342533111572
1789116120614048500,13.106048583984375,6.859025955200195,-8.85344409942627,-4.560719966888428
1789116120632899000,13.124899169921875,6.317949295043945,-8.17836856842041,-4.268795490264893
1789116120651749400,13.143749267578125,5.556732177734375,-7.910073280334473,-4.5822553634643555
1789116120670600000,13.162599853515625,5.657230854034424,-8.29561710357666,-5.309972763061523
1789116120689450500,13.181450439453124,6.488138675689697,-8.963513374328613,-5.4179487228393555
1789116120708300800,13.20030078125,6.689135551452637,-10.555638313293457,-5.226223945617676
1789116120736576500,13.228576416015626,6.081059455871582,-11.352746963500977,-4.843372344970703
1789116120755427000,13.247427001953126,6.4064836502075195,-9.28445053100586,-3.6726837158203125
1789116120774277400,13.26627734375,6.28205680847168,-8.101499557495117,-4.16799783706665
1789116120793128000,13.2851279296875,5.7888360023498535,-7.649255752563477,-4.567898273468018
1789116120811978500,13.303978515625,6.0523457527160645,-7.76889705657959,-4.768895626068115
1789116120830828800,13.322828857421875,5.592624664306641,-8.839086532592773,-4.46979284286499
1789116120849679400,13.341679443359375,5.041976451873779,-9.940383911132812,-3.8545382022857666
1789116120868529700,13.36052978515625,4.867300510406494,-10.143773078918457,-3.57906436920166
1789116120887380200,13.379380126953125,4.689932346343994,-8.582756042480469,-3.708575963973999
1789116120906230800,13.398230712890625,4.955834865570068,-7.347461223602295,-4.4243292808532715
1789116120925081000,13.4170810546875,5.44426965713501,-7.457530975341797,-4.833800792694092
1789116120943931600,13.435931640625,5.9901323318481445,-8.482256889343262,-5.472983360290527
1789116120962782000,13.454781982421874,6.090631008148193,-8.664112091064453,-5.001298427581787
1789116120981632500,13.473632568359376,6.057131290435791,-7.701898097991943,-4.3070807456970215
1789116121000483000,13.492483154296876,6.332305908203125,-6.894918441772461,-4.677968502044678
1789116121019333400,13.51133349609375,7.182356357574463,-6.918846607208252,-5.535196781158447
1789116121038184000,13.530183837890625,8.190332412719727,-7.366603374481201,-7.39771032333374
1789116121057034200,13.5490341796875,7.685148239135742,-7.677969455718994,-7.984251022338867
1789116121075884800,13.567884765625,7.464709281921387,-7.220641613006592,-7.172784805297852
1789116121094735000,13.586735107421875,7.0097737312316895,-6.610172748565674,-4.6995038986206055
1789116121113585700,13.605585693359375,7.022037029266357,-5.72422981262207,-3.6870405673980713
1789116121132436200,13.624436279296875,7.230212688446045,-5.484947681427002,-3.4713873863220215
1789116121151286500,13.64328662109375,6.593422889709473,-5.309972763061523,-3.1651060581207275
1789116121170137000,13.66213720703125,6.059524059295654,-4.560719966888428,-3.7660038471221924
1789116121188987400,13.6809873046875,6.238986015319824,-3.9574296474456787,-4.979763031005859
1789116121207838000,13.699837890625,5.5758748054504395,-3.3541390895843506,-4.867300510406494
1789116121226688500,13.7186884765625,4.8074798583984375,-2.6001009941101074,-3.4307093620300293
1789116121245538800,13.737538818359376,6.665207386016846,-2.2169501781463623,-1.6974085569381714
1789116121264389400,13.756389404296876,5.872584819793701,-2.3150558471679688,-2.2719850540161133
1789116121283239700,13.77523974609375,4.8074798583984375,-2.698206663131714,-3.0427730083465576
1789116121302090200,13.79409033203125,5.547161102294922,-2.3533411026000977,-2.307877540588379
1789116121330366000,13.822365966796875,4.297509670257568,-2.049452543258667,-1.4796617031097412
1789116121349216300,13.84121630859375,5.657230854034424,-1.5203397274017334,-1.280758261680603
1789116121368066800,13.86006689453125,6.308377742767334,-1.1467602252960205,-1.745265007019043
1789116121386917000,13.878917236328125,6.516852378845215,-1.316650629043579,-1.9151554107666016
1789116121405767700,13.897767578125,6.705885410308838,-2.032702922821045,-2.841775894165039
1789116121424618200,13.9166181640625,5.580660820007324,-2.2911276817321777,-3.222533941268921
1789116121443468500,13.935468505859374,5.951847076416016,-2.465803623199463,-3.3541390895843506
1789116121462319000,13.954319091796876,6.030810356140137,-2.999702215194702,-3.4785659313201904
1789116121481169400,13.97316943359375,6.655636310577393,-3.8138601779937744,-4.084249019622803
1789116121500020000,13.99202001953125,6.349055767059326,-5.4897332191467285,-5.044369220733643
1789116121518870500,14.01087060546875,6.04038143157959,-7.5412797927856445,-5.3748779296875
1789116121537720800,14.029720947265625,6.136094570159912,-8.688039779663086,-5.824728488922119
1789116121556571400,14.0485712890625,5.923133373260498,-8.341080665588379,-5.90877628326416
1789116121575421700,14.067421630859375,5.853442192077637,-7.910073280334473,-5.32911491394043
1789116121594272300,14.086272216796875,6.581458568572998,-7.969893932342529,-5.113760948181152
1789116121613122600,14.10512255859375,5.6309099197387695,-7.855038642883301,-5.750551223754883
1789116121631973000,14.12397314453125,5.25972318649292,-8.293224334716797,-6.143272876739502
1789116121650823400,14.142823486328124,6.167201042175293,-9.46630573272705,-5.142475128173828
1789116121669674000,14.161674072265624,6.057131290435791,-11.285747528076172,-3.8688950538635254
1789116121688524500,14.180524658203124,6.305984973907471,-10.383355140686035,-4.565505504608154
1789116121707374800,14.199374755859376,5.700301647186279,-8.680861473083496,-4.946263313293457
1789116121726225400,14.218225341796876,6.186343669891357,-9.279664993286133,-4.450650215148926
1789116121745075700,14.23707568359375,6.674778938293457,-10.115059852600098,-4.821836948394775
1789116121763926300,14.25592626953125,6.6484575271606445,-9.662516593933105,-4.979763031005859
1789116121782776800,14.27477685546875,6.911668300628662,-9.483055114746094,-4.776372909545898
1789116121811052300,14.30305224609375,5.578267574310303,-8.848658561706543,-3.9478583335876465
1789116121829902800,14.32190283203125,4.955834865570068,-8.992227554321289,-4.242474555969238
1789116121848753200,14.340753173828125,4.455435752868652,-8.882157325744629,-4.196712017059326
1789116121867603700,14.359603759765625,4.7931227684021,-8.331509590148926,-3.670290946960449
1789116121886454000,14.3784541015625,5.324329376220703,-7.615756034851074,-3.452244758605957
1789116121905304600,14.3973046875,5.456233978271484,-7.103393077850342,-3.490530014038086
1789116121924155100,14.416155029296876,5.50648307800293,-7.232605457305908,-4.194318771362305
1789116121943005400,14.43500537109375,5.855835437774658,-7.9866437911987305,-4.862514495849609
1789116121961856000,14.45385595703125,6.413661956787109,-7.8454670906066895,-5.501697540283203
1789116121980706300,14.472706298828125,6.839883327484131,-7.019644260406494,-6.234200477600098
1789116121999556900,14.491556884765625,7.569993495941162,-6.961917400360107,-6.748956203460693
1789116122018407200,14.5104072265625,8.518149375915527,-7.514958381652832,-7.141678333282471
1789116122037257700,14.5292578125,8.223832130432129,-7.553243637084961,-6.509674072265625
1789116122056108000,14.54810791015625,7.886145114898682,-7.493422985076904,-5.19033145904541
1789116122074958600,14.56695849609375,7.914859294891357,-7.733004570007324,-4.701896667480469
1789116122093809000,14.585808837890625,7.2182488441467285,-6.586244106292725,-4.754538536071777
1789116122112659500,14.604659423828124,6.591030120849609,-5.027619361877441,-4.0196428298950195
1789116122131510000,14.623510009765624,6.4304118156433105,-4.6061835289001465,-3.3828530311584473
1789116122150360300,14.6423603515625,5.2166523933410645,-4.266402721405029,-4.287938117980957
1789116122169211000,14.6612109375,4.577469825744629,-3.085843801498413,-4.4482574462890625
1789116122188061200,14.680061279296876,5.7720866203308105,-2.9542386531829834,-2.834597587585449
1789116122206911700,14.698911865234376,5.683551788330078,-2.7364916801452637,-1.4653047323226929
1789116122225762000,14.717761962890625,4.953442096710205,-2.0829520225524902,-1.6016956567764282
1789116122244612600,14.736612548828125,4.946263313293457,-1.92951238155365,-2.0374884605407715
1789116122263463000,14.755462890625,5.5758748054504395,-1.6495521068572998,-2.3198416233062744
1789116122282313500,14.7743134765625,5.013262748718262,-1.9920248985290527,-2.190629243850708
1789116122301164000,14.7931640625,5.099404335021973,-1.501197099685669,-1.4437693357467651
1789116122320014300,14.812014404296875,6.028417587280273,-1.2855439186096191,-1.6806588172912598
1789116122338865000,14.830864990234375,6.262914180755615,-1.2759727239608765,-2.317448616027832
1789116122357715200,14.849715087890624,6.15762996673584,-1.415055513381958,-2.714956283569336
1789116122376565500,14.8685654296875,6.660421848297119,-1.745265007019043,-2.762812852859497
1789116122395416000,14.887416015625,6.507281303405762,-2.2504496574401855,-3.2033913135528564
1789116122414266600,14.9062666015625,5.738586902618408,-2.997309446334839,-3.303889751434326
1789116122433117000,14.925116943359376,6.727420806884766,-3.6870405673980713,-4.189533233642578
1789116122451967500,14.943967529296875,6.564708709716797,-4.819443702697754,-5.030012130737305
1789116122470817800,14.96281787109375,5.884549140930176,-6.612565517425537,-5.209474086761475
1789116122489668400,14.98166845703125,6.334698677062988,-8.070392608642578,-5.173581600189209
1789116122508518700,15.0005185546875,5.982954025268555,-7.8765740394592285,-5.496912002563477
1789116122527369200,15.019369140625,6.246164321899414,-6.942774772644043,-5.614160060882568
1789116122546219500,15.038219482421875,6.396912097930908,-7.680362701416016,-5.3318071365356445
1789116122565070000,15.057070068359375,5.752943992614746,-9.013762474060059,-5.44426965713501
1789116122583920400,15.07592041015625,5.676373481750488,-9.859027862548828,-5.748157978057861
1789116122602771000,15.09477099609375,6.3442702293396,-10.3016996383667,-5.456233978271484
1789116122621621200,15.113621337890624,6.605386734008789,-10.002596855163574,-4.936692237854004
1789116122640471800,15.132471923828126,6.861418724060059,-9.133403778076172,-5.563910961151123
1789116122659322000,15.151322021484376,6.420840263366699,-8.594719886779785,-5.25254487991333
1789116122678172700,15.170172607421875,5.547161102294922,-8.810373306274414,-4.524827480316162
1789116122697023000,15.18902294921875,6.004489421844482,-8.874979019165039,-3.770789384841919
1789116122715873500,15.20787353515625,5.262115955352783,-8.484649658203125,-3.7731821537017822
1789116122734723800,15.226723876953125,5.456233978271484,-8.872586250305176,-4.409972190856934
1789116122753574400,15.245574462890625,6.610172748565674,-9.50459098815918,-4.701896667480469
1789116122772424700,15.2644248046875,6.586244106292725,-9.818050384521484,-4.891228675842285
1789116122791275300,15.283275146484375,5.32193660736084,-9.483055114746094,-4.656432628631592
1789116122810125600,15.30212548828125,4.589433670043945,-8.458329200744629,-4.153641223907471
1789116122828976000,15.32097607421875,4.156033992767334,-7.323532581329346,-3.576671600341797
1789116122847826400,15.339826416015624,4.357329845428467,-7.227819919586182,-3.61017107963562
1789116122866677000,15.358677001953126,4.915156841278076,-8.376973152160645,-3.828217029571533
1789116122885527300,15.37752734375,5.712265968322754,-9.107083320617676,-3.9071803092956543
1789116122904377900,15.3963779296875,6.598208427429199,-8.592327117919922,-4.951049327850342
1789116122923228200,15.415228271484375,6.646064758300781,-7.6636128425598145,-5.602196216583252
1789116122942078700,15.43407861328125,6.626922130584717,-6.811169624328613,-5.9662041664123535
1789116122960929000,15.452928955078125,7.043572425842285,-6.571887493133545,-6.55992317199707
1789116122979779600,15.471779541015625,7.251748085021973,-7.201498985290527,-6.866204738616943
1789116122998630000,15.4906298828125,7.373782157897949,-7.419245719909668,-6.770491600036621
1789116123017480200,15.509480224609375,7.268497943878174,-7.656434059143066,-5.805585861206055
1789116123036330800,15.528330810546874,7.469494819641113,-7.45274543762207,-5.118546962738037
1789116123055181300,15.547181396484374,6.892525672912598,-6.619743824005127,-4.929513931274414
1789116123074031600,15.566031494140624,7.074679374694824,-5.5998029708862305,-4.529613494873047
1789116123092882000,15.5848818359375,6.930810928344727,-5.341378211975098,-3.6559338569641113
1789116123111732500,15.603732421875,6.1241302490234375,-5.020441055297852,-3.5814573764801025
1789116123130582800,15.622582763671875,5.353342533111572,-3.9789650440216064,-3.859323740005493
1789116123149433300,15.641433349609375,6.136094570159912,-2.7723841667175293,-4.508078098297119
1789116123168283600,15.66028369140625,5.269294738769531,-2.667099952697754,-3.9622151851654053
1789116123187134200,15.67913427734375,4.4482574462890625,-1.8625133037567139,-2.4610180854797363
1789116123205984500,15.697984619140625,6.703492641448975,-0.7037889361381531,-1.5203397274017334
1789116123224835000,15.7168349609375,5.472983360290527,-1.745265007019043,-2.427518606185913
1789116123243685400,15.735685302734375,5.470590591430664,-2.5474588871002197,-2.95902419090271
1789116123262535700,15.75453564453125,6.646064758300781,-2.9781668186187744,-2.652743101119995
1789116123281386200,15.77338623046875,6.408876419067383,-2.355733871459961,-2.504088878631592
1789116123300236500,15.792236572265624,4.927121162414551,-1.9127626419067383,-2.729313373565674
1789116123319087000,15.811087158203126,5.535196781158447,-1.8601205348968506,-2.17627215385437
1789116123337937400,15.8299375,6.5288166999816895,-1.3645070791244507,-1.3692927360534668
1789116123356788000,15.8487880859375,5.647659778594971,-1.3980066776275635,-2.0685951709747314
1789116123375638300,15.86763818359375,5.319543838500977,-2.080559253692627,-2.911167860031128
1789116123394488800,15.88648876953125,6.492924213409424,-2.1619153022766113,-3.1076784133911133
1789116123413339100,15.905339111328125,5.791228771209717,-2.073380708694458,-3.387638568878174
1789116123432189400,15.924189453125,5.566303730010986,-3.004487991333008,-4.0818562507629395
1789116123451040000,15.9430400390625,5.932704448699951,-4.634897232055664,-4.781158924102783
1789116123469890300,15.961890380859375,6.636493682861328,-6.80159854888916,-5.298008441925049
1789116123488740900,15.980740966796875,6.396912097930908,-8.417651176452637,-5.733801364898682
1789116123507591200,15.999591064453124,5.446662425994873,-8.72901725769043,-5.7792649269104
1789116123526441700,16.018441650390624,6.768098831176758,-8.757730484008789,-5.556732177734375
1789116123545292000,16.0372919921875,6.832705020904541,-9.27727222442627,-5.281258583068848
1789116123564142300,16.056142333984376,6.138487339019775,-9.535696983337402,-5.508875846862793
1789116123582993000,16.074992919921876,5.925526142120361,-9.097511291503906,-5.9566330909729
1789116123601843200,16.09384326171875,6.246164321899414,-8.257331848144531,-5.44426965713501
1789116123620693800,16.11269384765625,6.148058891296387,-8.467900276184082,-4.7931227684021
1789116123639544000,16.1315439453125,5.879763603210449,-8.745766639709473,-4.515256404876709
1789116123658394400,16.150394287109375,5.281258583068848,-8.640183448791504,-4.6372904777526855
1789116123677245000,16.169244873046875,5.587839126586914,-9.439984321594238,-4.843372344970703
1789116123696095200,16.18809521484375,6.133701801300049,-10.615458488464355,-4.316651821136475
1789116123714945800,16.20694580078125,7.141678333282471,-9.808479309082031,-4.84815788269043
1789116123733796000,16.225796142578126,6.813562393188477,-8.259724617004395,-5.25254487991333
1789116123752646400,16.244646484375,6.298806667327881,-7.905287742614746,-5.063511848449707
1789116123771497000,16.2634970703125,5.726622581481934,-8.343473434448242,-4.433900356292725
1789116123790347300,16.28234716796875,5.022833824157715,-8.891729354858398,-3.332603693008423
1789116123809197800,16.30119775390625,5.185545921325684,-9.413662910461426,-3.5431721210479736
1789116123828048100,16.320048095703125,5.171188831329346,-9.59791088104248,-3.4402806758880615
1789116123846898400,16.3388984375,5.587839126586914,-8.872586250305176,-3.935894250869751
1789116123865749000,16.3577490234375,6.339484691619873,-8.0081787109375,-5.027619361877441
1789116123884599300,16.376599365234377,6.277271270751953,-7.2421770095825195,-5.547161102294922
1789116123903449900,16.395449951171877,6.3825554847717285,-7.098607540130615,-6.210271835327148
1789116123922300200,16.414300048828125,5.681159019470215,-7.0531439781188965,-5.872584819793701
1789116123941150500,16.433150390625,5.482554912567139,-6.581458568572998,-5.5830535888671875
1789116123960001000,16.4520009765625,6.224628925323486,-6.492924213409424,-5.477769374847412
1789116123978851300,16.470851318359376,7.170392036437988,-6.844669342041016,-5.6069817543029785
1789116123997701600,16.48970166015625,7.71386194229126,-6.80159854888916,-6.229414463043213
1789116124016552200,16.50855224609375,7.3043904304504395,-6.588637351989746,-5.750551223754883
1789116124035402500,16.527402587890624,7.275676250457764,-6.617351055145264,-4.888835906982422
1789116124054252800,16.546252685546875,7.175177574157715,-6.451947212219238,-4.359723091125488
1789116124073103400,16.565103271484375,7.412067413330078,-5.97098970413208,-3.976572036743164
1789116124091953700,16.58395361328125,8.67607593536377,-6.037988662719727,-3.5359935760498047
1789116124110804200,16.60280419921875,7.160820960998535,-5.683551788330078,-4.522434711456299
1789116124129654500,16.621654541015626,5.257330417633057,-3.9933218955993652,-6.270092487335205
1789116124148504800,16.6405048828125,5.006083965301514,-2.5522444248199463,-5.231009483337402
1789116124167355400,16.65935546875,5.104189872741699,-1.3142578601837158,-2.832204818725586
1789116124186205700,16.678205810546874,4.809872627258301,-0.9050851464271545,-1.6375880241394043
1789116124205056000,16.697055908203126,5.7888360023498535,-0.7875377535820007,-1.2400803565979004
1789116124223906600,16.715906494140626,5.812764644622803,-1.2759727239608765,-1.7715860605239868
1789116124242756900,16.7347568359375,6.128916263580322,-2.4394826889038086,-2.6096723079681396
1789116124261607200,16.753607177734374,5.915955066680908,-2.1332013607025146,-2.968595504760742
1789116124280457700,16.772457763671873,5.7888360023498535,-1.6639090776443481,-2.693420886993408
1789116124299308000,16.79130810546875,6.234200477600098,-1.7931214570999146,-1.9992033243179321
1789116124318158300,16.810158447265625,6.284449577331543,-1.7548363208770752,-2.2983062267303467
1789116124337009000,16.8290087890625,5.879763603210449,-1.7261223793029785,-2.95184588432312
1789116124355859200,16.847859130859376,6.069095611572266,-2.2193429470062256,-3.256033420562744
1789116124374709500,16.86670947265625,5.752943992614746,-2.786741018295288,-3.325425386428833
1789116124393560000,16.88556005859375,5.781657695770264,-3.153141975402832,-3.3613176345825195
1789116124412410400,16.904410400390624,6.112166404724121,-3.524029493331909,-3.7205400466918945
1789116124431260700,16.9232607421875,5.9566330909729,-4.381258487701416,-3.9239299297332764
1789116124450111200,16.942111328125,5.731408596038818,-5.752943992614746,-4.66361141204834
1789116124468961500,16.96096142578125,6.315556049346924,-7.084250450134277,-5.544768333435059
1789116124487811800,16.979811767578123,5.90877628326416,-8.048856735229492,-6.064310073852539
1789116124506662400,16.998662353515623,5.84865665435791,-8.769695281982422,-5.90159797668457
1789116124525512700,17.0175126953125,6.705885410308838,-9.337093353271484,-5.25254487991333
1789116124544363000,17.036363037109375,6.262914180755615,-8.96829891204834,-5.032404899597168
1789116124563213300,17.05521337890625,5.8749775886535645,-8.561220169067383,-5.018048286437988
1789116124591489000,17.083489013671876,6.413661956787109,-9.731908798217773,-4.977370262145996
1789116124610339300,17.10233935546875,6.849454879760742,-10.232307434082031,-5.578267574310303
1789116124629190000,17.12118994140625,7.017251491546631,-10.13898754119873,-6.524031162261963
1789116124648040200,17.140040283203124,6.533602237701416,-9.765408515930176,-5.551946640014648
1789116124666890500,17.158890380859376,6.042774677276611,-9.294022560119629,-3.998107433319092
1789116124685740800,17.17774072265625,6.610172748565674,-8.700303077697754,-4.223331928253174
1789116124704591400,17.19659130859375,5.647659778594971,-7.4479594230651855,-4.60857629776001
1789116124723441700,17.215441650390623,5.049154758453369,-6.80159854888916,-4.491328239440918
1789116124742292000,17.2342919921875,5.19033145904541,-7.5942206382751465,-4.872086048126221
1789116124761142300,17.253142333984375,5.700301647186279,-9.365806579589844,-3.9406797885894775
1789116124779992800,17.271992919921875,6.186343669891357,-10.38066291809082,-3.7301113605499268
1789116124798843100,17.290843017578126,5.274080276489258,-9.471091270446777,-3.6583266258239746
1789116124817693400,17.309693359375,5.108975410461426,-8.19272518157959,-3.921537160873413
1789116124836544000,17.3285439453125,5.262115955352783,-8.130212783813477,-4.579862594604492
1789116124855394300,17.347394287109374,5.501697540283203,-8.108677864074707,-4.845765113830566
1789116124874244600,17.36624462890625,6.279664039611816,-7.8382887840271,-5.597410202026367
1789116124893095000,17.385094970703125,6.270092487335205,-7.524529933929443,-5.62373161315918
1789116124911945500,17.403945556640625,6.059524059295654,-6.825526714324951,-5.235795021057129
1789116124930795800,17.422795654296873,6.811169624328613,-6.736992359161377,-5.4897332191467285
1789116124949646000,17.44164599609375,7.4001030921936035,-7.2661051750183105,-6.069095611572266
1789116124968496400,17.460496337890625,7.153642177581787,-7.079464912414551,-6.571887493133545
1789116124987347000,17.479346923828125,6.428019046783447,-6.4905314445495605,-6.042774677276611
1789116125006197200,17.498197265625,7.1249284744262695,-6.296413898468018,-5.4658050537109375
1789116125025047600,17.517047607421876,7.380960464477539,-6.104988098144531,-5.298008441925049
1789116125043897900,17.53589794921875,7.569993495941162,-5.695516109466553,-5.06590461730957
1789116125062748400,17.55474853515625,7.7353973388671875,-5.544768333435059,-4.242474555969238
1789116125081598700,17.5735986328125,7.007380962371826,-5.762515068054199,-3.562314748764038
1789116125100449000,17.592448974609376,5.286044120788574,-5.013262748718262,-4.041178226470947
1789116125119299300,17.61129931640625,5.618945598602295,-3.8760735988616943,-5.334199905395508
1789116125138150000,17.63014990234375,6.86381196975708,-2.9231319427490234,-4.706682205200195
1789116125157000200,17.649000244140623,5.31475830078125,-2.5232315063476562,-3.675076484680176
1789116125175850500,17.6678505859375,5.642873764038086,-2.1379871368408203,-2.4538395404815674
1789116125194700800,17.68670068359375,5.281258583068848,-2.5857439041137695,-1.9824535846710205
1789116125213551000,17.705551025390626,4.254438877105713,-2.6096723079681396,-2.1092731952667236
1789116125232401700,17.724401611328126,5.6859450340271,-1.6447664499282837,-1.067797064781189
1789116125251252000,17.743251953125,5.846263885498047,-1.3716856241226196,-1.3381860256195068
1789116125270102300,17.762102294921874,4.73300313949585,-1.561017632484436,-1.9199410676956177
1789116125288952600,17.78095263671875,5.6069817543029785,-1.6328023672103882,-1.9151554107666016
1789116125307803100,17.79980322265625,7.127321243286133,-1.7907286882400513,-1.5275181531906128
1789116125326653400,17.8186533203125,6.856633186340332,-1.903191328048706,-2.11405873298645
1789116125345503700,17.837503662109373,5.24536657333374,-2.520838737487793,-3.675076484680176
1789116125364354000,17.85635400390625,6.291627883911133,-3.0571300983428955,-4.524827480316162
1789116125383204400,17.875204345703125,6.782455921173096,-3.366103172302246,-4.694717884063721
1789116125402055000,17.894054931640625,5.9183478355407715,-3.983750581741333,-4.560719966888428
1789116125420905200,17.9129052734375,6.6149582862854,-5.025226593017578,-4.970191955566406
1789116125439755500,17.931755615234376,7.132106781005859,-6.258128643035889,-5.338985443115234
1789116125458605800,17.950605712890624,6.80159854888916,-7.526922702789307,-5.7649078369140625
1789116125477456100,17.9694560546875,5.796014785766602,-8.891729354858398,-6.502495765686035
1789116125496306700,17.988306640625,5.549553871154785,-9.10229778289795,-6.090631008148193
1789116125515157000,18.007156982421876,6.030810356140137,-8.087141990661621,-5.242973327636719
1789116125534007300,18.02600732421875,6.2413787841796875,-6.768098831176758,-4.5391845703125
1789116125552857600,18.044857666015623,5.9662041664123535,-6.617351055145264,-4.984548568725586
1789116125571708000,18.0637080078125,5.800800323486328,-7.8693952560424805,-5.987739562988281
1789116125590558200,18.08255810546875,5.657230854034424,-9.806086540222168,-6.22702169418335
1789116125609408800,18.10140869140625,6.384948253631592,-10.531709671020508,-5.358128070831299
1789116125628259000,18.120259033203126,6.780063152313232,-9.76062297821045,-4.553541660308838
1789116125647109400,18.139109375,6.27487850189209,-9.315557479858398,-4.970191955566406
1789116125665959700,18.157959716796874,6.396912097930908,-9.38016414642334,-5.496912002563477
1789116125684810000,18.17681005859375,6.550352096557617,-8.848658561706543,-5.06590461730957
1789116125703660300,18.195660400390626,6.1073808670043945,-7.878966808319092,-4.661218643188477
1789116125722510800,18.2145107421875,5.429912567138672,-7.7114691734313965,-4.244867324829102
1789116125741361200,18.233361083984374,4.960620403289795,-8.400900840759277,-4.079463481903076
1789116125760211500,18.25221142578125,4.939085006713867,-9.176474571228027,-3.9646079540252686
1789116125779061800,18.271061767578125,5.164010524749756,-9.011369705200195,-4.211368083953857
1789116125797912000,18.289912109375,5.1544389724731445,-8.137690544128418,-4.1129631996154785
1789116125816762400,18.308762451171877,5.24536657333374,-7.895716667175293,-4.292723655700684
1789116125835612700,18.32761279296875,5.413163185119629,-8.101499557495117,-4.326223373413086
1789116125854463000,18.346462890625,5.403591632843018,-7.929215908050537,-4.575077056884766
1789116125873313500,18.3653134765625,5.7649078369140625,-7.704290866851807,-5.209474086761475
1789116125892163800,18.384163818359376,6.420840263366699,-7.642077445983887,-5.587839126586914
1789116125911014100,18.40301416015625,7.194320201873779,-7.416852951049805,-6.3131632804870605
1789116125929864400,18.421864501953124,6.952346324920654,-7.141678333282471,-6.701099872589111
1789116125948714800,18.44071484375,6.660421848297119,-6.892525672912598,-6.171987056732178
1789116125967565000,18.45956494140625,6.945167541503906,-6.949953556060791,-5.360520839691162
1789116125986415400,18.478415283203127,6.952346324920654,-7.000202655792236,-4.886443138122559
1789116126005265700,18.497265625,6.81595516204834,-6.6915283203125,-4.704289436340332
1789116126024116200,18.5161162109375,6.985845565795898,-5.949454307556152,-4.963013172149658
1789116126042966500,18.534966552734375,7.206284523010254,-5.456233978271484,-4.429114818572998
1789116126061816800,18.55381689453125,7.05553674697876,-4.893621444702148,-3.380460262298584
1789116126080667100,18.572667236328126,6.3993048667907715,-4.390829563140869,-3.746861219406128
1789116126099517400,18.591517333984374,5.204688549041748,-3.9957146644592285,-5.487340450286865
1789116126118367700,18.61036767578125,5.5591254234313965,-3.2991042137145996,-5.360520839691162
1789116126137218000,18.629218017578125,7.081857681274414,-2.8226335048675537,-3.895216226577759
1789116126156068600,18.648068603515625,6.4064836502075195,-2.6168506145477295,-2.7269206047058105
1789116126174919000,18.6669189453125,5.482554912567139,-2.1236300468444824,-2.95184588432312
1789116126193769200,18.685769287109373,4.955834865570068,-2.355733871459961,-2.667099952697754
1789116126212619500,18.70461962890625,6.4905314445495605,-2.118844509124756,-1.7907286882400513
1789116126231469800,18.7234697265625,5.688337802886963,-2.1379871368408203,-2.063809633255005
1789116126250320100,18.742320068359376,5.242973327636719,-1.6136597394943237,-2.073380708694458
1789116126269170400,18.76117041015625,5.954239845275879,-1.6663018465042114,-2.159522533416748
1789116126288020700,18.780020751953124,6.121737480163574,-1.953440546989441,-1.8098711967468262
1789116126306871000,18.79887109375,6.195915222167969,-1.9079769849777222,-1.9175482988357544
1789116126325721300,18.817721435546876,5.434698581695557,-1.8194425106048584,-2.417947292327881
1789116126344571600,18.836571533203124,5.621338367462158,-1.6926229000091553,-2.6192433834075928
1789116126363422200,18.855422119140623,6.21266508102417,-1.5538392066955566,-3.2177481651306152
1789116126382272500,18.8742724609375,6.047560214996338,-2.1882362365722656,-3.9622151851654053
1789116126401122800,18.893122802734375,6.121737480163574,-3.483351469039917,-4.749752998352051
1789116126419973000,18.91197314453125,6.756134510040283,-5.386841773986816,-5.403591632843018
1789116126438823400,18.930823486328126,7.112964630126953,-7.850253105163574,-6.358626842498779
1789116126457673700,18.949673828125,6.713063716888428,-9.581160545349121,-6.961917400360107
1789116126476524000,18.96852392578125,5.961418628692627,-9.602696418762207,-6.634100914001465
1789116126495374300,18.987374267578126,5.870192050933838,-8.697610855102539,-5.501697540283203
1789116126514224600,19.006224609375,5.697908878326416,-7.414460182189941,-4.34536600112915
1789116126533075000,19.025074951171874,5.831906795501709,-6.997809886932373,-4.41475772857666
1789116126551925200,19.04392529296875,5.539982795715332,-8.341080665588379,-5.099404335021973
1789116126570775600,19.062775634765625,5.415555953979492,-10.36630630493164,-5.6931233406066895
1789116126599051300,19.09105126953125,6.760920524597168,-9.025727272033691,-5.480162143707275
1789116126617901600,19.109901611328127,6.179165363311768,-7.922037601470947,-5.142475128173828
1789116126636752000,19.128751953125,6.365805625915527,-9.341878890991211,-5.56151819229126
1789116126655602200,19.147602294921874,6.973881721496582,-11.4652099609375,-5.309972763061523
1789116126674452500,19.166452392578126,6.571887493133545,-10.42642593383789,-4.958227634429932
1789116126693302800,19.185302734375,6.037988662719727,-8.40329360961914,-4.261617183685303
1789116126712153000,19.204153076171874,5.812764644622803,-7.835896015167236,-3.7899320125579834
1789116126731003400,19.22300341796875,5.671587944030762,-8.68325424194336,-4.022035598754883
1789116126749853700,19.241853759765625,5.219045162200928,-9.198010444641113,-4.069892406463623
1789116126768704000,19.2607041015625,4.955834865570068,-8.851051330566406,-3.5024940967559814
1789116126787554300,19.27955419921875,5.101797103881836,-8.312366485595703,-3.4713873863220215
1789116126806404600,19.298404541015625,4.934299468994141,-7.857431411743164,-3.404388427734375
1789116126825255000,19.3172548828125,5.092225551605225,-7.670791149139404,-3.9861433506011963
1789116126844105200,19.336105224609376,5.535196781158447,-8.01775074005127,-4.412364959716797
1789116126862955500,19.35495556640625,6.2413787841796875,-7.874181270599365,-4.8074798583984375
1789116126881805600,19.3738056640625,6.847062110900879,-7.658827304840088,-5.468197822570801
1789116126900655000,19.392655029296876,6.928418159484863,-7.163213729858398,-5.597410202026367
1789116126919505400,19.41150537109375,6.7417778968811035,-6.461817741394043,-5.8821563720703125
1789116126938355700,19.430355712890623,7.156035423278809,-6.116951942443848,-5.846263885498047
1789116126957206000,19.4492060546875,8.106285095214844,-6.583851337432861,-5.298008441925049
1789116126976056300,19.468056396484375,8.233403205871582,-7.654041290283203,-5.324329376220703
1789116126994906600,19.48690673828125,7.673183917999268,-7.855038642883301,-5.738586902618408
1789116127013757200,19.505757080078126,7.268497943878174,-6.823133945465088,-5.6859450340271
1789116127032607500,19.524607421875,7.141678333282471,-5.312365531921387,-4.479363918304443
1789116127051457800,19.543457763671874,6.94038200378418,-4.079463481903076,-3.9933218955993652
1789116127070308000,19.56230810546875,6.93320369720459,-3.81864595413208,-4.572684288024902
1789116127089158400,19.581158447265626,6.583851337432861,-4.053142547607422,-5.640480995178223
1789116127108008700,19.6000087890625,6.87099027633667,-4.311866283416748,-5.288437366485596
1789116127126859000,19.61885888671875,5.535196781158447,-4.065106391906738,-3.9335012435913086
1789116127145709300,19.637709228515625,3.4737801551818848,-2.449054002761841,-2.520838737487793
1789116127164559600,19.6565595703125,4.548755645751953,-1.1539387702941895,-0.9744769930839539
1789116127183410000,19.675409912109377,5.915955066680908,-1.596909999847412,-1.1180464029312134
1789116127202260200,19.69426025390625,5.556732177734375,-1.9366908073425293,-1.7045869827270508
1789116127221110500,19.713110595703125,4.642076015472412,-2.166700839996338,-1.80508553981781
1789116127239960800,19.7319609375,5.43709135055542,-2.008774518966675,-1.3908281326293945
1789116127258811100,19.75081103515625,6.610172748565674,-1.8696918487548828,-0.9864411354064941
1789116127277661400,19.769661376953124,6.811169624328613,-1.7835501432418823,-1.194616675376892
1789116127296511700,19.78851171875,6.873383045196533,-1.7333009243011475,-2.5474588871002197
1789116127315362000,19.807362060546875,5.709873199462891,-2.3461625576019287,-3.476173162460327
1789116127334212400,19.82621240234375,5.968596935272217,-3.054737091064453,-3.624528169631958
1789116127353062700,19.845062744140623,6.713063716888428,-3.153141975402832,-3.7660038471221924
1789116127371913000,19.863912841796875,6.973881721496582,-3.2416765689849854,-4.3070807456970215
1789116127390763300,19.88276318359375,6.325127601623535,-4.144069671630859,-4.867300510406494
1789116127409613600,19.901613525390626,5.944668769836426,-5.276473045349121,-5.56151819229126
1789116127428463900,19.9204638671875,5.951847076416016,-6.339484691619873,-5.843871116638184
1789116127447314000,19.93931396484375,6.62213659286499,-6.720242500305176,-5.250152111053467
1789116127466164200,19.958164306640626,6.363412857055664,-7.026822566986084,-5.518447399139404
1789116127485014800,19.977014892578126,5.923133373260498,-8.039285659790039,-6.464210510253906
1789116127503864800,19.99586474609375,5.853442192077637,-9.17886734008789,-6.310770511627197
1789116127522715100,20.014715087890625,6.380162239074707,-10.179665565490723,-5.827121257781982
1789116127541565400,20.0335654296875,5.90159797668457,-9.976275444030762,-5.475376605987549
1789116127560415700,20.052415771484377,6.176772594451904,-8.561220169067383,-4.991727352142334
1789116127579266000,20.07126611328125,6.892525672912598,-7.984251022338867,-4.924727916717529
1789116127598116400,20.090116455078125,6.420840263366699,-9.044869422912598,-5.125725269317627
1789116127616966700,20.108966552734376,6.531209468841553,-9.782157897949219,-4.931906700134277
1789116127635817000,20.12781689453125,6.270092487335205,-9.332307815551758,-4.728217601776123
1789116127654667300,20.146667236328124,5.935097694396973,-9.128618240356445,-4.445864677429199
1789116127673517600,20.165517578125,6.207879066467285,-8.664112091064453,-4.555934429168701
1789116127692368000,20.184367919921876,5.997310638427734,-7.9866437911987305,-4.551148891448975
1789116127711218200,20.20321826171875,5.831906795501709,-8.5133638381958,-4.694717884063721
1789116127730068500,20.222068359375,4.773980140686035,-8.987442016601562,-4.232903480529785
1789116127748918800,20.240918701171875,4.656432628631592,-8.463114738464355,-3.677469253540039
1789116127767769000,20.25976904296875,4.6995038986206055,-7.840681552886963,-3.945465326309204
1789116127786619400,20.278619384765626,5.041976451873779,-8.20229721069336,-4.146462440490723
1789116127805469700,20.2974697265625,5.96381139755249,-9.810872077941895,-5.168796062469482
1789116127824320000,20.316320068359374,6.2653069496154785,-9.20279598236084,-5.31475830078125
1789116127843170000,20.335170166015626,5.999703884124756,-7.103393077850342,-5.487340450286865
1789116127862020400,20.354020263671874,5.525625705718994,-6.502495765686035,-5.520840167999268
1789116127880870700,20.37287060546875,5.913562297821045,-7.06271505355835,-5.152046203613281
1789116127899721000,20.391720947265625,6.914061069488525,-7.922037601470947,-5.592624664306641
1789116127918571300,20.4105712890625,7.223034381866455,-7.996214866638184,-5.8944196701049805
1789116127937421600,20.429421630859373,7.550850868225098,-7.587042331695557,-5.978168487548828
1789116127956271900,20.44827197265625,7.144071102142334,-7.747361660003662,-5.566303730010986
1789116127975122200,20.4671220703125,6.389733791351318,-7.251748085021973,-5.092225551605225
1789116127993972500,20.485972412109376,6.114559173583984,-6.0834527015686035,-5.013262748718262
1789116128012822800,20.50482275390625,6.387341022491455,-5.137689113616943,-4.872086048126221
1789116128031673000,20.523673095703124,7.108178615570068,-4.893621444702148,-4.467400074005127
1789116128050523100,20.542523193359376,7.749754428863525,-5.089832782745361,-3.911965847015381
1789116128069373400,20.56137353515625,7.469494819641113,-4.73300313949585,-3.3445677757263184
1789116128088223700,20.5802236328125,6.296413898468018,-4.096213340759277,-5.384449005126953
1789116128107074000,20.599073974609375,5.760122299194336,-4.182354927062988,-6.729813575744629
1789116128125924400,20.61792431640625,4.953442096710205,-3.037987470626831,-4.1368913650512695
1789116128144774700,20.636774658203127,5.937490463256836,-1.9776679277420044,-1.89840567111969
1789116128163625000,20.655625,5.673980712890625,-1.872084617614746,-1.8194425106048584
1789116128182475300,20.674475341796875,5.0347981452941895,-2.6096723079681396,-2.181057929992676
1789116128201325600,20.69332568359375,5.930311679840088,-2.2097716331481934,-1.9510477781295776
1789116128220176000,20.71217578125,5.250152111053467,-1.8936200141906738,-2.8537402153015137
1789116128239026000,20.73102587890625,4.680361270904541,-1.0582258701324463,-2.307877540588379
1789116128257876200,20.749876220703126,6.349055767059326,-0.5506483316421509,-1.8457635641098022
1789116128276726500,20.7687265625,6.720242500305176,-0.9074779748916626,-2.4849462509155273
1789116128295576800,20.787576904296873,6.160022735595703,-1.40279221534729,-3.2656047344207764
1789116128314427100,20.80642724609375,5.688337802886963,-2.0997018814086914,-3.6870405673980713
1789116128333277400,20.82527734375,6.322734832763672,-2.92073917388916,-3.5120654106140137
1789116128352127700,20.844127685546876,6.768098831176758,-3.3517463207244873,-3.3206396102905273
1789116128370977800,20.862977783203124,5.408377170562744,-3.653541088104248,-3.897608995437622
1789116128389828000,20.881828125,5.56869649887085,-4.295116424560547,-4.175176620483398
1789116128408678400,20.900678466796876,6.658029079437256,-4.958227634429932,-4.577469825744629
1789116128427528700,20.91952880859375,6.200700759887695,-5.338985443115234,-4.9893341064453125
1789116128446379000,20.93837890625,5.413163185119629,-5.8821563720703125,-5.525625705718994
1789116128465229300,20.957229248046875,5.504090309143066,-6.87816858291626,-5.899205207824707
1789116128484079600,20.97607958984375,6.246164321899414,-8.149654388427734,-5.774479389190674
1789116128502929700,20.9949296875,6.866204738616943,-9.719944953918457,-5.817550182342529
1789116128521780000,21.013780029296875,5.030012130737305,-10.158130645751953,-5.9901323318481445
1789116128540630300,21.03263037109375,4.534399032592773,-8.882157325744629,-5.257330417633057
1789116128559480600,21.05148046875,5.930311679840088,-8.00100040435791,-4.2281174659729
1789116128578331000,21.070330810546874,6.658029079437256,-9.327521324157715,-4.615755081176758
1789116128597181200,21.08918115234375,6.248557090759277,-10.409675598144531,-5.903990745544434
1789116128616031500,21.108031494140626,5.7888360023498535,-10.761421203613281,-5.410770416259766
1789116128634881500,21.126881591796874,6.509674072265625,-10.553245544433594,-3.600599765777588
1789116128653731800,21.14573193359375,6.246164321899414,-9.406484603881836,-3.521636724472046
1789116128672582100,21.16458203125,6.181558132171631,-7.881359577178955,-5.070690155029297
1789116128691432400,21.183432373046877,6.021239280700684,-8.01057243347168,-5.2956156730651855
1789116128710282800,21.20228271484375,6.509674072265625,-9.406484603881836,-5.2405805587768555
1789116128729133000,21.221133056640625,5.523232936859131,-9.423234939575195,-3.8688950538635254
1789116128747983000,21.239983154296876,5.0587263107299805,-8.293224334716797,-3.3684961795806885
1789116128766833400,21.25883349609375,4.915156841278076,-7.926823139190674,-3.4881372451782227
1789116128785683700,21.27768359375,5.063511848449707,-8.240582466125488,-3.828217029571533
1789116128804534000,21.296533935546876,5.175974369049072,-8.96112060546875,-4.591826438903809
1789116128823384300,21.31538427734375,5.372485160827637,-8.944371223449707,-5.173581600189209
1789116128842234400,21.334234375,5.911169052124023,-8.044071197509766,-4.874478816986084
1789116128861084700,21.353084716796875,6.277271270751953,-7.555636405944824,-4.644468784332275
1789116128879935000,21.37193505859375,6.365805625915527,-7.550850868225098,-4.73300313949585
1789116128898785300,21.390785400390627,6.392126560211182,-7.318747043609619,-5.1783671379089355
1789116128917635300,21.40963525390625,6.698707103729248,-6.930810928344727,-5.793622016906738
1789116128936485600,21.428485595703126,7.395317554473877,-7.014858722686768,-6.277271270751953
1789116128955336000,21.4473359375,7.512565612792969,-7.3283185958862305,-6.1073808670043945
1789116128974186200,21.466186279296874,6.839883327484131,-7.045965194702148,-5.379663467407227
1789116128993036500,21.48503662109375,6.665207386016846,-6.531209468841553,-4.840979099273682
1789116129011886600,21.503886474609374,7.301997184753418,-5.872584819793701,-4.824229717254639
1789116129030737000,21.52273681640625,7.6875410079956055,-5.571089267730713,-4.249652862548828
1789116129049587200,21.541587158203125,8.060821533203125,-5.618945598602295,-4.170390605926514
1789116129068437500,21.5604375,7.182356357574463,-5.683551788330078,-4.551148891448975
1789116129087287800,21.579287841796877,6.372983932495117,-3.9311084747314453,-5.4418768882751465
1789116129106137900,21.598137939453125,5.554339408874512,-2.9781668186187744,-5.453841209411621
1789116129124988200,21.61698828125,4.409972190856934,-2.3772692680358887,-3.593421459197998
1789116129143838500,21.63583837890625,5.822335720062256,-0.7588238716125488,-2.152343988418579
1789116129162688800,21.654688720703124,6.073881149291992,-2.181057929992676,-2.1068804264068604
1789116129181538800,21.673538818359376,6.353841304779053,-2.7364916801452637,-1.8337994813919067
1789116129200389000,21.69238916015625,6.128916263580322,-2.2241287231445312,-3.11246395111084
1789116129219239400,21.711239501953123,4.366901397705078,-1.9728822708129883,-2.714956283569336
1789116129238089700,21.73008984375,5.370092391967773,-1.0319048166275024,-1.1635099649429321
1789116129256939800,21.748939697265627,6.454638957977295,-0.8018946647644043,-1.4413765668869019
1789116129275790000,21.7677900390625,5.659623622894287,-1.0606186389923096,-2.094916343688965
1789116129294640400,21.786640380859374,3.9789650440216064,-1.5418751239776611,-3.1579277515411377
1789116129313490700,21.80549072265625,7.440781116485596,-1.6998014450073242,-2.197807550430298
1789116129332340700,21.8243408203125,6.210271835327148,-1.9606190919876099,-2.975774049758911
1789116129351191000,21.84319091796875,6.15762996673584,-2.935096025466919,-3.7851462364196777
1789116129370041300,21.862041259765626,8.214261054992676,-3.294318675994873,-4.826622486114502
1789116129388891600,21.8808916015625,7.065107822418213,-3.7683966159820557,-5.831906795501709
1789116129407741700,21.89974169921875,4.737788677215576,-5.9183478355407715,-5.72422981262207
1789116129426592000,21.918592041015625,5.477769374847412,-7.957930088043213,-5.257330417633057
1789116129445442300,21.9374423828125,6.62213659286499,-8.029714584350586,-4.077070713043213
1789116129464292400,21.956292236328125,5.954239845275879,-7.081857681274414,-3.7348971366882324
1789116129483142700,21.975142578125,5.793622016906738,-6.847062110900879,-4.275974273681641
1789116129501993000,21.993992919921876,6.1073808670043945,-6.6149582862854,-5.257330417633057
1789116129520843300,22.01284326171875,6.0762739181518555,-7.012166976928711,-6.078666687011719
1789116129539693300,22.031693359375,6.334698677062988,-7.491030216217041,-6.3514485359191895
1789116129558543600,22.050543701171875,5.743372440338135,-8.3267240524292,-6.033203125
1789116129577394000,22.069393798828123,6.191129684448242,-9.700801849365234,-5.168796062469482
1789116129596244000,22.088243896484375,6.4666032791137695,-11.786147117614746,-4.60857629776001
1789116129615094300,22.10709423828125,6.334698677062988,-11.924930572509766,-4.4650068283081055
1789116129633944600,22.125944580078126,6.62931489944458,-10.284950256347656,-4.486542224884033
1789116129652794600,22.144794677734374,6.720242500305176,-9.6433744430542,-4.934299468994141
1789116129671645000,22.16364501953125,6.75374174118042,-8.882157325744629,-5.633302688598633
1789116129690495200,22.1824951171875,6.631708145141602,-8.005785942077637,-5.166403293609619
1789116129709345300,22.20134521484375,6.363412857055664,-7.744968891143799,-5.25254487991333
1789116129728195600,22.220195556640626,4.555934429168701,-7.9627156257629395,-3.8545382022857666
1789116129747046000,22.2390458984375,3.9813578128814697,-7.864609718322754,-2.9925239086151123
1789116129765896000,22.25789599609375,4.366901397705078,-7.682755470275879,-3.1148569583892822
1789116129784746200,22.276746337890625,4.500899314880371,-7.797610759735107,-3.6894333362579346
1789116129803596500,22.295596435546877,5.140082359313965,-8.812766075134277,-4.958227634429932
1789116129822446600,22.314446533203125,5.638088226318359,-9.238688468933105,-4.754538536071777
1789116129841297000,22.333296875,6.205486297607422,-8.065607070922852,-4.613361835479736
1789116129860147200,22.352147216796876,6.540780544281006,-7.285247802734375,-4.958227634429932
1789116129878997200,22.370997314453124,6.660421848297119,-7.639684677124023,-5.396413326263428
1789116129897847600,22.38984765625,6.689135551452637,-8.388936996459961,-5.997310638427734
1789116129916697900,22.40869775390625,6.73938512802124,-7.737790107727051,-6.317949295043945
1789116129935548000,22.4275478515625,6.94038200378418,-6.6484575271606445,-6.8518476486206055
1789116129954398200,22.446398193359375,7.017251491546631,-6.705885410308838,-6.1073808670043945
1789116129973248300,22.465248291015627,6.87816858291626,-6.8997039794921875,-5.36769962310791
1789116129992098600,22.4840986328125,6.167201042175293,-6.2892351150512695,-4.522434711456299
1789116130010948900,22.502948974609374,6.519245147705078,-5.547161102294922,-4.376472473144531
1789116130029799000,22.521798828125,7.206284523010254,-5.947061538696289,-4.237689018249512
1789116130048649200,22.540649169921874,7.632505893707275,-6.064310073852539,-4.07467794418335
1789116130067499500,22.55949951171875,6.612565517425537,-5.664409637451172,-4.35254430770874
1789116130086349600,22.578349609375,5.886941909790039,-4.852943420410156,-5.080261707305908
1789116130105199900,22.597199951171874,6.533602237701416,-3.667897939682007,-5.544768333435059
1789116130124050000,22.6160498046875,7.58943510055542,-3.248854875564575,-5.199902534484863
1789116130142900200,22.634900146484377,5.947061538696289,-3.4378879070281982,-4.141676902770996
1789116130161750500,22.65375048828125,5.118546962738037,-2.635993242263794,-3.119642496109009
1789116130180600600,22.6726005859375,5.051547527313232,-2.588136672973633,-2.2719850540161133
1789116130199451000,22.691450927734376,5.6309099197387695,-1.4964114427566528,-1.9848463535308838
1789116130218301200,22.71030126953125,5.807978630065918,-1.5897315740585327,-2.0997018814086914
1789116130237151200,22.729151123046876,5.461019515991211,-1.4988043308258057,-1.5705889463424683
1789116130256001500,22.74800146484375,5.635695457458496,-1.2496516704559326,-2.566601276397705
1789116130274851600,22.7668515625,5.843871116638184,-1.89840567111969,-2.9781668186187744
1789116130293702000,22.785701904296875,6.248557090759277,-1.9055840969085693,-2.1714866161346436
1789116130312552000,22.804552001953127,6.451947212219238,-1.8792630434036255,-2.535494804382324
1789116130331402200,22.82340234375,6.401698112487793,-1.6567305326461792,-2.834597587585449
1789116130350252500,22.84225244140625,6.210271835327148,-1.6256239414215088,-3.5192439556121826
1789116130369102600,22.8611025390625,5.712265968322754,-2.135594129562378,-4.194318771362305
1789116130387953000,22.879952880859374,5.769693374633789,-2.7484560012817383,-4.252045631408691
1789116130406803000,22.898802978515626,5.597410202026367,-3.684647798538208,-4.78594446182251
1789116130425653200,22.9176533203125,5.784050464630127,-5.223830699920654,-4.761716842651367
1789116130444503300,22.93650341796875,6.68435001373291,-6.696314334869385,-5.24536657333374
1789116130463353600,22.955353515625,6.1002020835876465,-7.670791149139404,-6.262914180755615
1789116130482204000,22.974203857421877,6.04038143157959,-8.03210735321045,-6.964310169219971
1789116130501054000,22.993053955078125,5.930311679840088,-7.357032299041748,-6.744170665740967
1789116130519904300,23.011904296875,5.468197822570801,-6.873383045196533,-6.09541654586792
1789116130538754300,23.03075439453125,5.831906795501709,-7.337889671325684,-5.362913608551025
1789116130557604600,23.0496044921875,5.590231895446777,-8.882157325744629,-4.191926002502441
1789116130576454700,23.06845458984375,5.298008441925049,-10.916954040527344,-4.3310089111328125
1789116130595305000,23.087304931640624,6.0140604972839355,-11.101500511169434,-4.172783374786377
1789116130614155000,23.106155029296875,6.21984338760376,-9.09272575378418,-3.897608995437622
1789116130633005300,23.12500537109375,6.030810356140137,-9.334700584411621,-4.991727352142334
1789116130651855400,23.14385546875,6.540780544281006,-10.646565437316895,-5.78644323348999
1789116130670705700,23.16270556640625,6.447161674499512,-9.693623542785645,-5.410770416259766
1789116130689555700,23.1815556640625,6.121737480163574,-7.756932735443115,-4.701896667480469
1789116130708406000,23.200406005859374,5.757729530334473,-7.230212688446045,-5.266901969909668
1789116130727256000,23.219256103515626,5.587839126586914,-8.429615020751953,-5.018048286437988
1789116130746106400,23.2381064453125,6.310770511627197,-10.505388259887695,-5.140082359313965
1789116130764956400,23.256956298828126,5.96381139755249,-10.02173900604248,-5.039583683013916
1789116130783806700,23.275806640625,4.742574691772461,-7.649255752563477,-4.2209391593933105
1789116130802656800,23.29465673828125,4.567898273468018,-7.110571384429932,-3.85693097114563
1789116130821507000,23.313507080078125,4.510470867156982,-7.546065330505371,-3.76361083984375
1789116130840357000,23.332357177734377,4.599005222320557,-7.802396297454834,-3.3373894691467285
1789116130859207400,23.35120751953125,5.085047245025635,-7.800003528594971,-4.065106391906738
1789116130878057500,23.370057373046876,5.168796062469482,-7.543672561645508,-4.534399032592773
1789116130896907800,23.38890771484375,5.899205207824707,-7.622934818267822,-4.876871585845947
1789116130915757800,23.4077578125,7.158428192138672,-7.883752346038818,-5.338985443115234
1789116130934608000,23.42660791015625,7.867002487182617,-7.780860900878906,-6.035595893859863
1789116130953458200,23.445458251953124,8.515756607055664,-7.991429328918457,-7.519744396209717
1789116130972308500,23.46430859375,7.922037601470947,-8.140083312988281,-7.316354274749756
1789116130991158500,23.483158447265627,7.019644260406494,-7.483851909637451,-6.504888534545898
1789116131010008600,23.502008544921875,6.294020652770996,-6.777669906616211,-5.408377170562744
1789116131028859000,23.52085888671875,6.4375901222229,-5.927918910980225,-4.555934429168701
1789116131047709000,23.539708984375,6.339484691619873,-5.006083965301514,-4.098606109619141
1789116131075984100,23.567984130859376,6.646064758300781,-4.764110088348389,-3.16749906539917
1789116131094834400,23.58683447265625,6.061916828155518,-4.560719966888428,-2.5594229698181152
1789116131113684500,23.6056845703125,5.046761989593506,-3.366103172302246,-2.935096025466919
1789116131132534800,23.62453466796875,6.930810928344727,-2.2408783435821533,-5.439484119415283
1789116131151384800,23.643384765625,8.489435195922852,-3.0957143306732178,-6.176772594451904
1789116131170235100,23.662235107421875,5.580660820007324,-3.0499515533447266,-4.642076015472412
1789116131189085200,23.681085205078126,4.7401814460754395,-2.621636390686035,-3.5264222621917725
1789116131207935200,23.699935302734374,4.9414777755737305,-2.396411895751953,-2.6623141765594482
1789116131226785500,23.71878564453125,5.90159797668457,-2.2648067474365234,-2.2432711124420166
1789116131245635600,23.737635498046874,6.035595893859863,-2.341377019882202,-1.7548363208770752
1789116131264486000,23.75648583984375,5.719444274902344,-1.6351951360702515,-2.5088746547698975
1789116131283336000,23.7753359375,5.84147834777832,-1.934298038482666,-2.95902419090271
1789116131302186200,23.794186279296873,6.990631580352783,-1.5227324962615967,-2.506481647491455
1789116131321036300,23.813036376953125,5.930311679840088,-1.6088740825653076,-2.973381280899048
1789116131339886300,23.83188623046875,5.604588985443115,-2.035095691680908,-2.5184457302093506
1789116131358736600,23.850736572265625,6.4375901222229,-2.0207388401031494,-2.6312077045440674
1789116131377586700,23.869586669921876,5.360520839691162,-2.276770830154419,-3.3852458000183105
1789116131396436700,23.888436767578124,5.458626747131348,-2.944667339324951,-3.670290946960449
1789116131415287000,23.907287109375,5.872584819793701,-3.81864595413208,-3.904787540435791
1789116131434137000,23.92613720703125,5.877370834350586,-4.860121726989746,-4.084249019622803
1789116131452987400,23.9449873046875,7.2110700607299805,-6.109773635864258,-4.713860511779785
1789116131471837400,23.96383740234375,7.067500591278076,-6.792026996612549,-5.72422981262207
1789116131490687500,23.9826875,5.597410202026367,-7.579864025115967,-6.531209468841553
1789116131509537800,24.001537841796875,5.733801364898682,-8.69043254852295,-6.844669342041016
1789116131528387800,24.020387939453126,6.442375659942627,-9.181260108947754,-6.231807708740234
1789116131547238000,24.03923779296875,6.478567123413086,-8.989834785461426,-5.231009483337402
1789116131566088200,24.058088134765626,5.829514026641846,-9.588339805603027,-5.425127029418945
1789116131584938200,24.076938232421874,5.621338367462158,-9.325128555297852,-5.781657695770264
1789116131603788300,24.095788330078125,6.55992317199707,-7.790432453155518,-5.930311679840088
1789116131622638600,24.114638671875,6.80159854888916,-7.919644832611084,-5.7649078369140625
1789116131641488600,24.133488525390625,6.136094570159912,-9.657731056213379,-6.145665645599365
1789116131660339000,24.1523388671875,6.49770975112915,-10.727921485900879,-5.372485160827637
1789116131679189000,24.17118896484375,6.341877460479736,-9.291629791259766,-4.0435709953308105
1789116131698039000,24.1900390625,5.640480995178223,-7.95553731918335,-4.694717884063721
1789116131716889300,24.208889404296876,5.386841773986816,-8.113463401794434,-4.680361270904541
1789116131735739400,24.227739501953124,6.042774677276611,-8.798408508300781,-4.711467742919922
1789116131754589400,24.24658935546875,5.6309099197387695,-9.176474571228027,-4.319045066833496
1789116131773439500,24.265439453125,5.152046203613281,-8.510971069335938,-3.7253258228302
1789116131792289800,24.284289794921875,4.850550651550293,-7.749754428863525,-3.342175006866455
1789116131811139800,24.303139892578123,4.852943420410156,-7.361817836761475,-3.9095730781555176
1789116131829990000,24.321989990234375,5.132903575897217,-7.859824180603027,-4.443471431732178
1789116131848840200,24.340840087890626,6.066702842712402,-9.37298583984375,-5.396413326263428
1789116131867690200,24.359690185546874,6.641279220581055,-9.3490571975708,-5.413163185119629
1789116131886540300,24.378540283203126,6.291627883911133,-7.809575080871582,-5.336592674255371
1789116131905390600,24.397390625,6.203093528747559,-7.134500026702881,-5.187938690185547
1789116131924240600,24.41624072265625,6.272485256195068,-7.151249408721924,-5.223830699920654
1789116131943090700,24.435090576171874,6.591030120849609,-6.985845565795898,-5.544768333435059
1789116131961940700,24.453940673828125,6.849454879760742,-6.957131862640381,-6.255735874176025
1789116131980791000,24.472791015625,7.464709281921387,-7.294818878173828,-6.203093528747559
1789116131999641000,24.49164111328125,7.426424026489258,-7.567600727081299,-5.360520839691162
1789116132018491100,24.5104912109375,6.686742782592773,-6.823133945465088,-4.994120121002197
1789116132037341400,24.529341552734376,6.148058891296387,-5.523232936859131,-4.687539577484131
1789116132065616600,24.55761669921875,6.672386169433594,-4.543970108032227,-4.400400638580322
1789116132084466700,24.576466796875,6.332305908203125,-4.701896667480469,-4.850550651550293
1789116132103316700,24.595316650390625,6.653243541717529,-4.438685894012451,-4.398007869720459
1789116132122166800,24.614166748046873,7.347461223602295,-4.405186653137207,-3.045166015625
1789116132141016800,24.633016845703125,6.461817741394043,-4.395615100860596,-3.7444684505462646
1789116132159867100,24.6518671875,5.690730571746826,-4.048357009887695,-6.464210510253906
1789116132178717200,24.67071728515625,5.147260665893555,-3.545564889907837,-4.881657123565674
1789116132197567200,24.689567138671876,5.523232936859131,-1.8385851383209229,-2.20737886428833
1789116132216417500,24.70841748046875,6.976274490356445,-1.4222339391708374,-1.695015788078308
1789116132235267600,24.727267578125,6.081059455871582,-2.262413740158081,-2.372483730316162
1789116132254117600,24.74611767578125,5.657230854034424,-2.0781664848327637,-2.674278497695923
1789116132272967700,24.7649677734375,5.566303730010986,-2.23848557472229,-3.224926710128784
1789116132291817700,24.783817626953127,3.967000722885132,-2.1619153022766113,-2.659921407699585
1789116132310668000,24.80266796875,6.5527448654174805,-0.7851449251174927,-0.8835497498512268
1789116132329518000,24.82151806640625,6.353841304779053,-0.8428717851638794,-1.6998014450073242
1789116132348368100,24.8403681640625,5.07308292388916,-1.7069798707962036,-2.489732027053833
1789116132367218200,24.85921826171875,5.4897332191467285,-2.152343988418579,-3.030808925628662
1789116132386068500,24.878068359375,6.5527448654174805,-2.839383125305176,-3.2967114448547363
1789116132404918500,24.89691845703125,6.7345991134643555,-3.6053855419158936,-3.952643871307373
1789116132423768600,24.9157685546875,6.253343105316162,-4.682754039764404,-4.766502857208252
1789116132442618600,24.93461865234375,6.557530403137207,-5.647659778594971,-5.365306377410889
1789116132461468700,24.95346875,6.861418724060059,-6.191129684448242,-5.714658737182617
1789116132480319000,24.972319091796876,6.646064758300781,-6.5288166999816895,-5.429912567138672
1789116132499169000,24.9911689453125,5.566303730010986,-7.3283185958862305,-5.266901969909668
1789116132518019000,25.01001904296875,5.90159797668457,-8.204689979553223,-5.231009483337402
1789116132536869000,25.028869140625,6.380162239074707,-8.29561710357666,-5.137689113616943
1789116132555719200,25.04771923828125,6.246164321899414,-8.52772045135498,-5.384449005126953
1789116132574569500,25.066569580078124,5.886941909790039,-8.539685249328613,-6.097809314727783
1789116132593419500,25.08541943359375,5.650052547454834,-8.173583030700684,-6.339484691619873
1789116132612269600,25.10426953125,6.090631008148193,-8.257331848144531,-5.889334678649902
1789116132631119600,25.12311962890625,6.665207386016846,-9.313164710998535,-5.5758748054504395
1789116132649969700,25.1419697265625,6.662814617156982,-10.129416465759277,-5.784050464630127
1789116132668819700,25.16081982421875,6.485745906829834,-9.456734657287598,-5.542375564575195
1789116132687669800,25.179669677734374,6.708278179168701,-9.214759826660156,-5.635695457458496
1789116132706520000,25.19852001953125,6.425626277923584,-9.004191398620605,-5.0587263107299805
