time,seconds_elapsed,z,y,x
1789323903035361800,0.20336181640625,8.075178146362305,4.235296249389648,-0.2273181527853012
1789323903063637800,0.2316376953125,8.053643226623535,4.203890323638916,0.14117653667926788
1789323903082488600,0.250488525390625,8.271688461303711,4.417150497436523,0.08853443711996078
1789323903101339400,0.26933935546875,8.087141990661621,4.436293125152588,0.30658039450645447
1789323903120190200,0.288190185546875,7.821538925170898,4.323830604553223,0.6343970894813538
1789323903139041000,0.307041015625,8.120641708374023,4.311866283416748,0.7229315638542175
1789323903195593500,0.363593505859375,9.075976371765137,4.319045066833496,0.9481559991836548
1789323903214444300,0.3824443359375,9.004191398620605,4.2831525802612305,0.9050851464271545
1789323903242720500,0.410720458984375,9.332307815551758,4.1129631996154785,0.5434698462486267
1789323903270996700,0.438996826171875,9.442377090454102,4.187140464782715,0.3520440459251404
1789323903289847300,0.457847412109375,9.289237022399902,4.249652862548828,0.4262215197086334
1789323903308698000,0.476697998046875,9.28445053100586,4.5200419425964355,0.30658039450645447
1789323903327549000,0.495548828125,8.963513374328613,4.689932346343994,0.007178467698395252
1789323903346399700,0.514399658203125,8.333902359008789,4.627718925476074,-0.13639089465141296
1789323903365250600,0.53325048828125,7.697112083435059,4.728217601776123,-0.275174617767334
1789323903384101400,0.552101318359375,7.474280834197998,5.077868938446045,-0.6176473498344421
1789323903402952200,0.5709521484375,7.4240312576293945,5.432305812835693,-1.1419745683670044
1789323903421803000,0.589802978515625,7.380960464477539,5.384449005126953,-1.4174482822418213
1789323903440653800,0.60865380859375,7.227819919586182,5.309972763061523,-1.4796617031097412
1789323903459504600,0.627504638671875,7.050751209259033,5.338985443115234,-1.2831511497497559
1789323903478355500,0.64635546875,7.017251491546631,5.36769962310791,-1.342971682548523
1789323903497206300,0.665206298828125,7.132106781005859,5.439484119415283,-1.529910922050476
1789323903516057000,0.68405712890625,7.347461223602295,5.449055194854736,-1.690230131149292
1789323903534908000,0.702907958984375,7.428816795349121,5.516054630279541,-1.7596219778060913
1789323903553758700,0.7217587890625,7.333104133605957,5.719444274902344,-1.6710875034332275
1789323903572609500,0.740609619140625,7.5173516273498535,5.879763603210449,-1.651944875717163
1789323903591460400,0.75946044921875,7.675576686859131,5.932704448699951,-1.7285152673721313
1789323903610311200,0.778311279296875,7.697112083435059,5.925526142120361,-1.7309080362319946
1789323903629162000,0.797161865234375,7.569993495941162,5.937490463256836,-1.7380865812301636
1789323903648012800,0.8160126953125,7.72104024887085,5.961418628692627,-1.7165511846542358
1789323903666863600,0.834863525390625,7.922037601470947,6.004489421844482,-1.7069798707962036
1789323903685714400,0.85371435546875,7.881359577178955,5.932704448699951,-1.6304094791412354
1789323903704565200,0.872565185546875,7.673183917999268,5.872584819793701,-1.695015788078308
1789323903723416000,0.891416015625,7.567600727081299,5.8582282066345215,-1.8242281675338745
1789323903742267000,0.910266845703125,7.5412797927856445,5.805585861206055,-1.8744773864746094
1789323903761117700,0.92911767578125,7.699504852294922,5.666802406311035,-1.8457635641098022
1789323903779968500,0.947968505859375,7.989036560058594,5.595017433166504,-1.8840487003326416
1789323903798819300,0.9668193359375,8.221439361572266,5.528018474578857,-1.8026927709579468
1789323903817670100,0.985670166015625,7.9866437911987305,5.578267574310303,-1.77397882938385
1789323903836521000,1.00452099609375,7.802396297454834,5.697908878326416,-1.8864415884017944
1789323903855371800,1.023371826171875,7.969893932342529,5.645267009735107,-1.9558334350585938
1789323903874222600,1.04222265625,8.159226417541504,5.6069817543029785,-1.9007984399795532
1789323903893073400,1.061073486328125,8.082356452941895,5.705087184906006,-1.7261223793029785
1789323903911924200,1.07992431640625,7.977072715759277,5.932704448699951,-1.721336841583252
1789323903930775000,1.098775146484375,7.991429328918457,6.116951942443848,-1.8936200141906738
1789323903949625900,1.1176259765625,7.9866437911987305,6.262914180755615,-1.9872392416000366
1789323903968476700,1.1364765625,7.922037601470947,6.320342063903809,-1.776371717453003
1789323903987327500,1.155327392578125,7.883752346038818,6.392126560211182,-1.3334003686904907
1789323904006178600,1.174178466796875,7.996214866638184,6.349055767059326,-1.0701899528503418
1789323904025029400,1.193029296875,8.226224899291992,6.203093528747559,-1.2161520719528198
1789323904043880200,1.211880126953125,8.386544227600098,6.035595893859863,-1.4126626253128052
1789323904062731000,1.23073095703125,8.489435195922852,5.96381139755249,-1.3956137895584106
1789323904081581800,1.249581787109375,8.417651176452637,5.906383514404297,-1.2664014101028442
1789323904100432600,1.2684326171875,8.286046028137207,5.8821563720703125,-1.2951152324676514
1789323904119283500,1.287283447265625,8.087141990661621,5.714658737182617,-1.2855439186096191
1789323904138134300,1.30613427734375,7.902894973754883,5.604588985443115,-1.3357932567596436
1789323904156985000,1.324985107421875,8.120641708374023,5.528018474578857,-1.2329018115997314
1789323904175836000,1.3438359375,8.324331283569336,5.420341491699219,-1.036690354347229
1789323904194686700,1.362686767578125,8.211868286132812,5.408377170562744,-0.9577272534370422
1789323904213537500,1.38153759765625,7.89332389831543,5.343770980834961,-0.9553344249725342
1789323904232388600,1.400388671875,7.816753387451172,5.283651351928711,-0.8620143532752991
1789323904251239400,1.419239501953125,8.106285095214844,5.207081317901611,-0.7181459069252014
1789323904270090200,1.43809033203125,8.336295127868652,5.235795021057129,-0.768395185470581
1789323904288941000,1.456941162109375,8.362615585327148,5.185545921325684,-0.7085745930671692
1789323904307792000,1.4757919921875,8.30997371673584,5.2645087242126465,-0.524327278137207
1789323904326642700,1.494642578125,8.54447078704834,5.309972763061523,-0.490827739238739
1789323904354919000,1.5229189453125,8.5731840133667,5.075475692749023,-0.3735794425010681
1789323904373770000,1.54177001953125,8.09671401977539,4.943870544433594,-0.3520440459251404
1789323904402046200,1.570046142578125,7.627720355987549,5.068297386169434,-0.5889334678649902
1789323904439747800,1.607747802734375,7.189534664154053,5.137689113616943,-0.4621138870716095
1789323904458598700,1.6265986328125,6.926024913787842,5.075475692749023,-0.20578274130821228
1789323904477449500,1.645449462890625,6.775277137756348,5.116153717041016,0.09092725813388824
1789323904496300500,1.664300537109375,6.713063716888428,5.116153717041016,0.4381856322288513
1789323904515151400,1.6831513671875,6.672386169433594,4.766502857208252,0.857228696346283
1789323904534002200,1.702002197265625,6.813562393188477,4.242474555969238,1.1108678579330444
1789323904552853000,1.72085302734375,7.108178615570068,3.699004650115967,1.470090389251709
1789323904571703800,1.739703857421875,7.246962547302246,3.2440693378448486,1.9896320104599
1789323904590554600,1.7585546875,6.770491600036621,2.5618157386779785,1.7309080362319946
1789323904609405700,1.77740576171875,6.262914180755615,2.0374884605407715,1.2975081205368042
1789323904628256500,1.796256591796875,6.0834527015686035,1.2496516704559326,1.5203397274017334
1789323904647107300,1.815107421875,6.277271270751953,0.9864411354064941,1.1850453615188599
1789323904665958100,1.833958251953125,6.416054725646973,1.287936806678772,0.7564310431480408
1789323904684809200,1.852809326171875,6.033203125,1.2759727239608765,0.22492532432079315
1789323904703660000,1.871659912109375,5.38205623626709,0.6822535395622253,0.031106693670153618
1789323904722510800,1.8905107421875,6.016453266143799,-0.4980062246322632,0.11964113265275955
1789323904741361700,1.909361572265625,6.5288166999816895,-1.831406593322754,0.1818545162677765
1789323904760212700,1.928212646484375,7.639684677124023,-3.279961585998535,0.7588238716125488
1789323904779063600,1.9470634765625,8.39611530303955,-4.8792643547058105,1.3334003686904907
1789323904807339800,1.97533984375,8.216653823852539,-5.784050464630127,0.06699903309345245
1789323904826190600,1.994190673828125,8.254939079284668,-6.468996047973633,-1.347757339477539
1789323904845041400,2.01304150390625,8.700303077697754,-7.531708240509033,-2.8848466873168945
1789323904863892500,2.031892578125,9.420842170715332,-8.036892890930176,-4.117748737335205
1789323904882743300,2.050743408203125,10.816455841064453,-8.343473434448242,-4.874478816986084
1789323904901594000,2.069593994140625,11.101500511169434,-8.798408508300781,-6.270092487335205
1789323904920445000,2.08844482421875,10.744670867919922,-8.554041862487793,-8.065607070922852
1789323904939296000,2.1072958984375,11.975179672241211,-8.247760772705078,-9.432806015014648
1789323904958146800,2.126146728515625,13.469198226928711,-7.680362701416016,-10.603494644165039
1789323904976997600,2.14499755859375,13.502697944641113,-6.73938512802124,-11.915359497070312
1789323904995848400,2.163848388671875,16.56012725830078,-5.049154758453369,-13.239487648010254
1789323905014699500,2.182699462890625,18.279071807861328,-3.6293137073516846,-12.82762336730957
1789323905033550300,2.20155029296875,15.008681297302246,-3.0933215618133545,-12.602398872375488
1789323905052401200,2.220401123046875,10.36630630493164,-2.2360928058624268,-12.171690940856934
1789323905071252200,2.239252197265625,9.837491989135742,-0.5147559642791748,-10.653743743896484
1789323905090103000,2.25810302734375,10.845169067382812,0.3113660514354706,-8.470293045043945
1789323905108953900,2.276953857421875,9.973882675170898,0.11006984114646912,-7.357032299041748
1789323905127804700,2.2958046875,8.556434631347656,-0.5650052428245544,-7.383353233337402
1789323905146655700,2.31465576171875,7.246962547302246,-1.6088740825653076,-8.81515884399414
1789323905165506600,2.333506591796875,6.028417587280273,-2.6264219284057617,-9.416056632995605
1789323905184357600,2.352357666015625,5.573482036590576,-2.9566314220428467,-9.748658180236816
1789323905203208400,2.37120849609375,5.166403293609619,-3.122035264968872,-9.724730491638184
1789323905222059300,2.390059326171875,5.030012130737305,-3.904787540435791,-8.269295692443848
1789323905240910300,2.408910400390625,5.5830535888671875,-4.000500202178955,-6.772884368896484
1789323905259761200,2.42776123046875,4.596612453460693,-4.022035598754883,-5.31475830078125
1789323905278612000,2.446612060546875,4.271188259124756,-4.302295207977295,-4.405186653137207
1789323905297463000,2.465463134765625,5.0826544761657715,-4.512863636016846,-5.338985443115234
1789323905316313900,2.48431396484375,3.770789384841919,-7.610970497131348,-5.678766250610352
1789323905335164700,2.50316455078125,3.3541390895843506,-8.479864120483398,-6.037988662719727
1789323905354015700,2.522015625,4.350151538848877,-9.310771942138672,-4.534399032592773
1789323905372866600,2.540866455078125,4.821836948394775,-9.080761909484863,-3.5431721210479736
1789323905391717400,2.55971728515625,4.929513931274414,-8.152048110961914,-3.64127779006958
1789323905410568400,2.578568359375,5.2645087242126465,-7.409674644470215,-4.685146808624268
1789323905429419300,2.597419189453125,6.224628925323486,-6.844669342041016,-4.939085006713867
1789323905448270300,2.616270263671875,5.6548380851745605,-6.689135551452637,-5.235795021057129
1789323905467121200,2.63512109375,4.912764072418213,-7.349853992462158,-6.291627883911133
1789323905485972000,2.653971923828125,4.718646049499512,-7.4240312576293945,-8.197511672973633
1789323905504823000,2.672822998046875,6.037988662719727,-7.45274543762207,-7.196712970733643
1789323905523673900,2.691673828125,6.136094570159912,-7.634898662567139,-6.198307991027832
1789323905542524700,2.710524658203125,5.001298427581787,-7.63729190826416,-5.520840167999268
1789323905561375700,2.729375732421875,5.5591254234313965,-6.918846607208252,-6.078666687011719
1789323905580226600,2.7482265625,6.081059455871582,-6.255735874176025,-6.665207386016846
1789323905599077600,2.76707763671875,4.931906700134277,-5.879763603210449,-6.961917400360107
1789323905617928400,2.785928466796875,-1.5873386859893799,-5.805585861206055,-5.518447399139404
1789323905636779300,2.804779296875,3.576671600341797,-3.576671600341797,-6.181558132171631
1789323905655630300,2.82363037109375,4.91037130355835,-1.6686947345733643,-7.558029651641846
1789323905674481200,2.842481201171875,5.638088226318359,-0.36640095710754395,-9.691230773925781
1789323905693332200,2.861332275390625,4.821836948394775,0.34247273206710815,-10.043274879455566
1789323905712183000,2.88018310546875,3.890430450439453,0.5123631358146667,-9.595518112182617
1789323905731033900,2.899033935546875,3.880859136581421,-0.31854450702667236,-8.633005142211914
1789323905749885000,2.917885009765625,4.156033992767334,-1.4940186738967896,-8.12542724609375
1789323905768735700,2.93673583984375,4.498506546020508,-2.865704298019409,-7.558029651641846
1789323905787586800,2.9555869140625,4.893621444702148,-4.838586330413818,-7.129714012145996
1789323905806437600,2.974437744140625,5.051547527313232,-4.658825874328613,-6.451947212219238
1789323905825288700,2.993288818359375,3.521636724472046,-4.713860511779785,-5.027619361877441
1789323905844139500,3.012139404296875,1.3836497068405151,-5.84865665435791,-4.584648132324219
1789323905862990600,3.030990478515625,1.2759727239608765,-6.451947212219238,-6.959524631500244
1789323905881841400,3.04984130859375,1.8170497417449951,-6.059524059295654,-6.4304118156433105
1789323905900692200,3.068692138671875,3.4259238243103027,-5.5591254234313965,-4.984548568725586
1789323905919543300,3.087543212890625,3.4953157901763916,-6.047560214996338,-4.201497554779053
1789323905938394000,3.10639404296875,2.8585257530212402,-7.622934818267822,-4.718646049499512
1789323905957245200,3.1252451171875,3.2297122478485107,-9.164510726928711,-4.953442096710205
1789323905976096000,3.144095947265625,3.638885021209717,-10.58674430847168,-5.401198863983154
1789323905994946800,3.16294677734375,3.638885021209717,-10.481460571289062,-5.401198863983154
1789323906013798000,3.1817978515625,3.6340994834899902,-10.529316902160645,-6.114559173583984
1789323906032648700,3.200648681640625,4.7234320640563965,-10.775777816772461,-5.429912567138672
1789323906051499800,3.219499755859375,3.1244282722473145,-11.707183837890625,-7.72104024887085
1789323906070350600,3.2383505859375,2.2504496574401855,-11.893823623657227,-8.041678428649902
1789323906089201700,3.25720166015625,1.3094722032546997,-12.212368965148926,-5.927918910980225
1789323906108052500,3.276052490234375,2.525923490524292,-12.475579261779785,-3.5336008071899414
1789323906126903600,3.294903564453125,3.7109687328338623,-13.588839530944824,-2.011167526245117
1789323906145754400,3.31375439453125,4.275974273681641,-13.878670692443848,-1.220937728881836
1789323906164605400,3.33260546875,2.441875457763672,-13.26820182800293,-0.7205387353897095
1789323906183456300,3.351456298828125,2.4610180854797363,-11.058429718017578,-0.8691928386688232
1789323906202307000,3.37030712890625,2.918346405029297,-8.55882740020752,-1.036690354347229
1789323906221158100,3.389158203125,1.4318052530288696,-6.488138675689697,-0.610468864440918
1789323906240009000,3.408009033203125,1.3214362859725952,-5.738586902618408,0.18424734473228455
1789323906258860000,3.426860107421875,2.6072793006896973,-6.55992317199707,0.9409775137901306
1789323906277710800,3.4457109375,3.3684961795806885,-5.5758748054504395,-0.3400799036026001
1789323906296562000,3.46456201171875,4.874478816986084,-5.8749775886535645,-1.6734803915023804
1789323906315412700,3.483412841796875,5.209474086761475,-7.256533622741699,-2.3988046646118164
1789323906334263800,3.502263916015625,6.602993965148926,-9.444769859313965,-2.472982168197632
1789323906353114600,3.521114501953125,7.103393077850342,-10.92173957824707,-2.0231316089630127
1789323906371965700,3.539965576171875,6.516852378845215,-11.22353458404541,-0.3448655605316162
1789323906390816500,3.55881640625,6.636493682861328,-11.759825706481934,0.3807578980922699
1789323906409667600,3.57766748046875,8.034500122070312,-15.161821365356445,0.016749758273363113
1789323906428518400,3.596518310546875,6.112166404724121,-12.456436157226562,-0.07657032459974289
1789323906447369500,3.615369384765625,5.171188831329346,-8.142476081848145,3.459423303604126
1789323906466220300,3.63422021484375,5.341378211975098,-3.7731821537017822,3.5742788314819336
1789323906485071400,3.6530712890625,5.920740604400635,-4.5583271980285645,3.677469253540039
1789323906503922200,3.671922119140625,6.583851337432861,-5.9422760009765625,3.1722846031188965
1789323906522773200,3.690773193359375,6.945167541503906,-6.033203125,2.434697151184082
1789323906541624000,3.7096240234375,7.098607540130615,-5.738586902618408,1.690230131149292
1789323906560475100,3.72847509765625,7.292426109313965,-5.166403293609619,1.1491531133651733
1789323906579326200,3.747326171875,7.704290866851807,-4.644468784332275,0.8258228898048401
1789323906598177000,3.766177001953125,8.060821533203125,-4.610969066619873,0.6176473498344421
1789323906617028000,3.785028076171875,8.190332412719727,-5.278865814208984,0.8353942036628723
1789323906635879000,3.80387890625,8.55164909362793,-6.167201042175293,1.1515458822250366
1789323906654730000,3.82272998046875,8.851051330566406,-6.796812534332275,1.0247262716293335
1789323906673580800,3.841580810546875,8.601898193359375,-6.820741176605225,1.2759727239608765
1789323906692432000,3.860431884765625,8.479864120483398,-6.423233509063721,2.035095691680908
1789323906711282700,3.87928271484375,8.314759254455566,-5.673980712890625,2.4466612339019775
1789323906730133800,3.8981337890625,7.546065330505371,-5.123332500457764,2.8513472080230713
1789323906748984600,3.916984619140625,7.232605457305908,-4.764110088348389,3.129213809967041
1789323906767835600,3.935835693359375,7.555636405944824,-4.711467742919922,3.356531858444214
1789323906786686500,3.9546865234375,8.041678428649902,-4.402793884277344,3.1555347442626953
1789323906814963000,3.982962890625,7.4479594230651855,-3.4737801551818848,2.228914260864258
1789323906833814000,4.00181396484375,7.7353973388671875,-3.356531858444214,1.8242281675338745
1789323906852664800,4.020664794921875,7.850253105163574,-2.9063823223114014,1.6639090776443481
1789323906871516000,4.039515869140625,7.857431411743164,-2.7029922008514404,1.4294124841690063
1789323906890366700,4.05836669921875,8.036892890930176,-2.2983062267303467,1.4003994464874268
1789323906909217800,4.0772177734375,8.321938514709473,-2.0997018814086914,1.1204391717910767
1789323906928068900,4.09606884765625,7.965108394622803,-1.8696918487548828,0.7636095285415649
1789323906946919700,4.114919677734375,7.811967849731445,-1.6016956567764282,0.8763712644577026
1789323906965770800,4.133770751953125,7.807182312011719,-1.8529419898986816,0.7731808423995972
1789323906984621600,4.15262158203125,7.795217990875244,-2.2983062267303467,1.134796142578125
1789323907003472600,4.17147265625,7.967501163482666,-2.0685951709747314,1.3262219429016113
1789323907022323500,4.190323486328125,7.670791149139404,-1.7596219778060913,1.800299882888794
1789323907041174500,4.209174560546875,7.8526458740234375,-1.5897315740585327,1.8912272453308105
1789323907060025600,4.228025634765625,7.627720355987549,-1.3214362859725952,1.781157374382019
1789323907078876400,4.24687646484375,7.52931547164917,-0.8066803216934204,2.094916343688965
1789323907097727500,4.2657275390625,8.367402076721191,-1.1252248287200928,1.505982756614685
1789323907116578300,4.284578369140625,8.539685249328613,-1.8098711967468262,0.701396107673645
1789323907135429400,4.303429443359375,9.150154113769531,-2.3126630783081055,0.03349951654672623
1789323907154280200,4.3222802734375,8.724231719970703,-2.2983062267303467,-0.38793638348579407
1789323907173131300,4.34113134765625,8.214261054992676,-1.9127626419067383,-0.6966105103492737
1789323907191982000,4.359982177734375,7.972286701202393,-1.6806588172912598,-1.6208382844924927
1789323907210833200,4.378833251953125,7.926823139190674,-3.037987470626831,-0.7612167000770569
1789323907229684200,4.397684326171875,7.9316086769104,-3.667897939682007,0.04546362906694412
1789323907248535000,4.41653515625,7.213462829589844,-4.713860511779785,1.3692927360534668
1789323907267386000,4.43538623046875,7.800003528594971,-5.951847076416016,3.746861219406128
1789323907286237000,4.45423681640625,6.097809314727783,-8.204689979553223,8.460721969604492
1789323907305088000,4.473087890625,5.408377170562744,-8.577970504760742,6.471388816833496
1789323907323938800,4.491938720703125,5.729015827178955,-7.2732834815979,5.784050464630127
1789323907342790000,4.510789794921875,7.627720355987549,-5.4514479637146,5.108975410461426
1789323907361641000,4.529640869140625,6.305984973907471,-3.492922782897949,2.5450658798217773
1789323907380491800,4.54849169921875,5.221437931060791,-4.953442096710205,1.7524434328079224
1789323907399342800,4.5673427734375,8.487042427062988,-7.225427150726318,2.533101797103882
1789323907418193700,4.586193603515625,6.784848690032959,-9.688838005065918,3.0475587844848633
1789323907437044700,4.605044677734375,4.673182487487793,-11.709576606750488,2.365305185317993
1789323907455895800,4.623895751953125,5.56151819229126,-13.109975814819336,2.9063823223114014
1789323907474746600,4.64274658203125,5.90159797668457,-11.790932655334473,3.9311084747314453
1789323907493597700,4.66159765625,5.113760948181152,-8.618648529052734,3.76361083984375
1789323907512448800,4.68044873046875,5.226223945617676,-8.613862037658691,4.3070807456970215
1789323907531299600,4.699299560546875,5.535196781158447,-8.922835350036621,4.359723091125488
1789323907550150700,4.718150634765625,5.063511848449707,-7.8382887840271,2.482553482055664
1789323907569001500,4.73700146484375,5.350949764251709,-9.471091270446777,3.061915636062622
1789323907587852500,4.7558525390625,6.207879066467285,-9.698409080505371,3.6559338569641113
1789323907606703600,4.77470361328125,6.310770511627197,-9.528518676757812,4.093820571899414
1789323907625554400,4.793554443359375,4.0435709953308105,-9.001798629760742,4.01246452331543
1789323907644405500,4.812405517578125,3.7851462364196777,-8.065607070922852,4.1129631996154785
1789323907663256300,4.83125634765625,3.507279872894287,-7.4479594230651855,4.381258487701416
1789323907682107400,4.850107421875,3.3230323791503906,-6.935596466064453,4.704289436340332
1789323907700958500,4.86895849609375,4.206283092498779,-6.854240417480469,4.024428367614746
1789323907719809300,4.887809326171875,4.7931227684021,-6.464210510253906,3.442673683166504
1789323907738660400,4.906660400390625,5.853442192077637,-6.148058891296387,2.094916343688965
1789323907757511400,4.925511474609375,6.729813575744629,-6.332305908203125,0.4549354016780853
1789323907776362200,4.9443623046875,6.377769470214844,-6.617351055145264,0.9888339638710022
1789323907795213300,4.96321337890625,6.892525672912598,-6.672386169433594,0.8835497498512268
1789323907814064000,4.982064208984375,7.402495861053467,-6.930810928344727,0.5602195858955383
1789323907832915200,5.000915283203125,8.925228118896484,-8.360222816467285,2.403590440750122
1789323907851766300,5.019766357421875,11.822039604187012,-4.8074798583984375,2.7029922008514404
1789323907870617000,5.0386171875,9.329915046691895,-7.263712406158447,4.967798709869385
1789323907889468200,5.05746826171875,10.239486694335938,-5.293222904205322,4.311866283416748
1789323907917744600,5.08574462890625,8.532505989074707,-7.33549690246582,3.2273194789886475
1789323907936595500,5.104595458984375,7.697112083435059,-8.68325424194336,4.132105827331543
1789323907955446500,5.123446533203125,6.0140604972839355,-7.024429798126221,-0.44297128915786743
1789323907974297600,5.142297607421875,12.286545753479004,-4.5583271980285645,1.2783654928207397
1789323907993148700,5.161148681640625,3.4139597415924072,-2.6790640354156494,3.998107433319092
1789323908011999500,5.17999951171875,8.534899711608887,-4.4243292808532715,2.1858434677124023
1789323908030850600,5.1988505859375,8.877371788024902,-4.067499160766602,2.7747769355773926
1789323908049701400,5.217701416015625,7.203891754150391,-6.109773635864258,-2.6503500938415527
1789323908068552400,5.236552490234375,7.414460182189941,-6.887740135192871,-2.8585257530212402
1789323908087403500,5.255403564453125,10.13898754119873,-4.752145767211914,-0.857228696346283
1789323908106254300,5.27425439453125,9.406484603881836,-5.458626747131348,-1.7883358001708984
1789323908125105400,5.29310546875,8.717052459716797,-5.5136613845825195,-0.4788636267185211
1789323908143956500,5.31195654296875,9.023334503173828,-5.815157413482666,-0.05503492057323456
1789323908162807300,5.330807373046875,8.051250457763672,-3.9861433506011963,0.5937191247940063
1789323908181658400,5.349658447265625,6.016453266143799,-2.7508487701416016,-1.2161520719528198
1789323908200509400,5.368509521484375,4.872086048126221,-2.8202404975891113,0.3161516785621643
1789323908247636700,5.41563671875,8.089534759521484,-1.6304094791412354,0.15553347766399384
1789323908266487800,5.43448779296875,7.2732834815979,-0.8476574420928955,-0.6607181429862976
1789323908285339000,5.4533388671875,8.067999839782715,-2.5160529613494873,3.91914439201355
1789323908323040800,5.491040771484375,6.6006011962890625,-3.8545382022857666,-1.415055513381958
1789323908351317200,5.519317138671875,8.089534759521484,-4.634897232055664,-2.769991397857666
1789323908370168300,5.538168212890625,7.72104024887085,-4.67078971862793,-1.9414764642715454
1789323908389019100,5.55701904296875,9.528518676757812,-3.4498519897460938,-1.781157374382019
1789323908407870200,5.5758701171875,9.257830619812012,-2.865704298019409,-1.7955143451690674
1789323908426721300,5.59472119140625,7.558029651641846,-2.817847728729248,-2.056631088256836
1789323908445572000,5.613572021484375,7.950751304626465,-3.059522867202759,-1.3692927360534668
1789323908464423200,5.632423095703125,7.383353233337402,-3.1651060581207275,-1.6998014450073242
1789323908483274200,5.651274169921875,7.144071102142334,-4.2831525802612305,-1.6615161895751953
1789323908502125000,5.670125,8.240582466125488,-4.761716842651367,-0.45972105860710144
1789323908520976100,5.68897607421875,7.3522467613220215,-5.063511848449707,2.3222343921661377
1789323908539827200,5.7078271484375,4.491328239440918,-7.63729190826416,2.0231316089630127
1789323908558678000,5.726677978515625,4.295116424560547,-8.048856735229492,-0.8306085467338562
1789323908577529000,5.745529052734375,8.908478736877441,-6.140880107879639,-3.9071803092956543
1789323908596380200,5.764380126953125,6.425626277923584,-6.725028038024902,-6.535995006561279
1789323908615231000,5.78323095703125,4.383651256561279,-8.913264274597168,-9.813264846801758
1789323908634082000,5.80208203125,8.748159408569336,-5.104189872741699,-6.538387775421143
1789323908652933000,5.82093310546875,10.507781982421875,-3.699004650115967,-6.62213659286499
1789323908671784000,5.839783935546875,8.31715202331543,-5.657230854034424,-5.25254487991333
1789323908690635000,5.858635009765625,5.870192050933838,-8.252546310424805,-4.3788652420043945
1789323908709486000,5.877486083984375,4.151247978210449,-10.646565437316895,-3.614956855773926
1789323908728337000,5.8963369140625,4.139284133911133,-12.260225296020508,-2.372483730316162
1789323908747188000,5.91518798828125,4.400400638580322,-11.376675605773926,-1.6184453964233398
1789323908766039000,5.9340390625,4.998905658721924,-10.55803108215332,-1.6878372430801392
1789323908784889900,5.952889892578125,5.290830135345459,-9.506983757019043,-2.927917718887329
1789323908803741000,5.971740966796875,5.305186748504639,-10.064809799194336,-3.638885021209717
1789323908822592000,5.990592041015625,5.688337802886963,-9.878170013427734,-2.9159533977508545
1789323908841442800,6.00944287109375,6.8279194831848145,-10.42642593383789,-1.446162223815918
1789323908860294000,6.0282939453125,5.736194133758545,-10.897811889648438,-2.4155545234680176
1789323908879145000,6.04714501953125,4.369294166564941,-8.97787094116211,-2.997309446334839
1789323908897995800,6.065995849609375,4.022035598754883,-7.445566654205322,-3.2823543548583984
1789323908916846800,6.084846923828125,4.666004180908203,-7.632505893707275,-2.441875457763672
1789323908935698000,6.103697998046875,5.152046203613281,-7.859824180603027,-2.386840581893921
1789323908954548700,6.122548828125,4.560719966888428,-7.780860900878906,-2.17627215385437
1789323908973399800,6.14139990234375,4.836193561553955,-8.15683364868164,-1.9992033243179321
1789323908992251000,6.1602509765625,4.644468784332275,-8.740981101989746,-3.562314748764038
1789323909011101700,6.179101806640625,5.456233978271484,-8.63061237335205,-4.639683246612549
1789323909029952800,6.197952880859375,7.313961505889893,-8.120641708374023,-4.7931227684021
1789323909048803800,6.216803955078125,7.9316086769104,-8.398508071899414,-5.099404335021973
1789323909067654700,6.235654541015625,8.489435195922852,-8.568398475646973,-4.850550651550293
1789323909086505700,6.254505615234375,8.549256324768066,-7.878966808319092,-5.681159019470215
1789323909105356800,6.273356689453125,7.366603374481201,-7.862216949462891,-5.702694416046143
1789323909124207600,6.29220751953125,6.602993965148926,-6.7896342277526855,-5.283651351928711
1789323909143058700,6.31105859375,5.982954025268555,-6.337091445922852,-4.29033088684082
1789323909161909800,6.32990966796875,6.02602481842041,-6.349055767059326,-3.2656047344207764
1789323909180760600,6.348760498046875,6.246164321899414,-5.925526142120361,-3.098107099533081
1789323909199611600,6.367611572265625,6.2653069496154785,-6.04038143157959,-3.037987470626831
1789323909218462700,6.386462646484375,7.024429798126221,-5.4418768882751465,-3.380460262298584
1789323909237313500,6.4053134765625,7.163213729858398,-5.283651351928711,-3.308675527572632
1789323909256164600,6.42416455078125,7.481459140777588,-4.888835906982422,-2.7652056217193604
1789323909275015700,6.443015625,8.635397911071777,-5.324329376220703,-1.8529419898986816
1789323909293866500,6.461866455078125,8.534899711608887,-6.205486297607422,-1.8194425106048584
1789323909312717600,6.480717529296875,6.363412857055664,-4.943870544433594,-0.8258228898048401
1789323909331568600,6.499568603515625,7.261319637298584,-3.660719633102417,-2.6168506145477295
1789323909350419700,6.518419677734375,8.776873588562012,-4.692325115203857,-2.92073917388916
1789323909378696200,6.5466962890625,6.248557090759277,-4.534399032592773,-2.597707986831665
1789323909397547000,6.565547119140625,4.673182487487793,-3.859323740005493,-0.7827520966529846
1789323909416398000,6.584398193359375,6.1313090324401855,-2.1858434677124023,-0.44775694608688354
1789323909435249200,6.603249267578125,6.6149582862854,-2.612065076828003,0.8282157182693481
1789323909454100000,6.622099853515625,7.361817836761475,-1.7069798707962036,0.05742774158716202
1789323909472951000,6.640950927734375,6.540780544281006,-2.8154549598693848,-2.135594129562378
1789323909491802000,6.659802001953125,8.233403205871582,-2.087737798690796,0.05742774158716202
1789323909510653200,6.678653076171875,6.799205780029297,-1.7285152673721313,-1.4892330169677734
1789323909529504000,6.69750390625,6.097809314727783,-1.1443674564361572,-0.646361231803894
1789323909548355000,6.71635498046875,7.2732834815979,-1.3525429964065552,-1.2687941789627075
1789323909567206100,6.7352060546875,6.665207386016846,-1.5825530290603638,-3.191427230834961
1789323909586057000,6.754056884765625,8.190332412719727,-1.9390836954116821,-2.1236300468444824
1789323909604908000,6.772907958984375,7.974679470062256,-2.2743778228759766,-3.600599765777588
1789323909623759000,6.791759033203125,7.000202655792236,-3.045166015625,-3.2344980239868164
1789323909642610200,6.810610107421875,7.608577728271484,-3.497708559036255,-2.8369903564453125
1789323909661461000,6.8294609375,7.615756034851074,-3.6269209384918213,-3.215355396270752
1789323909680312000,6.84831201171875,8.199904441833496,-3.7851462364196777,-3.0260233879089355
1789323909699163100,6.8671630859375,7.907680511474609,-4.3070807456970215,-3.70139741897583
1789323909718014000,6.886013916015625,7.689933776855469,-5.8749775886535645,-3.3684961795806885
1789323909736865000,6.904864990234375,6.49770975112915,-7.024429798126221,-3.2919256687164307
1789323909755716000,6.923716064453125,7.290033340454102,-7.996214866638184,-2.8369903564453125
1789323909774567000,6.94256689453125,6.736992359161377,-9.068798065185547,-2.760420083999634
1789323909793418000,6.96141796875,7.069893836975098,-9.703194618225098,-2.8944180011749268
1789323909812269000,6.98026904296875,6.3442702293396,-10.47188949584961,-2.848954439163208
1789323909831120000,6.999119873046875,5.5758748054504395,-10.083952903747559,-3.222533941268921
1789323909849971000,7.017970947265625,6.286842346191406,-9.593125343322754,-3.6197423934936523
1789323909868822000,7.036822021484375,6.557530403137207,-9.310771942138672,-2.4227328300476074
1789323909887673000,7.055673095703125,5.729015827178955,-9.274879455566406,-2.504088878631592
1789323909906524000,7.07452392578125,4.625326156616211,-9.425627708435059,-2.8824539184570312
1789323909925375000,7.093375,4.189533233642578,-9.344271659851074,-2.5761725902557373
1789323909944226000,7.11222607421875,4.78594446182251,-8.796015739440918,-2.2337000370025635
1789323909963076900,7.131076904296875,4.869693279266357,-8.70508861541748,-1.446162223815918
1789323909981928000,7.149927978515625,5.104189872741699,-9.624231338500977,-0.9936196208000183
1789323910000779000,7.168779052734375,6.619743824005127,-10.761421203613281,-1.6016956567764282
1789323910019629800,7.1876298828125,6.792026996612549,-11.08475112915039,-1.0582258701324463
1789323910038481000,7.20648095703125,6.612565517425537,-10.569994926452637,-2.33180570602417
1789323910057331700,7.225331787109375,4.668396949768066,-9.231510162353516,-1.7237296104431152
1789323910076182500,7.2441826171875,4.271188259124756,-7.874181270599365,-2.389233350753784
1789323910095033600,7.26303369140625,4.163212299346924,-8.051250457763672,-2.181057929992676
1789323910113884700,7.281884765625,4.730610370635986,-8.592327117919922,-2.0757737159729004
1789323910132735500,7.300735595703125,5.798407554626465,-8.601898193359375,-2.5450658798217773
1789323910151586600,7.319586669921875,6.988238334655762,-8.314759254455566,-3.169891834259033
1789323910170437600,7.338437744140625,7.491030216217041,-8.012965202331543,-4.086641788482666
1789323910189288700,7.357288818359375,7.129714012145996,-8.17119026184082,-4.309473514556885
1789323910208139500,7.376139404296875,6.6245293617248535,-7.857431411743164,-4.613361835479736
1789323910226990600,7.394990478515625,6.847062110900879,-7.493422985076904,-4.934299468994141
1789323910245841700,7.413841552734375,7.175177574157715,-7.402495861053467,-4.144069671630859
1789323910264692500,7.4326923828125,7.981858253479004,-7.122535705566406,-3.586242914199829
1789323910283543600,7.45154345703125,7.910073280334473,-7.855038642883301,-3.4498519897460938
1789323910302394600,7.47039453125,8.10389232635498,-8.245368003845215,-3.8545382022857666
1789323910321245400,7.489245361328125,7.8526458740234375,-7.668398380279541,-4.029214382171631
1789323910340096500,7.508096435546875,7.455138206481934,-6.775277137756348,-4.062713623046875
1789323910358947600,7.526947509765625,6.732206344604492,-5.2477593421936035,-4.048357009887695
1789323910377798400,7.54579833984375,7.060322284698486,-4.460221290588379,-3.0786654949188232
1789323910396649500,7.5646494140625,7.3283185958862305,-3.3517463207244873,-1.4318052530288696
1789323910415500500,7.58350048828125,6.550352096557617,-3.0116662979125977,-0.41904306411743164
1789323910434351600,7.6023515625,6.308377742767334,-2.927917718887329,-2.1858434677124023
1789323910453202400,7.621202392578125,7.170392036437988,-2.5618157386779785,-3.248854875564575
1789323910472053500,7.640053466796875,6.447161674499512,-2.863311290740967,-2.365305185317993
1789323910490904600,7.658904541015625,5.886941909790039,-2.6623141765594482,-0.24406790733337402
1789323910509755400,7.67775537109375,5.705087184906006,-2.535494804382324,-0.20338992774486542
1789323910528606500,7.6966064453125,6.7178497314453125,-2.4945175647735596,0.009571290574967861
1789323910547457500,7.71545751953125,5.628517150878906,-2.5474588871002197,-1.1802598237991333
1789323910566308600,7.73430859375,7.134500026702881,-2.8776683807373047,-0.08853443711996078
1789323910585159400,7.753159423828125,7.800003528594971,-2.5713870525360107,-1.0941181182861328
1789323910604010500,7.772010498046875,6.547959327697754,-2.683849811553955,-0.981655478477478
1789323910622861600,7.790861572265625,6.914061069488525,-2.2983062267303467,-1.2305090427398682
1789323910641712400,7.80971240234375,6.138487339019775,-2.2121646404266357,-2.489732027053833
1789323910660563500,7.8285634765625,7.428816795349121,-2.98295259475708,-0.9505487680435181
1789323910679414500,7.84741455078125,7.519744396209717,-2.9327032566070557,-2.403590440750122
1789323910698265600,7.866265625,5.985346794128418,-3.2344980239868164,-2.4993033409118652
1789323910717116400,7.885116455078125,6.7417778968811035,-3.294318675994873,-2.817847728729248
1789323910735967500,7.903967529296875,6.705885410308838,-3.490530014038086,-3.2368907928466797
1789323910754818600,7.922818603515625,7.036394119262695,-4.374079704284668,-3.699004650115967
1789323910773669400,7.94166943359375,6.420840263366699,-5.927918910980225,-3.9622151851654053
1789323910792520400,7.9605205078125,7.067500591278076,-6.937989234924316,-4.086641788482666
1789323910811371500,7.97937158203125,6.643671989440918,-7.867002487182617,-3.9095730781555176
1789323910830222600,7.99822265625,6.224628925323486,-8.72901725769043,-3.315854072570801
1789323910849073400,8.017073486328124,5.767300605773926,-8.963513374328613,-3.3541390895843506
1789323910867924500,8.035924560546874,7.292426109313965,-9.554840087890625,-2.7412774562835693
1789323910886775600,8.054775634765624,7.026822566986084,-9.957133293151855,-3.2201411724090576
1789323910905626400,8.07362646484375,6.365805625915527,-10.412068367004395,-3.9717864990234375
1789323910924477400,8.0924775390625,5.951847076416016,-10.845169067382812,-3.9095730781555176
1789323910943328500,8.11132861328125,6.562315940856934,-10.457531929016113,-3.5982069969177246
1789323910962179300,8.130179443359374,6.308377742767334,-10.167701721191406,-2.9374887943267822
1789323910981030400,8.149030517578124,5.384449005126953,-9.909276962280273,-2.7173492908477783
1789323910999881500,8.167881591796874,5.939883232116699,-10.098309516906738,-2.496910333633423
1789323911018732500,8.186732666015626,6.897311210632324,-11.3718900680542,-1.4868401288986206
1789323911037583400,8.205583251953126,7.072286605834961,-12.174083709716797,-2.221735715866089
1789323911056434400,8.224434326171876,6.054738521575928,-10.97468090057373,-1.958226203918457
1789323911075285500,8.243285400390626,5.793622016906738,-8.915657043457031,-2.4131617546081543
1789323911094136300,8.26213623046875,4.759324073791504,-7.6636128425598145,-2.094916343688965
1789323911112987400,8.2809873046875,4.467400074005127,-7.349853992462158,-2.753241539001465
1789323911131838500,8.29983837890625,3.9550366401672363,-7.450352191925049,-1.9896320104599
1789323911150689300,8.318689208984376,4.560719966888428,-7.445566654205322,-1.9968105554580688
1789323911169540400,8.337540283203126,5.209474086761475,-7.4862446784973145,-1.8026927709579468
1789323911188391400,8.356391357421876,6.715456962585449,-7.867002487182617,-2.379662036895752
1789323911207242500,8.375242431640626,8.044071197509766,-8.69043254852295,-3.483351469039917
1789323911226093300,8.39409326171875,8.269295692443848,-10.062417030334473,-4.560719966888428
1789323911244944400,8.4129443359375,8.321938514709473,-9.923633575439453,-5.769693374633789
1789323911263795500,8.43179541015625,7.981858253479004,-9.214759826660156,-5.999703884124756
1789323911282646300,8.450646240234375,8.695218086242676,-8.147261619567871,-5.4897332191467285
1789323911301497300,8.469497314453125,8.204689979553223,-8.300402641296387,-5.12811803817749
1789323911320348400,8.488348388671875,7.189534664154053,-8.101499557495117,-4.273581027984619
1789323911339199200,8.50719921875,6.571887493133545,-7.2182488441467285,-3.9861433506011963
1789323911358050300,8.52605029296875,6.210271835327148,-6.882954120635986,-3.0571300983428955
1789323911376901400,8.5449013671875,6.093023777008057,-6.011667728424072,-3.459423303604126
1789323911395752400,8.56375244140625,5.494519233703613,-5.523232936859131,-2.379662036895752
1789323911414603300,8.582603271484375,5.293222904205322,-3.684647798538208,-1.5251253843307495
1789323911433454300,8.601454345703125,4.398007869720459,-1.6806588172912598,0.16031911969184875
1789323911452305400,8.620305419921875,5.051547527313232,-0.02632104977965355,-0.40229329466819763
1789323911471156200,8.63915625,8.10389232635498,-2.7675983905792236,-2.6336004734039307
1789323911490007300,8.65800732421875,7.0531439781188965,-4.639683246612549,-2.245664119720459
1789323911508858400,8.6768583984375,5.843871116638184,-3.9478583335876465,-1.2951152324676514
1789323911527709200,8.695709228515625,8.589934349060059,-3.2273194789886475,-0.48843491077423096
1789323911546560300,8.714560302734375,7.965108394622803,-3.325425386428833,-0.7085745930671692
1789323911565411300,8.733411376953125,7.766504287719727,-2.5160529613494873,-2.183450698852539
1789323911584262100,8.75226220703125,6.451947212219238,-2.2576282024383545,-2.094916343688965
1789323911603113200,8.77111328125,9.08554744720459,-1.721336841583252,-2.5689942836761475
1789323911621964300,8.78996435546875,6.504888534545898,-2.5713870525360107,-1.2448660135269165
1789323911640815400,8.8088154296875,7.153642177581787,-2.472982168197632,-2.0685951709747314
1789323911659666200,8.827666259765625,4.620540618896484,-3.0957143306732178,-2.0398812294006348
1789323911678517200,8.846517333984375,6.478567123413086,-2.9853453636169434,-1.012762188911438
1789323911697368300,8.865368408203125,5.013262748718262,-2.513660192489624,-1.0893324613571167
1789323911716219100,8.88421923828125,5.56869649887085,-2.3222343921661377,-0.2153540402650833
1789323911735070200,8.9030703125,4.893621444702148,-2.3533411026000977,-1.1611171960830688
1789323911753921300,8.92192138671875,5.760122299194336,-2.36291241645813,-1.201795220375061
1789323911772772000,8.940772216796875,7.6875410079956055,-2.0398812294006348,-2.6551358699798584
1789323911791623200,8.959623046875,7.823931694030762,-3.0667014122009277,-3.363710403442383
1789323911810474200,8.97847412109375,7.196712970733643,-5.72422981262207,-4.563112735748291
1789323911829325000,8.997324951171874,6.413661956787109,-8.518149375915527,-4.967798709869385
1789323911848176000,9.016176025390624,6.231807708740234,-10.92891788482666,-5.353342533111572
1789323911867027200,9.035027099609374,5.547161102294922,-12.253046989440918,-4.737788677215576
1789323911885878000,9.0538779296875,5.49930477142334,-11.52532958984375,-4.175176620483398
1789323911904729000,9.07272900390625,5.32911491394043,-10.744670867919922,-2.973381280899048
1789323911923580200,9.091580078125,6.897311210632324,-10.174880027770996,-3.045166015625
1789323911942431000,9.110430908203124,7.867002487182617,-9.878170013427734,-3.476173162460327
1789323911961282000,9.129281982421874,6.760920524597168,-9.957133293151855,-4.230510234832764
1789323911980133000,9.148133056640624,5.56869649887085,-9.868598937988281,-4.524827480316162
1789323911998984000,9.16698388671875,4.893621444702148,-9.138189315795898,-3.9574296474456787
1789323912017835000,9.1858349609375,5.633302688598633,-8.613862037658691,-2.166700839996338
1789323912036686000,9.20468603515625,5.798407554626465,-9.028120040893555,-0.8739784955978394
1789323912055537000,9.223536865234376,5.5591254234313965,-9.59791088104248,-1.6710875034332275
1789323912074388000,9.242387939453126,6.401698112487793,-9.801301002502441,-2.4993033409118652
1789323912093239000,9.261239013671876,6.8279194831848145,-9.964311599731445,-3.1004998683929443
1789323912112089900,9.28008984375,5.738586902618408,-9.593125343322754,-2.8441689014434814
1789323912130941000,9.29894091796875,5.053940296173096,-9.219545364379883,-2.4227328300476074
1789323912149792000,9.3177919921875,5.812764644622803,-9.111868858337402,-2.614457845687866
1789323912168643000,9.33664306640625,6.3131632804870605,-10.050453186035156,-2.542673110961914
1789323912187494000,9.355493896484376,6.662814617156982,-10.363913536071777,-3.2273194789886475
1789323912206345000,9.374344970703126,6.423233509063721,-9.530911445617676,-4.033999919891357
1789323912225196000,9.393196044921876,6.195915222167969,-8.489435195922852,-4.666004180908203
1789323912244046800,9.412046875,5.743372440338135,-7.697112083435059,-4.48414945602417
1789323912262898000,9.43089794921875,5.6069817543029785,-6.945167541503906,-4.323830604553223
1789323912281748700,9.449748779296876,5.822335720062256,-6.305984973907471,-3.6460635662078857
1789323912300599800,9.468599853515625,6.449554443359375,-6.21984338760376,-3.5024940967559814
1789323912319451000,9.487450927734375,7.043572425842285,-6.349055767059326,-3.4139597415924072
1789323912338301700,9.5063017578125,7.65164852142334,-6.911668300628662,-3.897608995437622
1789323912357152800,9.52515283203125,7.63729190826416,-7.526922702789307,-3.7827534675598145
1789323912376003800,9.54400390625,8.264510154724121,-7.649255752563477,-3.4498519897460938
1789323912394854700,9.562854736328125,8.755337715148926,-5.697908878326416,-3.418745279312134
1789323912413705700,9.581705810546875,9.20997428894043,-5.896812438964844,-3.79471755027771
1789323912432556800,9.600556884765625,8.152048110961914,-5.915955066680908,-2.6479573249816895
1789323912451408000,9.619407958984375,6.248557090759277,-4.936692237854004,-2.5474588871002197
1789323912470258700,9.6382587890625,6.4905314445495605,-3.030808925628662,-3.4331023693084717
1789323912489109800,9.65710986328125,6.047560214996338,-2.3150558471679688,-2.8513472080230713
1789323912507960800,9.6759609375,5.8343000411987305,-2.389233350753784,-1.1635099649429321
1789323912526811600,9.694811767578125,6.2413787841796875,-1.7715860605239868,0.14117653667926788
1789323912545662700,9.713662841796875,6.667600154876709,-1.7428722381591797,-0.11485548317432404
1789323912564513800,9.732513671875,5.535196781158447,-2.4370899200439453,-0.8715856671333313
1789323912583364600,9.751364501953125,5.061119079589844,-2.513660192489624,-2.3294129371643066
1789323912602215700,9.770215576171875,5.923133373260498,-1.6686947345733643,-0.5626124143600464
1789323912621066500,9.78906640625,5.980561256408691,-2.3700907230377197,-1.012762188911438
1789323912639917600,9.80791748046875,7.141678333282471,-2.33180570602417,0.28983065485954285
1789323912658768600,9.8267685546875,6.246164321899414,-1.9606190919876099,-1.40279221534729
1789323912677619500,9.845619384765625,6.128916263580322,-1.922333836555481,-1.072582721710205
1789323912696470500,9.864470458984375,6.964310169219971,-2.1643080711364746,-2.255235433578491
1789323912715321600,9.883321533203125,6.016453266143799,-2.9542386531829834,-1.7548363208770752
1789323912734172400,9.90217236328125,6.681957244873047,-2.8848466873168945,-2.434697151184082
1789323912753023500,9.9210234375,6.665207386016846,-2.9949166774749756,-2.6336004734039307
1789323912771874600,9.93987451171875,7.65164852142334,-3.804288864135742,-3.7420754432678223
1789323912790725400,9.958725341796875,6.097809314727783,-5.824728488922119,-3.5718860626220703
1789323912809576400,9.977576416015625,6.380162239074707,-7.943572998046875,-4.191926002502441
1789323912828427500,9.996427490234375,6.519245147705078,-9.147761344909668,-3.911965847015381
1789323912847278300,10.0152783203125,6.365805625915527,-9.26291561126709,-4.16799783706665
1789323912866129400,10.03412939453125,5.398806095123291,-9.176474571228027,-4.402793884277344
1789323912884980500,10.05298046875,6.0523457527160645,-8.987442016601562,-3.974179267883301
1789323912903831300,10.071831298828124,6.93320369720459,-9.107083320617676,-3.7253258228302
1789323912922682400,10.090682373046874,6.8997039794921875,-9.863813400268555,-3.873680830001831
1789323912941533400,10.109533447265624,7.1010003089904785,-11.510972023010254,-4.086641788482666
1789323912960384300,10.12838427734375,6.619743824005127,-12.580862998962402,-3.7301113605499268
1789323912979235300,10.1472353515625,6.365805625915527,-11.328819274902344,-2.9638099670410156
1789323912998086400,10.16608642578125,6.1073808670043945,-8.863015174865723,-2.310270309448242
1789323913026362600,10.194362548828124,5.9566330909729,-8.11107063293457,-2.2432711124420166
1789323913045213700,10.213213623046874,6.310770511627197,-9.784550666809082,-2.9087750911712646
1789323913064064800,10.232064697265624,5.851049423217773,-10.708778381347656,-2.896811008453369
1789323913082915600,10.25091552734375,5.9901323318481445,-10.026525497436523,-2.9087750911712646
1789323913101766700,10.2697666015625,5.7888360023498535,-9.621838569641113,-2.4394826889038086
1789323913120617700,10.28861767578125,5.508875846862793,-9.684052467346191,-2.817847728729248
1789323913139468500,10.307468505859376,4.8074798583984375,-9.131011009216309,-2.549851655960083
1789323913158319600,10.326319580078126,5.097011566162109,-8.41286563873291,-2.9709885120391846
1789323913177170400,10.34517041015625,5.640480995178223,-8.00100040435791,-2.9063823223114014
1789323913196021500,10.364021484375,6.15762996673584,-8.42722225189209,-3.3756744861602783
1789323913214872600,10.38287255859375,6.6915283203125,-8.611469268798828,-3.6511483192443848
1789323913233723400,10.401723388671876,7.658827304840088,-8.7505521774292,-4.278367042541504
1789323913252574500,10.420574462890626,8.161619186401367,-8.975478172302246,-4.225724697113037
1789323913271425500,10.439425537109376,7.701898097991943,-9.257830619812012,-4.565505504608154
1789323913290276400,10.4582763671875,7.007380962371826,-9.05444049835205,-4.60139799118042
1789323913309127400,10.47712744140625,7.230212688446045,-8.137690544128418,-4.615755081176758
1789323913327978500,10.495978515625,7.45274543762207,-7.421638488769531,-4.603790760040283
1789323913346829300,10.514829345703125,7.5774712562561035,-7.361817836761475,-4.48414945602417
1789323913365680400,10.533680419921875,7.730611801147461,-6.152844429016113,-3.952643871307373
1789323913384531200,10.55253125,6.655636310577393,-5.195116996765137,-2.4873390197753906
1789323913403382300,10.57138232421875,6.3442702293396,-2.973381280899048,-2.042274236679077
1789323913422233000,10.590233154296875,5.573482036590576,-2.6407787799835205,-1.103689432144165
1789323913441084200,10.609084228515625,5.56151819229126,-2.7652056217193604,-1.7668004035949707
1789323913459935200,10.627935302734375,7.105785846710205,-3.2584261894226074,-1.922333836555481
1789323913478786300,10.646786376953125,7.316354274749756,-3.6364922523498535,-1.9486548900604248
1789323913497637000,10.66563720703125,4.931906700134277,-2.9327032566070557,-0.7396813035011292
1789323913516488200,10.68448828125,4.814658164978027,-1.6974085569381714,-0.7564310431480408
1789323913535339000,10.703339111328125,6.811169624328613,-1.89840567111969,0.4812564551830292
1789323913554190000,10.722190185546875,7.948358535766602,-2.2265214920043945,-0.8234301209449768
1789323913573041200,10.741041259765625,7.747361660003662,-2.2408783435821533,-1.7835501432418823
1789323913591892000,10.75989208984375,5.432305812835693,-2.4370899200439453,-2.6886353492736816
1789323913610743000,10.778742919921875,7.685148239135742,-2.276770830154419,-1.043868899345398
1789323913629593900,10.79759375,6.562315940856934,-2.3270199298858643,-2.1643080711364746
1789323913648445000,10.81644482421875,6.260521411895752,-2.0757737159729004,-0.9864411354064941
1789323913667296000,10.8352958984375,6.016453266143799,-2.118844509124756,-1.529910922050476
1789323913686146800,10.854146728515625,5.56151819229126,-2.549851655960083,-1.1252248287200928
1789323913704998000,10.872997802734375,6.555137634277344,-2.42512583732605,-1.2544373273849487
1789323913723848700,10.8918486328125,5.6859450340271,-2.5160529613494873,-1.9630118608474731
1789323913742699800,10.91069970703125,6.545566558837891,-2.7508487701416016,-2.2600209712982178
1789323913761550600,10.929550537109375,5.7649078369140625,-3.8928234577178955,-3.2823543548583984
1789323913780401700,10.948401611328125,6.7106709480285645,-5.726622581481934,-3.6460635662078857
1789323913799252700,10.967252685546875,6.626922130584717,-6.985845565795898,-4.201497554779053
1789323913818103600,10.986103515625,7.081857681274414,-8.154440879821777,-3.780360698699951
1789323913836954600,11.00495458984375,6.512066841125488,-8.908478736877441,-4.256831645965576
1789323913855805400,11.023805419921874,5.413163185119629,-10.2418794631958,-3.959822416305542
1789323913874656500,11.042656494140624,5.925526142120361,-10.957931518554688,-3.9813578128814697
1789323913893507600,11.061507568359374,6.176772594451904,-11.312068939208984,-3.497708559036255
1789323913912358400,11.0803583984375,7.089035987854004,-10.694421768188477,-3.4259238243103027
1789323913931209500,11.09920947265625,6.964310169219971,-10.46231746673584,-3.208176851272583
1789323913950060300,11.118060302734374,7.337889671325684,-10.136594772338867,-3.890430450439453
1789323913968911400,11.136911376953124,7.428816795349121,-9.406484603881836,-4.386044025421143
1789323913987762400,11.155762451171874,6.8518476486206055,-9.325128555297852,-4.534399032592773
1789323914006613200,11.17461328125,5.726622581481934,-9.35623550415039,-3.301496982574463
1789323914025464300,11.19346435546875,6.186343669891357,-9.10229778289795,-2.614457845687866
1789323914044315100,11.212315185546874,6.174379825592041,-9.087940216064453,-2.444268226623535
1789323914063166200,11.231166259765626,5.283651351928711,-8.618648529052734,-2.4131617546081543
1789323914082017000,11.25001708984375,4.675575256347656,-8.099106788635254,-1.8696918487548828
1789323914100868000,11.2688681640625,4.7931227684021,-8.120641708374023,-2.2193429470062256
1789323914119719200,11.28771923828125,5.317151069641113,-8.522934913635254,-2.2480568885803223
1789323914138570000,11.306570068359376,5.62373161315918,-9.248259544372559,-2.533101797103882
1789323914157421000,11.325421142578126,5.987739562988281,-9.798908233642578,-2.872882604598999
1789323914176272000,11.34427197265625,6.9690961837768555,-9.959526062011719,-3.3684961795806885
1789323914195123000,11.363123046875,7.488637447357178,-10.275378227233887,-3.8784663677215576
1789323914213973800,11.381973876953126,7.52931547164917,-10.347163200378418,-4.481756687164307
1789323914232824800,11.400824951171876,7.1488566398620605,-9.308379173278809,-5.041976451873779
1789323914251675600,11.419675537109375,6.701099872589111,-7.833503246307373,-4.579862594604492
1789323914270526700,11.438526611328125,6.665207386016846,-6.337091445922852,-3.9167516231536865
1789323914289377800,11.457377685546875,6.495316982269287,-5.618945598602295,-3.193819999694824
1789323914308228600,11.476228515625,6.176772594451904,-5.635695457458496,-3.284747362136841
1789323914327079700,11.49507958984375,5.961418628692627,-5.721837043762207,-3.5431721210479736
1789323914345930500,11.513930419921875,7.024429798126221,-6.1073808670043945,-3.098107099533081
1789323914364781600,11.532781494140625,7.634898662567139,-6.792026996612549,-2.705385208129883
1789323914383632400,11.55163232421875,7.785646915435791,-5.66201639175415,-2.427518606185913
1789323914402483500,11.5704833984375,7.146463871002197,-4.35254430770874,-1.3142578601837158
1789323914421334300,11.589334228515625,7.596613883972168,-3.4809587001800537,-1.8194425106048584
1789323914440185300,11.608185302734375,8.67607593536377,-3.2895328998565674,-3.2177481651306152
1789323914459036200,11.6270361328125,8.065607070922852,-4.179962158203125,-2.525923490524292
1789323914477887200,11.64588720703125,7.11775016784668,-3.57906436920166,-1.6399807929992676
1789323914496738300,11.66473828125,6.372983932495117,-3.0427730083465576,-0.4214358925819397
1789323914515589000,11.683589111328125,5.944668769836426,-2.705385208129883,-1.6734803915023804
1789323914534440200,11.702440185546875,6.152844429016113,-2.2983062267303467,-0.5817549824714661
1789323914553291000,11.721291015625,5.2645087242126465,-2.1379871368408203,-1.6878372430801392
1789323914572142000,11.74014208984375,4.223331928253174,-1.4222339391708374,0.16031911969184875
1789323914590993000,11.758992919921875,4.3310089111328125,-1.1730812788009644,-0.01196411345154047
1789323914609844000,11.777843994140625,5.420341491699219,-0.9433703422546387,1.6375880241394043
1789323914628694800,11.79669482421875,6.205486297607422,-0.6152545213699341,-0.09810572862625122
1789323914647545900,11.8155458984375,6.641279220581055,-1.474876046180725,-0.35443684458732605
1789323914666396700,11.834396728515625,5.796014785766602,-1.9055840969085693,-2.612065076828003
1789323914685247700,11.853247802734375,7.979465484619141,-2.6336004734039307,-2.097309112548828
1789323914704098600,11.8720986328125,8.831908226013184,-3.6125640869140625,-3.521636724472046
1789323914722949600,11.89094970703125,6.94038200378418,-4.898406982421875,-4.426722049713135
1789323914741800400,11.909800537109374,7.8382887840271,-7.771289825439453,-4.953442096710205
1789323914760651500,11.928651611328124,8.027321815490723,-10.809277534484863,-4.589433670043945
1789323914779502300,11.94750244140625,7.359425067901611,-11.51815128326416,-4.986941337585449
1789323914798353400,11.966353515625,5.695516109466553,-10.603494644165039,-3.6870405673980713
1789323914817204500,11.98520458984375,5.326722145080566,-8.405686378479004,-3.334996461868286
1789323914836055300,12.00405517578125,6.971488952636719,-6.985845565795898,-2.755634307861328
1789323914854906000,12.022906005859374,7.287640571594238,-6.6006011962890625,-3.880859136581421
1789323914873757200,12.041757080078124,6.447161674499512,-7.9316086769104,-4.9414777755737305
1789323914892608000,12.06060791015625,6.509674072265625,-9.93559741973877,-4.991727352142334
1789323914911459000,12.079458984375,6.7657060623168945,-11.604292869567871,-4.084249019622803
1789323914930310000,12.098309814453126,6.207879066467285,-11.575578689575195,-2.848954439163208
1789323914949161000,12.117160888671876,6.073881149291992,-10.512567520141602,-2.645564556121826
1789323914968012000,12.136011962890626,6.15045166015625,-9.885348320007324,-2.4155545234680176
1789323914996288300,12.164288330078126,6.605386734008789,-10.268199920654297,-3.0571300983428955
1789323915015139300,12.183139404296876,6.5527448654174805,-9.859027862548828,-3.2273194789886475
1789323915033990100,12.201990234375,6.181558132171631,-9.169296264648438,-3.3828530311584473
1789323915052841200,12.22084130859375,5.461019515991211,-8.55882740020752,-2.621636390686035
1789323915071692000,12.239692138671876,5.254937648773193,-8.381758689880371,-2.4538395404815674
1789323915090543000,12.258543212890626,5.142475128173828,-8.223832130432129,-2.434697151184082
1789323915128245000,12.296244873046875,4.646861553192139,-7.847859859466553,-3.0643084049224854
1789323915147095800,12.315095703125,4.850550651550293,-7.7593255043029785,-2.997309446334839
1789323915165947000,12.33394677734375,5.817550182342529,-7.469494819641113,-3.332603693008423
1789323915184797700,12.352797607421875,6.813562393188477,-7.797610759735107,-2.784348249435425
1789323915203648500,12.3716484375,7.929215908050537,-8.422436714172363,-3.7420754432678223
1789323915222499600,12.39049951171875,8.003393173217773,-8.874979019165039,-3.921537160873413
1789323915241350400,12.409350341796875,8.429615020751953,-8.752944946289062,-4.503292083740234
1789323915260201500,12.428201416015625,8.321938514709473,-9.037691116333008,-4.512863636016846
1789323915279052300,12.44705224609375,8.283653259277344,-9.145368576049805,-4.903192520141602
1789323915297903400,12.4659033203125,8.012965202331543,-7.05553674697876,-4.888835906982422
1789323915316754200,12.484754150390625,6.7178497314453125,-5.884549140930176,-3.770789384841919
1789323915335605200,12.503605224609375,7.158428192138672,-5.300401210784912,-3.3206396102905273
1789323915354456000,12.5224560546875,5.408377170562744,-3.315854072570801,-1.537089467048645
1789323915373307100,12.54130712890625,6.112166404724121,-2.465803623199463,-1.807478427886963
1789323915392158000,12.560157958984375,7.0025954246521,-3.5168511867523193,-1.9127626419067383
1789323915411008800,12.5790087890625,6.262914180755615,-3.521636724472046,-1.7644076347351074
1789323915429859800,12.59785986328125,5.405984401702881,-3.445066452026367,0.26560330390930176
1789323915448710700,12.616710693359375,6.0140604972839355,-2.896811008453369,-0.5626124143600464
1789323915467561700,12.635561767578125,6.1935224533081055,-2.434697151184082,0.4860421121120453
1789323915486412500,12.65441259765625,5.408377170562744,-1.8601205348968506,-0.46450668573379517
1789323915505263400,12.673263427734375,8.183154106140137,-1.3621143102645874,-0.7085745930671692
1789323915524114400,12.692114501953125,5.650052547454834,-2.2169501781463623,-1.927119493484497
1789323915542965200,12.71096533203125,6.777669906616211,-1.3884353637695312,-1.7644076347351074
1789323915561816300,12.72981640625,5.554339408874512,-2.535494804382324,-2.7125635147094727
1789323915580667100,12.748667236328124,7.5412797927856445,-2.4681966304779053,-1.048654556274414
1789323915599518200,12.767518310546874,5.2645087242126465,-2.5857439041137695,-2.0685951709747314
1789323915618369000,12.786369140625,5.597410202026367,-2.542673110961914,-1.012762188911438
1789323915637220000,12.80522021484375,6.310770511627197,-2.283949136734009,-1.776371717453003
1789323915656071000,12.82407080078125,6.191129684448242,-2.6862425804138184,-1.4222339391708374
1789323915674921700,12.842921630859376,5.800800323486328,-2.7125635147094727,-2.3700907230377197
1789323915693772800,12.861772705078126,6.504888534545898,-3.3469607830047607,-2.580958366394043
1789323915712623600,12.88062353515625,6.538387775421143,-5.137689113616943,-3.7660038471221924
1789323915731474700,12.899474609375,7.160820960998535,-7.591827869415283,-3.301496982574463
1789323915750325500,12.918325439453126,6.7106709480285645,-9.423234939575195,-4.618147850036621
1789323915769176300,12.93717626953125,5.923133373260498,-10.823634147644043,-4.139284133911133
1789323915788027400,12.95602734375,6.296413898468018,-11.395817756652832,-4.524827480316162
1789323915806878200,12.974878173828126,5.673980712890625,-11.577971458435059,-4.1057844161987305
1789323915825729000,12.99372900390625,6.3993048667907715,-10.857133865356445,-3.911965847015381
1789323915844580000,13.012580078125,6.93320369720459,-9.926026344299316,-3.545564889907837
1789323915863431000,13.031430908203125,7.345067977905273,-9.404091835021973,-3.3589248657226562
1789323915882282000,13.050281982421875,6.868597507476807,-9.506983757019043,-3.653541088104248
1789323915901132800,13.0691328125,6.885347366333008,-9.375378608703613,-4.065106391906738
1789323915919983600,13.087983642578125,6.914061069488525,-9.382556915283203,-3.921537160873413
1789323915938834700,13.106834716796875,6.262914180755615,-8.987442016601562,-3.6293137073516846
1789323915957685500,13.125685546875,5.578267574310303,-8.96829891204834,-2.966202735900879
1789323915976536300,13.144536376953125,5.738586902618408,-8.786444664001465,-2.588136672973633
1789323915995387400,13.163387451171875,5.683551788330078,-8.891729354858398,-2.7580273151397705
1789323916014238200,13.18223828125,5.530411243438721,-9.145368576049805,-2.386840581893921
1789323916033089000,13.201089111328125,5.254937648773193,-9.19561767578125,-2.3222343921661377
1789323916051940000,13.219940185546875,5.554339408874512,-8.956335067749023,-2.2719850540161133
1789323916070791000,13.238791015625,5.896812438964844,-8.760123252868652,-2.9925239086151123
1789323916089642000,13.25764208984375,6.238986015319824,-8.745766639709473,-3.363710403442383
1789323916108492800,13.276492919921875,6.887740135192871,-9.320343017578125,-4.002892971038818
1789323916127343600,13.295343505859375,7.749754428863525,-9.916455268859863,-4.203890323638916
1789323916146194700,13.314194580078125,8.259724617004395,-10.653743743896484,-4.986941337585449
1789323916165045500,13.33304541015625,7.246962547302246,-10.225129127502441,-5.3557353019714355
1789323916183896300,13.351896240234375,6.119344711303711,-8.582756042480469,-4.8314080238342285
1789323916202747400,13.370747314453125,5.202295303344727,-6.495316982269287,-3.5814573764801025
1789323916221598200,13.38959814453125,5.652445316314697,-5.2956156730651855,-3.3230323791503906
1789323916240449000,13.408448974609374,6.660421848297119,-5.7888360023498535,-2.8920252323150635
1789323916259300000,13.427300048828124,7.6253275871276855,-6.418447494506836,-3.284747362136841
1789323916278151000,13.44615087890625,8.436793327331543,-6.715456962585449,-3.4235310554504395
1789323916297001700,13.465001708984374,8.333902359008789,-7.742575645446777,-2.6336004734039307
1789323916315852800,13.483852783203124,6.748956203460693,-5.175974369049072,-1.843370795249939
1789323916334703600,13.50270361328125,5.338985443115234,-3.722932815551758,-1.8194425106048584
1789323916353554400,13.521554443359374,6.983452796936035,-2.612065076828003,-2.731706142425537
1789323916372405500,13.540405517578124,7.855038642883301,-2.935096025466919,-2.1236300468444824
1789323916391256300,13.55925634765625,6.6149582862854,-3.318246841430664,-2.1236300468444824
1789323916410107100,13.578107177734376,5.037190914154053,-1.922333836555481,-1.197009563446045
1789323916428958000,13.5969580078125,5.496912002563477,-1.043868899345398,-1.1874382495880127
1789323916447809000,13.61580908203125,6.296413898468018,-1.9247267246246338,-0.8668000102043152
1789323916485510700,13.6535107421875,5.362913608551025,-1.9103697538375854,-1.4892330169677734
1789323916504361700,13.67236181640625,6.435197353363037,-1.572981834411621,-0.368793785572052
1789323916523212500,13.691212646484376,7.278069019317627,-2.1858434677124023,-1.407876968383789
1789323916542063400,13.7100634765625,5.508875846862793,-2.8274190425872803,-1.1539387702941895
1789323916560914400,13.72891455078125,6.401698112487793,-2.5016961097717285,-1.323829174041748
1789323916579765200,13.74776513671875,7.33549690246582,-2.4777679443359375,-1.7859430313110352
1789323916598616000,13.766615966796875,7.514958381652832,-2.9614171981811523,-2.1260228157043457
1789323916617467100,13.785467041015625,5.913562297821045,-3.859323740005493,-2.597707986831665
1789323916636318000,13.80431787109375,5.616552829742432,-4.512863636016846,-3.1818559169769287
1789323916655168800,13.823168701171875,6.047560214996338,-5.791228771209717,-3.6798620223999023
1789323916674019600,13.84201953125,6.3753767013549805,-6.686742782592773,-3.4953157901763916
1789323916692870700,13.86087060546875,5.24536657333374,-6.550352096557617,-3.935894250869751
1789323916711721500,13.879721435546875,5.566303730010986,-6.308377742767334,-3.0738797187805176
1789323916730572300,13.898572265625,8.446364402770996,-6.08823823928833,-3.3708889484405518
1789323916749423000,13.917423095703125,6.954739093780518,-8.216653823852539,-4.766502857208252
1789323916768274200,13.936274169921875,5.640480995178223,-11.972786903381348,-6.813562393188477
1789323916787125000,13.955125,6.021239280700684,-14.718850135803223,-5.472983360290527
1789323916805975800,13.973975830078125,8.408080101013184,-15.884753227233887,-3.88803768157959
1789323916824826600,13.99282666015625,7.569993495941162,-12.770195007324219,-1.537089467048645
1789323916843677700,14.011677734375,6.966702938079834,-9.147761344909668,-3.1746773719787598
1789323916862528500,14.030528564453125,7.251748085021973,-8.391329765319824,-3.8928234577178955
1789323916881379300,14.04937939453125,7.5101728439331055,-8.7505521774292,-4.362115859985352
1789323916900230100,14.068230224609374,5.769693374633789,-8.841479301452637,-3.6460635662078857
1789323916919081200,14.087081298828124,5.262115955352783,-8.333902359008789,-2.6192433834075928
1789323916937932000,14.10593212890625,5.235795021057129,-7.912466049194336,-2.451446771621704
1789323916956782800,14.124782958984374,5.089832782745361,-8.11824893951416,-2.111665964126587
1789323916975633700,14.143633544921874,5.3748779296875,-8.175975799560547,-3.045166015625
1789323916994484700,14.162484619140624,5.104189872741699,-8.17836856842041,-2.4083759784698486
1789323917013335600,14.18133544921875,5.927918910980225,-8.324331283569336,-3.3996028900146484
1789323917032186400,14.200186279296876,6.277271270751953,-9.042476654052734,-3.2057840824127197
1789323917051037200,14.219037109375,7.038786888122559,-9.614660263061523,-4.237689018249512
1789323917069888300,14.23788818359375,6.8757758140563965,-9.870991706848145,-3.5192439556121826
1789323917088739000,14.256739013671876,7.034001350402832,-9.425627708435059,-3.9023945331573486
1789323917107590000,14.27558984375,6.7417778968811035,-8.66171932220459,-3.445066452026367
1789323917126440700,14.294440673828126,6.856633186340332,-8.142476081848145,-4.666004180908203
1789323917145291800,14.313291748046876,6.631708145141602,-7.58225679397583,-4.685146808624268
1789323917164142600,14.332142578125,7.608577728271484,-6.6149582862854,-4.8314080238342285
1789323917182993400,14.350993408203125,8.42722225189209,-6.777669906616211,-3.9311084747314453
1789323917201844200,14.36984423828125,8.465507507324219,-7.58225679397583,-4.29033088684082
1789323917220695000,14.388695068359375,6.952346324920654,-6.856633186340332,-4.033999919891357
1789323917239546000,14.407546142578125,5.729015827178955,-6.3442702293396,-3.19860577583313
1789323917258397000,14.42639697265625,6.018846035003662,-4.845765113830566,-2.1308085918426514
1789323917277247700,14.445247802734375,4.78594446182251,-3.270390272140503,-1.3836497068405151
1789323917296098600,14.4640986328125,5.769693374633789,-2.865704298019409,-1.596909999847412
1789323917314949400,14.482949462890625,7.153642177581787,-2.1308085918426514,-2.228914260864258
1789323917333800400,14.501800537109375,8.199904441833496,-2.707777976989746,-1.2329018115997314
1789323917352651300,14.5206513671875,6.770491600036621,-2.808276414871216,-0.9912267923355103
1789323917371502000,14.539502197265625,5.405984401702881,-2.777169704437256,-0.36640095710754395
1789323917390353000,14.558352783203125,6.243771553039551,-2.310270309448242,-1.3668999671936035
1789323917409203700,14.57720361328125,4.388436794281006,-2.1643080711364746,-1.3860424757003784
1789323917428054800,14.5960546875,6.952346324920654,-1.1994023323059082,-0.5769693851470947
1789323917446905600,14.614905517578125,5.915955066680908,-1.8146568536758423,-1.1874382495880127
1789323917465756400,14.63375634765625,6.1073808670043945,-1.2352946996688843,-1.4437693357467651
1789323917484607200,14.652607177734374,6.634100914001465,-1.750050663948059,-1.592124342918396
1789323917503458000,14.6714580078125,6.686742782592773,-2.6407787799835205,-1.4533406496047974
1789323917522309000,14.69030908203125,5.628517150878906,-3.256033420562744,-1.7883358001708984
1789323917541160000,14.709159912109374,6.138487339019775,-3.1387851238250732,-1.7955143451690674
1789323917560010800,14.7280107421875,6.87816858291626,-3.11246395111084,-2.2671995162963867
1789323917578861600,14.746861572265624,6.2653069496154785,-3.4713873863220215,-3.07627272605896
1789323917597712400,14.76571240234375,5.386841773986816,-4.366901397705078,-3.177070379257202
1789323917616563200,14.784563232421876,6.045167446136475,-5.743372440338135,-3.7612180709838867
1789323917635414300,14.803414306640626,7.268497943878174,-7.321139812469482,-3.1387851238250732
1789323917654265000,14.82226513671875,7.084250450134277,-7.945965766906738,-3.342175006866455
1789323917673116000,14.841115966796876,5.386841773986816,-8.582756042480469,-3.895216226577759
1789323917691966700,14.859966796875,5.566303730010986,-9.772586822509766,-4.172783374786377
1789323917710817500,14.878817626953126,6.277271270751953,-11.182856559753418,-4.398007869720459
1789323917729668400,14.89766845703125,6.258128643035889,-11.594720840454102,-5.171188831329346
1789323917748519400,14.91651953125,6.384948253631592,-10.725528717041016,-4.242474555969238
1789323917767370200,14.935370361328125,7.031608581542969,-9.696016311645508,-3.555136203765869
1789323917786221000,14.954220947265625,7.76889705657959,-9.880562782287598,-3.253640651702881
1789323917805072000,14.97307177734375,6.796812534332275,-9.837491989135742,-3.373281717300415
1789323917823922700,14.991922607421875,6.205486297607422,-8.894122123718262,-4.108177185058594
1789323917842773500,15.0107734375,5.4514479637146,-8.350651741027832,-3.4570305347442627
1789323917861624300,15.029624267578125,5.750551223754883,-8.29561710357666,-2.9781668186187744
1789323917880475100,15.04847509765625,5.358128070831299,-8.970691680908203,-2.6024937629699707
1789323917899326000,15.067325927734375,6.641279220581055,-9.827920913696289,-3.0571300983428955
1789323917918177000,15.086177001953125,7.538887023925781,-10.816455841064453,-3.492922782897949
1789323917937027800,15.10502783203125,6.365805625915527,-10.526924133300781,-2.8369903564453125
1789323917955878700,15.123878662109375,6.258128643035889,-9.377771377563477,-3.974179267883301
1789323917974729500,15.1427294921875,5.334199905395508,-8.786444664001465,-3.02123761177063
1789323917993580300,15.161580322265625,5.712265968322754,-8.226224899291992,-3.739682674407959
1789323918012431000,15.18043115234375,5.551946640014648,-8.226224899291992,-3.3278181552886963
1789323918031282000,15.199281982421875,6.243771553039551,-8.664112091064453,-4.036392688751221
1789323918050132700,15.2181328125,6.619743824005127,-8.475078582763672,-3.6631124019622803
1789323918068983800,15.23698388671875,6.86381196975708,-8.55882740020752,-3.7923247814178467
1789323918087834600,15.255834716796874,6.396912097930908,-8.099106788635254,-3.514458179473877
1789323918106685400,15.274685546875,6.4666032791137695,-7.4240312576293945,-3.746861219406128
1789323918125536300,15.293536376953124,7.165606498718262,-6.488138675689697,-3.445066452026367
1789323918144387000,15.312386962890624,7.967501163482666,-7.3043904304504395,-4.886443138122559
1789323918163238000,15.33123779296875,7.749754428863525,-8.089534759521484,-5.580660820007324
1789323918182088700,15.350088623046876,8.130212783813477,-7.091429233551025,-5.108975410461426
1789323918200939500,15.368939453125,8.702695846557617,-6.67717170715332,-3.2177481651306152
1789323918219790300,15.387790283203126,7.440781116485596,-4.285545349121094,-2.142772674560547
1789323918238641200,15.40664111328125,6.104988098144531,-3.4307093620300293,-2.4610180854797363
1789323918257492000,15.425491943359376,6.073881149291992,-4.069892406463623,-3.3541390895843506
1789323918276342800,15.4443427734375,4.9654059410095215,-3.880859136581421,-2.379662036895752
1789323918295193600,15.463193603515625,5.207081317901611,-1.9848463535308838,0.5602195858955383
1789323918314044400,15.48204443359375,5.807978630065918,-1.4198411703109741,0.8018946647644043
1789323918332895200,15.500895263671875,5.453841209411621,-1.5346965789794922,-0.11964113265275955
1789323918351746300,15.519746337890625,4.491328239440918,-1.2329018115997314,-0.40229329466819763
1789323918370597000,15.53859716796875,6.205486297607422,-0.7133602499961853,-1.0606186389923096
1789323918389448000,15.557447998046875,5.72422981262207,-1.7428722381591797,-1.2951152324676514
1789323918408298800,15.576298828125,6.428019046783447,-2.035095691680908,-1.2544373273849487
1789323918427149600,15.595149658203125,6.4666032791137695,-2.204986095428467,-1.9079769849777222
1789323918446000400,15.61400048828125,6.308377742767334,-2.5450658798217773,-2.504088878631592
1789323918464851200,15.632851318359375,7.048357963562012,-3.2105698585510254,-1.7883358001708984
1789323918483702000,15.651701904296875,7.3043904304504395,-3.5910286903381348,-2.731706142425537
1789323918502552800,15.670552734375,7.28046178817749,-3.935894250869751,-2.451446771621704
1789323918521403600,15.689403564453125,6.507281303405762,-3.82582426071167,-3.524029493331909
1789323918540254500,15.70825439453125,7.3043904304504395,-4.819443702697754,-3.4235310554504395
1789323918559105300,15.727105224609375,7.675576686859131,-6.485745906829834,-3.521636724472046
1789323918587381500,15.755381591796874,6.4064836502075195,-8.142476081848145,-3.9646079540252686
1789323918606232300,15.774232421875,5.152046203613281,-8.30997371673584,-4.426722049713135
1789323918625083100,15.793083251953124,4.795515537261963,-8.039285659790039,-3.945465326309204
1789323918643934000,15.811933837890624,4.596612453460693,-7.313961505889893,-3.555136203765869
1789323918662784800,15.83078466796875,5.346164226531982,-6.803991317749023,-3.4139597415924072
1789323918681635600,15.849635498046876,7.0025954246521,-6.882954120635986,-3.7420754432678223
1789323918700486400,15.868486328125,6.9930243492126465,-8.85344409942627,-4.72582483291626
1789323918719337200,15.887337158203126,6.772884368896484,-11.55404281616211,-5.7792649269104
1789323918738188000,15.90618798828125,7.366603374481201,-14.070096015930176,-5.707480430603027
1789323918757038800,15.925038818359376,7.89332389831543,-15.633506774902344,-3.4498519897460938
1789323918775889700,15.9438896484375,7.471887588500977,-13.979168891906738,-2.480160713195801
1789323918794740500,15.962740478515625,6.997809886932373,-10.13898754119873,-3.4259238243103027
1789323918813591300,15.98159130859375,6.485745906829834,-8.410472869873047,-4.3070807456970215
1789323918832441900,16.00044189453125,5.767300605773926,-7.677969455718994,-3.7348971366882324
1789323918851292700,16.019292724609375,5.006083965301514,-7.380960464477539,-2.92073917388916
1789323918870143500,16.0381435546875,4.666004180908203,-7.048357963562012,-1.9824535846710205
1789323918888994300,16.056994384765623,5.168796062469482,-7.1249284744262695,-2.128415822982788
1789323918907845000,16.07584521484375,5.2166523933410645,-8.075178146362305,-1.651944875717163
1789323918926696000,16.094696044921875,5.336592674255371,-8.927620887756348,-2.588136672973633
1789323918945546800,16.113546630859375,5.62373161315918,-9.169296264648438,-2.95184588432312
1789323918964397600,16.1323974609375,6.770491600036621,-8.908478736877441,-4.16799783706665
1789323918983248400,16.151248291015627,7.445566654205322,-8.719446182250977,-4.393222332000732
1789323919002099200,16.17009912109375,8.43440055847168,-8.592327117919922,-5.132903575897217
1789323919020950000,16.188949951171875,8.563612937927246,-8.290831565856934,-5.492125988006592
1789323919039800800,16.20780078125,8.204689979553223,-7.9866437911987305,-5.944668769836426
1789323919058651600,16.226651611328126,7.826324462890625,-7.847859859466553,-4.7473602294921875
1789323919077502200,16.245502197265626,7.620542049407959,-7.618149280548096,-4.41475772857666
1789323919096353000,16.26435302734375,7.804789066314697,-7.718647480010986,-4.610969066619873
1789323919115203800,16.283203857421874,7.378567695617676,-6.94038200378418,-4.572684288024902
1789323919134054700,16.3020546875,7.072286605834961,-5.56151819229126,-3.967000722885132
1789323919152905500,16.320905517578126,5.721837043762207,-4.179962158203125,-2.3437697887420654
1789323919171756300,16.33975634765625,4.551148891448975,-1.5801602602005005,-1.6567305326461792
1789323919190607000,16.358607177734374,6.15762996673584,-1.690230131149292,-1.067797064781189
1789323919209458000,16.3774580078125,6.516852378845215,-2.1643080711364746,-1.750050663948059
1789323919228308700,16.396308837890626,4.939085006713867,-3.4067811965942383,-1.2185449600219727
1789323919247159300,16.4151591796875,4.213760852813721,-3.1148569583892822,-0.9984052777290344
1789323919266010000,16.434010009765625,6.384948253631592,-2.8704898357391357,0.40229329466819763
1789323919284861000,16.45286083984375,4.543970108032227,-2.2887349128723145,-0.16031911969184875
1789323919303711700,16.471711669921874,5.843871116638184,-1.0821540355682373,0.4549354016780853
1789323919322562600,16.4905625,8.4200439453125,-1.4796617031097412,-0.04785645380616188
1789323919341413400,16.509413330078125,7.495816230773926,-2.159522533416748,-1.6160526275634766
1789323919360264200,16.52826416015625,6.68435001373291,-1.970489501953125,-1.3214362859725952
1789323919379114800,16.54711474609375,6.583851337432861,-2.0925233364105225,-2.5474588871002197
1789323919397965600,16.565965576171877,6.847062110900879,-2.724527597427368,-2.2671995162963867
1789323919416816400,16.58481640625,6.411269187927246,-3.5192439556121826,-2.4370899200439453
1789323919435667200,16.603667236328125,6.512066841125488,-4.01246452331543,-2.6264219284057617
1789323919454518000,16.62251806640625,6.049952983856201,-4.1608195304870605,-2.746062994003296
1789323919473368800,16.641368896484376,5.408377170562744,-3.6631124019622803,-2.8202404975891113
1789323919492219400,16.660219482421876,5.405984401702881,-3.5910286903381348,-2.9614171981811523
1789323919511070200,16.6790703125,6.581458568572998,-4.357329845428467,-2.4777679443359375
1789323919529921000,16.697921142578124,6.408876419067383,-4.771587371826172,-3.2823543548583984
1789323919548771800,16.716771728515624,5.870192050933838,-6.016453266143799,-3.9957146644592285
1789323919567622700,16.73562255859375,5.959025859832764,-7.945965766906738,-5.2166523933410645
1789323919586473200,16.75447314453125,6.179165363311768,-11.213963508605957,-5.283651351928711
1789323919605324000,16.773323974609376,5.982954025268555,-13.828421592712402,-5.855835437774658
1789323919624174800,16.7921748046875,6.792026996612549,-15.245570182800293,-4.929513931274414
1789323919643025700,16.811025634765624,7.716254711151123,-14.661422729492188,-3.1794631481170654
1789323919661876500,16.82987646484375,7.469494819641113,-11.855539321899414,-2.7125635147094727
1789323919680727000,16.84872705078125,7.819146156311035,-10.351948738098145,-3.911965847015381
1789323919699577900,16.867577880859375,7.3522467613220215,-9.169296264648438,-4.567898273468018
1789323919718428700,16.8864287109375,6.471388816833496,-8.137690544128418,-4.364508628845215
1789323919737279500,16.905279541015624,5.784050464630127,-7.275676250457764,-2.9614171981811523
1789323919756130000,16.924130126953123,5.604588985443115,-6.902096748352051,-2.3533411026000977
1789323919774980900,16.94298095703125,5.1209397315979,-7.438388347625732,-2.621636390686035
1789323919793831700,16.961831787109375,4.915156841278076,-8.012965202331543,-2.2025933265686035
1789323919812682500,16.9806826171875,4.819443702697754,-7.917252063751221,-2.11405873298645
1789323919831533000,16.999532958984375,5.274080276489258,-8.099106788635254,-2.173879384994507
1789323919850384000,17.0183837890625,6.5527448654174805,-8.918049812316895,-3.555136203765869
1789323919869234700,17.037234619140627,7.440781116485596,-11.00578784942627,-3.373281717300415
1789323919888085500,17.05608544921875,8.518149375915527,-11.697612762451172,-5.573482036590576
1789323919906936000,17.07493603515625,7.531708240509033,-10.730314254760742,-5.50648307800293
1789323919925787000,17.093786865234375,7.531708240509033,-9.50459098815918,-4.54636287689209
1789323919944637700,17.1126376953125,6.442375659942627,-9.51176929473877,-4.261617183685303
1789323919963488300,17.13148828125,6.473781585693359,-8.235795974731445,-3.82582426071167
1789323919982339000,17.150339111328126,6.62931489944458,-6.9068827629089355,-4.369294166564941
1789323920001190000,17.16918994140625,5.678766250610352,-6.610172748565674,-4.299902439117432
1789323920020040400,17.18804052734375,6.926024913787842,-5.700301647186279,-4.148855209350586
1789323920038891300,17.206891357421874,6.569494724273682,-5.738586902618408,-3.514458179473877
1789323920057742000,17.2257421875,7.881359577178955,-5.020441055297852,-2.588136672973633
1789323920076593000,17.244593017578126,8.034500122070312,-4.977370262145996,-2.808276414871216
1789323920095443500,17.263443359375,6.138487339019775,-3.569493293762207,-1.8864415884017944
1789323920114294300,17.282294189453125,4.278367042541504,-2.2959132194519043,-1.3764712810516357
1789323920133145000,17.30114501953125,4.498506546020508,-1.994417667388916,-1.7333009243011475
1789323920151995600,17.31999560546875,5.707480430603027,-2.4394826889038086,-1.4365909099578857
1789323920170846500,17.338846435546873,8.422436714172363,-1.6328023672103882,-2.135594129562378
1789323920189697300,17.357697265625,7.747361660003662,-3.411566972732544,-1.1635099649429321
1789323920208547800,17.3765478515625,7.835896015167236,-3.5575289726257324,-1.7715860605239868
1789323920227398700,17.395398681640625,4.687539577484131,-3.459423303604126,-1.6495521068572998
1789323920246249500,17.41424951171875,8.084749221801758,-2.0446670055389404,-1.1754741668701172
1789323920265100000,17.43310009765625,7.2661051750183105,-2.410768747329712,-1.3094722032546997
1789323920283950800,17.451950927734377,6.1002020835876465,-2.604886531829834,-1.0534402132034302
1789323920302801700,17.4708017578125,6.368198394775391,-1.9438693523406982,-1.5083755254745483
1789323920321652200,17.48965234375,5.863013744354248,-2.0781664848327637,-1.4844473600387573
1789323920340503000,17.5085029296875,5.068297386169434,-2.1308085918426514,-1.5586248636245728
1789323920359353900,17.527353759765624,3.4498519897460938,-2.204986095428467,-1.6447664499282837
1789323920378204400,17.546204345703124,4.60139799118042,-1.934298038482666,-0.7277171611785889
1789323920397055200,17.56505517578125,5.413163185119629,-1.6160526275634766,-0.924227774143219
1789323920415905800,17.58390576171875,5.276473045349121,-1.5394822359085083,-2.652743101119995
1789323920434756600,17.602756591796876,4.335794448852539,-2.5546371936798096,-2.4155545234680176
1789323920453607400,17.621607421875,10.47188949584961,-4.319045066833496,-3.4259238243103027
1789323920472458000,17.6404580078125,9.916455268859863,-7.723433494567871,-5.843871116638184
1789323920491308800,17.659308837890624,5.551946640014648,-13.148261070251465,-9.317950248718262
1789323920510159400,17.678159423828124,4.711467742919922,-18.41785430908203,-8.216653823852539
1789323920529010200,17.69701025390625,6.533602237701416,-18.211772918701172,-4.986941337585449
1789323920547861000,17.715861083984375,8.245368003845215,-13.167404174804688,-0.5673980712890625
1789323920566711600,17.734711669921875,7.864609718322754,-10.620244026184082,-2.441875457763672
1789323920585562400,17.753562255859375,7.70668363571167,-9.459127426147461,-3.911965847015381
1789323920604413000,17.772412841796875,7.553243637084961,-8.362615585327148,-4.955834865570068
1789323920623263700,17.791263671875,6.3131632804870605,-6.997809886932373,-4.563112735748291
1789323920642114300,17.8101142578125,5.7792649269104,-6.337091445922852,-4.529613494873047
1789323920660965000,17.828965087890627,4.795515537261963,-6.451947212219238,-3.284747362136841
1789323920679815700,17.847815673828126,4.953442096710205,-7.5341010093688965,-2.9087750911712646
1789323920698666500,17.86666650390625,5.671587944030762,-8.965906143188477,-3.2751760482788086
1789323920717517000,17.88551708984375,5.705087184906006,-10.258628845214844,-2.5016961097717285
1789323920736367900,17.904367919921874,6.4064836502075195,-10.402497291564941,-2.6623141765594482
1789323920755218700,17.92321875,6.363412857055664,-10.239486694335938,-2.097309112548828
1789323920774069200,17.9420693359375,6.423233509063721,-9.624231338500977,-3.059522867202759
1789323920792920000,17.960920166015626,6.500102519989014,-9.176474571228027,-3.4713873863220215
1789323920811770600,17.9797705078125,8.048856735229492,-9.767801284790039,-4.781158924102783
1789323920830621400,17.998621337890626,7.972286701202393,-11.027322769165039,-4.603790760040283
1789323920849472000,18.017471923828126,7.246962547302246,-10.220343589782715,-6.030810356140137
1789323920868322800,18.03632275390625,5.846263885498047,-7.862216949462891,-4.242474555969238
1789323920887173400,18.05517333984375,5.738586902618408,-5.32193660736084,-4.115355968475342
1789323920906024200,18.074024169921874,5.56151819229126,-4.673182487487793,-3.708575963973999
1789323920924874800,18.092874755859373,6.581458568572998,-5.372485160827637,-3.928715705871582
1789323920943725600,18.1117255859375,7.282855033874512,-6.303592205047607,-4.053142547607422
1789323920962576100,18.130576171875,7.809575080871582,-7.0097737312316895,-4.927121162414551
1789323920981426700,18.1494267578125,8.81515884399414,-7.835896015167236,-4.213760852813721
1789323921000277500,18.168277587890625,9.413662910461426,-7.752147197723389,-3.2895328998565674
1789323921019128300,18.18712841796875,8.207082748413086,-6.181558132171631,-3.3373894691467285
1789323921037979000,18.205978759765625,5.664409637451172,-4.572684288024902,-2.5160529613494873
1789323921056829400,18.224829345703125,5.767300605773926,-3.3062827587127686,-3.287140130996704
1789323921075680300,18.24368017578125,6.428019046783447,-1.134796142578125,-1.4246268272399902
1789323921094530800,18.26253076171875,6.162415504455566,-1.4653047323226929,-1.9414764642715454
1789323921113381600,18.281381591796876,4.970191955566406,-2.7819554805755615,-1.1874382495880127
1789323921132232200,18.300232177734376,3.16749906539917,-2.8944180011749268,-1.2161520719528198
1789323921151083000,18.3190830078125,3.332603693008423,-0.490827739238739,1.323829174041748
1789323921169933600,18.33793359375,5.947061538696289,-0.4812564551830292,2.0374884605407715
1789323921188784000,18.3567841796875,8.207082748413086,-0.7492526173591614,-0.3041875660419464
1789323921207635000,18.375635009765624,4.069892406463623,-1.1874382495880127,-1.6208382844924927
1789323921226485500,18.394485595703124,7.89332389831543,-0.9840483069419861,-1.0319048166275024
1789323921245336300,18.41333642578125,6.902096748352051,-2.4610180854797363,-3.0236306190490723
1789323921264187000,18.432186767578123,6.2413787841796875,-3.2344980239868164,-2.276770830154419
1789323921283037700,18.45103759765625,4.826622486114502,-2.8226335048675537,-3.061915636062622
1789323921301888300,18.46988818359375,6.732206344604492,-3.4618160724639893,-2.808276414871216
1789323921320738800,18.48873876953125,6.811169624328613,-4.591826438903809,-3.0355947017669678
1789323921339589600,18.507589599609375,5.614160060882568,-5.053940296173096,-3.5407793521881104
1789323921358440200,18.526440185546875,5.925526142120361,-5.405984401702881,-3.279961585998535
1789323921377290800,18.545290771484375,7.675576686859131,-5.231009483337402,-3.7588253021240234
1789323921396141600,18.5641416015625,6.937989234924316,-5.556732177734375,-3.3445677757263184
1789323921414992100,18.5829921875,5.877370834350586,-6.526423931121826,-4.419543266296387
1789323921433843000,18.601843017578126,5.611767292022705,-10.009775161743164,-4.438685894012451
1789323921452693500,18.620693603515626,6.3131632804870605,-13.335200309753418,-5.36769962310791
1789323921471544000,18.6395439453125,5.353342533111572,-14.845669746398926,-4.960620403289795
1789323921490395000,18.658394775390626,6.15045166015625,-12.712767601013184,-3.586242914199829
1789323921509245400,18.677245361328126,5.951847076416016,-8.963513374328613,-2.0853450298309326
1789323921528096000,18.696095947265626,6.473781585693359,-7.299604415893555,-3.363710403442383
1789323921546946800,18.71494677734375,6.550352096557617,-8.01057243347168,-3.9933218955993652
1789323921565797400,18.73379736328125,7.45274543762207,-9.439984321594238,-4.711467742919922
1789323921584648000,18.75264794921875,7.402495861053467,-10.368699073791504,-5.1209397315979
1789323921603498800,18.771498779296873,7.3043904304504395,-10.531709671020508,-4.579862594604492
1789323921622349300,18.790349365234373,6.337091445922852,-9.411270141601562,-2.8920252323150635
1789323921641199900,18.809199951171873,5.463412284851074,-8.2788667678833,-2.252842426300049
1789323921660050400,18.828050537109377,6.512066841125488,-8.472685813903809,-3.2991042137145996
1789323921678901200,18.8469013671875,5.877370834350586,-9.442377090454102,-2.973381280899048
1789323921697751800,18.865751708984376,6.229414463043213,-9.655338287353516,-3.809074640274048
1789323921716602400,18.884602294921876,6.631708145141602,-9.645767211914062,-3.6822550296783447
1789323921735453200,18.903453125,6.387341022491455,-9.861420631408691,-4.237689018249512
1789323921754303700,18.9223037109375,5.24536657333374,-9.255437850952148,-3.7516467571258545
1789323921773154300,18.941154296875,4.886443138122559,-8.53729248046875,-3.318246841430664
1789323921792004900,18.9600048828125,5.463412284851074,-7.170392036437988,-3.2512478828430176
1789323921820280800,18.98828076171875,7.960322856903076,-7.345067977905273,-4.54636287689209
1789323921839131400,19.00713134765625,8.482256889343262,-8.432007789611816,-5.302793979644775
1789323921857982200,19.025982177734374,8.546863555908203,-8.185546875,-5.372485160827637
1789323921876832800,19.044832763671874,8.091927528381348,-7.953144073486328,-4.610969066619873
1789323921895683300,19.063683349609374,6.971488952636719,-7.359425067901611,-4.560719966888428
1789323921914534000,19.082533935546873,5.168796062469482,-6.093023777008057,-4.326223373413086
1789323921933384400,19.101384521484373,5.96381139755249,-5.161617755889893,-3.78753924369812
1789323921952235300,19.1202353515625,6.4905314445495605,-3.0475587844848633,-1.7787644863128662
1789323921971085800,19.1390859375,7.718647480010986,-3.349353551864624,-1.098903775215149
1789323921989936400,19.157936279296877,7.766504287719727,-4.048357009887695,-2.317448616027832
1789323922008787000,19.176786865234376,6.502495765686035,-3.19860577583313,-3.1387851238250732
1789323922027637800,19.1956376953125,5.673980712890625,-2.8896324634552,-1.2616157531738281
1789323922046488300,19.21448828125,4.709074974060059,-2.4777679443359375,-0.23449662327766418
1789323922065339000,19.2333388671875,6.4375901222229,-1.446162223815918,-0.33529427647590637
1789323922084189400,19.252189453125,5.628517150878906,-1.2664014101028442,-0.768395185470581
1789323922103040000,19.2710400390625,5.906383514404297,-0.9840483069419861,-1.654337763786316
1789323922121890800,19.289890869140624,4.249652862548828,-2.104487419128418,-1.8912272453308105
1789323922140741400,19.308741455078124,6.392126560211182,-1.77397882938385,-0.7109674215316772
1789323922159592000,19.327592041015624,6.045167446136475,-1.5490535497665405,-1.407876968383789
1789323922178442500,19.3464423828125,6.701099872589111,-1.5777673721313477,-0.8955138921737671
1789323922197293000,19.36529296875,5.456233978271484,-2.2911276817321777,-2.080559253692627
1789323922216143600,19.3841435546875,6.389733791351318,-2.6575286388397217,-2.2576282024383545
1789323922234994400,19.402994384765623,6.471388816833496,-2.7723841667175293,-2.8058836460113525
1789323922253845000,19.421844970703123,5.954239845275879,-3.2057840824127197,-2.9853453636169434
1789323922272695600,19.440695556640627,5.233402252197266,-3.8473596572875977,-3.191427230834961
1789323922291546000,19.459546142578127,6.0140604972839355,-5.726622581481934,-3.1794631481170654
1789323922310396700,19.478396728515627,7.141678333282471,-7.321139812469482,-3.983750581741333
1789323922329247200,19.497247314453126,6.579065799713135,-8.898907661437988,-4.6372904777526855
1789323922348097800,19.516097900390626,5.726622581481934,-9.868598937988281,-4.40757942199707
1789323922366948400,19.5349482421875,5.4418768882751465,-10.84277629852295,-4.689932346343994
1789323922385799000,19.553798828125,6.471388816833496,-12.092727661132812,-5.298008441925049
1789323922404649700,19.572649658203126,6.562315940856934,-12.324831008911133,-4.888835906982422
1789323922423500300,19.591500244140626,6.825526714324951,-10.792527198791504,-5.1544389724731445
1789323922442350800,19.610350830078126,7.457530975341797,-9.75105094909668,-4.455435752868652
1789323922461201400,19.629201416015626,7.792825222015381,-10.198808670043945,-3.8138601779937744
1789323922480052000,19.648052001953126,6.547959327697754,-10.720743179321289,-4.151247978210449
1789323922498902500,19.666902587890625,5.906383514404297,-10.514960289001465,-4.096213340759277
1789323922517753000,19.685753173828125,6.341877460479736,-9.17886734008789,-3.2177481651306152
1789323922546029000,19.714029052734375,6.612565517425537,-9.382556915283203,-3.4474592208862305
1789323922564879600,19.732879638671875,5.97098970413208,-8.503792762756348,-2.793919563293457
1789323922583730200,19.751730224609375,6.260521411895752,-7.632505893707275,-3.7660038471221924
1789323922602580700,19.770580810546875,5.879763603210449,-8.01057243347168,-3.6894333362579346
1789323922621431300,19.789431396484375,5.4897332191467285,-8.594719886779785,-4.077070713043213
1789323922640281900,19.80828173828125,5.446662425994873,-8.589934349060059,-3.6966118812561035
1789323922659132400,19.82713232421875,6.547959327697754,-8.781659126281738,-4.931906700134277
1789323922677983000,19.84598291015625,6.243771553039551,-9.60508918762207,-3.9717864990234375
1789323922696833500,19.86483349609375,6.708278179168701,-10.002596855163574,-4.297509670257568
1789323922715684000,19.88368408203125,6.9930243492126465,-9.830313682556152,-3.6340994834899902
1789323922734534700,19.90253466796875,7.512565612792969,-9.248259544372559,-4.4482574462890625
1789323922753385200,19.92138525390625,7.024429798126221,-8.410472869873047,-4.5822553634643555
1789323922772235800,19.94023583984375,6.713063716888428,-6.882954120635986,-5.039583683013916
1789323922791086300,19.95908642578125,6.595815658569336,-6.315556049346924,-4.3549370765686035
1789323922809937000,19.97793701171875,6.926024913787842,-6.689135551452637,-4.438685894012451
1789323922828787500,19.996787353515625,6.794419765472412,-6.136094570159912,-4.321437835693359
1789323922847638000,20.015637939453125,6.519245147705078,-5.324329376220703,-3.3948171138763428
1789323922866488600,20.034488525390625,7.5101728439331055,-4.776372909545898,-2.286342144012451
1789323922885339100,20.053339111328125,6.571887493133545,-3.2512478828430176,-2.1954147815704346
1789323922904189700,20.072189697265625,5.592624664306641,-3.2919256687164307,-3.2368907928466797
1789323922923040300,20.091040283203125,6.327520370483398,-2.848954439163208,-3.19860577583313
1789323922941890800,20.109890869140624,6.418447494506836,-2.504088878631592,-2.0853450298309326
1789323922960741400,20.128741455078124,6.842276573181152,-2.722134828567505,-1.470090389251709
1789323922979591700,20.147591796875,6.27487850189209,-3.270390272140503,-0.9457631707191467
1789323922998442500,20.1664423828125,4.6995038986206055,-2.621636390686035,-1.098903775215149
1789323923017292800,20.185292724609376,6.033203125,-1.4605190753936768,-0.7301099896430969
1789323923036143400,20.204143310546876,5.046761989593506,-1.2137593030929565,-0.15074782073497772
1789323923054994000,20.222993896484375,6.478567123413086,-0.31375887989997864,-0.47168517112731934
1789323923073844500,20.241844482421875,4.493721008300781,-0.8042874932289124,-1.103689432144165
1789323923092695000,20.260695068359375,6.2174506187438965,-0.9529415965080261,-1.2831511497497559
1789323923111545600,20.279545654296875,5.597410202026367,-1.9247267246246338,-1.9390836954116821
1789323923130396200,20.298396240234375,6.495316982269287,-2.5929224491119385,-2.0781664848327637
1789323923149246700,20.317246826171875,4.433900356292725,-2.949453115463257,-2.183450698852539
1789323923168097300,20.33609716796875,7.050751209259033,-3.4378879070281982,-2.39401912689209
1789323923186947800,20.35494775390625,7.2589263916015625,-4.077070713043213,-2.942274570465088
1789323923205798400,20.37379833984375,7.347461223602295,-5.164010524749756,-4.247260093688965
1789323923224649000,20.39264892578125,7.199106216430664,-7.39771032333374,-4.790729999542236
1789323923243499300,20.411499267578126,6.471388816833496,-8.934800148010254,-5.566303730010986
1789323923262349800,20.430349853515626,7.495816230773926,-10.347163200378418,-4.931906700134277
1789323923281200400,20.449200439453126,6.116951942443848,-11.343175888061523,-5.805585861206055
1789323923300051000,20.468051025390626,5.274080276489258,-11.563614845275879,-5.449055194854736
1789323923318901500,20.486901611328125,5.650052547454834,-10.160523414611816,-4.321437835693359
1789323923337752000,20.505751953125,6.298806667327881,-7.886145114898682,-3.91914439201355
1789323923356602600,20.5246025390625,7.232605457305908,-7.337889671325684,-3.952643871307373
1789323923375453200,20.543453125,6.392126560211182,-8.901300430297852,-4.54636287689209
1789323923394303500,20.562303466796877,6.423233509063721,-10.668100357055664,-4.773980140686035
1789323923413154000,20.581154052734377,6.5766730308532715,-11.307283401489258,-3.952643871307373
1789323923432004600,20.600004638671876,6.085845470428467,-10.076774597167969,-2.8154549598693848
1789323923450855200,20.618855224609376,5.846263885498047,-9.576375007629395,-2.913560628890991
1789323923469705700,20.637705810546876,6.2174506187438965,-9.552447319030762,-3.569493293762207
1789323923488556000,20.65655615234375,6.361020088195801,-9.581160545349121,-3.81864595413208
1789323923507406600,20.675406494140624,5.944668769836426,-9.952347755432129,-2.729313373565674
1789323923526257200,20.694257080078124,6.15762996673584,-9.825528144836426,-3.2679975032806396
1789323923545107700,20.713107666015624,5.614160060882568,-9.052047729492188,-3.2919256687164307
1789323923563958300,20.731958251953124,5.705087184906006,-8.680861473083496,-4.232903480529785
1789323923582808600,20.75080859375,5.551946640014648,-8.922835350036621,-4.184747695922852
1789323923601659100,20.7696591796875,5.879763603210449,-8.582756042480469,-4.8074798583984375
1789323923620509700,20.788509765625,6.253343105316162,-7.934001445770264,-4.275974273681641
1789323923639360300,20.8073603515625,6.856633186340332,-7.505387306213379,-3.7731821537017822
1789323923658210800,20.8262109375,7.165606498718262,-7.0770721435546875,-3.555136203765869
1789323923677061000,20.84506103515625,7.321139812469482,-7.115357398986816,-3.8760735988616943
1789323923695911700,20.86391162109375,7.392924785614014,-7.584649562835693,-4.41475772857666
1789323923714762200,20.88276220703125,7.239784240722656,-8.20229721069336,-4.963013172149658
1789323923733612800,20.90161279296875,7.562815189361572,-8.219046592712402,-5.276473045349121
1789323923752463000,20.920463134765626,8.180761337280273,-7.191927433013916,-5.049154758453369
1789323923771313700,20.939313720703126,9.107083320617676,-6.672386169433594,-4.84815788269043
1789323923790164200,20.958164306640626,7.756932735443115,-5.092225551605225,-3.5168511867523193
1789323923809014800,20.977014892578126,5.13529634475708,-1.9127626419067383,-2.6407787799835205
1789323923827865000,20.995864990234374,5.877370834350586,-1.6471593379974365,-2.334198474884033
1789323923846715600,21.014715576171874,6.3514485359191895,-1.8625133037567139,-3.11246395111084
1789323923865566200,21.033566162109373,5.638088226318359,-3.514458179473877,-1.745265007019043
1789323923884416800,21.052416748046873,5.049154758453369,-3.8832521438598633,-0.04546362906694412
1789323923903267000,21.07126708984375,8.094321250915527,-2.604886531829834,0.3281157910823822
1789323923922117600,21.09011767578125,3.3996028900146484,-2.42512583732605,-1.2185449600219727
1789323923940968200,21.10896826171875,4.42193603515625,-1.2185449600219727,-1.1994023323059082
1789323923959818500,21.127818603515625,5.6548380851745605,-1.572981834411621,0.21774685382843018
1789323923978669000,21.1466689453125,6.751348972320557,-1.4318052530288696,-1.446162223815918
1789323923997519600,21.16551953125,4.211368083953857,-1.7955143451690674,-0.8018946647644043
1789323924016370000,21.184369873046876,5.870192050933838,-1.7835501432418823,-1.292722463607788
1789323924035220500,21.203220458984376,5.302793979644775,-2.334198474884033,-1.378864049911499
1789323924054071000,21.222071044921876,6.435197353363037,-2.3844478130340576,-1.1754741668701172
1789323924072921600,21.240921630859376,6.035595893859863,-2.1619153022766113,-2.2097716331481934
1789323924091772000,21.25977197265625,8.391329765319824,-2.513660192489624,-2.769991397857666
1789323924110622500,21.27862255859375,6.794419765472412,-3.5048868656158447,-4.177569389343262
1789323924129473000,21.29747314453125,6.636493682861328,-4.737788677215576,-4.40757942199707
1789323924148323300,21.3163232421875,8.099106788635254,-8.276473999023438,-6.236593246459961
1789323924167174000,21.335173828125,8.130212783813477,-11.436495780944824,-5.66201639175415
1789323924186024200,21.354024169921875,5.420341491699219,-11.261819839477539,-6.361020088195801
1789323924204874800,21.372874755859375,5.118546962738037,-10.189236640930176,-4.460221290588379
1789323924223725300,21.391725341796874,6.4304118156433105,-8.087141990661621,-3.6197423934936523
1789323924242575600,21.41057568359375,6.916453838348389,-6.732206344604492,-3.61017107963562
1789323924261426200,21.42942626953125,7.569993495941162,-6.935596466064453,-4.474578380584717
1789323924280276700,21.44827685546875,6.722635269165039,-8.43440055847168,-5.2716875076293945
1789323924299127000,21.467126953125,6.258128643035889,-9.976275444030762,-5.420341491699219
1789323924317977600,21.4859775390625,6.363412857055664,-10.383355140686035,-3.7660038471221924
1789323924336828200,21.504828125,6.305984973907471,-9.8207426071167,-2.389233350753784
1789323924355678500,21.523678466796873,6.681957244873047,-9.454340934753418,-2.6240291595458984
1789323924374529000,21.542529052734373,6.701099872589111,-10.598709106445312,-4.089034557342529
1789323924393379300,21.56137939453125,5.748157978057861,-11.048858642578125,-3.5958142280578613
1789323924412230000,21.58022998046875,6.009274959564209,-9.530911445617676,-2.918346405029297
1789323924431080200,21.599080078125,6.322734832763672,-8.784051895141602,-3.873680830001831
1789323924449930800,21.6179306640625,5.092225551605225,-8.247760772705078,-2.949453115463257
1789323924468781300,21.63678125,6.078666687011719,-7.957930088043213,-3.9861433506011963
1789323924487631600,21.655631591796876,6.246164321899414,-8.221439361572266,-3.842574119567871
1789323924506482200,21.674482177734376,6.6939215660095215,-8.542078018188477,-4.692325115203857
1789323924525332500,21.69333251953125,6.696314334869385,-9.133403778076172,-5.099404335021973
1789323924544183000,21.71218310546875,6.492924213409424,-9.542876243591309,-4.829015254974365
1789323924563033600,21.73103369140625,6.567101955413818,-9.07119083404541,-4.915156841278076
1789323924581884000,21.7498837890625,6.681957244873047,-8.199904441833496,-5.137689113616943
1789323924600734500,21.768734375,6.387341022491455,-7.469494819641113,-4.840979099273682
1789323924619584800,21.787584716796875,6.62213659286499,-6.660421848297119,-4.5200419425964355
1789323924638435300,21.806435302734375,7.278069019317627,-6.775277137756348,-4.565505504608154
1789323924657285600,21.82528564453125,8.19511890411377,-7.038786888122559,-3.9574296474456787
1789323924676136200,21.84413623046875,8.700303077697754,-6.93320369720459,-3.7923247814178467
1789323924694986500,21.862986572265626,8.70508861541748,-6.483353137969971,-3.8928234577178955
1789323924713837000,21.881837158203126,7.666005611419678,-4.692325115203857,-2.832204818725586
1789323924732687400,21.900687255859374,6.492924213409424,-3.7540395259857178,-2.6264219284057617
1789323924751538000,21.919537841796874,6.195915222167969,-3.483351469039917,-3.959822416305542
1789323924770388200,21.93838818359375,6.112166404724121,-2.2337000370025635,-3.0092735290527344
1789323924789238800,21.95723876953125,6.610172748565674,-2.434697151184082,-1.3836497068405151
1789323924808089000,21.976089111328125,4.201497554779053,-3.699004650115967,0.02392822690308094
1789323924826939600,21.994939697265625,4.033999919891357,-1.470090389251709,-0.5841478109359741
1789323924845790000,22.0137900390625,3.4737801551818848,-1.2472587823867798,0.9385846853256226
1789323924864640500,22.032640625,5.372485160827637,-1.2759727239608765,-0.6822535395622253
1789323924883490800,22.05149072265625,4.579862594604492,-0.9266205430030823,0.13160525262355804
1789323924902341400,22.07034130859375,4.47697114944458,-0.5075774788856506,-1.2999008893966675
1789323924921191700,22.089191650390624,7.364210605621338,-0.9122636318206787,-0.41186460852622986
1789323924940042200,22.108042236328124,6.454638957977295,-1.6734803915023804,-2.760420083999634
1789323924958892500,22.126892578125,5.434698581695557,-2.458625316619873,-1.8888343572616577
1789323924977743000,22.1457431640625,7.0292158126831055,-2.173879384994507,-2.669492721557617
1789323924996593400,22.164593505859376,7.52213716506958,-2.9255247116088867,-3.0738797187805176
1789323925015444000,22.18344384765625,6.729813575744629,-3.82582426071167,-4.1297125816345215
1789323925034294300,22.202294189453124,5.642873764038086,-5.104189872741699,-4.366901397705078
1789323925053144800,22.221144775390623,7.673183917999268,-7.201498985290527,-4.8792643547058105
1789323925071995100,22.2399951171875,6.916453838348389,-8.168797492980957,-4.42193603515625
1789323925090845400,22.258845458984375,5.544768333435059,-8.319544792175293,-4.77876615524292
1789323925109696000,22.277696044921875,5.889334678649902,-8.83669376373291,-3.7372899055480957
1789323925128546300,22.29654638671875,6.064310073852539,-9.313164710998535,-4.237689018249512
1789323925147396900,22.31539697265625,5.62373161315918,-9.411270141601562,-4.797908306121826
1789323925166247200,22.3342470703125,7.067500591278076,-9.413662910461426,-5.403591632843018
1789323925185097500,22.353097412109374,7.52931547164917,-10.27059268951416,-5.283651351928711
1789323925203948000,22.371947998046874,7.115357398986816,-11.599507331848145,-5.578267574310303
1789323925222798300,22.39079833984375,6.701099872589111,-11.843574523925781,-4.383651256561279
1789323925241649000,22.40964892578125,7.385746002197266,-10.316056251525879,-2.8824539184570312
1789323925260499200,22.428499267578125,6.097809314727783,-9.459127426147461,-2.228914260864258
1789323925279349500,22.447349609375,6.081059455871582,-8.992227554321289,-3.0786654949188232
1789323925298200000,22.466199951171873,5.9566330909729,-8.561220169067383,-3.6053855419158936
1789323925317050400,22.48505029296875,6.432804584503174,-8.17119026184082,-3.76361083984375
1789323925335901000,22.50390087890625,6.439982891082764,-8.046463966369629,-4.225724697113037
1789323925354751200,22.522751220703125,6.181558132171631,-8.072785377502441,-4.100998878479004
1789323925373601500,22.5416015625,5.899205207824707,-8.257331848144531,-4.010071754455566
1789323925392452000,22.5604521484375,5.688337802886963,-8.561220169067383,-3.7253258228302
1789323925411302400,22.579302490234376,5.49930477142334,-8.999405860900879,-3.6436707973480225
1789323925430152700,22.598152587890624,5.707480430603027,-9.428020477294922,-3.866502285003662
1789323925449003300,22.617003173828124,5.616552829742432,-10.210772514343262,-4.010071754455566
1789323925467853600,22.635853515625,6.222236156463623,-9.765408515930176,-4.371686935424805
1789323925486703900,22.654703857421875,7.2110700607299805,-9.214759826660156,-4.567898273468018
1789323925505554400,22.673554443359375,8.29561710357666,-8.154440879821777,-4.584648132324219
1789323925524404700,22.69240478515625,9.09272575378418,-7.567600727081299,-4.692325115203857
1789323925543255000,22.711255126953127,8.489435195922852,-8.482256889343262,-5.370092391967773
1789323925562105600,22.730105712890627,7.709076404571533,-8.417651176452637,-6.097809314727783
1789323925580956000,22.748955810546875,6.303592205047607,-7.974679470062256,-5.702694416046143
1789323925599806500,22.767806396484374,6.049952983856201,-6.215057849884033,-4.817050933837891
1789323925618656800,22.78665673828125,5.805585861206055,-5.4418768882751465,-2.669492721557617
1789323925637507000,22.805507080078126,4.589433670043945,-3.1028928756713867,-2.6647071838378906
1789323925656357400,22.824357421875,5.276473045349121,-1.994417667388916,-0.7707880139350891
1789323925675208000,22.8432080078125,6.758527755737305,-0.4453641176223755,-1.4844473600387573
1789323925694058200,22.862058349609374,7.500601768493652,-2.3820550441741943,-0.9170492887496948
1789323925712908500,22.880908447265625,5.827121257781982,-3.5168511867523193,-1.2711870670318604
1789323925731759000,22.899759033203125,5.4897332191467285,-2.6503500938415527,-0.3448655605316162
1789323925750609400,22.918609375,5.475376605987549,-1.4485549926757812,-1.3286148309707642
1789323925769459700,22.937459716796877,6.329913139343262,-1.6758731603622437,-1.5514464378356934
1789323925788310000,22.95631005859375,5.697908878326416,-1.561017632484436,-1.3812568187713623
1789323925807160600,22.97516064453125,6.346662998199463,-1.0701899528503418,-1.378864049911499
1789323925826011000,22.994010986328124,7.227819919586182,-1.0845468044281006,-1.3286148309707642
1789323925844861200,23.012861083984376,6.545566558837891,-1.9151554107666016,-2.693420886993408
1789323925863711500,23.03171142578125,5.25972318649292,-2.5546371936798096,-1.8290138244628906
1789323925882562000,23.05056201171875,7.151249408721924,-2.714956283569336,-1.9151554107666016
1789323925901412400,23.069412353515624,5.549553871154785,-3.1555347442626953,-2.2432711124420166
1789323925920262700,23.0882626953125,6.104988098144531,-3.342175006866455,-1.8625133037567139
1789323925939113000,23.107113037109375,5.405984401702881,-2.95184588432312,-2.7340989112854004
1789323925957963500,23.125963623046875,6.349055767059326,-3.722932815551758,-3.2823543548583984
1789323925976813800,23.144813720703127,6.526423931121826,-5.3557353019714355,-4.091427803039551
1789323925995664100,23.1636640625,6.116951942443848,-6.9690961837768555,-4.3070807456970215
1789323926014514400,23.182514404296874,5.020441055297852,-8.305188179016113,-4.642076015472412
1789323926033365000,23.201364990234374,5.3940205574035645,-9.724730491638184,-4.656432628631592
1789323926052215300,23.22021533203125,6.148058891296387,-10.680065155029297,-4.9893341064453125
1789323926071065600,23.239065673828126,6.145665645599365,-11.685648918151855,-5.041976451873779
1789323926089916000,23.257916015625,6.720242500305176,-12.3009033203125,-5.077868938446045
1789323926108766500,23.276766357421874,7.603792190551758,-12.928121566772461,-5.025226593017578
1789323926127616800,23.29561669921875,7.483851909637451,-12.334402084350586,-4.203890323638916
1789323926146467000,23.314467041015625,7.438388347625732,-10.378270149230957,-4.510470867156982
1789323926165317400,23.3333173828125,6.451947212219238,-9.21715259552002,-4.266402721405029
1789323926184167700,23.352167724609377,6.514459609985352,-8.494221687316895,-4.4650068283081055
1789323926203018000,23.37101806640625,5.824728488922119,-8.134998321533203,-3.6029927730560303
1789323926221868500,23.38986865234375,6.033203125,-7.902894973754883,-2.99013090133667
1789323926240718800,23.40871875,5.733801364898682,-8.01057243347168,-2.769991397857666
1789323926259569200,23.427569091796876,5.326722145080566,-7.950751304626465,-2.6024937629699707
1789323926278419500,23.44641943359375,5.156831741333008,-7.599006652832031,-2.9566314220428467
1789323926297269800,23.465269775390624,4.991727352142334,-7.632505893707275,-2.4323041439056396
1789323926316120000,23.4841201171875,5.650052547454834,-7.936394691467285,-3.428316593170166
1789323926334970600,23.502970703125,6.346662998199463,-8.908478736877441,-3.9023945331573486
1789323926353821000,23.521821044921875,7.0531439781188965,-10.416853904724121,-4.857728958129883
1789323926372671200,23.540671142578127,7.5341010093688965,-10.392926216125488,-5.309972763061523
1789323926391521500,23.559521484375,7.850253105163574,-10.091131210327148,-5.041976451873779
1789323926410371800,23.578371826171875,8.089534759521484,-9.897313117980957,-4.431507587432861
1789323926429222100,23.59722216796875,8.134998321533203,-9.37298583984375,-4.701896667480469
1789323926448072400,23.616072509765626,7.749754428863525,-7.95553731918335,-5.776872158050537
1789323926466922800,23.6349228515625,6.720242500305176,-7.014858722686768,-5.4658050537109375
1789323926485773300,23.653773193359374,7.457530975341797,-6.02602481842041,-4.409972190856934
1789323926504623600,23.67262353515625,7.254140853881836,-5.278865814208984,-3.6894333362579346
1789323926523474000,23.691473876953125,6.607779502868652,-4.814658164978027,-2.9063823223114014
1789323926542324200,23.71032421875,5.209474086761475,-3.7971103191375732,-2.0614166259765625
1789323926561174500,23.729174560546873,4.951049327850342,-2.841775894165039,-1.8768702745437622
1789323926580024800,23.74802490234375,5.784050464630127,-2.5112674236297607,-2.042274236679077
1789323926598875100,23.766875244140625,5.937490463256836,-2.3533411026000977,-1.9055840969085693
1789323926617725400,23.785725341796876,5.930311679840088,-2.896811008453369,-0.8811569213867188
1789323926636575700,23.80457568359375,5.101797103881836,-2.2600209712982178,-0.4573282301425934
1789323926655426300,23.82342626953125,6.428019046783447,-1.252044439315796,0.0023928226437419653
1789323926674276600,23.842276611328124,6.892525672912598,-1.683051586151123,-1.017547845840454
1789323926693127000,23.861126953125,5.767300605773926,-1.8290138244628906,-2.097309112548828
1789323926711977200,23.879977294921876,6.545566558837891,-0.7157530784606934,-1.197009563446045
1789323926730827500,23.89882763671875,7.730611801147461,-1.4413765668869019,-2.2791635990142822
1789323926749677800,23.917677734375,7.000202655792236,-2.4993033409118652,-2.604886531829834
1789323926768528100,23.936528076171875,5.547161102294922,-2.841775894165039,-2.7891337871551514
1789323926787378400,23.95537841796875,6.188736438751221,-3.13639235496521,-1.6758731603622437
1789323926806228700,23.974228759765627,5.846263885498047,-2.999702215194702,-2.032702922821045
1789323926825079000,23.9930791015625,5.803193092346191,-3.3278181552886963,-1.8936200141906738
1789323926843929300,24.011929443359374,5.370092391967773,-3.3613176345825195,-1.7356936931610107
1789323926862779600,24.030779541015626,5.994917869567871,-3.045166015625,-1.750050663948059
1789323926881630000,24.0496298828125,6.341877460479736,-3.3134610652923584,-3.722932815551758
1789323926900480300,24.068480224609374,7.223034381866455,-5.286044120788574,-3.421138286590576
1789323926919330600,24.08733056640625,7.093822002410889,-7.929215908050537,-4.350151538848877
1789323926938180900,24.106180908203125,5.401198863983154,-11.292926788330078,-5.935097694396973
1789323926957031200,24.12503125,5.379663467407227,-13.670195579528809,-7.76889705657959
1789323926975881500,24.143881591796877,6.480959892272949,-13.701302528381348,-6.384948253631592
1789323926994731800,24.162731689453125,7.948358535766602,-11.245070457458496,-4.9414777755737305
1789323927013582000,24.18158203125,8.709874153137207,-10.36630630493164,-5.132903575897217
1789323927032432400,24.200432373046876,8.247760772705078,-10.000204086303711,-5.805585861206055
1789323927051282700,24.21928271484375,7.357032299041748,-9.250652313232422,-5.504090309143066
1789323927070133000,24.238133056640624,6.5288166999816895,-9.468698501586914,-3.6631124019622803
1789323927088983300,24.2569833984375,6.471388816833496,-10.107880592346191,-2.7675983905792236
1789323927107833600,24.27583349609375,5.628517150878906,-9.844670295715332,-2.2337000370025635
1789323927126684000,24.294683837890624,5.796014785766602,-8.350651741027832,-2.482553482055664
1789323927145534200,24.3135341796875,5.595017433166504,-7.182356357574463,-2.6958138942718506
1789323927164384500,24.332384521484375,5.520840167999268,-7.163213729858398,-3.442673683166504
1789323927183234800,24.35123486328125,5.142475128173828,-8.245368003845215,-3.490530014038086
1789323927202085000,24.370085205078126,4.829015254974365,-9.090332984924316,-3.006880760192871
1789323927220935400,24.388935302734374,5.180759906768799,-9.09990406036377,-2.7125635147094727
1789323927239785700,24.40778564453125,5.982954025268555,-9.442377090454102,-2.504088878631592
1789323927258636000,24.426635986328126,5.824728488922119,-9.763015747070312,-3.7660038471221924
1789323927277486300,24.445486328125,5.784050464630127,-8.71226692199707,-3.952643871307373
1789323927296336600,24.464336669921874,7.275676250457764,-7.112964630126953,-4.323830604553223
1789323927315187000,24.48318701171875,8.11107063293457,-6.296413898468018,-4.924727916717529
