time,seconds_elapsed,z,y,x
1789324207743680000,0.154679931640625,-0.2683146595954895,-0.26930728554725647,0.3931565582752228
1789324207762530000,0.173530029296875,-0.05268557742238045,-0.23082390427589417,0.31924405694007874
1789324207781380400,0.19238037109375,-0.038636088371276855,0.11674818396568298,0.20806984603405
1789324207800230400,0.21123046875,-0.06184828653931618,0.10453123599290848,0.12316207587718964
1789324207819080700,0.230080810546875,0.09941539168357849,-0.10621106624603271,0.059023115783929825
1789324207837931000,0.248930908203125,0.37002071738243103,-0.1483595222234726,-0.08635853230953217
1789324207875631000,0.286631103515625,0.9485694169998169,-0.7995226979255676,-0.43148723244667053
1789324207894481400,0.3054814453125,0.9839985966682434,-1.0542460680007935,-0.2897706627845764
1789324207913331500,0.32433154296875,0.7505785822868347,-0.6865159869194031,-0.13950224220752716
1789324207932181800,0.343181640625,0.5215108394622803,-0.2271588295698166,-0.11018157750368118
1789324207951031800,0.36203173828125,0.38956785202026367,0.06665870547294617,-0.29648998379707336
1789324207969882000,0.380882080078125,0.4384356141090393,0.194325789809227,-0.2665584683418274
1789324207988732200,0.399732177734375,0.4934118688106537,0.21570543944835663,-0.11201411485671997
1789324208007582500,0.41858251953125,0.5025745630264282,-0.044515494257211685,-0.010002624243497849
1789324208026432800,0.437432861328125,0.37857258319854736,-0.45256146788597107,0.13782241940498352
1789324208045282800,0.45628271484375,0.19409671425819397,-0.19295138120651245,0.26365694403648376
1789324208064133000,0.475133056640625,0.03588727489113808,-0.10621106624603271,0.25510507822036743
1789324208082983200,0.493983154296875,0.1763821393251419,-0.12514732778072357,0.10605835169553757
1789324208101833500,0.51283349609375,0.5716003179550171,0.004963133949786425,-0.057648710906505585
1789324208120683500,0.53168359375,0.710262656211853,-0.15568970143795013,-0.0686439573764801
1789324208139533600,0.550533447265625,0.6155813336372375,-0.14347274601459503,0.14820681512355804
1789324208158383900,0.5693837890625,0.3474193811416626,-0.20822255313396454,0.22211933135986328
1789324208177234200,0.588234130859375,0.3834593594074249,-0.2821350693702698,-0.002672456670552492
1789324208196084200,0.607084228515625,0.40483900904655457,0.0067956759594380856,-0.3050418496131897
1789324208214934500,0.6259345703125,0.10063708573579788,-0.13858596980571747,-0.4375956952571869
1789324208233784600,0.64478466796875,-0.2047865390777588,-0.40063944458961487,-0.47974416613578796
1789324208252635000,0.663634765625,-0.3214583694934845,-0.19478392601013184,-0.49440449476242065
1789324208271485000,0.68248486328125,-0.2579302489757538,0.08009734749794006,-0.5499916076660156
1789324208290335200,0.701335205078125,-0.18768282234668732,0.4166741967201233,-0.3215347230434418
1789324208309185300,0.720185302734375,-0.5022691488265991,1.1760337352752686,0.32779592275619507
1789324208328035600,0.73903564453125,-0.5853443741798401,1.1723686456680298,0.8854994773864746
1789324208346885600,0.7578857421875,-0.31596073508262634,1.8962225914001465,0.8946621417999268
1789324208365736000,0.77673583984375,-0.3465031087398529,2.6274068355560303,0.6210026144981384
1789324208384586000,0.7955859375,-0.072232685983181,2.331145763397217,0.38155046105384827
1789324208403436300,0.814436279296875,0.5190674662590027,1.7111358642578125,0.2190650999546051
1789324208422286300,0.833286376953125,0.9571213126182556,1.381278395652771,0.33146098256111145
1789324208441136600,0.85213671875,1.314466953277588,0.752105712890625,0.6594859957695007
1789324208459987000,0.870987060546875,1.8306329250335693,0.3238253891468048,1.0858573913574219
1789324208478837000,0.8898369140625,2.457973003387451,0.6421532034873962,1.3088165521621704
1789324208497687300,0.908687255859375,2.888620376586914,1.2621631622314453,0.9209285974502563
1789324208516537300,0.927537353515625,2.5654821395874023,2.4667539596557617,-0.1737096905708313
1789324208535387600,0.9463876953125,2.139110803604126,4.511947154998779,-2.0032734870910645
1789324208554237700,0.96523779296875,1.916151523590088,5.8882622718811035,-4.042357921600342
1789324208573088000,0.984087890625,1.3382899761199951,6.71046257019043,-5.250003337860107
1789324208591938000,1.00293798828125,0.5722111463546753,5.71226167678833,-5.364231586456299
1789324208610788400,1.021788330078125,-0.24510246515274048,2.54249906539917,-4.149867057800293
1789324208629638700,1.040638671875,-1.1833637952804565,-0.23143476247787476,-2.4351425170898438
1789324208648488700,1.05948876953125,-1.5901881456375122,-1.679142713546753,-1.809635043144226
1789324208667339000,1.078339111328125,-1.5071128606796265,-1.9870097637176514,-2.4571330547332764
1789324208686189000,1.09718896484375,-1.219403862953186,-1.2655991315841675,-3.6556918621063232
1789324208705039400,1.116039306640625,-1.0972343683242798,-0.49532076716423035,-4.517597198486328
1789324208723889400,1.134889404296875,-1.3214153051376343,0.484478235244751,-4.905485153198242
1789324208742739700,1.15373974609375,-1.6469969749450684,1.2084085941314697,-4.910983085632324
1789324208761590000,1.172590087890625,-2.0771098136901855,1.848576545715332,-4.604337692260742
1789324208780440000,1.191440185546875,-2.2481470108032227,1.9841846227645874,-4.187739849090576
1789324208799290400,1.210290283203125,-2.353212594985962,2.285332202911377,-3.6330904960632324
1789324208818140400,1.229140380859375,-2.628704786300659,2.6836047172546387,-3.626371145248413
1789324208836990700,1.24799072265625,-2.888925790786743,3.437466621398926,-3.994101047515869
1789324208855840800,1.2668408203125,-2.5547924041748047,3.6915791034698486,-3.8279507160186768
1789324208874691000,1.285691162109375,-1.821088433265686,3.27925705909729,-3.060650110244751
1789324208893541400,1.304541259765625,-0.8095253109931946,3.8528428077697754,-1.7827577590942383
1789324208912391400,1.323391357421875,-0.5456393361091614,3.7288408279418945,-1.4828317165374756
1789324208931241700,1.34224169921875,0.746913492679596,3.1661741733551025,-1.5390297174453735
1789324208950092000,1.361092041015625,1.440301537513733,2.296327590942383,-1.5139849185943604
1789324208968942000,1.379942138671875,1.3346248865127563,1.863236904144287,-1.4834425449371338
1789324208987792400,1.39879248046875,0.668114185333252,2.6139681339263916,-0.8066238164901733
1789324209006642400,1.417642333984375,0.38223767280578613,1.94081449508667,-0.2543415129184723
1789324209025492700,1.43649267578125,0.8331193327903748,0.4655419588088989,0.0877329409122467
1789324209044342800,1.4553427734375,1.3541719913482666,-0.6358156204223633,0.391934871673584
1789324209063193000,1.474193115234375,1.8575102090835571,-1.1922974586486816,0.7517238855361938
1789324209082043400,1.49304345703125,1.9790687561035156,-1.3297381401062012,1.0204967260360718
1789324209100893400,1.5118935546875,1.9094321727752686,-1.301639199256897,0.8781692981719971
1789324209119743700,1.53074365234375,1.851401686668396,-1.8538451194763184,0.7914289832115173
1789324209138594000,1.549593994140625,2.252117395401001,-2.7842419147491455,1.082192301750183
1789324209157444000,1.568444091796875,2.0823018550872803,-3.0126986503601074,1.225130558013916
1789324209176294400,1.58729443359375,1.390212059020996,-3.6980693340301514,1.3747881650924683
1789324209195144700,1.606144775390625,0.8838196396827698,-3.610107183456421,1.2605596780776978
1789324209213994800,1.624994873046875,-0.8425110578536987,-3.416468620300293,1.737020492553711
1789324209232845000,1.643844970703125,-1.5657542943954468,-2.334658145904541,2.148808002471924
1789324209251695400,1.6626953125,-1.6439427137374878,-1.468400478363037,2.1793503761291504
1789324209270545400,1.68154541015625,-0.6843016147613525,-0.7811973094940186,2.002204656600952
1789324209289395700,1.700395751953125,0.17149536311626434,-0.5881695747375488,1.7810015678405762
1789324209308245800,1.719245849609375,0.6449019908905029,-0.5405234694480896,1.40044367313385
1789324209327096000,1.738095947265625,0.7408050298690796,-0.44400960206985474,0.8732824921607971
1789324209345946400,1.7569462890625,0.8691592812538147,-0.32733777165412903,0.5293754935264587
1789324209364796400,1.77579638671875,1.0120975971221924,-0.41041299700737,0.4945572018623352
1789324209383646700,1.794646728515625,1.0805124044418335,-0.49593162536621094,0.5073850154876709
1789324209402497000,1.8134970703125,1.0707389116287231,-0.32672691345214844,0.3406237065792084
1789324209421347000,1.83234716796875,0.8972582817077637,-0.16729579865932465,-0.028938889503479004
1789324209440197400,1.851197265625,0.6027535200119019,-0.18317782878875732,-0.1621035933494568
1789324209459047700,1.870047607421875,0.3840702176094055,-0.3584909737110138,-0.18042901158332825
1789324209477897700,1.888897705078125,0.22219568490982056,-0.28763270378112793,-0.1217876747250557
1789324209496748000,1.907748046875,0.16783028841018677,0.1417929232120514,-0.009391776286065578
1789324209515598300,1.926598388671875,0.06887302547693253,0.8480086922645569,0.004046862944960594
1789324209534448400,1.945448486328125,-0.02641914412379265,0.9060391783714294,-0.08758022636175156
1789324209553298700,1.964298583984375,-0.2157817929983139,0.752105712890625,-0.21952323615550995
1789324209572149000,1.98314892578125,-0.36360684037208557,0.8370134830474854,-0.29771167039871216
1789324209590999000,2.0019990234375,-0.6305471062660217,0.8241856694221497,-0.4186594486236572
1789324209609849300,2.020849365234375,-0.9298622608184814,1.0666919946670532,-0.50112384557724
1789324209628699600,2.03969970703125,-0.2982461750507355,1.2255122661590576,-0.5829773545265198
1789324209647549700,2.0585498046875,-0.06734590977430344,1.1760337352752686,-0.6587224006652832
1789324209666400000,2.07739990234375,-0.06978929787874222,0.7215633392333984,-0.7198071479797363
1789324209685250300,2.096250244140625,0.26373329758644104,1.5901881456375122,-0.3044309914112091
1789324209704100400,2.115100341796875,0.7499676942825317,2.887627601623535,0.17447324097156525
1789324209722950700,2.13395068359375,1.1336561441421509,2.3470277786254883,0.19524206221103668
1789324209741801000,2.152801025390625,-0.1889045089483261,1.0587509870529175,-0.8341119289398193
1789324209760651000,2.171651123046875,-3.2346653938293457,0.6274928450584412,-1.2696460485458374
1789324209779501300,2.190501220703125,-3.7544963359832764,1.514443039894104,-1.1884033679962158
1789324209798351600,2.2093515625,-2.1522438526153564,0.9170344471931458,-1.1731321811676025
1789324209817201700,2.22820166015625,-0.9652913808822632,-0.5136461853981018,-1.4260228872299194
1789324209836052000,2.247052001953125,-0.8180772066116333,-1.001102328300476,-1.9647902250289917
1789324209854902300,2.26590234375,-1.177255392074585,-0.18378867208957672,-2.612288236618042
1789324209873752300,2.28475244140625,-1.6695982217788696,0.07643226534128189,-2.288539171218872
1789324209892602600,2.3036025390625,-1.8546849489212036,0.9805625677108765,-1.670361876487732
1789324209911453000,2.322452880859375,-2.4008588790893555,0.482034832239151,-1.2794195413589478
1789324209930303200,2.34130322265625,-2.3110642433166504,-0.19050799310207367,-1.262926697731018
1789324209949153300,2.3601533203125,-1.7764965295791626,0.2725142240524292,-1.1205992698669434
1789324209968003600,2.379003662109375,-1.8449114561080933,0.2578538954257965,-0.6886539459228516
1789324209986854000,2.39785400390625,-0.807081937789917,-0.3432198166847229,-0.8151756525039673
1789324210005704000,2.416703857421875,-0.0587940476834774,-0.11415208131074905,-0.9739959836006165
1789324210024554200,2.43555419921875,0.21181128919124603,0.5700731873512268,-0.8115105628967285
1789324210043404800,2.45440478515625,0.0016798300202935934,1.4014363288879395,0.44996535778045654
1789324210062254800,2.4732548828125,0.24968381226062775,0.38246673345565796,1.2678898572921753
1789324210081105200,2.492105224609375,-0.05268557742238045,-0.4342360496520996,1.242234230041504
1789324210099955500,2.51095556640625,-0.24937839806079865,-0.6144359707832336,1.1835929155349731
1789324210118805800,2.5298056640625,-0.6745280623435974,-1.3126343488693237,0.993619441986084
1789324210137655800,2.54865576171875,-1.3678396940231323,-2.1287262439727783,0.5244887471199036
1789324210156506000,2.567506103515625,-1.6353908777236938,-2.6577963829040527,0.4255314767360687
1789324210175356400,2.5863564453125,-1.055696725845337,-0.9332982301712036,1.1780953407287598
1789324210194206500,2.60520654296875,0.2716743052005768,0.24197186529636383,2.0956642627716064
1789324210213056800,2.624056884765625,0.49524441361427307,-0.4391228258609772,2.2428784370422363
1789324210231907000,2.642906982421875,-0.2976353168487549,-0.359712690114975,1.5470470190048218
1789324210250757400,2.66175732421875,-0.46012070775032043,-0.639480710029602,1.728468656539917
1789324210269607400,2.680607421875,-0.7191199064254761,-1.2790378332138062,2.3534417152404785
1789324210288457700,2.699457763671875,-0.41797223687171936,-1.8477365970611572,2.7321670055389404
1789324210307308000,2.71830810546875,-0.12659808993339539,-3.56429386138916,3.2465004920959473
1789324210326158300,2.737158447265625,0.026724567636847496,-4.134825229644775,3.1958000659942627
1789324210345008600,2.756008544921875,0.02733541466295719,-3.875825881958008,2.9612348079681396
1789324210363858700,2.774858642578125,-0.511431872844696,-2.0053350925445557,2.531809091567993
1789324210382709000,2.793708984375,-0.3458922505378723,-0.3145099878311157,2.2691447734832764
1789324210401559300,2.812559326171875,-0.16019469499588013,-0.10682191699743271,1.9240161180496216
1789324210420409600,2.83140966796875,0.15744587779045105,0.40995487570762634,1.058980107307434
1789324210439259600,2.850259765625,0.27472856640815735,0.3268796503543854,1.368068814277649
1789324210458110000,2.86910986328125,0.1763821393251419,0.20409934222698212,1.6246246099472046
1789324210476960300,2.887960205078125,0.016340164467692375,0.8889354467391968,1.738242268562317
1789324210495810600,2.906810546875,-0.12293300777673721,1.3012573719024658,1.5452145338058472
1789324210514660900,2.925660888671875,-0.07895200699567795,1.474127173423767,0.9814024567604065
1789324210533511000,2.944510986328125,-0.1760767251253128,1.3372973203659058,0.5831300616264343
1789324210552361200,2.963361328125,-0.435075968503952,0.8791618943214417,0.3925457298755646
1789324210571211500,2.98221142578125,-0.7722636461257935,0.23830679059028625,0.1659213900566101
1789324210590061800,3.001061767578125,-0.5719057321548462,-0.3285594582557678,0.08590039610862732
1789324210608912100,3.019912109375,-0.08750387281179428,-0.48004958033561707,-0.19081340730190277
1789324210627762200,3.03876220703125,-0.36727190017700195,-0.2790808379650116,-0.36368319392204285
1789324210646612500,3.057612548828125,-0.8015843033790588,0.46065518260002136,-0.5768688917160034
1789324210665462800,3.076462890625,-1.052642583847046,1.0813523530960083,-0.7308024168014526
1789324210684313000,3.09531298828125,-1.0367605686187744,1.421594262123108,-0.8438854813575745
1789324210703163400,3.114163330078125,-1.107618808746338,1.2157387733459473,-0.9471186995506287
1789324210722013400,3.133013427734375,-1.125333309173584,0.9909469485282898,-1.106549859046936
1789324210740863700,3.15186376953125,-1.0941801071166992,0.8315158486366272,-1.4174710512161255
1789324210759714000,3.170714111328125,-1.0379822254180908,0.6433748602867126,-1.933637022972107
1789324210778564400,3.189564453125,-0.8504521250724792,-0.22960221767425537,-1.882936716079712
1789324210797414700,3.20841455078125,-0.5993938446044922,-1.1837456226348877,-1.5830106735229492
1789324210816264700,3.2272646484375,-0.2157817929983139,-1.1330453157424927,-1.5854541063308716
1789324210835115000,3.246114990234375,0.4158342778682709,-1.3389008045196533,-1.711288571357727
1789324210853965300,3.26496533203125,0.7676823139190674,-2.192330837249756,-1.826738715171814
1789324210872815600,3.283815673828125,1.1348778009414673,-3.2100024223327637,-1.9855589866638184
1789324210891666000,3.302666015625,1.4329713582992554,-3.674246311187744,-2.5554795265197754
1789324210910516000,3.321515869140625,0.8111287951469421,-2.993762493133545,-3.2292439937591553
1789324210929366300,3.3403662109375,0.28999972343444824,-1.5471997261047363,-3.7668659687042236
1789324210948216600,3.359216552734375,-0.2176143378019333,-0.1361425817012787,-3.8151228427886963
1789324210967067000,3.37806689453125,-0.6952968835830688,1.0135482549667358,-3.016669273376465
1789324210985917200,3.396917236328125,-0.6537593007087708,0.959793746471405,-1.586675763130188
1789324211004767500,3.415767578125,0.0462716780602932,0.13629528880119324,-0.9141329526901245
1789324211023617500,3.434617431640625,0.18676654994487762,0.22181391716003418,-0.8732061386108398
1789324211042467800,3.4534677734375,0.22586077451705933,0.6788040399551392,-0.6691068410873413
1789324211061318100,3.472318115234375,0.19348587095737457,1.0611944198608398,-0.4595862030982971
1789324211080168400,3.49116845703125,0.15866757929325104,1.3317997455596924,-0.1462215632200241
1789324211099018800,3.510018798828125,0.07009471952915192,1.4307570457458496,0.15003935992717743
1789324211117869000,3.528869140625,0.08353336155414581,1.0679137706756592,0.5568636059761047
1789324211136719000,3.547718994140625,0.3058817684650421,0.3384857475757599,0.655820906162262
1789324211155569400,3.5665693359375,0.4671454429626465,-0.12514732778072357,1.0241618156433105
1789324211174419700,3.585419677734375,0.3461976945400238,-0.173404261469841,1.608131766319275
1789324211193270000,3.60427001953125,0.1892099380493164,-0.3218401372432709,1.843918800354004
1789324211212120300,3.623120361328125,0.01695101149380207,-0.16790664196014404,1.6337873935699463
1789324211230970400,3.641970458984375,-0.09727742522954941,0.2450261116027832,1.4053304195404053
1789324211249820700,3.660820556640625,-0.025197450071573257,0.6048914790153503,1.4285426139831543
1789324211268671000,3.6796708984375,0.12201674282550812,0.5028036236763,1.5513229370117188
1789324211287521300,3.698521240234375,0.1623326539993286,0.056274302303791046,1.5672049522399902
1789324211306371600,3.71737158203125,0.16111096739768982,-0.11903885751962662,1.6569995880126953
1789324211325222000,3.736221923828125,0.11407572776079178,-0.27419406175613403,1.7687846422195435
1789324211344072200,3.755072265625,0.10430216789245605,-0.4250733256340027,1.8200957775115967
1789324211362922500,3.773922607421875,0.1647760421037674,-0.3981960713863373,1.8231500387191772
1789324211381772500,3.7927724609375,0.2429644912481308,-0.4513397812843323,1.829869270324707
1789324211400622800,3.811622802734375,0.2826695740222931,-0.5820610523223877,1.9319571256637573
1789324211419473200,3.83047314453125,0.20692451298236847,-0.49348822236061096,2.154916524887085
1789324211438323500,3.849323486328125,0.10918894410133362,-0.7304969429969788,2.375432252883911
1789324211457173800,3.868173828125,-0.05085303261876106,-1.300417423248291,2.3308403491973877
1789324211476024000,3.887024169921875,-0.3110739588737488,-1.2442195415496826,2.132315158843994
1789324211494874400,3.905874267578125,-0.462564080953598,-1.2863680124282837,1.6869310140609741
1789324211513724700,3.924724609375,-0.3581092059612274,-0.8447254300117493,1.667994737625122
1789324211532574700,3.94357470703125,-0.1785201132297516,-0.29618456959724426,1.7101432085037231
1789324211551425000,3.962425048828125,0.028557108715176582,0.09964445978403091,1.6661622524261475
1789324211570275300,3.981275390625,0.11651911586523056,0.07337802648544312,1.3509650230407715
1789324211589125600,4.000125732421875,0.21242213249206543,0.18821731209754944,0.9319238662719727
1789324211607976000,4.018975830078125,0.13240113854408264,0.000687203137204051,0.5018873810768127
1789324211626826200,4.037826171875,0.05787777900695801,0.07032378762960434,0.13721156120300293
1789324211645676500,4.056676513671875,0.04810422286391258,0.2853420376777649,-0.09002361446619034
1789324211664526800,4.07552685546875,0.06398624926805496,0.3488701283931732,-0.4211028218269348
1789324211683377200,4.094377197265625,0.06154286116361618,0.4692070484161377,-0.768674910068512
1789324211702227200,4.113227294921875,0.050547610968351364,0.3616979420185089,-1.0008732080459595
1789324211721077500,4.132077392578125,0.09513945877552032,0.25235626101493835,-1.1969552040100098
1789324211739927800,4.150927734375,0.0004581354442052543,0.3378748893737793,-1.3502779006958008
1789324211758778000,4.169778076171875,-0.15836215019226074,0.7105680704116821,-1.6276025772094727
1789324211777628400,4.18862841796875,-0.28908345103263855,1.0581401586532593,-2.0435895919799805
1789324211796478700,4.207478759765625,-0.40697699785232544,1.023932695388794,-2.2842633724212646
1789324211815329000,4.2263291015625,-0.46989426016807556,1.0349279642105103,-2.3239684104919434
1789324211834179300,4.245179443359375,-0.6445965766906738,0.8974873423576355,-2.418038845062256
1789324211853029600,4.264029541015625,-0.7710419297218323,0.7869240045547485,-2.5133309364318848
1789324211890730200,4.301730224609375,-0.9097042679786682,0.01046075951308012,-2.574415683746338
1789324211909580300,4.320580322265625,-0.8364025950431824,-0.2772482931613922,-2.4888970851898193
1789324211928430600,4.3394306640625,-0.6885775923728943,-0.3963635265827179,-2.4461379051208496
1789324211947281000,4.358281005859375,-0.49493899941444397,-0.5716766715049744,-2.300145387649536
1789324211966131200,4.377131103515625,-0.3086305856704712,-0.5900021195411682,-2.1248321533203125
1789324211984981500,4.3959814453125,-0.09605573117733002,-0.5637356638908386,-1.990445852279663
1789324212003831800,4.414831787109375,0.11468657106161118,-0.4598916172981262,-1.971509575843811
1789324212022682000,4.43368212890625,0.35169529914855957,-0.5857261419296265,-1.8737739324569702
1789324212041532400,4.452532470703125,0.585038959980011,-0.5771743059158325,-1.6153855323791504
1789324212060382700,4.4713828125,0.7775322198867798,-0.3664320111274719,-1.3417259454727173
1789324212079233000,4.49023291015625,0.7603521347045898,-0.1080436110496521,-1.0705097913742065
1789324212098083300,4.509083251953125,0.5263976454734802,0.027564482763409615,-0.5670953392982483
1789324212116933600,4.52793359375,0.35536038875579834,-0.0420721061527729,0.11033428460359573
1789324212135784000,4.546783935546875,0.24724042415618896,0.0361163429915905,0.5501443147659302
1789324212154634000,4.565634033203125,0.14339639246463776,0.025121092796325684,0.817084550857544
1789324212173484300,4.584484375,0.04443913698196411,0.23708508908748627,0.9416974186897278
1789324212192334600,4.60333447265625,-0.014202198944985867,0.29267218708992004,1.058980107307434
1789324212211185000,4.622184814453125,-0.10766182839870453,0.35558944940567017,1.2324607372283936
1789324212230035200,4.64103515625,-0.18157434463500977,0.18333053588867188,1.4218233823776245
1789324212248885500,4.659885498046875,-0.18585027754306793,-0.06589514762163162,1.4975683689117432
1789324212267735800,4.67873583984375,-0.1901262104511261,-0.18439951539039612,1.4743561744689941
1789324212286586000,4.697586181640625,-0.19562382996082306,-0.2149418741464615,1.5372735261917114
1789324212305436400,4.7164365234375,-0.14248012006282806,-0.20761170983314514,1.65883207321167
1789324212324286700,4.73528662109375,-0.1375933438539505,0.00862821750342846,1.7443506717681885
1789324212343137000,4.754136962890625,-0.07895200699567795,0.07032378762960434,1.79932701587677
1789324212361987300,4.7729873046875,0.07803573459386826,0.04283566400408745,1.897749662399292
1789324212380837600,4.791837646484375,0.3480302393436432,0.026342788711190224,2.0119781494140625
1789324212399688000,4.81068798828125,0.5453338623046875,-0.06650599837303162,2.135369300842285
1789324212418538200,4.829538330078125,0.5984776020050049,-0.2381540685892105,2.2147793769836426
1789324212437388300,4.84838818359375,0.4671454429626465,-0.44278791546821594,2.183626174926758
1789324212456238800,4.86723876953125,0.44332239031791687,-0.44400960206985474,2.0840580463409424
1789324212484514000,4.89551416015625,0.40544986724853516,-0.48310381174087524,1.9111883640289307
1789324212503364400,4.9143642578125,0.2930539846420288,-0.8410603404045105,1.916685938835144
1789324212522214700,4.933214599609375,0.1495048701763153,-1.3602805137634277,1.8494163751602173
1789324212541065000,4.95206494140625,0.15805672109127045,-1.1098331212997437,1.7547351121902466
1789324212559915300,4.970915283203125,0.2557922899723053,-0.5900021195411682,1.7394639253616333
1789324212578765600,4.989765625,0.2808370292186737,-0.5490753054618835,1.4859622716903687
1789324212597615900,5.008615966796875,0.3229855000972748,-0.3322245478630066,1.1145671606063843
1789324212616466200,5.027466064453125,0.3345915973186493,-0.08910734206438065,0.7816554307937622
1789324212635316500,5.04631640625,0.25029465556144714,0.1008661538362503,0.5299863815307617
1789324212654166800,5.065166748046875,0.20875705778598785,0.3470376133918762,0.31863319873809814
1789324212673017000,5.08401708984375,0.19287502765655518,0.4911975562572479,0.14820681512355804
1789324212691867400,5.102867431640625,0.20692451298236847,0.4954734742641449,-0.1480541080236435
1789324212710717700,5.1217177734375,0.20631365478038788,0.6311579346656799,-0.5744255185127258
1789324212729568000,5.140568115234375,0.18737739324569702,0.8699992299079895,-0.9837695360183716
1789324212748418300,5.159418212890625,0.09086353331804276,1.075854778289795,-1.322178840637207
1789324212767268600,5.1782685546875,-0.01969982497394085,1.1039537191390991,-1.650203824043274
1789324212786119000,5.197118896484375,-0.06429167091846466,1.1760337352752686,-1.9837265014648438
1789324212804969200,5.21596923828125,-0.17057909071445465,1.2218471765518188,-2.2604403495788574
1789324212823819500,5.234819580078125,-0.31168481707572937,1.1638166904449463,-2.432699203491211
1789324212842669800,5.253669921875,-0.5633538961410522,0.9768974781036377,-2.4253690242767334
1789324212861520100,5.27252001953125,-0.8125795722007751,0.6635328531265259,-2.43636417388916
1789324212880370400,5.291370361328125,-0.9720106720924377,0.5235724449157715,-2.3887181282043457
1789324212899220700,5.310220703125,-0.9585720896720886,0.09475768357515335,-2.5035574436187744
1789324212918071000,5.329071044921875,-0.9097042679786682,-0.11842801421880722,-2.5823566913604736
1789324212936921300,5.34792138671875,-0.7710419297218323,-0.37620556354522705,-2.6324462890625
1789324212955771600,5.366771728515625,-0.5083776116371155,-0.5490753054618835,-2.7063586711883545
1789324212984047000,5.395047119140625,-0.14614520967006683,-0.5283065438270569,-2.574415683746338
1789324213002897400,5.4138974609375,0.007177455350756645,-0.5521295666694641,-2.3856639862060547
1789324213021747700,5.432747802734375,0.07314895838499069,-0.4733302593231201,-2.149266004562378
1789324213040598000,5.451597900390625,0.16172181069850922,-0.24426254630088806,-1.7784818410873413
1789324213059448300,5.4704482421875,0.3865135908126831,-0.14469444751739502,-1.2940798997879028
1789324213078298600,5.489298583984375,0.49707695841789246,-0.04512634128332138,-0.882979691028595
1789324213097149000,5.50814892578125,0.43049460649490356,0.14973393082618713,-0.5713712573051453
1789324213115999200,5.526999267578125,0.31443363428115845,0.13751699030399323,-0.21707984805107117
1789324213134849500,5.545849609375,0.21364383399486542,0.022066857665777206,0.23800136148929596
1789324213153699800,5.564699951171875,0.2441861927509308,0.07276718318462372,0.6576534509658813
1789324213172550100,5.583550048828125,0.2680092453956604,0.08437328040599823,0.9062682390213013
1789324213191400400,5.602400390625,0.23991025984287262,0.08742751181125641,1.0412654876708984
1789324213210250800,5.621250732421875,0.1763821393251419,0.034283801913261414,1.1261732578277588
1789324213229101000,5.64010107421875,0.0859767496585846,0.013514995574951172,1.2129136323928833
1789324213247951400,5.658951416015625,-0.023975754156708717,0.0165692325681448,1.294767141342163
1789324213266801700,5.6778017578125,-0.15469707548618317,0.14484715461730957,1.3515759706497192
1789324213285652000,5.69665185546875,-0.26159533858299255,0.24380441009998322,1.4364837408065796
1789324213304502300,5.715502197265625,-0.282364159822464,0.26457321643829346,1.608742594718933
1789324213323352600,5.7343525390625,-0.17057909071445465,0.22425730526447296,1.8109331130981445
1789324213342203000,5.753202880859375,-0.01847812905907631,0.13079766929149628,1.90813410282135
1789324213361053200,5.77205322265625,0.1378987729549408,0.06910209357738495,1.9001930952072144
1789324213379903500,5.790903564453125,0.20997874438762665,-0.03718532621860504,1.9570019245147705
1789324213398753800,5.80975390625,0.2912214398384094,-0.22349373996257782,2.0748953819274902
1789324213417604000,5.82860400390625,0.38162681460380554,-0.39025503396987915,2.1243741512298584
1789324213436454400,5.847454345703125,0.45920443534851074,-0.40186113119125366,2.178128719329834
1789324213455304700,5.8663046875,0.47203221917152405,-0.4623350203037262,2.299687147140503
1789324213483580200,5.894580078125,0.37002071738243103,-0.8477796316146851,2.2838051319122314
1789324213502430500,5.913430419921875,0.20570281147956848,-1.0365314483642578,2.195232391357422
1789324213521280800,5.93228076171875,-0.028251685202121735,-1.1941300630569458,2.1219305992126465
1789324213540131000,5.951131103515625,-0.22127941250801086,-1.0682954788208008,1.9301246404647827
1789324213558981400,5.9699814453125,-0.1772984117269516,-0.5564054846763611,1.5977473258972168
1789324213577831700,5.988831787109375,0.008399149402976036,-0.24243000149726868,1.3888375759124756
1789324213596682000,6.007681884765625,0.188599094748497,-0.12392564117908478,1.13228178024292
1789324213615532300,6.0265322265625,0.27411770820617676,-0.050013117492198944,0.7450045943260193
1789324213634382600,6.045382568359375,0.2276933193206787,0.04772244393825531,0.52571040391922
1789324213653233000,6.06423291015625,0.16721943020820618,0.008017370477318764,0.35955995321273804
1789324213672083200,6.083083251953125,0.1904316395521164,0.0293970238417387,0.07918107509613037
1789324213690933500,6.10193359375,0.14889401197433472,0.193104088306427,-0.2525089979171753
1789324213709783800,6.12078369140625,0.05543438717722893,0.3360423445701599,-0.5805339813232422
1789324213728634400,6.13963427734375,-0.021532366052269936,0.5523586273193359,-0.9104678630828857
1789324213747484700,6.158484619140625,-0.05268557742238045,0.728282630443573,-1.2940798997879028
1789324213766335000,6.1773349609375,-0.03802524134516716,0.9054283499717712,-1.6715835332870483
1789324213785185300,6.196185302734375,-0.10949437320232391,0.9756757616996765,-1.9030946493148804
1789324213804035600,6.21503564453125,-0.19684553146362305,1.0648595094680786,-2.1211671829223633
1789324213822886000,6.233885986328125,-0.337340384721756,1.1589299440383911,-2.2952585220336914
1789324213841736200,6.252736083984375,-0.5602996349334717,1.1100621223449707,-2.4058220386505127
1789324213860586500,6.27158642578125,-0.7643226385116577,0.7960866689682007,-2.4436943531036377
1789324213879436800,6.290436767578125,-0.9500201940536499,0.6055023670196533,-2.4583547115325928
1789324213898287000,6.309287109375,-1.0056072473526,0.30427828431129456,-2.5328781604766846
1789324213917137400,6.328137451171875,-1.0190459489822388,0.05932854115962982,-2.5964062213897705
1789324213935987700,6.34698779296875,-0.9787300229072571,-0.1336991935968399,-2.6141209602355957
1789324213954838000,6.365838134765625,-0.7618792653083801,-0.2900761067867279,-2.5731940269470215
1789324213983113500,6.394113525390625,-0.30435463786125183,-0.5136461853981018,-2.4406402111053467
1789324214001963800,6.4129638671875,-0.16874656081199646,-0.4855472147464752,-2.313584089279175
1789324214020814000,6.43181396484375,-0.12843063473701477,-0.4855472147464752,-2.0704667568206787
1789324214039664400,6.450664306640625,-0.06978929787874222,-0.29740625619888306,-1.805359125137329
1789324214058514700,6.4695146484375,0.25090551376342773,-0.23265644907951355,-1.3979239463806152
1789324214077365000,6.488364990234375,0.4359922409057617,-0.09277242422103882,-0.8646543025970459
1789324214096215300,6.50721533203125,0.34314343333244324,0.17783290147781372,-0.43881741166114807
1789324214115065600,6.526065673828125,0.21120044589042664,0.21570543944835663,-0.1083490327000618
1789324214133916000,6.544916015625,0.07986827939748764,0.11125055700540543,0.20012883841991425
1789324214152766200,6.56376611328125,0.07375980913639069,0.0025197449140250683,0.4664582312107086
1789324214171616500,6.582616455078125,0.12201674282550812,-0.011529741808772087,0.6680378317832947
1789324214190467000,6.601467041015625,0.14828316867351532,0.035505495965480804,0.8683957457542419
1789324214209317400,6.6203173828125,0.09269607067108154,0.05322006717324257,1.0259943008422852
1789324214228167700,6.639167724609375,0.01572931744158268,-0.09155073016881943,1.1390010118484497
1789324214247018000,6.65801806640625,-0.05512896552681923,-0.18134528398513794,1.2263522148132324
1789324214265868300,6.676868408203125,-0.0850604772567749,-0.23265644907951355,1.288658618927002
1789324214284718600,6.695718505859375,-0.0587940476834774,-0.08666395395994186,1.3521867990493774
1789324214303569000,6.71456884765625,0.013896775431931019,-0.012751436792314053,1.41021728515625
1789324214322419200,6.733419189453125,0.12995775043964386,0.013514995574951172,1.5274999141693115
1789324214341269500,6.75226953125,0.16050012409687042,0.09353598952293396,1.6844877004623413
1789324214360119800,6.771119873046875,0.15378080308437347,-0.04512634128332138,1.8604116439819336
1789324214378970000,6.78997021484375,0.2948864996433258,-0.15446799993515015,2.0547375679016113
1789324214397820400,6.8088203125,0.4891359508037567,-0.15507884323596954,2.12070894241333
1789324214416670700,6.827670654296875,0.5722111463546753,-0.2143310308456421,2.1628575325012207
1789324214435521000,6.84652099609375,0.4909684956073761,-0.37620556354522705,2.2514302730560303
1789324214454371600,6.86537158203125,0.35108447074890137,-0.3316137194633484,2.1824045181274414
1789324214482647000,6.89364697265625,0.2716743052005768,-0.44278791546821594,2.1249849796295166
1789324214501497300,6.912497314453125,0.27350685000419617,-0.8428928852081299,2.2263855934143066
1789324214520347600,6.93134765625,0.2533488869667053,-1.2692642211914062,2.1732418537139893
1789324214539198000,6.950197998046875,0.11407572776079178,-1.3108018636703491,2.0376336574554443
1789324214558048300,6.96904833984375,0.021837789565324783,-0.8874847292900085,1.9246269464492798
1789324214576898600,6.987898681640625,0.0841442123055458,-0.5490753054618835,1.696704626083374
1789324214595748900,7.006748779296875,0.13056860864162445,-0.4641675651073456,1.187258005142212
1789324214614599200,7.02559912109375,0.19592925906181335,-0.21738526225090027,0.7822662591934204
1789324214633449500,7.044449462890625,0.1763821393251419,0.03367295488715172,0.5196019411087036
1789324214652299800,7.0632998046875,0.07314895838499069,0.2578538954257965,0.3503972589969635
1789324214671150000,7.082150146484375,0.060932014137506485,0.21570543944835663,0.04375193640589714
1789324214690000400,7.10100048828125,0.10613471269607544,0.3006131947040558,-0.36062896251678467
1789324214708851000,7.119850830078125,0.06581879407167435,0.4307236671447754,-0.7253047823905945
1789324214727701200,7.138701171875,0.033443886786699295,0.6610894203186035,-0.9446752667427063
1789324214746551600,7.157551513671875,-0.037414394319057465,0.7734853625297546,-1.1645803451538086
1789324214765401900,7.17640185546875,-0.037414394319057465,0.913369357585907,-1.5573550462722778
1789324214784252200,7.195252197265625,-0.10338589549064636,1.0941801071166992,-1.909203052520752
1789324214803102500,7.2141025390625,-0.21883602440357208,1.0734113454818726,-2.134605646133423
1789324214821952800,7.232952880859375,-0.3214583694934845,0.9787300229072571,-2.3765013217926025
1789324214840803000,7.251802978515625,-0.5273138880729675,0.858393132686615,-2.4436943531036377
1789324214859653400,7.2706533203125,-0.7478297352790833,0.7356128096580505,-2.4571330547332764
1789324214878503700,7.289503662109375,-0.9103151559829712,0.5810684561729431,-2.3966591358184814
1789324214897354000,7.30835400390625,-0.881605327129364,0.13385190069675446,-2.52799129486084
1789324214916204300,7.327204345703125,-0.8009734749794006,-0.017027366906404495,-2.812035322189331
1789324214935054800,7.346054931640625,-0.7637118101119995,-0.18501035869121552,-2.9842941761016846
1789324214953905200,7.3649052734375,-0.5309789776802063,-0.3670428395271301,-2.9146575927734375
1789324214982180600,7.3931806640625,-0.06734590977430344,-0.5307499170303345,-2.525547981262207
1789324215001031000,7.412031005859375,-0.010537114925682545,-0.5735092163085938,-2.314805746078491
1789324215019881200,7.430881103515625,-0.01725643500685692,-0.33772218227386475,-1.9275285005569458
1789324215038731500,7.4497314453125,0.15683503448963165,-0.018249060958623886,-1.4516785144805908
1789324215057581800,7.468581787109375,0.2967190444469452,0.17111359536647797,-1.1450332403182983
1789324215076432100,7.48743212890625,0.32787227630615234,0.15706409513950348,-0.8102889060974121
1789324215095282400,7.506282470703125,0.2564031481742859,0.14851224422454834,-0.3954472541809082
1789324215114132700,7.5251328125,0.1244601309299469,0.12407834827899933,0.018096350133419037
1789324215142408200,7.553408203125,0.08047912269830704,0.27740100026130676,0.33329352736473083
1789324215161258500,7.572258544921875,0.12751436233520508,0.14545799791812897,0.5305972099304199
1789324215180109000,7.591109130859375,0.1360662281513214,-0.13003410398960114,0.804256796836853
1789324215198959400,7.60995947265625,0.1519482582807541,-0.05978667363524437,0.9844567179679871
1789324215217809700,7.6288095703125,0.1244601309299469,-0.10315682739019394,1.107847809791565
1789324215236660000,7.647659912109375,0.09391776472330093,-0.18134528398513794,1.242845058441162
1789324215255510300,7.66651025390625,0.06581879407167435,-0.08360971510410309,1.3607386350631714
1789324215274360600,7.685360595703125,0.0725381150841713,0.10636378079652786,1.3149250745773315
1789324215293211000,7.7042109375,0.034665580838918686,0.17294612526893616,1.3008755445480347
1789324215312061200,7.723061279296875,0.023059483617544174,0.030007870867848396,1.4425921440124512
1789324215330911500,7.741911376953125,0.09269607067108154,-0.17035003006458282,1.6453934907913208
1789324215349761800,7.76076171875,0.20020519196987152,-0.1624090075492859,1.751680850982666
1789324215368612000,7.779612060546875,0.23807771503925323,-0.12331479042768478,1.7718387842178345
1789324215387462400,7.79846240234375,0.24907296895980835,-0.09093988686800003,1.889197826385498
1789324215406313000,7.81731298828125,0.3578037917613983,-0.2515927255153656,2.0907773971557617
1789324215425163300,7.836163330078125,0.44515493512153625,-0.33466795086860657,2.1769068241119385
1789324215444013600,7.855013671875,0.4164451062679291,-0.32733777165412903,2.212946891784668
1789324215462864000,7.87386376953125,0.3608580231666565,-0.2821350693702698,2.2398242950439453
1789324215481714200,7.892714111328125,0.25945737957954407,-0.4458421468734741,2.1921780109405518
1789324215500564500,7.911564453125,0.16050012409687042,-0.884430468082428,2.1335368156433105
1789324215519414800,7.930414794921875,0.15866757929325104,-1.157479166984558,1.9851008653640747
1789324215538265000,7.94926513671875,0.13117945194244385,-0.982166051864624,1.8451404571533203
1789324215557115400,7.968115478515625,0.12140589207410812,-0.648643434047699,1.8060462474822998
1789324215575965700,7.986965576171875,0.13179029524326324,-0.6034407615661621,1.635619878768921
1789324215594816000,8.00581591796875,0.16111096739768982,-0.459280788898468,1.3521867990493774
1789324215613666300,8.024666259765626,0.1501157134771347,-0.19050799310207367,1.0510390996932983
1789324215632516900,8.043516845703126,0.09330692142248154,0.08376242965459824,0.7914289832115173
1789324215651367200,8.0623671875,0.0725381150841713,0.15584240853786469,0.4298073947429657
1789324215670217500,8.081217529296875,0.14339639246463776,0.21387289464473724,0.023593975231051445
1789324215689067800,8.10006787109375,0.19409671425819397,0.3244362473487854,-0.3728458881378174
1789324215707918000,8.11891796875,0.09452861547470093,0.5694623589515686,-0.662387490272522
1789324215726768400,8.137768310546875,-0.016034740954637527,0.7130114436149597,-0.9605573415756226
1789324215745618700,8.15661865234375,-0.023975754156708717,0.8907679915428162,-1.3875395059585571
1789324215764469000,8.175468994140624,-0.038636088371276855,0.9500201940536499,-1.7968071699142456
1789324215783319300,8.1943193359375,-0.10094250738620758,1.078908920288086,-2.0545847415924072
1789324215802169600,8.213169677734374,-0.26037365198135376,1.1094512939453125,-2.2262327671051025
1789324215821020000,8.23202001953125,-0.43324342370033264,1.0569185018539429,-2.3703927993774414
1789324215839870500,8.250870361328126,-0.668419599533081,0.9243646264076233,-2.349013090133667
1789324215858720800,8.269720703125,-0.8730534315109253,0.8767185211181641,-2.409487009048462
1789324215877571000,8.288571044921875,-1.05142080783844,0.6384881138801575,-2.4058220386505127
1789324215896421400,8.30742138671875,-1.0782980918884277,0.15217731893062592,-2.5292131900787354
1789324215915271700,8.326271728515625,-1.0508099794387817,0.01779092662036419,-2.6483283042907715
1789324215934122000,8.3451220703125,-0.8645015954971313,-0.1587439328432083,-2.597627878189087
1789324215952972300,8.36397216796875,-0.5609105229377747,-0.21799612045288086,-2.5585336685180664
1789324215981247700,8.392247802734374,-0.24693500995635986,-0.32306185364723206,-2.5585336685180664
1789324216000098000,8.41109814453125,-0.10766182839870453,-0.40491536259651184,-2.3740577697753906
1789324216018948400,8.4299482421875,0.059710320085287094,-0.2882435619831085,-2.0429787635803223
1789324216037798700,8.448798583984376,0.26190075278282166,0.000687203137204051,-1.64165198802948
1789324216056649000,8.46764892578125,0.23929941654205322,0.20959696173667908,-1.1548067331314087
1789324216075499500,8.48649951171875,0.11651911586523056,0.18455222249031067,-0.7308024168014526
1789324216094349800,8.505349853515625,0.020616095513105392,0.14606885612010956,-0.31053948402404785
1789324216113200000,8.5242001953125,0.11774080991744995,0.11369394510984421,0.09323056042194366
1789324216132050400,8.543050537109375,0.12262758612632751,0.22364644706249237,0.34428879618644714
1789324216150900700,8.561900634765625,0.11346487700939178,0.20837527513504028,0.5696914196014404
1789324216169751000,8.5807509765625,0.04871506989002228,0.11002886295318604,0.8238039016723633
1789324216188601300,8.599601318359374,0.013896775431931019,0.10025530308485031,1.0290485620498657
1789324216207451600,8.61845166015625,-0.06795676052570343,0.13140851259231567,1.145720362663269
1789324216226302000,8.637302001953126,-0.13270656764507294,-0.04085041210055351,1.2043616771697998
1789324216245152300,8.65615234375,-0.1522536724805832,-0.0683385357260704,1.2917128801345825
1789324216264002600,8.67500244140625,-0.1510319858789444,-0.0029778804164379835,1.3387480974197388
1789324216282852900,8.693852783203125,-0.10094250738620758,-0.06650599837303162,1.395556926727295
1789324216301703200,8.712703125,-0.03497100621461868,0.03367295488715172,1.503066062927246
1789324216320553500,8.731553466796875,0.019394399598240852,0.023899398744106293,1.6191270351409912
1789324216339403800,8.75040380859375,0.10857810080051422,-0.07566870748996735,1.7828340530395508
1789324216358254000,8.769254150390625,0.22280654311180115,-0.12759071588516235,1.8696507215499878
1789324216377104400,8.7881044921875,0.3064926266670227,-0.1465269923210144,1.8707960844039917
1789324216395954700,8.80695458984375,0.33764582872390747,-0.2118876427412033,1.9820466041564941
1789324216414805200,8.82580517578125,0.38223767280578613,-0.33955472707748413,2.1970648765563965
1789324216433655600,8.844655517578126,0.4537068009376526,-0.5533512830734253,2.314347505569458
1789324216452505900,8.863505859375,0.4769189953804016,-0.6712448000907898,2.308238983154297
1789324216480781300,8.89178125,0.3883461356163025,-0.7176691889762878,2.0492398738861084
1789324216499631600,8.910631591796875,0.25945737957954407,-1.2234506607055664,2.0095348358154297
1789324216518482000,8.92948193359375,0.19959434866905212,-1.3584479093551636,1.867130994796753
1789324216537332200,8.948332275390625,0.164165198802948,-0.7958576083183289,1.7724497318267822
1789324216556182500,8.9671826171875,0.270452618598938,-0.4513397812843323,1.8329235315322876
1789324216575032800,8.98603271484375,0.30343836545944214,-0.5631248354911804,1.594082236289978
1789324216593883100,9.004883056640624,0.2551814317703247,-0.48127129673957825,1.3106491565704346
1789324216612733400,9.0237333984375,0.18126893043518066,-0.15813308954238892,1.0602017641067505
1789324216631583700,9.042583740234376,0.12629267573356628,0.031229566782712936,0.6820873022079468
1789324216650434000,9.06143408203125,0.06704048812389374,0.193104088306427,0.3082487881183624
1789324216669284600,9.08028466796875,0.04504998400807381,0.19738002121448517,-0.10957072675228119
1789324216688135000,9.099135009765625,0.0462716780602932,0.29083964228630066,-0.4369848668575287
1789324216706985200,9.117985107421875,0.029167955741286278,0.3342097997665405,-0.6458946466445923
1789324216725835500,9.13683544921875,-0.023364907130599022,0.503414511680603,-0.8738170266151428
1789324216744685800,9.155685791015625,-0.07650861889123917,0.6232169270515442,-1.2171131372451782
1789324216763536100,9.1745361328125,-0.13270656764507294,0.6629219651222229,-1.5451381206512451
1789324216782386400,9.193386474609374,-0.2176143378019333,0.8510629534721375,-1.9134790897369385
1789324216801236700,9.21223681640625,-0.31351736187934875,1.055696725845337,-2.1822519302368164
1789324216820087000,9.231087158203126,-0.4411844313144684,1.251167893409729,-2.3881072998046875
1789324216838937300,9.249937255859376,-0.6617003083229065,1.164427638053894,-2.481566905975342
1789324216857787600,9.26878759765625,-0.8791618943214417,0.7313368916511536,-2.554868698120117
1789324216876638000,9.287637939453125,-1.0795198678970337,0.3134410083293915,-2.4803452491760254
1789324216895488300,9.30648828125,-1.0679137706756592,-0.12270393967628479,-2.6275594234466553
1789324216914338600,9.325338623046875,-1.000720500946045,-0.24853847920894623,-2.6635994911193848
1789324216933188900,9.34418896484375,-0.8174663186073303,-0.39330926537513733,-2.638554811477661
1789324216952039200,9.3630390625,-0.5254813432693481,-0.4000285863876343,-2.565863847732544
1789324216970889500,9.381889404296874,-0.2573194205760956,-0.4586699306964874,-2.476680278778076
1789324216989739800,9.40073974609375,-0.10277505218982697,-0.5600705742835999,-2.4137630462646484
1789324217008590000,9.419590087890626,0.18554484844207764,-0.5325824618339539,-2.212794303894043
1789324217027440400,9.4384404296875,0.40422818064689636,-0.4519506096839905,-1.8255170583724976
1789324217046290700,9.457290771484375,0.5160132050514221,-0.24304085969924927,-1.4156385660171509
1789324217065141000,9.47614111328125,0.40361732244491577,0.035505495965480804,-1.0381349325180054
1789324217083991600,9.494991455078125,0.2441861927509308,0.16011834144592285,-0.6477271914482117
1789324217102841900,9.513841796875,0.11651911586523056,0.07093463838100433,-0.18287239968776703
1789324217121692200,9.532692138671875,0.24479703605175018,0.09720107167959213,0.21478916704654694
1789324217140542500,9.55154248046875,0.37796175479888916,0.0031305921729654074,0.4267531633377075
1789324217159392800,9.570392822265624,0.39384377002716064,0.052609220147132874,0.6588751077651978
1789324217178243000,9.5892431640625,0.3358132839202881,-0.07078192383050919,0.9502492547035217
1789324217197093400,9.60809326171875,0.26434415578842163,-0.23571068048477173,1.214746117591858
1789324217215943700,9.626943603515626,0.17149536311626434,-0.2143310308456421,1.3057624101638794
1789324217234794000,9.6457939453125,0.10918894410133362,-0.3206184506416321,1.2153569459915161
1789324217253644300,9.664644287109375,0.08964183181524277,-0.23082390427589417,1.193366527557373
1789324217272494600,9.68349462890625,0.062153708189725876,-0.04146125912666321,1.2587270736694336
1789324217291345000,9.702344970703125,0.11774080991744995,0.00007635590736754239,1.3008755445480347
1789324217310195200,9.7211953125,0.16538690030574799,0.1295759677886963,1.3607386350631714
1789324217329045500,9.74004541015625,0.12812520563602448,-0.00908635277301073,1.539106011390686
1789324217347895800,9.758895751953125,0.19898349046707153,-0.32122930884361267,1.7883317470550537
1789324217366746000,9.77774609375,0.4665345847606659,-0.4482855200767517,2.0003721714019775
1789324217385596400,9.796596435546874,0.71453857421875,-0.29618456959724426,2.0730628967285156
1789324217404446700,9.81544677734375,0.7640172243118286,-0.1483595222234726,2.0956642627716064
1789324217423297000,9.834297119140626,0.6320741772651672,-0.2558686435222626,2.068176031112671
1789324217442147300,9.853147216796875,0.46897798776626587,-0.42873841524124146,2.0125889778137207
1789324217460997600,9.87199755859375,0.40422818064689636,-0.42690587043762207,1.996096134185791
1789324217479848000,9.890847900390625,0.28633466362953186,-0.8099071383476257,1.9948744773864746
1789324217498698200,9.9096982421875,0.1763821393251419,-1.074404001235962,1.985711693763733
1789324217517548500,9.928548583984375,0.19959434866905212,-0.8606074452400208,1.9417307376861572
1789324217536398800,9.94739892578125,0.3199312388896942,-0.6828508973121643,1.9869334697723389
1789324217555249200,9.966249267578124,0.33947837352752686,-0.833730161190033,1.9008039236068726
1789324217574099500,9.985099365234374,0.2967190444469452,-0.6468108892440796,1.496957540512085
1789324217602375000,10.013375,0.18676654994487762,-0.026190076023340225,0.8787801265716553
1789324217621225200,10.03222509765625,0.188599094748497,0.23891763389110565,0.6778113842010498
1789324217640075500,10.051075439453125,0.2313583940267563,0.32077115774154663,0.3613924980163574
1789324217658925800,10.06992578125,0.19409671425819397,0.3256579339504242,-0.031382277607917786
1789324217677776100,10.088776123046875,0.08047912269830704,0.5083012580871582,-0.37773266434669495
1789324217696626400,10.10762646484375,-0.01847812905907631,0.6678087711334229,-0.6379535794258118
1789324217715476700,10.126476806640625,-0.05085303261876106,0.6940752267837524,-0.9287932515144348
1789324217734327000,10.1453271484375,-0.004428642801940441,0.7728744745254517,-1.3069076538085938
1789324217753177300,10.16417724609375,-0.03802524134516716,0.8785510659217834,-1.6465387344360352
1789324217772027600,10.183027587890624,-0.18340688943862915,1.1094512939453125,-1.9269176721572876
1789324217790878000,10.2018779296875,-0.36543938517570496,1.3745590448379517,-2.099787473678589
1789324217809728300,10.220728271484376,-0.5829010009765625,1.3055332899093628,-2.238449811935425
1789324217828578600,10.23957861328125,-0.8938222527503967,1.0984560251235962,-2.276322364807129
1789324217847428900,10.258428955078125,-1.1558756828308105,0.8205205798149109,-2.3129732608795166
1789324217866279200,10.277279052734375,-1.3085875511169434,0.6586460471153259,-2.331298589706421
1789324217885129500,10.29612939453125,-1.2542221546173096,0.40140300989151,-2.4724042415618896
1789324217903979800,10.314979736328125,-1.1705360412597656,0.11674818396568298,-2.5359323024749756
1789324217922830000,10.333830078125,-1.0453124046325684,-0.18501035869121552,-2.6220619678497314
1789324217941680400,10.352680419921874,-0.7588250041007996,-0.31389912962913513,-2.785158157348633
1789324217960530700,10.37153076171875,-0.39231663942337036,-0.32489439845085144,-2.765610933303833
1789324217979381000,10.390381103515624,-0.19623468816280365,-0.39025503396987915,-2.4632415771484375
1789324217998231300,10.409231201171876,-0.22066856920719147,-0.37498384714126587,-2.0356485843658447
1789324218017081600,10.42808154296875,-0.14125843346118927,-0.22960221767425537,-1.6074445247650146
1789324218035932000,10.446931884765625,0.052990999072790146,0.04772244393825531,-1.2830846309661865
1789324218054782200,10.4657822265625,0.1256818175315857,0.217537984251976,-0.9605573415756226
1789324218073632300,10.48463232421875,0.1372879147529602,0.168670192360878,-0.5579326152801514
1789324218092482600,10.503482666015625,0.1635543555021286,-0.01763821393251419,-0.1608818918466568
1789324218111332900,10.522332763671875,0.21303297579288483,-0.03962871432304382,0.17386239767074585
1789324218130183200,10.54118310546875,0.2826695740222931,0.08498412370681763,0.44813281297683716
1789324218149033500,10.560033447265624,0.3333698809146881,0.09231429547071457,0.6888066530227661
1789324218167883800,10.5788837890625,0.30404922366142273,0.03184041380882263,0.9661312699317932
1789324218186734000,10.597734130859376,0.22219568490982056,-0.08666395395994186,1.2361258268356323
1789324218205584400,10.61658447265625,0.17149536311626434,-0.18073442578315735,1.3980003595352173
1789324218224434700,10.6354345703125,0.1256818175315857,-0.13919681310653687,1.3644037246704102
1789324218243285000,10.654284912109375,0.08842013776302338,-0.0683385357260704,1.3601278066635132
1789324218262135300,10.67313525390625,0.04932591691613197,0.18699561059474945,1.4328186511993408
1789324218280985600,10.691985595703125,0.014507622458040714,0.1656159609556198,1.473745346069336
1789324218299836000,10.7108359375,0.07375980913639069,0.11613733321428299,1.5849195718765259
1789324218318686200,10.729686279296875,0.11590826511383057,0.0025197449140250683,1.765730381011963
1789324218337536500,10.74853662109375,0.23196925222873688,-0.17645850777626038,1.8481947183609009
1789324218356386800,10.76738671875,0.3596363365650177,-0.2522035539150238,1.8824785947799683
1789324218375237000,10.786237060546876,0.4274403750896454,-0.3163425326347351,1.9472283124923706
1789324218394087400,10.80508740234375,0.41949936747550964,-0.27113983035087585,1.9985395669937134
1789324218412937500,10.8239375,0.4280512034893036,-0.32428354024887085,2.0400772094726562
1789324218431787800,10.842787841796875,0.41888850927352905,-0.36154523491859436,2.1182656288146973
1789324218450638000,10.86163818359375,0.3840702176094055,-0.43057096004486084,2.126817464828491
1789324218469488400,10.88048828125,0.3101576864719391,-0.7347729206085205,2.04862904548645
1789324218488338700,10.899338623046875,0.22586077451705933,-1.162976861000061,1.9527260065078735
1789324218507189000,10.91818896484375,0.14522893726825714,-1.209401249885559,1.7956619262695312
1789324218526039300,10.937039306640624,0.1507265567779541,-0.7445464730262756,1.6722707748413086
1789324218544889600,10.9558896484375,0.2044811248779297,-0.4629458785057068,1.6710489988327026
1789324218563740000,10.974739990234376,0.25029465556144714,-0.4519506096839905,1.4071630239486694
1789324218582590200,10.993590087890626,0.23807771503925323,-0.2882435619831085,1.151218056678772
1789324218601440500,11.0124404296875,0.11407572776079178,-0.08910734206438065,0.9588011503219604
1789324218620290800,11.031290771484375,0.05726693198084831,0.05138752609491348,0.6851415634155273
1789324218639140900,11.050140869140625,0.07681404054164886,0.08376242965459824,0.364446759223938
1789324218657991200,11.0689912109375,0.08231166750192642,0.15095563232898712,0.009544488042593002
1789324218676841500,11.087841552734375,0.029167955741286278,0.2602972984313965,-0.25983914732933044
1789324218695691800,11.10669189453125,-0.039857782423496246,0.5199073553085327,-0.5206709504127502
1789324218714542000,11.1255419921875,-0.14736689627170563,0.7582141757011414,-0.8182299137115479
1789324218733392400,11.144392333984374,-0.2304421216249466,0.9628480076789856,-1.1584718227386475
1789324218752242700,11.16324267578125,-0.27808821201324463,1.0349279642105103,-1.4657280445098877
1789324218771093000,11.182093017578126,-0.3110739588737488,1.1228899955749512,-1.8084132671356201
1789324218789943300,11.200943359375,-0.4387410581111908,1.1375503540039062,-2.0692451000213623
1789324218808793600,11.219793701171875,-0.5932853817939758,1.1314418315887451,-2.2579967975616455
1789324218827643600,11.2386435546875,-0.8913788795471191,1.0001096725463867,-2.2812089920043945
1789324218846494000,11.257493896484375,-1.1344960927963257,0.6916317939758301,-2.3129732608795166
1789324218865344300,11.27634423828125,-1.3000357151031494,0.5046361684799194,-2.23356294631958
1789324218884194600,11.295194580078125,-1.2530004978179932,0.12102411687374115,-2.3612301349639893
1789324218903044900,11.314044921875,-1.163205862045288,-0.00786465872079134,-2.5035574436187744
1789324218921895200,11.332895263671874,-1.055696725845337,-0.18378867208957672,-2.5438733100891113
1789324218940745500,11.351745361328126,-0.9005415439605713,-0.3584909737110138,-2.554868698120117
1789324218959595800,11.370595703125,-0.6201626658439636,-0.45683738589286804,-2.5389866828918457
1789324218978445800,11.38944580078125,-0.3336753249168396,-0.4519506096839905,-2.481566905975342
1789324218997296000,11.408296142578125,-0.19745637476444244,-0.35238251090049744,-2.28243088722229
1789324219016146400,11.427146484375,-0.1522536724805832,-0.2546469569206238,-1.928139328956604
1789324219034996700,11.445996826171875,0.008399149402976036,-0.07261446863412857,-1.5310887098312378
1789324219063272200,11.474272216796875,0.2429644912481308,0.048333290964365005,-0.9367342591285706
1789324219082122200,11.493122314453124,0.27656111121177673,0.13629528880119324,-0.5396072268486023
1789324219100972800,11.511972900390624,0.24052110314369202,-0.04512634128332138,-0.1602710485458374
1789324219119822800,11.53082275390625,0.1769929975271225,0.08254073560237885,0.17264071106910706
1789324219138673200,11.549673095703126,0.20020519196987152,0.011071606539189816,0.44874367117881775
1789324219157523500,11.5685234375,0.1898207813501358,-0.10498937219381332,0.7285116910934448
1789324219176373800,11.587373779296875,0.14461809396743774,-0.12759071588516235,0.9496384263038635
1789324219195224000,11.60622412109375,0.09025268256664276,-0.26075541973114014,1.1151779890060425
1789324219214074400,11.625074462890625,0.060932014137506485,-0.2271588295698166,1.2312389612197876
1789324219232924400,11.64392431640625,0.04810422286391258,-0.16973918676376343,1.2776633501052856
1789324219251774700,11.662774658203125,0.024281177669763565,-0.0817771777510643,1.322255253791809
1789324219270625000,11.681625,-0.0038177953101694584,-0.11109784245491028,1.4065521955490112
1789324219289475300,11.700475341796874,-0.016645587980747223,-0.11415208131074905,1.479853868484497
1789324219308325600,11.71932568359375,0.005955760832875967,-0.16485241055488586,1.5800328254699707
1789324219327175700,11.73817578125,0.09025268256664276,-0.16973918676376343,1.7101432085037231
1789324219346026000,11.75702587890625,0.20570281147956848,-0.14347274601459503,1.7761147022247314
1789324219364876300,11.775876220703125,0.32726141810417175,-0.17035003006458282,1.82559335231781
1789324219383726600,11.7947265625,0.46042612195014954,-0.29984965920448303,1.939898133277893
1789324219402577000,11.813576904296875,0.5306735634803772,-0.41529977321624756,2.083447217941284
1789324219421427000,11.832427001953125,0.5001311898231506,-0.5686224699020386,2.131704330444336
1789324219440277200,11.85127734375,0.4610369801521301,-0.6083275079727173,2.100551128387451
1789324219459127600,11.87012744140625,0.4647020399570465,-0.5264739990234375,2.0932209491729736
1789324219477977900,11.888977783203124,0.45676103234291077,-0.6071057915687561,2.1677441596984863
1789324219496828200,11.907828125,0.38162681460380554,-1.0114866495132446,2.1714093685150146
1789324219515678200,11.92667822265625,0.3052709102630615,-1.3718866109848022,2.0669543743133545
1789324219534528500,11.945528564453125,0.17393875122070312,-1.2130663394927979,1.867130994796753
1789324219553378800,11.96437890625,0.18676654994487762,-0.7109498381614685,1.7278578281402588
1789324219572229000,11.98322900390625,0.29916244745254517,-0.5154787302017212,1.528721570968628
1789324219591079200,12.0020791015625,0.3755183517932892,-0.45683738589286804,1.1243407726287842
1789324219609929500,12.020929443359375,0.32603973150253296,-0.1477486789226532,0.7920398116111755
1789324219638205000,12.049204833984374,0.26128992438316345,0.16256172955036163,0.4970006048679352
1789324219657055200,12.06805517578125,0.29794076085090637,0.1277434378862381,0.20135052502155304
1789324219675905500,12.086905517578124,0.23991025984287262,0.15584240853786469,-0.12423106282949448
1789324219694755600,12.105755615234376,0.12018419802188873,0.3012240529060364,-0.3441360890865326
1789324219713606000,12.12460595703125,0.021226942539215088,0.4979168772697449,-0.6764369606971741
1789324219741881300,12.15288134765625,0.04016320779919624,0.8199097514152527,-1.338060975074768
1789324219760731600,12.171731689453125,0.02489202655851841,1.0233218669891357,-1.6825788021087646
1789324219779581700,12.190581787109375,-0.12354385852813721,1.1008994579315186,-1.9360803365707397
1789324219798432000,12.209431884765625,-0.2554868757724762,1.1900831460952759,-2.1651480197906494
1789324219817282300,12.2282822265625,-0.3990359604358673,1.2542221546173096,-2.2922043800354004
1789324219836132400,12.24713232421875,-0.6036698222160339,1.210852026939392,-2.285485029220581
1789324219854982700,12.265982666015624,-0.7001836895942688,1.0330954790115356,-2.4204821586608887
1789324219873833000,12.2848330078125,-0.8199097514152527,0.6995728015899658,-2.461409091949463
1789324219892683300,12.303683349609376,-0.9713998436927795,0.25479966402053833,-2.5585336685180664
1789324219911533600,12.322533447265625,-1.0043855905532837,0.014125842601060867,-2.686811685562134
1789324219930383600,12.341383544921875,-0.8730534315109253,-0.11048699915409088,-2.6428306102752686
1789324219949234000,12.36023388671875,-0.5932853817939758,-0.09399411827325821,-2.577470064163208
1789324219968084200,12.379084228515625,-0.3067980408668518,-0.17584764957427979,-2.499892473220825
1789324219986934300,12.397934326171875,-0.19379130005836487,-0.2796916961669922,-2.4259798526763916
1789324220005784600,12.41678466796875,-0.08689302206039429,-0.37742725014686584,-2.3618409633636475
1789324220024635000,12.435634765625,0.04443913698196411,-0.3865899443626404,-2.154763698577881
1789324220043485200,12.454485107421876,0.19959434866905212,-0.2931303381919861,-1.6856330633163452
1789324220062335200,12.473335205078126,0.27595025300979614,-0.14164020121097565,-1.1169341802597046
1789324220081185500,12.492185546875,0.17027367651462555,0.13873867690563202,-0.5964159965515137
1789324220100035800,12.511035888671875,0.07986827939748764,0.16500511765480042,-0.2543415129184723
1789324220118886000,12.529885986328125,0.09575030952692032,0.13324105739593506,-0.008780929259955883
1789324220137736200,12.548736083984375,0.23685602843761444,0.11796987801790237,0.28992336988449097
1789324220156586500,12.56758642578125,0.3064926266670227,0.045889899134635925,0.5477009415626526
1789324220175436500,12.5864365234375,0.30282753705978394,0.047111593186855316,0.7352310419082642
1789324220194286800,12.605286865234374,0.23624517023563385,-0.06223006546497345,0.9416974186897278
1789324220213137200,12.62413720703125,0.17088451981544495,-0.14958122372627258,1.1377793550491333
1789324220231987200,12.6429873046875,0.11590826511383057,-0.04695888236165047,1.219632863998413
1789324220250837500,12.66183740234375,0.06765133142471313,-0.06528430432081223,1.2410125732421875
1789324220269687800,12.680687744140625,0.010842538438737392,0.07704310864210129,1.2587270736694336
1789324220288537900,12.699537841796875,-0.011147962883114815,0.06421531736850739,1.2965996265411377
1789324220307388200,12.71838818359375,0.06948387622833252,-0.15446799993515015,1.4413704872131348
1789324220326238500,12.737238525390625,0.2539597451686859,-0.08788564801216125,1.6062992811203003
1789324220345088500,12.756088623046875,0.39567631483078003,0.1143047958612442,1.667994737625122
1789324220363938800,12.774938720703124,0.40483900904655457,0.10758547484874725,1.6930395364761353
1789324220382789000,12.7937890625,0.34192174673080444,-0.08299887180328369,1.844529628753662
1789324220401639200,12.81263916015625,0.3755183517932892,-0.21982865035533905,1.977159857749939
1789324220420489500,12.831489501953126,0.4396573007106781,-0.3077906668186188,2.0553483963012695
1789324220439339800,12.85033984375,0.46164780855178833,-0.38781166076660156,2.096885919570923
1789324220458189800,12.86918994140625,0.44637662172317505,-0.39147675037384033,2.1225414276123047
1789324220477040000,12.8880400390625,0.36574479937553406,-0.5228089094161987,2.1457536220550537
1789324220495890400,12.906890380859375,0.2564031481742859,-0.9363524913787842,2.0901665687561035
1789324220514740500,12.925740478515625,0.19409671425819397,-1.0805124044418335,1.9722731113433838
1789324220533590800,12.9445908203125,0.1360662281513214,-0.7421030402183533,1.8506381511688232
1789324220552441000,12.963441162109374,0.19409671425819397,-0.6584169864654541,1.8115439414978027
1789324220571291100,12.982291015625,0.26128992438316345,-0.7054522037506104,1.6453934907913208
1789324220590141400,13.001141357421876,0.23502348363399506,-0.4488963782787323,1.3613494634628296
1789324220608991500,13.019991455078125,0.19409671425819397,-0.15691138803958893,1.0467631816864014
1789324220627841800,13.038841796875,0.1122431829571724,-0.05306735634803772,0.7144622206687927
1789324220646692000,13.057692138671875,0.06276455521583557,0.009849912486970425,0.35772743821144104
1789324220665542100,13.076542236328125,0.012064233422279358,0.18882815539836884,0.07857023179531097
1789324220684392400,13.095392333984375,-0.012369656935334206,0.3397074341773987,-0.1981435865163803
1789324220703242800,13.11424267578125,-0.03680354729294777,0.5150206089019775,-0.547548234462738
1789324220722092800,13.1330927734375,-0.13453911244869232,0.6879667043685913,-0.7986064553260803
1789324220740943000,13.151943115234374,-0.22066856920719147,0.7227849960327148,-1.0772291421890259
1789324220759793200,13.170793212890626,-0.27503398060798645,0.8296833038330078,-1.420525312423706
1789324220778643500,13.1896435546875,-0.36482852697372437,0.959793746471405,-1.7118993997573853
1789324220797493500,13.208493408203125,-0.5150969624519348,1.006829023361206,-1.9116464853286743
1789324220816343800,13.22734375,-0.6641436815261841,1.0434798002243042,-2.064969062805176
1789324220835193900,13.24619384765625,-0.8449544906616211,1.0972343683242798,-2.1211671829223633
1789324220854044200,13.265044189453125,-1.0337063074111938,0.8602256774902344,-2.238449811935425
1789324220872894500,13.28389453125,-1.1522105932235718,0.5719057321548462,-2.2897610664367676
1789324220891744500,13.30274462890625,-1.177255392074585,0.3897969126701355,-2.3386287689208984
1789324220910594800,13.3215947265625,-1.093569278717041,0.3384857475757599,-2.48523211479187
1789324220929444900,13.34044482421875,-0.9683456420898438,0.08070819079875946,-2.5707507133483887
1789324220948295200,13.359295166015626,-0.8058602213859558,-0.1880646049976349,-2.615342617034912
1789324220967145200,13.378145263671875,-0.5395308136940002,-0.3603235185146332,-2.574415683746338
1789324220985995500,13.39699560546875,-0.3049654960632324,-0.35177165269851685,-2.3997135162353516
1789324221004845800,13.415845703125,-0.1498102843761444,-0.2882435619831085,-2.210350751876831
1789324221023696000,13.43469580078125,-0.047798797488212585,-0.24120831489562988,-1.9599034786224365
1789324221042546200,13.453546142578125,0.0584886260330677,-0.1587439328432083,-1.5750696659088135
1789324221061396200,13.472396240234374,0.2038702666759491,-0.12453648447990417,-1.1548067331314087
1789324221080246500,13.49124658203125,0.36513394117355347,-0.04023956134915352,-0.7912762761116028
1789324221099096600,13.5100966796875,0.3865135908126831,0.08192989230155945,-0.42904382944107056
1789324221117947000,13.52894677734375,0.26373329758644104,0.18882815539836884,-0.07108735293149948
1789324221136797000,13.547796875,0.1635543555021286,0.1533990204334259,0.2844257652759552
1789324221155647200,13.566647216796875,0.10857810080051422,0.08987089991569519,0.5916818976402283
1789324221174497300,13.585497314453125,0.0719272643327713,0.028786176815629005,0.8048676252365112
1789324221193347600,13.60434765625,0.020616095513105392,-0.03901786729693413,0.961244523525238
1789324221212197600,13.62319775390625,0.0016798300202935934,-0.11354123055934906,1.1377793550491333
1789324221231048000,13.6420478515625,0.010842538438737392,-0.17584764957427979,1.2330715656280518
1789324221249898000,13.66089794921875,0.0065666078589856625,-0.15263545513153076,1.201918363571167
1789324221268748300,13.679748291015626,-0.009315420873463154,-0.11109784245491028,1.1738194227218628
1789324221287598300,13.698598388671876,0.0035123717971146107,-0.07627955079078674,1.2581162452697754
1789324221306448600,13.71744873046875,0.013285927474498749,-0.09155073016881943,1.4034979343414307
1789324221325298700,13.736298583984375,0.09575030952692032,-0.18501035869121552,1.5849195718765259
1789324221344149000,13.75514892578125,0.2032594233751297,-0.11354123055934906,1.7400747537612915
1789324221362999000,13.7739990234375,0.3199312388896942,-0.09765920788049698,1.7901642322540283
1789324221381849300,13.792849365234375,0.4121691882610321,-0.11598462611436844,1.8812568187713623
1789324221400699400,13.811699462890624,0.4928010404109955,-0.3187859058380127,2.071841239929199
1789324221419549700,13.8305498046875,0.5496098399162292,-0.5252522826194763,2.2294397354125977
1789324221438399700,13.849399658203126,0.5441122055053711,-0.4843255281448364,2.2251639366149902
1789324221457250000,13.86825,0.44576579332351685,-0.4507289230823517,2.154916524887085
1789324221485525200,13.896525146484375,0.20509196817874908,-0.7298861145973206,2.102994441986084
1789324221504375300,13.915375244140625,0.14645062386989594,-0.9363524913787842,1.985711693763733
1789324221523225600,13.9342255859375,0.1757712960243225,-0.8202915191650391,1.8824785947799683
1789324221542075600,13.95307568359375,0.2777827978134155,-0.5863370299339294,1.816430687904358
1789324221560926000,13.971926025390625,0.3058817684650421,-0.6303179860115051,1.741296410560608
1789324221579776000,13.99077587890625,0.2527380585670471,-0.6095492243766785,1.5220023393630981
1789324221598626000,14.0096259765625,0.23441264033317566,-0.4751628041267395,1.13228178024292
1789324221617476400,14.028476318359376,0.21425467729568481,-0.2137201875448227,0.7205706834793091
1789324221636326700,14.04732666015625,0.12995775043964386,-0.12270393967628479,0.38093963265419006
1789324221655176700,14.0661767578125,0.0584886260330677,-0.1593547761440277,0.16164545714855194
1789324221674026800,14.08502685546875,0.03161134570837021,-0.07627955079078674,-0.08269345015287399
1789324221692877000,14.103876953125,-0.022754060104489326,0.13324105739593506,-0.3862845301628113
1789324221711727000,14.12272705078125,-0.0978882759809494,0.3733040392398834,-0.7008708715438843
1789324221730577400,14.141577392578125,-0.16752485930919647,0.6537593007087708,-0.9220739603042603
1789324221749427500,14.160427490234374,-0.15408621728420258,0.9231429100036621,-1.2067288160324097
1789324221768277500,14.179277587890626,-0.14064757525920868,1.0611944198608398,-1.5255910158157349
1789324221787127800,14.1981279296875,-0.23410721123218536,1.0966235399246216,-1.8285713195800781
1789324221805977900,14.216977783203125,-0.3495573401451111,1.0642486810684204,-2.064969062805176
1789324221824828200,14.235828125,-0.5395308136940002,0.8919897079467773,-2.1761434078216553
1789324221843678200,14.25467822265625,-0.8357917666435242,0.6794148683547974,-2.245169162750244
1789324221862528300,14.2735283203125,-1.025765299797058,0.5688515305519104,-2.3648951053619385
1789324221881378600,14.292378662109375,-1.0764656066894531,0.37147149443626404,-2.3557324409484863
1789324221900228600,14.311228515625,-0.9866710305213928,0.2627406716346741,-2.4229257106781006
1789324221919078700,14.33007861328125,-0.8327375054359436,0.19004985690116882,-2.534099817276001
1789324221937929000,14.348928955078126,-0.6525375843048096,0.0489441379904747,-2.6434414386749268
1789324221956779000,14.367779052734376,-0.44423866271972656,-0.026190076023340225,-2.710634708404541
1789324221975629300,14.38662939453125,-0.19501298666000366,0.026342788711190224,-2.522493839263916
1789324221994479400,14.405479248046875,-0.03008422814309597,0.045889899134635925,-2.2757115364074707
1789324222013329400,14.424329345703125,-0.06306997686624527,-0.22349373996257782,-2.158428907394409
1789324222032179700,14.4431796875,-0.038636088371276855,-0.3859791159629822,-1.9770071506500244
1789324222051029800,14.46202978515625,0.15927842259407043,-0.07017108052968979,-1.7454960346221924
1789324222069879800,14.4808798828125,0.26067906618118286,-0.0561215914785862,-1.2879714965820312
1789324222088730000,14.499730224609374,0.24662958085536957,-0.02802261710166931,-0.760123074054718
1789324222107580200,14.518580078125,0.14706148207187653,-0.06772769242525101,-0.21585814654827118
1789324222126430200,14.53743017578125,0.11590826511383057,-0.17768019437789917,0.3137464225292206
1789324222145280500,14.556280517578125,0.13545538485050201,-0.036574479192495346,0.7132405042648315
1789324222164130600,14.575130615234375,0.23624517023563385,-0.0555107444524765,0.9765157103538513
1789324222182980600,14.593980712890625,0.26128992438316345,-0.021914144977927208,1.1506071090698242
1789324222201831000,14.612830810546875,0.2154763638973236,-0.02802261710166931,1.2727766036987305
1789324222220681000,14.631680908203125,0.13545538485050201,-0.03779617324471474,1.3686796426773071
1789324222239531000,14.650531005859374,0.04016320779919624,-0.1990598440170288,1.4658043384552002
1789324222258381000,14.669381103515626,0.0029015245381742716,-0.19111883640289307,1.528721570968628
1789324222277231400,14.6882314453125,-0.021532366052269936,-0.16546325385570526,1.5672049522399902
1789324222296081400,14.707081298828125,-0.005650337319821119,-0.005421269219368696,1.5873630046844482
1789324222314931500,14.725931396484375,-0.009315420873463154,0.1527881771326065,1.4517548084259033
1789324222333781800,14.74478173828125,0.12751436233520508,0.09292513877153397,1.4395378828048706
1789324222352631800,14.7636318359375,0.3480302393436432,-0.061619218438863754,1.6875419616699219
1789324222371481900,14.78248193359375,0.5361711978912354,-0.16424155235290527,1.783444881439209
1789324222390332200,14.801332275390624,0.4921901822090149,-0.23143476247787476,1.7223602533340454
1789324222409182200,14.82018212890625,0.34008920192718506,-0.4977641701698303,1.7315229177474976
1789324222428032300,14.8390322265625,0.30099499225616455,-0.5820610523223877,1.8567465543746948
1789324222446882300,14.85788232421875,0.35352784395217896,-0.6559736132621765,2.013810634613037
1789324222465732600,14.876732666015625,0.4152234196662903,-0.7555416822433472,2.1213197708129883
1789324222484582700,14.895582763671875,0.36574479937553406,-1.0114866495132446,2.2282180786132812
1789324222503432700,14.9144326171875,0.28572380542755127,-1.4586268663406372,2.1567490100860596
1789324222522282800,14.93328271484375,0.31321191787719727,-1.0609652996063232,1.9734947681427002
1789324222541133000,14.952133056640625,0.48486000299453735,-0.3945309817790985,1.8916412591934204
1789324222559983000,14.970983154296874,0.47203221917152405,-0.24792763590812683,1.774893045425415
1789324222578833200,14.989833251953126,0.31626617908477783,-0.276637464761734,1.4713020324707031
1789324222597683200,15.00868310546875,0.18432316184043884,-0.17706935107707977,1.1982532739639282
1789324222616533500,15.027533447265625,0.16599774360656738,-0.10010259598493576,0.8958838582038879
1789324222635383600,15.046383544921875,0.17393875122070312,0.019623467698693275,0.5977904200553894
1789324222654233600,15.065233642578125,0.20020519196987152,-0.024968381971120834,0.14942851662635803
1789324222673083600,15.084083740234375,0.11835165321826935,0.2315874695777893,-0.27266693115234375
1789324222691934000,15.102933837890625,0.04871506989002228,0.42156097292900085,-0.6245149374008179
1789324222710784000,15.121783935546874,-0.025808297097682953,0.6800256967544556,-0.9367342591285706
1789324222729634000,15.140634033203124,-0.08322793990373611,0.7496622800827026,-1.2708677053451538
1789324222748484000,15.159484130859376,-0.1632489264011383,1.0184351205825806,-1.554911732673645
1789324222767334100,15.178334228515626,-0.3080197274684906,1.0593618154525757,-1.8120783567428589
1789324222786184400,15.197184326171875,-0.4100312292575836,1.185807228088379,-2.044811248779297
1789324222805034500,15.216034423828125,-0.5541911721229553,0.9445225596427917,-2.2586076259613037
1789324222823884500,15.234884521484375,-0.8101361989974976,0.9353598356246948,-2.241503953933716
1789324222842734600,15.253734619140625,-0.9585720896720886,0.890157163143158,-2.447359561920166
1789324222861584600,15.272584716796874,-1.1326634883880615,0.8425110578536987,-2.4577438831329346
1789324222880434700,15.2914345703125,-1.1845855712890625,0.4252260625362396,-2.583578586578369
1789324222899285000,15.310284912109376,-1.0917367935180664,0.049554985016584396,-2.6690971851348877
1789324222918135000,15.329135009765626,-0.9054283499717712,-0.11231953650712967,-2.6807031631469727
1789324222936985000,15.347985107421875,-0.5254813432693481,-0.24792763590812683,-2.5505926609039307
1789324222955835100,15.366835205078125,-0.26159533858299255,-0.24914932250976562,-2.2983129024505615
1789324222984110300,15.3951103515625,-0.13331741094589233,-0.3603235185146332,-2.128497362136841
1789324223002960400,15.41396044921875,0.04504998400807381,-0.49287739396095276,-2.03076171875
1789324223021810400,15.432810546875,0.3333698809146881,-0.3169533610343933,-1.7149536609649658
1789324223040660500,15.451660400390624,0.4115583300590515,-0.28702184557914734,-1.243990421295166
1789324223059510500,15.470510498046876,0.3749074935913086,-0.19417306780815125,-0.8139539957046509
1789324223078360800,15.48936083984375,0.3046600818634033,-0.054899897426366806,-0.41560521721839905
1789324223097211000,15.5082109375,0.3205420970916748,0.18394137918949127,-0.04359922185540199
1789324223116061000,15.52706103515625,0.3211529552936554,0.22181391716003418,0.26610034704208374
1789324223134911000,15.545910888671875,0.20570281147956848,0.17294612526893616,0.6155049800872803
1789324223153761000,15.564760986328125,0.08658760040998459,-0.14041851460933685,0.8726716637611389
1789324223172611000,15.583611083984374,0.05665608495473862,-0.026190076023340225,1.0351570844650269
1789324223191461000,15.602461181640624,0.08842013776302338,-0.00908635277301073,1.0693644285202026
1789324223210311200,15.621311279296876,0.1238492801785469,0.07826480269432068,1.080359697341919
1789324223229161500,15.640161376953126,0.08842013776302338,0.07765395939350128,1.0809705257415771
1789324223248011500,15.659011474609375,0.0261137206107378,-0.08360971510410309,1.1347250938415527
1789324223266861600,15.677861572265625,0.06459710001945496,-0.09643751382827759,1.340580701828003
1789324223285711600,15.696711669921875,0.14339639246463776,-0.11720632016658783,1.594082236289978
1789324223304561700,15.715561767578125,0.30221667885780334,-0.059175826609134674,1.7956619262695312
1789324223323411700,15.73441162109375,0.346808522939682,-0.06284090876579285,1.8512489795684814
1789324223342261800,15.75326171875,0.36696648597717285,-0.1214822456240654,1.8707960844039917
1789324223361111800,15.77211181640625,0.39506545662879944,-0.10560022294521332,1.9087449312210083
1789324223379961900,15.7909619140625,0.45859357714653015,-0.21005509793758392,2.051072359085083
1789324223398812000,15.80981201171875,0.6058077812194824,-0.3981960713863373,2.1799612045288086
1789324223417662000,15.828661865234375,0.6259657144546509,-0.5863370299339294,2.2343266010284424
1789324223436512000,15.847511962890625,0.4500417113304138,-0.7390488386154175,2.1591923236846924
1789324223455362000,15.866362060546875,0.2802261710166931,-0.8544989824295044,2.03885555267334
1789324223483637200,15.89463720703125,0.05115845799446106,-1.1189957857131958,1.945395827293396
1789324223502487300,15.9134873046875,0.0981936976313591,-0.7604284882545471,1.958223581314087
1789324223521337300,15.93233740234375,0.28694549202919006,-0.574120044708252,1.9924310445785522
1789324223540187400,15.9511875,0.3321481943130493,-0.6535302400588989,1.6655514240264893
1789324223559037400,15.970037353515625,0.2722851634025574,-0.34993913769721985,1.3937243223190308
1789324223577887500,15.988887451171875,0.21303297579288483,-0.07750124484300613,1.0705862045288086
1789324223596737500,16.007737548828125,0.15988926589488983,-0.0029778804164379835,0.674146294593811
1789324223615587600,16.026587646484376,0.09513945877552032,0.09292513877153397,0.3113030195236206
1789324223634437600,16.045437744140624,0.026724567636847496,0.11186140775680542,0.02298312820494175
1789324223653287700,16.06428759765625,-0.02092151902616024,0.31832778453826904,-0.36429402232170105
1789324223672137700,16.0831376953125,-0.039857782423496246,0.3873535096645355,-0.606800377368927
1789324223690987800,16.10198779296875,-0.07528692483901978,0.548082709312439,-0.8689302206039429
1789324223709837800,16.120837890625,-0.15836215019226074,0.6629219651222229,-1.1114366054534912
1789324223728687900,16.13968798828125,-0.2438807636499405,0.858393132686615,-1.378376841545105
1789324223747538000,16.158537841796875,-0.3849864900112152,0.9994988441467285,-1.689298152923584
1789324223766388200,16.17738818359375,-0.5071559548377991,1.102121114730835,-1.9189766645431519
1789324223785238300,16.19623828125,-0.6476507782936096,1.1515997648239136,-2.1162803173065186
1789324223804088300,16.21508837890625,-0.8944330811500549,0.9390249252319336,-2.143768548965454
1789324223822938400,16.2339384765625,-1.099066972732544,0.7673768401145935,-2.2225677967071533
1789324223841788200,16.2527880859375,-1.1613733768463135,0.7319477200508118,-2.2897610664367676
1789324223860638200,16.27163818359375,-1.163205862045288,0.5083012580871582,-2.3471806049346924
1789324223879488300,16.29048828125,-1.1467130184173584,0.20837527513504028,-2.470571756362915
1789324223898338300,16.30933837890625,-1.0477557182312012,0.05566345527768135,-2.5188286304473877
1789324223917188400,16.328188232421876,-0.8107470273971558,0.030007870867848396,-2.42964506149292
1789324223936038400,16.347038330078124,-0.49616068601608276,-0.012751436792314053,-2.2689921855926514
1789324223954888400,16.365888427734376,-0.3452814221382141,-0.04634803533554077,-2.1327731609344482
1789324223983163600,16.39416357421875,-0.16752485930919647,-0.3737621605396271,-1.9421888589859009
1789324224002013400,16.413013427734374,0.07559234648942947,-0.380481481552124,-1.744274377822876
1789324224020863700,16.43186376953125,0.3101576864719391,-0.1343100368976593,-1.4370181560516357
1789324224039713500,16.450713623046877,0.35413870215415955,0.024510245770215988,-1.0766183137893677
1789324224058563600,16.4695634765625,0.19470755755901337,0.023288551717996597,-0.6104654669761658
1789324224077413600,16.48841357421875,-0.001374406274408102,0.012293301522731781,-0.10162971168756485
1789324224096263700,16.507263671875,0.01695101149380207,0.14729054272174835,0.31802234053611755
1789324224115113700,16.52611376953125,0.10796725004911423,0.1393495351076126,0.5776324272155762
1789324224133963800,16.5449638671875,0.10002623498439789,-0.00908635277301073,0.7682167887687683
1789324224152813800,16.563813720703124,0.07864658534526825,0.04100312292575836,0.9575794339179993
1789324224171664000,16.582663818359375,0.06826218217611313,0.058717694133520126,1.100517749786377
1789324224190514000,16.601513916015627,0.04077405482530594,0.11369394510984421,1.136557698249817
1789324224209364000,16.620364013671875,-0.05390727147459984,-0.0164165198802948,1.1390010118484497
1789324224228213800,16.6392138671875,-0.06795676052570343,-0.044515494257211685,1.256894588470459
1789324224247063800,16.658063720703126,-0.09361234307289124,-0.11048699915409088,1.3558518886566162
1789324224265913900,16.676913818359374,-0.06490252166986465,-0.15813308954238892,1.4468680620193481
1789324224284764000,16.695763916015625,-0.039857782423496246,-0.09155073016881943,1.591028094291687
1789324224303614000,16.714614013671873,0.06704048812389374,-0.1349208950996399,1.8115439414978027
1789324224322464000,16.733464111328125,0.2851129472255707,-0.23632153868675232,1.9001930952072144
1789324224341314000,16.75231396484375,0.5001311898231506,-0.3175642192363739,1.903247356414795
1789324224360164000,16.7711640625,0.5832064151763916,-0.2919086217880249,1.8231500387191772
1789324224379014000,16.790013916015624,0.5166240930557251,-0.3432198166847229,1.8182631731033325
1789324224397864000,16.808864013671876,0.3590254783630371,-0.6052733063697815,1.9649429321289062
1789324224416714000,16.8277138671875,0.31137940287590027,-0.8233457207679749,2.0266385078430176
1789324224435564000,16.84656396484375,0.40483900904655457,-0.746379017829895,1.9484500885009766
1789324224454414000,16.8654140625,0.3883461356163025,-1.1379320621490479,1.8219282627105713
1789324224482689000,16.89368896484375,0.28633466362953186,-1.5245983600616455,1.570870041847229
1789324224501539000,16.9125390625,0.3449759781360626,-1.1593117713928223,1.4615284204483032
1789324224520389000,16.93138916015625,0.399952232837677,-0.8135721683502197,1.5366625785827637
1789324224539239000,16.950239013671876,0.3718532621860504,-0.8490013480186462,1.465193510055542
1789324224558089000,16.9690888671875,0.3626905679702759,-0.6602495312690735,1.2074159383773804
1789324224576939000,16.98793896484375,0.25090551376342773,-0.38964420557022095,0.8647306561470032
1789324224595789000,17.0067890625,0.1256818175315857,-0.021914144977927208,0.6356629133224487
1789324224614639000,17.02563916015625,0.05360184609889984,0.21387289464473724,0.41942301392555237
1789324224633489200,17.0444892578125,0.15561333298683167,0.29083964228630066,0.23433628678321838
1789324224652339000,17.0633388671875,0.21364383399486542,0.4282802939414978,-0.09307785332202911
1789324224671189000,17.08218896484375,0.1904316395521164,0.4191175699234009,-0.44003909826278687
1789324224690039000,17.1010390625,0.08842013776302338,0.5101338028907776,-0.8738170266151428
1789324224708889000,17.11988916015625,-0.0844496339559555,0.8021951913833618,-1.2281084060668945
1789324224727739100,17.1387392578125,-0.18768282234668732,0.913369357585907,-1.49443781375885
1789324224746589000,17.1575888671875,-0.20539739727973938,1.1473238468170166,-1.7393875122070312
1789324224765439000,17.17643896484375,-0.2518217861652374,1.1827529668807983,-1.878660798072815
1789324224784289000,17.1952890625,-0.38009971380233765,1.1528215408325195,-2.108950138092041
1789324224803139000,17.21413916015625,-0.6238277554512024,0.8376243114471436,-2.172478199005127
1789324224821988900,17.23298876953125,-0.7893673777580261,0.9072608947753906,-2.3062539100646973
1789324224840839000,17.2518388671875,-0.9139801859855652,0.752105712890625,-2.4626307487487793
1789324224859689000,17.27068896484375,-1.0166025161743164,0.526626706123352,-2.4711825847625732
1789324224878539000,17.2895390625,-0.9445225596427917,0.26640576124191284,-2.638554811477661
1789324224897389000,17.30838916015625,-0.8388460278511047,0.3610870838165283,-2.6458849906921387
1789324224916238800,17.32723876953125,-0.695907711982727,0.1821088343858719,-2.6391656398773193
1789324224935089000,17.3460888671875,-0.4497362971305847,0.06910209357738495,-2.5725831985473633
1789324224953939000,17.36493896484375,-0.2011214643716812,-0.02435753494501114,-2.3911616802215576
1789324224982214000,17.3932138671875,-0.07589777559041977,-0.05856497958302498,-1.984337329864502
1789324225001064000,17.41206396484375,0.02733541466295719,-0.08299887180328369,-1.6679184436798096
1789324225038763800,17.449763671875,0.3242071866989136,-0.008475505746901035,-0.9208522439002991
1789324225057613800,17.46861376953125,0.3883461356163025,-0.023746687918901443,-0.5231143236160278
1789324225076463600,17.487463623046875,0.30099499225616455,-0.05673243850469589,-0.06253548711538315
1789324225095313700,17.506313720703126,0.19837264716625214,-0.06589514762163162,0.2978644073009491
1789324225114163700,17.525163818359374,0.08292251825332642,0.14606885612010956,0.5385382175445557
1789324225133013500,17.544013427734374,0.04199574887752533,-0.10254598408937454,0.7755469679832458
1789324225151863600,17.562863525390625,0.028557108715176582,0.00862821750342846,1.0406546592712402
1789324225170713600,17.581713623046873,0.07803573459386826,0.009849912486970425,1.2074159383773804
1789324225189563400,17.6005634765625,0.12201674282550812,-0.11659546941518784,1.1487746238708496
1789324225208413400,17.619413330078125,0.042606595903635025,-0.05856497958302498,1.284382700920105
1789324225227263500,17.638263427734376,-0.010537114925682545,-0.14897038042545319,1.5452145338058472
1789324225246113500,17.657113525390624,-0.01847812905907631,-0.010308047756552696,1.644782543182373
1789324225264963300,17.67596337890625,-0.06001574173569679,0.14545799791812897,1.5165046453475952
1789324225283813400,17.6948134765625,-0.049020491540431976,0.19004985690116882,1.507341980934143
1789324225302663200,17.7136630859375,0.01817270554602146,0.16011834144592285,1.599579930305481
1789324225321513200,17.73251318359375,0.18676654994487762,-0.0426829531788826,1.719916820526123
1789324225340363300,17.75136328125,0.3840702176094055,-0.2259371280670166,1.83536696434021
1789324225359213000,17.770213134765626,0.47386476397514343,-0.5221980214118958,1.9246269464492798
1789324225378063000,17.78906298828125,0.5050179958343506,-0.538080096244812,2.0028154850006104
1789324225396913200,17.8079130859375,0.5111264586448669,-0.6865159869194031,2.1543054580688477
1789324225415763000,17.826762939453126,0.5410579442977905,-0.6755207180976868,2.305795669555664
1789324225434613000,17.845613037109374,0.45615020394325256,-0.7353837490081787,2.288081169128418
1789324225453462800,17.864462890625,0.3901786804199219,-1.4170893430709839,2.293578863143921
1789324225472312800,17.883312744140625,0.4243861436843872,-1.6632606983184814,2.0211408138275146
1789324225491163000,17.902162841796876,0.4366030693054199,-0.935741662979126,1.7083107233047485
1789324225510012700,17.9210126953125,0.3248180150985718,-0.6510868072509766,1.591028094291687
1789324225528862700,17.93986279296875,0.2044811248779297,-0.7341620326042175,1.2813284397125244
1789324225547712800,17.958712646484376,0.2160872220993042,-0.6840725541114807,0.8989381194114685
1789324225566562600,17.9775625,0.20509196817874908,-0.4879906177520752,0.6662052869796753
1789324225585412600,17.99641259765625,0.21181128919124603,-0.48371466994285583,0.47317755222320557
1789324225604262400,18.015262451171875,0.21914145350456238,-0.33466795086860657,0.22822780907154083
1789324225623112400,18.034112548828126,0.10735640674829483,0.08620581775903702,0.05413633957505226
1789324225641962500,18.05296240234375,-0.05390727147459984,0.2731250822544098,-0.13644801080226898
1789324225660812300,18.071812255859374,-0.11682453751564026,0.5499152541160583,-0.30870693922042847
1789324225679662300,18.090662353515626,-0.12965233623981476,0.7459971904754639,-0.6605549454689026
1789324225698512100,18.10951220703125,-0.19867807626724243,1.070357084274292,-0.9031376838684082
1789324225717362200,18.128362060546873,-0.2573194205760956,1.1228899955749512,-1.1682454347610474
1789324225736212200,18.147212158203125,-0.28664007782936096,1.4307570457458496,-1.4956594705581665
1789324225755062000,18.16606201171875,-0.39353835582733154,1.4619102478027344,-1.8975969552993774
1789324225773912000,18.184912109375,-0.5841227173805237,1.2823210954666138,-2.2225677967071533
1789324225792761900,18.203761962890624,-0.8883246183395386,0.6586460471153259,-2.270824670791626
1789324225811612000,18.22261181640625,-1.0886825323104858,0.48814332485198975,-2.3844423294067383
1789324225830461700,18.241461669921875,-1.066081166267395,0.14545799791812897,-2.404600143432617
1789324225858736600,18.269736572265625,-0.8724426031112671,-0.14408360421657562,-2.618396759033203
1789324225877586700,18.288586669921877,-0.719730794429779,-0.2522035539150238,-2.6623778343200684
1789324225896436500,18.3074365234375,-0.43385425209999084,-0.31389912962913513,-2.579913377761841
1789324225915286500,18.32628662109375,-0.12781979143619537,-0.3328354060649872,-2.5121092796325684
1789324225934136300,18.34513623046875,0.14400723576545715,-0.2405974566936493,-2.4669065475463867
1789324225952986400,18.363986328125,0.2423536479473114,-0.26197710633277893,-2.314194917678833
1789324225971836200,18.382836181640624,0.26067906618118286,-0.33650049567222595,-2.163926362991333
1789324225990686200,18.401686279296875,0.2307475507259369,-0.35116082429885864,-1.9079813957214355
1789324226009536000,18.420535888671875,0.2948864996433258,-0.2143310308456421,-1.4241904020309448
1789324226028386000,18.439385986328126,0.35536038875579834,-0.09643751382827759,-0.8561024069786072
1789324226047235800,18.45823583984375,0.3474193811416626,0.04161396995186806,-0.3569638729095459
1789324226066086000,18.4770859375,0.26373329758644104,0.15156647562980652,0.008322793990373611
1789324226084935700,18.495935791015626,0.22036315500736237,0.22242476046085358,0.36750099062919617
1789324226103785500,18.514785400390625,0.22219568490982056,0.1405712217092514,0.7217923998832703
1789324226122635500,18.533635498046873,0.1751604527235031,0.03489464893937111,0.9087116718292236
1789324226141485600,18.552485595703125,0.09147437661886215,0.11308310180902481,1.008279800415039
1789324226160335400,18.57133544921875,-0.02214321307837963,0.027564482763409615,1.0889116525650024
1789324226179185400,18.590185302734376,-0.0856713280081749,0.022677704691886902,1.2190220355987549
1789324226198035200,18.60903515625,-0.18035265803337097,0.08742751181125641,1.3289746046066284
1789324226216885000,18.627885009765624,-0.15836215019226074,0.037948887795209885,1.366847038269043
1789324226235735000,18.646735107421875,-0.05329642444849014,0.009239064529538155,1.4535874128341675
1789324226254584800,18.665584716796875,0.16599774360656738,-0.030466007068753242,1.5849195718765259
1789324226273435000,18.684434814453127,0.4524851143360138,-0.01763821393251419,1.6826550960540771
1789324226292284700,18.70328466796875,0.5386145710945129,-0.03840702027082443,1.7968835830688477
1789324226311134700,18.722134765625,0.5428904891014099,-0.4861580729484558,1.9502825736999512
1789324226329984500,18.740984619140626,0.5740436911582947,-0.49348822236061096,2.0345795154571533
1789324226348834300,18.759834228515626,0.5935907959938049,-0.5484644770622253,1.9038581848144531
1789324226367684400,18.778684326171874,0.5373928546905518,-0.4653892517089844,1.8158198595046997
1789324226386534100,18.7975341796875,0.39078953862190247,-0.5728983879089355,1.7944401502609253
1789324226405384200,18.81638427734375,0.30404922366142273,-0.6339830756187439,1.8054354190826416
1789324226424234000,18.83523388671875,0.16966283321380615,-1.093340277671814,1.9783815145492554
1789324226443084000,18.854083984375,0.01817270554602146,-1.5074946880340576,1.9673863649368286
1789324226461933800,18.872933837890624,0.111632339656353,-1.1690852642059326,1.802381157875061
1789324226480783600,18.89178369140625,0.2576248347759247,-0.5197546482086182,1.8176523447036743
1789324226499633700,18.910633544921875,0.2545706033706665,-0.6883485317230225,1.8916412591934204
1789324226518483500,18.9294833984375,0.17149536311626434,-0.7390488386154175,1.6667730808258057
1789324226537333500,18.94833349609375,0.09697200357913971,-0.3145099878311157,1.1799278259277344
1789324226556183300,18.967183349609375,0.06154286116361618,-0.07566870748996735,0.8225821852684021
1789324226575033000,18.986033203125,0.04688252881169319,0.09475768357515335,0.39743250608444214
1789324226593883100,19.004883056640626,0.07009471952915192,0.2987806797027588,0.0028251686599105597
1789324226612733000,19.02373291015625,0.06154286116361618,0.4001813232898712,-0.1871483325958252
1789324226631582700,19.042582763671874,0.06826218217611313,0.34398335218429565,-0.45592111349105835
1789324226650432800,19.061432861328125,0.0029015245381742716,0.5975613594055176,-0.7766159176826477
1789324226669282600,19.080282470703125,-0.07834116369485855,0.5419742465019226,-1.201841950416565
1789324226688132600,19.099132568359376,-0.15286453068256378,0.8968765139579773,-1.5891191959381104
1789324226706982400,19.117982421875,-0.24449162185192108,0.9078717231750488,-1.8890451192855835
1789324226725832200,19.136832275390624,-0.3177932798862457,1.1509889364242554,-2.1248321533203125
1789324226744682200,19.15568212890625,-0.5016583204269409,1.1619842052459717,-2.2005772590637207
1789324226763532000,19.174531982421875,-0.6036698222160339,1.1271659135818481,-2.2402822971343994
1789324226782381800,19.1933818359375,-0.6629219651222229,0.9982771277427673,-2.51149845123291
1789324226801232000,19.21223193359375,-0.8186880350112915,0.47287213802337646,-2.620840072631836
1789324226820081700,19.23108154296875,-0.9335273504257202,0.26212984323501587,-2.8077595233917236
1789324226838931500,19.249931396484374,-0.8327375054359436,-0.05123481526970863,-2.8040943145751953
1789324226857781500,19.268781494140626,-0.5407525300979614,-0.07872293889522552,-2.6599342823028564
1789324226876631300,19.28763134765625,-0.23532891273498535,-0.0005344913806766272,-2.5640313625335693
1789324226895481000,19.306481201171874,-0.12110047042369843,-0.14286190271377563,-2.4137630462646484
1789324226914331100,19.3253310546875,0.052990999072790146,-0.20394663512706757,-2.2408931255340576
1789324226933181000,19.344180908203125,0.13484452664852142,-0.2650313675403595,-2.0209882259368896
1789324226952030700,19.36303076171875,0.20142687857151031,-0.24731677770614624,-1.7131211757659912
1789324226970880800,19.381880859375,0.2576248347759247,-0.17584764957427979,-1.258650779724121
1789324226989730600,19.40073046875,0.30343836545944214,-0.04695888236165047,-0.7992172837257385
1789324227008580400,19.419580322265624,0.2295258641242981,-0.07139277458190918,-0.36123979091644287
1789324227027430100,19.43843017578125,0.16966283321380615,-0.023746687918901443,0.005268557462841272
1789324227046280200,19.4572802734375,0.10857810080051422,-0.05734328553080559,0.32962843775749207
1789324227065130000,19.4761298828125,0.12751436233520508,0.08437328040599823,0.6613185405731201
1789324227083979800,19.494979736328126,0.14889401197433472,0.19676917791366577,1.004003882408142
1789324227102829800,19.513829833984374,0.18187977373600006,0.07154548168182373,1.2544511556625366
1789324227121679600,19.5326796875,0.2435753494501114,-0.1593547761440277,1.3686796426773071
1789324227140529400,19.551529296875,0.2686200737953186,-0.11537377536296844,1.3479108810424805
1789324227159379200,19.570379150390625,0.24846212565898895,-0.13919681310653687,1.3350830078125
1789324227178229200,19.589229248046873,0.13301199674606323,-0.029855160042643547,1.358295202255249
1789324227197079000,19.6080791015625,-0.017867282032966614,0.02817532978951931,1.4438138008117676
1789324227215928800,19.6269287109375,-0.04291202127933502,0.039170581847429276,1.5501012802124023
1789324227234778600,19.645778564453124,0.06642963737249374,0.14729054272174835,1.6936503648757935
1789324227253628700,19.664628662109376,0.23685602843761444,0.10819631814956665,1.8194849491119385
1789324227272478500,19.683478515625,0.42194274067878723,-0.1599656194448471,1.9252378940582275
1789324227291328300,19.702328369140623,0.529451847076416,-0.36582115292549133,2.0266385078430176
1789324227310178000,19.721177978515627,0.5557183027267456,-0.4763845205307007,2.0987184047698975
1789324227329027800,19.74002783203125,0.5111264586448669,-0.5203655362129211,2.1237633228302
1789324227347878000,19.7588779296875,0.4414898455142975,-0.5808393955230713,2.161635637283325
1789324227366727700,19.777727783203126,0.28999972343444824,-0.9901070594787598,2.195232391357422
1789324227385577500,19.796577392578126,0.188599094748497,-1.495888590812683,2.1646900177001953
1789324227404427300,19.81542724609375,0.05665608495473862,-1.4842824935913086,1.9942635297775269
1789324227423277000,19.834277099609373,0.009620844386518002,-1.0627979040145874,1.8971388339996338
1789324227442127000,19.853127197265625,0.07864658534526825,-0.8825979232788086,1.8378102779388428
1789324227460977000,19.871976806640625,0.111632339656353,-0.6987329125404358,1.5470470190048218
1789324227479826700,19.89082666015625,0.1256818175315857,-0.3145099878311157,1.2306281328201294
1789324227498676500,19.909676513671876,0.09575030952692032,-0.06223006546497345,0.946584165096283
1789324227517526300,19.9285263671875,0.07681404054164886,0.022677704691886902,0.6643727421760559
1789324227536376300,19.947376220703124,0.13973131775856018,0.05566345527768135,0.27892813086509705
1789324227555226000,19.96622607421875,0.0584886260330677,0.1143047958612442,0.0016034740256145597
1789324227574076000,19.985075927734375,-0.07101099193096161,0.18638476729393005,-0.2916032075881958
1789324227592925700,20.00392578125,-0.10644013434648514,0.37086063623428345,-0.6709393858909607
1789324227611775500,20.022775390625,-0.1119377613067627,0.6342121958732605,-1.0424108505249023
1789324227630625500,20.04162548828125,-0.1388150453567505,0.9616262912750244,-1.3881504535675049
1789324227649475300,20.060475341796874,-0.26342788338661194,1.1393828392028809,-1.6166073083877563
1789324227668325000,20.0793251953125,-0.41919392347335815,1.213906168937683,-1.8811041116714478
1789324227687175000,20.0981748046875,-0.5676298141479492,1.1851963996887207,-2.103452444076538
1789324227706024700,20.117024658203125,-0.8107470273971558,0.9518527388572693,-2.1627047061920166
1789324227724874500,20.13587451171875,-0.9775083065032959,0.8168554902076721,-2.3178598880767822
1789324227743724300,20.154724365234376,-1.0092723369598389,0.6891884207725525,-2.496838092803955
1789324227762574300,20.17357421875,-0.9738432168960571,0.3122192919254303,-2.4724042415618896
1789324227781424000,20.192424072265624,-0.8718317747116089,0.09842276573181152,-2.539597511291504
1789324227800274000,20.21127392578125,-0.7307260632514954,0.00129805039614439,-2.7063586711883545
1789324227819123700,20.230123779296875,-0.5181511640548706,-0.37437301874160767,-2.8309717178344727
1789324227837973500,20.248973388671875,-0.17913095653057098,-0.35360419750213623,-2.776606321334839
1789324227856823300,20.2678232421875,0.06826218217611313,-0.28641101717948914,-2.6690971851348877
1789324227875673000,20.286673095703126,0.14034216105937958,-0.22227205336093903,-2.3740577697753906
1789324227894523000,20.30552294921875,0.06704048812389374,-0.14958122372627258,-1.9458539485931396
1789324227913373000,20.324373046875,0.012675080448389053,-0.1624090075492859,-1.5805672407150269
1789324227932222700,20.34322265625,0.12140589207410812,-0.10498937219381332,-1.2042853832244873
1789324227951072500,20.362072509765625,0.3498627543449402,-0.23204560577869415,-0.6715502142906189
1789324227969922300,20.38092236328125,0.43232715129852295,-0.023746687918901443,-0.25556322932243347
1789324227988772000,20.399772216796876,0.39262208342552185,0.08070819079875946,0.05963396281003952
1789324228007622000,20.418621826171876,0.3089359998703003,0.12102411687374115,0.33023929595947266
1789324228026471700,20.4374716796875,0.2716743052005768,0.0037414394319057465,0.6118398904800415
1789324228045321500,20.456321533203123,0.2148655205965042,-0.2015032321214676,0.8897753953933716
1789324228064171300,20.475171142578127,0.14339639246463776,-0.3279486298561096,1.141444444656372
1789324228083021000,20.49402099609375,0.1519482582807541,-0.40552622079849243,1.2116918563842773
1789324228101870800,20.512870849609374,0.1513374149799347,-0.22838051617145538,1.1945881843566895
1789324228120720600,20.531720703125,0.13362284004688263,0.08009734749794006,1.2636139392852783
1789324228139570400,20.5505703125,0.12934690713882446,0.1808871477842331,1.429153561592102
1789324228158420500,20.56942041015625,0.17393875122070312,-0.018249060958623886,1.6160727739334106
1789324228177270300,20.588270263671873,0.2973299026489258,-0.1617981642484665,1.7186951637268066
1789324228196120000,20.6071201171875,0.41705596446990967,-0.1856212168931961,1.7541242837905884
1789324228214969900,20.625969970703125,0.45615020394325256,-0.3303920030593872,1.8304802179336548
1789324228233819600,20.644819580078124,0.49585527181625366,-0.4983749985694885,1.9588344097137451
1789324228252669400,20.66366943359375,0.5557183027267456,-0.5557946562767029,2.1048269271850586
1789324228271519200,20.682519287109375,0.576487123966217,-0.45744824409484863,2.155527353286743
1789324228290369000,20.701369140625,0.4921901822090149,-0.4763845205307007,2.1567490100860596
1789324228309218800,20.72021875,0.43049460649490356,-0.4983749985694885,2.1915671825408936
1789324228328068600,20.739068603515626,0.42072105407714844,-0.6883485317230225,2.235548257827759
1789324228346918400,20.75791845703125,0.41888850927352905,-1.0774582624435425,2.175074338912964
1789324228365768200,20.776768310546874,0.3223746418952942,-1.2356677055358887,1.9704405069351196
1789324228384618000,20.795617919921874,0.2673983871936798,-0.8777111768722534,1.7351880073547363
1789324228412892700,20.823892578125,0.39506545662879944,-0.5619031190872192,1.6020232439041138
1789324228431742500,20.842742431640627,0.3620797097682953,-0.5790068507194519,1.336304783821106
1789324228450592300,20.86159228515625,0.2808370292186737,-0.4605024755001068,0.9203177690505981
1789324228469442000,20.880442138671874,0.21853061020374298,-0.2387649267911911,0.5764107704162598
1789324228488291800,20.899291748046874,0.1916533261537552,-0.031076854094862938,0.3076379597187042
1789324228507141600,20.9181416015625,0.10674555599689484,0.09475768357515335,0.033978380262851715
1789324228525991400,20.936991455078125,0.04993676394224167,0.2853420376777649,-0.2659476399421692
1789324228544841200,20.95584130859375,-0.013591351918876171,0.5223507881164551,-0.5469373464584351
1789324228563691000,20.97469091796875,-0.055739812552928925,0.7960866689682007,-0.8780929446220398
1789324228582540800,20.993540771484376,-0.09116895496845245,1.139993667602539,-1.233605980873108
1789324228601390600,21.012390625,-0.16141638159751892,1.297592282295227,-1.5475815534591675
1789324228620240400,21.031240478515624,-0.24998924136161804,1.320804476737976,-1.8511725664138794
1789324228639090200,21.050090087890624,-0.3477247953414917,1.3476817607879639,-2.1596505641937256
1789324228657940000,21.06893994140625,-0.5719057321548462,1.240783452987671,-2.273267984390259
1789324228676789800,21.087789794921875,-0.9341381788253784,1.075854778289795,-2.1969120502471924
1789324228695639600,21.1066396484375,-1.0709679126739502,0.9164236187934875,-2.3789446353912354
1789324228714489300,21.1254892578125,-1.1235008239746094,0.6873558759689331,-2.403989315032959
1789324228733339100,21.144339111328126,-1.1192249059677124,0.42461520433425903,-2.5151636600494385
1789324228752189000,21.16318896484375,-1.0294303894042969,0.21265120804309845,-2.675816535949707
1789324228771038500,21.18203857421875,-0.8290724158287048,-0.06650599837303162,-2.68803334236145
1789324228789888300,21.20088818359375,-0.5108210444450378,-0.25892287492752075,-2.6428306102752686
1789324228808738000,21.219738037109376,-0.284196674823761,-0.26991814374923706,-2.51149845123291
1789324228827587800,21.238587890625,-0.1754658818244934,-0.28396761417388916,-2.28243088722229
1789324228846437600,21.257437744140624,-0.072232685983181,-0.3071798086166382,-1.9586817026138306
1789324228865287400,21.276287353515624,0.09697200357913971,-0.1990598440170288,-1.637376070022583
1789324228884137200,21.29513720703125,0.2686200737953186,-0.03168770298361778,-1.3356175422668457
1789324228902987000,21.313987060546875,0.2582356929779053,0.040392275899648666,-0.9239065051078796
1789324228921836800,21.3328369140625,0.18554484844207764,0.15584240853786469,-0.5231143236160278
1789324228940686600,21.3516865234375,0.12873606383800507,0.3091650605201721,-0.18042901158332825
1789324228959536400,21.370536376953126,0.10002623498439789,0.2731250822544098,0.09872818738222122
1789324228978386200,21.38938623046875,0.1513374149799347,0.141182079911232,0.3351260721683502
1789324228997235700,21.408235595703125,0.20570281147956848,0.0623827762901783,0.5776324272155762
1789324229016085500,21.42708544921875,0.24052110314369202,0.007406522985547781,0.8464052081108093
1789324229034935300,21.445935302734377,0.20997874438762665,0.004352286923676729,1.0504282712936401
1789324229053785000,21.46478515625,0.13240113854408264,-0.08788564801216125,1.141444444656372
1789324229072635000,21.483634765625,0.05115845799446106,-0.034131091088056564,1.2275738716125488
1789324229091484700,21.502484619140624,0.009009997360408306,0.06055023521184921,1.4175474643707275
1789324229110334500,21.52133447265625,0.02367033064365387,0.13507360219955444,1.5861412286758423
1789324229129184300,21.540184326171875,0.08353336155414581,0.1277434378862381,1.6985371112823486
1789324229148033800,21.55903369140625,0.19348587095737457,0.024510245770215988,1.7480157613754272
1789324229176308500,21.58730859375,0.37979426980018616,-0.2680855989456177,1.8567465543746948
1789324229195158300,21.606158203125,0.4402681589126587,-0.28457847237586975,1.9008039236068726
1789324229214008000,21.625008056640624,0.4622586667537689,-0.29740625619888306,1.9820466041564941
1789324229232857900,21.64385791015625,0.44454410672187805,-0.41652145981788635,2.0816147327423096
1789324229251707600,21.662707763671875,0.4396573007106781,-0.5472427606582642,2.1512513160705566
1789324229270557200,21.68155712890625,0.4390464723110199,-0.5838935971260071,2.198286533355713
1789324229289407000,21.700406982421875,0.3834593594074249,-0.8129613399505615,2.1445319652557373
1789324229308256800,21.7192568359375,0.31443363428115845,-1.2069578170776367,2.0376336574554443
1789324229327106600,21.7381064453125,0.2832804024219513,-1.1275477409362793,1.8971388339996338
1789324229345956400,21.756956298828126,0.2423536479473114,-0.8135721683502197,1.8280367851257324
1789324229364806000,21.775805908203125,0.21975229680538177,-0.773867130279541,1.7638977766036987
1789324229383655700,21.79465576171875,0.23807771503925323,-0.773867130279541,1.5555988550186157
1789324229402505500,21.81350537109375,0.266176700592041,-0.5105919241905212,1.2226871252059937
1789324229421355300,21.832355224609376,0.18798823654651642,-0.2528144121170044,0.8971055746078491
1789324229440205000,21.851205078125,0.09636115282773972,-0.18501035869121552,0.6521558165550232
1789324229459054800,21.870054931640624,0.021226942539215088,-0.09949174523353577,0.5079958438873291
1789324229477904400,21.888904296875,0.02244863659143448,-0.029855160042643547,0.19646374881267548
1789324229496754200,21.907754150390623,0.02244863659143448,0.11002886295318604,-0.24517881870269775
1789324229515604000,21.92660400390625,-0.04474456235766411,0.34459421038627625,-0.6422295570373535
1789324229534453800,21.945453857421874,-0.12720894813537598,0.6342121958732605,-0.883590579032898
1789324229553303600,21.964303466796874,-0.20539739727973938,0.8290724158287048,-1.157250165939331
1789324229581578000,21.992577880859375,-0.3220692276954651,1.1137272119522095,-1.7076234817504883
1789324229600427800,22.011427734375,-0.4546230733394623,1.2462811470031738,-1.966011881828308
1789324229619277600,22.030277587890627,-0.62627112865448,1.2438377141952515,-2.1620938777923584
1789324229638127400,22.04912744140625,-0.8614473342895508,1.0966235399246216,-2.146211862564087
1789324229666401800,22.07740185546875,-1.172979474067688,0.7459971904754639,-2.3758904933929443
1789324229685251600,22.09625146484375,-1.3043116331100464,0.45088163018226624,-2.389328956604004
1789324229704101400,22.115101318359375,-1.240783452987671,0.22670069336891174,-2.4840104579925537
1789324229722951200,22.133951171875,-1.1051753759384155,0.15645325183868408,-2.5444841384887695
1789324229741800700,22.15280078125,-0.9170344471931458,0.012904148548841476,-2.543262481689453
1789324229760650500,22.171650390625,-0.6360446810722351,-0.18012358248233795,-2.600682258605957
1789324229779500300,22.190500244140626,-0.3880407214164734,-0.2668638825416565,-2.5499818325042725
1789324229798350000,22.20935009765625,-0.2420482337474823,-0.2387649267911911,-2.340461254119873
1789324229817199600,22.22819970703125,-0.1901262104511261,-0.25709033012390137,-1.956849217414856
1789324229836049400,22.24704931640625,-0.14553436636924744,-0.19661645591259003,-1.4791666269302368
1789324229854899200,22.265899169921877,-0.058183200657367706,-0.036574479192495346,-1.0222529172897339
1789324229873749000,22.2847490234375,0.12751436233520508,0.08192989230155945,-0.6061895489692688
1789324229892598500,22.3035986328125,0.21364383399486542,0.08315158635377884,-0.23540526628494263
1789324229911448300,22.3224482421875,0.2667875289916992,0.06665870547294617,0.09506310522556305
1789324229930298000,22.341298095703124,0.2582356929779053,0.043446511030197144,0.32840675115585327
1789324229949147600,22.360147705078123,0.2667875289916992,-0.03352024406194687,0.5501443147659302
1789324229967997400,22.37899755859375,0.28877803683280945,0.04527905210852623,0.812808632850647
1789324229986847200,22.39784716796875,0.25212720036506653,-0.0426829531788826,1.0779163837432861
1789324230005696800,22.41669677734375,0.17088451981544495,-0.19600561261177063,1.2373474836349487
1789324230024546600,22.435546630859374,0.09941539168357849,-0.3578801453113556,1.2550621032714844
1789324230043396400,22.454396240234374,0.10796725004911423,-0.34932827949523926,1.2678898572921753
1789324230062246000,22.473245849609373,0.13117945194244385,-0.1361425817012787,1.358295202255249
1789324230081095700,22.492095703125,0.1763821393251419,-0.028633465990424156,1.5110070705413818
1789324230099945500,22.510945556640625,0.20875705778598785,-0.06589514762163162,1.580643653869629
1789324230118795000,22.529794921875,0.30099499225616455,-0.18134528398513794,1.589806318283081
1789324230137644800,22.548644775390624,0.42927291989326477,-0.3200076222419739,1.6899852752685547
1789324230156494600,22.56749462890625,0.5844281315803528,-0.49532076716423035,1.9295138120651245
1789324230175344000,22.58634423828125,0.7212579250335693,-0.4904339909553528,2.148808002471924
1789324230194194000,22.60519384765625,0.7670714259147644,-0.5649573802947998,2.218444585800171
1789324230213043700,22.624043701171875,0.6907155513763428,-0.6773532629013062,2.2050058841705322
1789324230231893200,22.642893310546874,0.5819846987724304,-0.7054522037506104,2.1933999061584473
1789324230250743000,22.661742919921874,0.4921901822090149,-0.8667159080505371,2.204395055770874
1789324230269592800,22.6805927734375,0.3859027624130249,-1.3065259456634521,2.1127679347991943
1789324230288442400,22.6994423828125,0.23319093883037567,-1.4354146718978882,1.854303240776062
1789324230307292200,22.718292236328125,0.2545706033706665,-0.9833877086639404,1.6563886404037476
1789324230326142000,22.737141845703125,0.37918344140052795,-0.8025769591331482,1.6600537300109863
1789324230344991500,22.755991455078124,0.3706315755844116,-0.8575531840324402,1.6240137815475464
1789324230363841300,22.77484130859375,0.3480302393436432,-0.5832827687263489,1.3485217094421387
1789324230382691000,22.793691162109376,0.31687700748443604,-0.23021306097507477,1.0382112264633179
1789324230401540600,22.81254052734375,0.23746687173843384,-0.05062396824359894,0.7596648931503296
1789324230420390400,22.831390380859375,0.16905197501182556,0.06360447406768799,0.3650575876235962
1789324230439240200,22.850240234375,0.13240113854408264,0.23525254428386688,-0.0949103906750679
1789324230458089700,22.86908984375,0.08231166750192642,0.43561044335365295,-0.47119230031967163
1789324230486364400,22.897364501953124,0.06642963737249374,0.7673768401145935,-0.9538379907608032
1789324230505214000,22.9162138671875,0.032222192734479904,0.8486195802688599,-1.2372710704803467
1789324230524063700,22.935063720703123,-0.06184828653931618,1.0721896886825562,-1.4974920749664307
1789324230542913500,22.95391357421875,-0.20051060616970062,1.168703556060791,-1.6947957277297974
1789324230561763000,22.97276318359375,-0.33001023530960083,1.2053543329238892,-1.9599034786224365
1789324230580612900,22.99161279296875,-0.43568679690361023,1.265828251838684,-2.2005772590637207
1789324230599462400,23.01046240234375,-0.6311579346656799,1.149767279624939,-2.291593551635742
1789324230618312200,23.029312255859374,-0.9744541049003601,1.0422581434249878,-2.300145387649536
1789324230637161700,23.04816162109375,-1.1735903024673462,0.9604045748710632,-2.513942003250122
1789324230656011500,23.067011474609377,-1.2413944005966187,0.6739172339439392,-2.5127201080322266
1789324230674861300,23.085861328125,-1.2102410793304443,0.3897969126701355,-2.6434414386749268
1789324230693710800,23.1047109375,-1.0404255390167236,0.09292513877153397,-2.725295066833496
1789324230712560600,23.123560546875,-0.7618792653083801,-0.10010259598493576,-2.814478635787964
1789324230731410200,23.14241015625,-0.3855973184108734,-0.09949174523353577,-2.8047051429748535
1789324230750260000,23.161260009765623,-0.14736689627170563,0.04772244393825531,-2.6342787742614746
1789324230769109500,23.180109619140627,-0.11499200016260147,-0.04146125912666321,-2.3050320148468018
1789324230787959300,23.198959228515626,0.030389651656150818,-0.11415208131074905,-1.831014633178711
1789324230806809000,23.21780908203125,0.2301367074251175,0.04405735805630684,-1.3991456031799316
1789324230825658600,23.23665869140625,0.33764582872390747,0.15217731893062592,-1.0650122165679932
1789324230844508400,23.25550830078125,0.31443363428115845,0.0489441379904747,-0.7246938943862915
1789324230863358000,23.27435791015625,0.1757712960243225,0.05444176122546196,-0.3282540440559387
1789324230882207700,23.293207763671877,0.08964183181524277,0.037948887795209885,0.09139802306890488
1789324230901057300,23.312057373046876,0.12751436233520508,0.1259108930826187,0.5049416422843933
1789324230919907000,23.330906982421876,0.15744587779045105,0.14667969942092896,0.8427401781082153
1789324230938756600,23.349756591796876,0.19959434866905212,0.141182079911232,1.0467631816864014
1789324230957606400,23.3686064453125,0.20692451298236847,0.14423631131649017,1.1762627363204956
1789324230985880800,23.396880859375,0.08658760040998459,-0.10560022294521332,1.378453254699707
1789324231004730600,23.415730712890625,0.004123218823224306,-0.3187859058380127,1.5329976081848145
1789324231023580200,23.434580078125,0.018783552572131157,-0.31206658482551575,1.576367735862732
1789324231042430000,23.453429931640624,0.04993676394224167,-0.10987614840269089,1.558042287826538
1789324231061279500,23.472279541015624,0.1104106456041336,0.16195088624954224,1.6276788711547852
1789324231080129300,23.49112939453125,0.14278554916381836,0.21326205134391785,1.7443506717681885
1789324231098978800,23.509978759765627,0.23319093883037567,-0.0023670331574976444,1.8696507215499878
1789324231117828600,23.52882861328125,0.39140036702156067,-0.20394663512706757,1.9698296785354614
1789324231136678100,23.54767822265625,0.5648810267448425,-0.1752368062734604,2.117654800415039
1789324231155528000,23.56652783203125,0.7017107605934143,-0.2149418741464615,2.2208878993988037
1789324231174377500,23.58537744140625,0.6675033569335938,-0.4617241621017456,2.219055414199829
1789324231193227300,23.604227294921873,0.5318952798843384,-0.6981220841407776,2.1891238689422607
1789324231212076800,23.623076904296877,0.50196373462677,-0.750654935836792,2.0932209491729736
1789324231230926600,23.641926513671876,0.5496098399162292,-0.8117396235466003,2.054126501083374
1789324231249776000,23.660776123046876,0.50685054063797,-1.051191806793213,2.042520523071289
1789324231268626000,23.6796259765625,0.46042612195014954,-1.093340277671814,1.9148534536361694
1789324231287475500,23.698475341796875,0.38040512800216675,-1.1391538381576538,1.6832659244537354
1789324231306325000,23.717324951171875,0.15378080308437347,-0.8190698027610779,1.465193510055542
1789324231325174800,23.7361748046875,0.18798823654651642,-0.4482855200767517,1.1634349822998047
1789324231344024300,23.7550244140625,0.25090551376342773,-0.25831204652786255,0.8097543716430664
1789324231362874000,23.7738740234375,0.2539597451686859,-0.09949174523353577,0.5348731279373169
1789324231381723600,23.7927236328125,0.17454960942268372,0.040392275899648666,0.36872267723083496
1789324231400573400,23.811573486328125,0.1104106456041336,0.04650074616074562,0.13293562829494476
