time,seconds_elapsed,z,y,x
1789324207762530000,0.173530029296875,-0.046424392610788345,-0.2235700935125351,0.31947311758995056
1789324207781380400,0.19238037109375,-0.03237490355968475,0.12400199472904205,0.208298921585083
1789324207800230400,0.21123046875,-0.055587101727724075,0.11178504675626755,0.12339114397764206
1789324207819080700,0.230080810546875,0.1056765764951706,-0.09895725548267365,0.05925218388438225
1789324207837931000,0.248930908203125,0.3762819170951843,-0.14110571146011353,-0.08612946420907974
1789324207875631000,0.286631103515625,0.9547542929649353,-0.7922688722610474,-0.4312581717967987
1789324207894481400,0.3054814453125,0.990183413028717,-1.0469921827316284,-0.2895416021347046
1789324207913331500,0.32433154296875,0.7568397521972656,-0.6792621612548828,-0.13927318155765533
1789324207932181800,0.343181640625,0.5277720093727112,-0.21990501880645752,-0.10995250940322876
1789324207951031800,0.36203173828125,0.3958290219306946,0.07391251623630524,-0.29626092314720154
1789324207969882000,0.380882080078125,0.4446968138217926,0.20157960057258606,-0.26632940769195557
1789324207988732200,0.399732177734375,0.499673068523407,0.2229592502117157,-0.11178504675626755
1789324208007582500,0.41858251953125,0.5088357925415039,-0.037261683493852615,-0.009773556143045425
1789324208026432800,0.437432861328125,0.38483378291130066,-0.4453076422214508,0.13805148005485535
1789324208045282800,0.45628271484375,0.20035789906978607,-0.18569757044315338,0.2638860046863556
1789324208064133000,0.475133056640625,0.04214845970273018,-0.09895725548267365,0.25533416867256165
1789324208082983200,0.493983154296875,0.182643324136734,-0.1178935244679451,0.10628741979598999
1789324208101833500,0.51283349609375,0.577861487865448,0.012216945178806782,-0.05741964280605316
1789324208120683500,0.53168359375,0.7165238261222839,-0.14843589067459106,-0.06841489672660828
1789324208139533600,0.550533447265625,0.6218425035476685,-0.13621893525123596,0.14843589067459106
1789324208158383900,0.5693837890625,0.3536805510520935,-0.20096874237060547,0.2223484069108963
1789324208177234200,0.588234130859375,0.3897205591201782,-0.2748812735080719,-0.0024433890357613564
1789324208196084200,0.607084228515625,0.41110020875930786,0.014049487188458443,-0.30481278896331787
1789324208214934500,0.6259345703125,0.10689827054738998,-0.1313321590423584,-0.43736663460731506
1789324208233784600,0.64478466796875,-0.1985253542661667,-0.393385648727417,-0.47951510548591614
1789324208252635000,0.663634765625,-0.3151971995830536,-0.18753011524677277,-0.49417543411254883
1789324208271485000,0.68248486328125,-0.2516690790653229,0.08735115826129913,-0.5497625470161438
1789324208290335200,0.701335205078125,-0.18142163753509521,0.42392799258232117,-0.32130566239356995
1789324208309185300,0.720185302734375,-0.4960079789161682,1.183211088180542,0.3280249834060669
1789324208328035600,0.73903564453125,-0.5790832042694092,1.1795459985733032,0.8857285380363464
1789324208346885600,0.7578857421875,-0.30969956517219543,1.903476357460022,0.8948912620544434
1789324208365736000,0.77673583984375,-0.3402419090270996,2.634660482406616,0.6212316751480103
1789324208384586000,0.7955859375,-0.0659715011715889,2.338399648666382,0.3817795515060425
1789324208403436300,0.814436279296875,0.5253286361694336,1.7183897495269775,0.21929416060447693
1789324208422286300,0.833286376953125,0.9633061289787292,1.3885321617126465,0.33169007301330566
1789324208441136600,0.85213671875,1.3206517696380615,0.7592831254005432,0.6597150564193726
1789324208459987000,0.870987060546875,1.8368940353393555,0.3310792148113251,1.086086392402649
1789324208478837000,0.8898369140625,2.4642341136932373,0.6493306159973145,1.309045672416687
1789324208497687300,0.908687255859375,2.8948814868927,1.2693406343460083,0.9211576581001282
1789324208516537300,0.927537353515625,2.5717432498931885,2.4740078449249268,-0.17348061501979828
1789324208535387600,0.9463876953125,2.145371913909912,4.519200801849365,-2.003044605255127
1789324208554237700,0.96523779296875,1.922412633895874,5.895439624786377,-4.042129039764404
1789324208573088000,0.984087890625,1.3445512056350708,6.717716217041016,-5.249773979187012
1789324208591938000,1.00293798828125,0.578472375869751,5.719515800476074,-5.364002704620361
1789324208610788400,1.021788330078125,-0.23884128034114838,2.549752712249756,-4.1496381759643555
1789324208629638700,1.040638671875,-1.1771026849746704,-0.2241809368133545,-2.4349136352539062
1789324208648488700,1.05948876953125,-1.5840033292770386,-1.6719653606414795,-1.8094059228897095
1789324208667339000,1.078339111328125,-1.5009280443191528,-1.9798322916030884,-2.4569039344787598
1789324208686189000,1.09718896484375,-1.2131426334381104,-1.258345365524292,-3.655386447906494
1789324208705039400,1.116039306640625,-1.0909732580184937,-0.48806697130203247,-4.517368316650391
1789324208723889400,1.134889404296875,-1.3151541948318481,0.49173203110694885,-4.905256271362305
1789324208742739700,1.15373974609375,-1.6408120393753052,1.2155860662460327,-4.9107537269592285
1789324208761590000,1.172590087890625,-2.0708484649658203,1.8558303117752075,-4.6041083335876465
1789324208780440000,1.191440185546875,-2.2418859004974365,1.991438388824463,-4.1875104904174805
1789324208799290400,1.210290283203125,-2.346951484680176,2.292586088180542,-3.6327850818634033
1789324208818140400,1.229140380859375,-2.622443675994873,2.6908586025238037,-3.626065731048584
1789324208836990700,1.24799072265625,-2.882664680480957,3.444643974304199,-3.99379563331604
1789324208855840800,1.2668408203125,-2.5485310554504395,3.698756456375122,-3.8276453018188477
1789324208874691000,1.285691162109375,-1.8149036169052124,3.2864346504211426,-3.0604212284088135
1789324208893541400,1.304541259765625,-0.8032641410827637,3.860020160675049,-1.7825286388397217
1789324208912391400,1.323391357421875,-0.5393781065940857,3.736018180847168,-1.482602596282959
1789324208931241700,1.34224169921875,0.7531746625900269,3.1734278202056885,-1.538800597190857
1789324208950092000,1.361092041015625,1.446562647819519,2.303581476211548,-1.5137559175491333
1789324208968942000,1.379942138671875,1.340886116027832,1.8704906702041626,-1.4832135438919067
1789324208987792400,1.39879248046875,0.6743753552436829,2.6212220191955566,-0.8063184022903442
1789324209006642400,1.417642333984375,0.38849884271621704,1.9480682611465454,-0.25411245226860046
1789324209025492700,1.43649267578125,0.8393041491508484,0.4727957844734192,0.08796200156211853
1789324209044342800,1.4553427734375,1.3604332208633423,-0.6285618543624878,0.3921639323234558
1789324209063193000,1.474193115234375,1.8637713193893433,-1.1850436925888062,0.7519529461860657
1789324209082043400,1.49304345703125,1.9853299856185913,-1.3224843740463257,1.0207257270812988
1789324209100893400,1.5118935546875,1.9156934022903442,-1.294385313987732,0.8783983588218689
1789324209119743700,1.53074365234375,1.8576629161834717,-1.8466676473617554,0.7916580438613892
1789324209138594000,1.549593994140625,2.258378744125366,-2.7769880294799805,1.0824213027954102
1789324209157444000,1.568444091796875,2.0885632038116455,-3.0054447650909424,1.225359559059143
1789324209176294400,1.58729443359375,1.3964731693267822,-3.6908154487609863,1.3750935792922974
1789324209195144700,1.606144775390625,0.8900044560432434,-3.602853536605835,1.2607887983322144
1789324209213994800,1.624994873046875,-0.8362498879432678,-3.409214973449707,1.73732590675354
1789324209232845000,1.643844970703125,-1.5595693588256836,-2.327404499053955,2.1490371227264404
1789324209251695400,1.6626953125,-1.6377578973770142,-1.4612230062484741,2.179579257965088
1789324209270545400,1.68154541015625,-0.6780404448509216,-0.7739434838294983,2.0024337768554688
1789324209289395700,1.700395751953125,0.17775654792785645,-0.5809157490730286,1.7813069820404053
1789324209308245800,1.719245849609375,0.6511631608009338,-0.5332696437835693,1.4007490873336792
1789324209327096000,1.738095947265625,0.7470661997795105,-0.4367557764053345,0.873511552810669
1789324209345946400,1.7569462890625,0.8753440976142883,-0.32008397579193115,0.5296045541763306
1789324209364796400,1.77579638671875,1.018282413482666,-0.4031592011451721,0.4947862923145294
1789324209383646700,1.794646728515625,1.0866972208023071,-0.4886777997016907,0.5076140761375427
1789324209402497000,1.8134970703125,1.0769237279891968,-0.31947311758995056,0.3408527672290802
1789324209421347000,1.83234716796875,0.9034430980682373,-0.16004198789596558,-0.02870982140302658
1789324209440197400,1.851197265625,0.6090146899223328,-0.17592400312423706,-0.16187451779842377
1789324209459047700,1.870047607421875,0.3903313875198364,-0.3512371778488159,-0.18019993603229523
1789324209477897700,1.888897705078125,0.22845686972141266,-0.28037887811660767,-0.12155860662460327
1789324209496748000,1.907748046875,0.17409147322177887,0.14904673397541046,-0.00916270911693573
1789324209515598300,1.926598388671875,0.07513421028852463,0.8551861643791199,0.004275931045413017
1789324209534448400,1.945448486328125,-0.020157959312200546,0.9132166504859924,-0.08735115826129913
1789324209553298700,1.964298583984375,-0.2095206081867218,0.7592831254005432,-0.21929416060447693
1789324209572149000,1.98314892578125,-0.3573456406593323,0.8441908955574036,-0.29748260974884033
1789324209590999000,2.0019990234375,-0.624285876750946,0.8313631415367126,-0.418430358171463
1789324209609849300,2.020849365234375,-0.9236010313034058,1.0738694667816162,-0.5008947253227234
1789324209628699600,2.03969970703125,-0.2919849753379822,1.2326897382736206,-0.582748293876648
1789324209647549700,2.0585498046875,-0.061084724962711334,1.183211088180542,-0.6584933400154114
1789324209666400000,2.07739990234375,-0.06352811306715012,0.7287407517433167,-0.7195780873298645
1789324209685250300,2.096250244140625,0.26999449729919434,1.5974419116973877,-0.3042019307613373
1789324209704100400,2.115100341796875,0.7562289237976074,2.8948814868927,0.17470231652259827
1789324209722950700,2.13395068359375,1.1398409605026245,2.3542816638946533,0.1954711228609085
1789324209741801000,2.152801025390625,-0.182643324136734,1.0659284591674805,-0.8338065147399902
1789324209760651000,2.171651123046875,-3.2284040451049805,0.6346703171730042,-1.2693406343460083
1789324209779501300,2.190501220703125,-3.7482352256774902,1.521696925163269,-1.1880979537963867
1789324209798351600,2.2093515625,-2.1459827423095703,0.9242119193077087,-1.1728267669677734
1789324209817201700,2.22820166015625,-0.9590302109718323,-0.5063923597335815,-1.4257938861846924
1789324209836052000,2.247052001953125,-0.8118160367012024,-0.9938485026359558,-1.964561104774475
1789324209854902300,2.26590234375,-1.1709941625595093,-0.17653486132621765,-2.6120591163635254
1789324209873752300,2.28475244140625,-1.663413405418396,0.08368607610464096,-2.2883102893829346
1789324209892602600,2.3036025390625,-1.84850013256073,0.9877400398254395,-1.6701327562332153
1789324209911453000,2.322452880859375,-2.3945975303649902,0.48928865790367126,-1.2791141271591187
1789324209930303200,2.34130322265625,-2.3048031330108643,-0.1832541823387146,-1.262621283531189
1789324209949153300,2.3601533203125,-1.770311713218689,0.27976804971694946,-1.1202938556671143
1789324209968003600,2.379003662109375,-1.8387266397476196,0.2651077210903168,-0.6884248852729797
1789324209986854000,2.39785400390625,-0.8008207678794861,-0.33596599102020264,-0.8148702383041382
1789324210005704000,2.416703857421875,-0.0525328628718853,-0.10689827054738998,-0.9736905097961426
1789324210024554200,2.43555419921875,0.21807247400283813,0.5772506594657898,-0.8112051486968994
1789324210043404800,2.45440478515625,0.007941014133393764,1.408690094947815,0.45019441843032837
1789324210062254800,2.4732548828125,0.25594499707221985,0.3897205591201782,1.2681188583374023
1789324210081105200,2.492105224609375,-0.046424392610788345,-0.42698222398757935,1.2424633502960205
1789324210099955500,2.51095556640625,-0.24311721324920654,-0.6071822047233582,1.1838220357894897
1789324210118805800,2.5298056640625,-0.6682668924331665,-1.3053805828094482,0.9938485026359558
1789324210137655800,2.54865576171875,-1.3616548776626587,-2.121548891067505,0.5247178077697754
1789324210156506000,2.567506103515625,-1.6292059421539307,-2.6505424976348877,0.42576053738594055
1789324210175356400,2.5863564453125,-1.0494356155395508,-0.9260444641113281,1.1783243417739868
1789324210194206500,2.60520654296875,0.2779355049133301,0.2492256760597229,2.095893383026123
1789324210213056800,2.624056884765625,0.5015056133270264,-0.4318690001964569,2.243107557296753
1789324210231907000,2.642906982421875,-0.291374146938324,-0.3524588644504547,1.5473524332046509
1789324210250757400,2.66175732421875,-0.45385950803756714,-0.6322268843650818,1.728774070739746
1789324210269607400,2.680607421875,-0.7128587365150452,-1.2717839479446411,2.353670835494995
1789324210288457700,2.699457763671875,-0.41171106696128845,-1.8405591249465942,2.732396125793457
1789324210307308000,2.71830810546875,-0.12033691257238388,-3.557039976119995,3.246729612350464
1789324210326158300,2.737158447265625,0.03298575058579445,-4.127647876739502,3.1960291862487793
1789324210345008600,2.756008544921875,0.033596597611904144,-3.8685719966888428,2.9614639282226562
1789324210363858700,2.774858642578125,-0.5051707029342651,-1.9981577396392822,2.5320382118225098
1789324210382709000,2.793708984375,-0.3396310806274414,-0.30725616216659546,2.269373893737793
1789324210401559300,2.812559326171875,-0.15393351018428802,-0.09956810623407364,1.9242452383041382
1789324210420409600,2.83140966796875,0.16370706260204315,0.4172086715698242,1.0592091083526611
1789324210439259600,2.850259765625,0.28098973631858826,0.33413344621658325,1.368374228477478
1789324210458110000,2.86910986328125,0.182643324136734,0.2113531529903412,1.6249300241470337
1789324210476960300,2.887960205078125,0.022601349279284477,0.8961129188537598,1.738547682762146
1789324210495810600,2.906810546875,-0.11667182296514511,1.3084348440170288,1.5455199480056763
1789324210514660900,2.925660888671875,-0.07269082218408585,1.4813809394836426,0.9816315174102783
1789324210533511000,2.944510986328125,-0.1698155403137207,1.3445512056350708,0.5833591222763062
1789324210552361200,2.963361328125,-0.42881476879119873,0.8863393664360046,0.3927747905254364
1789324210571211500,2.98221142578125,-0.7660024762153625,0.24556060135364532,0.16615045070648193
1789324210590061800,3.001061767578125,-0.5656445622444153,-0.32130566239356995,0.08612946420907974
1789324210608912100,3.019912109375,-0.08124268800020218,-0.4727957844734192,-0.19058434665203094
1789324210627762200,3.03876220703125,-0.36101073026657104,-0.2718270421028137,-0.363454133272171
1789324210646612500,3.057612548828125,-0.7953231334686279,0.4679090082645416,-0.5766398310661316
1789324210665462800,3.076462890625,-1.0463813543319702,1.0885298252105713,-0.730573296546936
1789324210684313000,3.09531298828125,-1.0304993391036987,1.428848147392273,-0.8435800671577454
1789324210703163400,3.114163330078125,-1.1013575792312622,1.2229162454605103,-0.9468132257461548
1789324210722013400,3.133013427734375,-1.1190721988677979,0.9981244206428528,-1.106244444847107
1789324210740863700,3.15186376953125,-1.087918996810913,0.8386932611465454,-1.4172420501708984
1789324210759714000,3.170714111328125,-1.0317209959030151,0.6505523324012756,-1.9334079027175903
1789324210778564400,3.189564453125,-0.8441908955574036,-0.2223484069108963,-1.8827075958251953
1789324210797414700,3.20841455078125,-0.5931326746940613,-1.1764918565750122,-1.5827815532684326
1789324210816264700,3.2272646484375,-0.2095206081867218,-1.1257915496826172,-1.585224986076355
1789324210835115000,3.246114990234375,0.4220954477787018,-1.3316470384597778,-1.7110595703125
1789324210853965300,3.26496533203125,0.7739434838294983,-2.185076951980591,-1.826509714126587
1789324210872815600,3.283815673828125,1.1410627365112305,-3.2027485370635986,-1.9853299856185913
1789324210891666000,3.302666015625,1.4392324686050415,-3.666992425918579,-2.555250406265259
1789324210910516000,3.321515869140625,0.8173136115074158,-2.98650860786438,-3.2290148735046387
1789324210929366300,3.3403662109375,0.29626092314720154,-1.5400222539901733,-3.7665605545043945
1789324210948216600,3.359216552734375,-0.2113531529903412,-0.12888877093791962,-3.814817428588867
1789324210967067000,3.37806689453125,-0.6890357136726379,1.0207257270812988,-3.0164401531219482
1789324210985917200,3.396917236328125,-0.6474980711936951,0.966971218585968,-1.5864466428756714
1789324211004767500,3.415767578125,0.0525328628718853,0.1435490995645523,-0.9138274788856506
1789324211023617500,3.434617431640625,0.19302773475646973,0.22906772792339325,-0.8729007244110107
1789324211042467800,3.4534677734375,0.23212195932865143,0.6859814524650574,-0.6688777208328247
1789324211061318100,3.472318115234375,0.19974705576896667,1.0683718919754028,-0.4593571424484253
1789324211080168400,3.49116845703125,0.16492876410484314,1.3390535116195679,-0.1459924876689911
1789324211099018800,3.510018798828125,0.07635590434074402,1.438010811805725,0.15026842057704926
1789324211117869000,3.528869140625,0.08979454636573792,1.0750911235809326,0.5570927262306213
1789324211136719000,3.547718994140625,0.312142938375473,0.34573954343795776,0.6560499668121338
1789324211155569400,3.5665693359375,0.4734066128730774,-0.1178935244679451,1.0243908166885376
1789324211174419700,3.585419677734375,0.3524588644504547,-0.16615045070648193,1.608437180519104
1789324211193270000,3.60427001953125,0.1954711228609085,-0.314586341381073,1.844224214553833
1789324211212120300,3.623120361328125,0.023212196305394173,-0.16065283119678497,1.6340928077697754
1789324211230970400,3.641970458984375,-0.0910162404179573,0.2522799074649811,1.405635952949524
1789324211249820700,3.660820556640625,-0.018936265259981155,0.6120689511299133,1.428848147392273
1789324211268671000,3.6796708984375,0.12827792763710022,0.5100574493408203,1.5516283512115479
1789324211287521300,3.698521240234375,0.16859383881092072,0.06352811306715012,1.5675103664398193
1789324211306371600,3.71737158203125,0.16737215220928192,-0.11178504675626755,1.6573050022125244
1789324211325222000,3.736221923828125,0.12033691257238388,-0.26694026589393616,1.7690900564193726
1789324211344072200,3.755072265625,0.11056335270404816,-0.4178195297718048,1.8204011917114258
1789324211362922500,3.773922607421875,0.1710372269153595,-0.390942245721817,1.8234554529190063
1789324211381772500,3.7927724609375,0.2492256760597229,-0.444085955619812,1.8301746845245361
1789324211400622800,3.811622802734375,0.288930743932724,-0.5748072862625122,1.932186245918274
1789324211419473200,3.83047314453125,0.21318569779396057,-0.4862344264984131,2.1551454067230225
1789324211438323500,3.849323486328125,0.11545012891292572,-0.7232431769371033,2.3756613731384277
1789324211457173800,3.868173828125,-0.04459185153245926,-1.2931636571884155,2.3310694694519043
1789324211476024000,3.887024169921875,-0.30481278896331787,-1.2369656562805176,2.1325440406799316
1789324211494874400,3.905874267578125,-0.4563029110431671,-1.2791141271591187,1.6872364282608032
1789324211513724700,3.924724609375,-0.3518480062484741,-0.837471604347229,1.6683002710342407
1789324211532574700,3.94357470703125,-0.17225892841815948,-0.288930743932724,1.7104486227035522
1789324211551425000,3.962425048828125,0.034818295389413834,0.10689827054738998,1.6664676666259766
1789324211570275300,3.981275390625,0.12278030067682266,0.08063183724880219,1.3512704372406006
1789324211589125600,4.000125732421875,0.21868331730365753,0.1954711228609085,0.9321529269218445
1789324211607976000,4.018975830078125,0.13866232335567474,0.007941014133393764,0.5021164417266846
1789324211626826200,4.037826171875,0.06413896381855011,0.07757759839296341,0.13744063675403595
1789324211645676500,4.056676513671875,0.054365407675504684,0.29259583353996277,-0.08979454636573792
1789324211664526800,4.07552685546875,0.07024743407964706,0.3561239540576935,-0.420873761177063
1789324211683377200,4.094377197265625,0.06780404597520828,0.47646087408065796,-0.7684458494186401
1789324211702227200,4.113227294921875,0.056808795779943466,0.3689517378807068,-1.0005677938461304
1789324211721077500,4.132077392578125,0.10140064358711243,0.2596100866794586,-1.1966497898101807
1789324211739927800,4.150927734375,0.006719320081174374,0.34512871503829956,-1.3500487804412842
1789324211758778000,4.169778076171875,-0.15210096538066864,0.7177455425262451,-1.627373456954956
1789324211777628400,4.18862841796875,-0.28282228112220764,1.0653176307678223,-2.043360471725464
1789324211796478700,4.207478759765625,-0.40071579813957214,1.031110167503357,-2.284034252166748
1789324211815329000,4.2263291015625,-0.46363306045532227,1.0421054363250732,-2.3237392902374268
1789324211834179300,4.245179443359375,-0.6383354067802429,0.9046648144721985,-2.4178097248077393
1789324211853029600,4.264029541015625,-0.7647807598114014,0.7941014170646667,-2.5131020545959473
1789324211890730200,4.301730224609375,-0.9034430980682373,0.017714571207761765,-2.5741868019104004
1789324211909580300,4.320580322265625,-0.8301414251327515,-0.26999449729919434,-2.488668203353882
1789324211928430600,4.3394306640625,-0.6823163628578186,-0.38910970091819763,-2.445908784866333
1789324211947281000,4.358281005859375,-0.4886777997016907,-0.5644228458404541,-2.2999162673950195
1789324211966131200,4.377131103515625,-0.3023693859577179,-0.582748293876648,-2.124603033065796
1789324211984981500,4.3959814453125,-0.08979454636573792,-0.5564818382263184,-1.9902167320251465
1789324212003831800,4.414831787109375,0.12094775587320328,-0.45263782143592834,-1.9712804555892944
1789324212022682000,4.43368212890625,0.35795649886131287,-0.578472375869751,-1.8735449314117432
1789324212041532400,4.452532470703125,0.5913001298904419,-0.5699204802513123,-1.6151565313339233
1789324212060382700,4.4713828125,0.7837170362472534,-0.35917818546295166,-1.3414969444274902
1789324212079233000,4.49023291015625,0.7666133046150208,-0.10078980028629303,-1.0702043771743774
1789324212098083300,4.509083251953125,0.5326588153839111,0.034818295389413834,-0.5668662786483765
1789324212116933600,4.52793359375,0.36162158846855164,-0.034818295389413834,0.11056335270404816
1789324212135784000,4.546783935546875,0.25350162386894226,0.04337015375494957,0.550373375415802
1789324212154634000,4.565634033203125,0.14965757727622986,0.03237490355968475,0.8173136115074158
1789324212173484300,4.584484375,0.05070032179355621,0.24433889985084534,0.9419264793395996
1789324212192334600,4.60333447265625,-0.007941014133393764,0.2999260127544403,1.0592091083526611
1789324212211185000,4.622184814453125,-0.10140064358711243,0.36284327507019043,1.2326897382736206
1789324212230035200,4.64103515625,-0.17531315982341766,0.19058434665203094,1.4221287965774536
1789324212248885500,4.659885498046875,-0.17958909273147583,-0.05864133685827255,1.4978737831115723
1789324212267735800,4.67873583984375,-0.183865025639534,-0.17714570462703705,1.4746615886688232
1789324212286586000,4.697586181640625,-0.18936264514923096,-0.20768806338310242,1.5375789403915405
1789324212305436400,4.7164365234375,-0.13621893525123596,-0.20035789906978607,1.659137487411499
1789324212324286700,4.73528662109375,-0.1313321590423584,0.01588202826678753,1.7446560859680176
1789324212343137000,4.754136962890625,-0.07269082218408585,0.07757759839296341,1.7996324300765991
1789324212361987300,4.7729873046875,0.08429691940546036,0.05008947476744652,1.8979787826538086
1789324212380837600,4.791837646484375,0.3542914092540741,0.033596597611904144,2.012207269668579
1789324212399688000,4.81068798828125,0.5515950918197632,-0.05925218388438225,2.1355984210968018
1789324212418538200,4.829538330078125,0.6047387719154358,-0.23090025782585144,2.215008497238159
1789324212437388300,4.84838818359375,0.4734066128730774,-0.4355340898036957,2.1838552951812744
1789324212456238800,4.86723876953125,0.44958359003067017,-0.4367557764053345,2.084287166595459
1789324212484514000,4.89551416015625,0.41171106696128845,-0.47585001587867737,1.9114174842834473
1789324212503364400,4.9143642578125,0.2993151545524597,-0.8338065147399902,1.9169150590896606
1789324212522214700,4.933214599609375,0.1557660549879074,-1.3531030416488647,1.849721908569336
1789324212541065000,4.95206494140625,0.16431790590286255,-1.1025793552398682,1.7550405263900757
1789324212559915300,4.970915283203125,0.2620534598827362,-0.582748293876648,1.7397693395614624
1789324212578765600,4.989765625,0.2870981991291046,-0.5418215394020081,1.4862676858901978
1789324212597615900,5.008615966796875,0.3292466700077057,-0.3249707520008087,1.1147962808609009
1789324212616466200,5.027466064453125,0.3408527672290802,-0.08185353130102158,0.781884491443634
1789324212635316500,5.04631640625,0.25655585527420044,0.10811996459960938,0.5302154421806335
1789324212654166800,5.065166748046875,0.21501824259757996,0.3542914092540741,0.31886225938796997
1789324212673017000,5.08401708984375,0.19913621246814728,0.4984513521194458,0.14843589067459106
1789324212691867400,5.102867431640625,0.21318569779396057,0.5027272701263428,-0.14782503247261047
1789324212710717700,5.1217177734375,0.21257483959197998,0.6383354067802429,-0.5741963982582092
1789324212729568000,5.140568115234375,0.19363857805728912,0.8771766424179077,-0.9834640622138977
1789324212748418300,5.159418212890625,0.09712471067905426,1.0830321311950684,-1.321873426437378
1789324212767268600,5.1782685546875,-0.013438640162348747,1.111131191253662,-1.6499748229980469
1789324212786119000,5.197118896484375,-0.05803048983216286,1.183211088180542,-1.9834973812103271
1789324212804969200,5.21596923828125,-0.16431790590286255,1.2290246486663818,-2.260211229324341
1789324212823819500,5.234819580078125,-0.3054236173629761,1.1709941625595093,-2.4324700832366943
1789324212842669800,5.253669921875,-0.5570927262306213,0.9840749502182007,-2.425139904022217
1789324212861520100,5.27252001953125,-0.8063184022903442,0.6707102656364441,-2.4361352920532227
1789324212880370400,5.291370361328125,-0.9657495021820068,0.5308262705802917,-2.388489246368408
1789324212899220700,5.310220703125,-0.9523108601570129,0.10201149433851242,-2.503328323364258
1789324212918071000,5.329071044921875,-0.9034430980682373,-0.11117420345544815,-2.582127809524536
1789324212936921300,5.34792138671875,-0.7647807598114014,-0.3689517378807068,-2.6322171688079834
1789324212955771600,5.366771728515625,-0.5021164417266846,-0.5418215394020081,-2.706129789352417
1789324212974622000,5.3856220703125,-0.24250635504722595,-0.5173876285552979,-2.6413798332214355
1789324212993472300,5.40447216796875,-0.05375456064939499,-0.5393781065940857,-2.486835479736328
1789324213012322600,5.423322509765625,0.05864133685827255,-0.5405998229980469,-2.2742607593536377
1789324213031172900,5.4421728515625,0.10078980028629303,-0.3390202224254608,-1.98899507522583
1789324213050023200,5.461023193359375,0.28160059452056885,-0.17714570462703705,-1.5363571643829346
1789324213068873500,5.47987353515625,0.4734066128730774,-0.10017894953489304,-1.073258638381958
1789324213087723800,5.498723876953125,0.4831801950931549,0.06658235192298889,-0.7183563709259033
1789324213106574000,5.517573974609375,0.38483378291130066,0.18142163753509521,-0.4092676639556885
1789324213134849500,5.545849609375,0.21990501880645752,0.029320668429136276,0.23823043704032898
1789324213153699800,5.564699951171875,0.2504473626613617,0.08002099394798279,0.6578825116157532
1789324213172550100,5.583550048828125,0.2742704153060913,0.0916270911693573,0.9064973592758179
1789324213191400400,5.602400390625,0.24617144465446472,0.09468132257461548,1.041494607925415
1789324213210250800,5.621250732421875,0.182643324136734,0.04153761267662048,1.1264023780822754
1789324213229101000,5.64010107421875,0.0922379344701767,0.02076880633831024,1.2131426334381104
1789324213247951400,5.658951416015625,-0.017714571207761765,0.023823043331503868,1.2949961423873901
1789324213266801700,5.6778017578125,-0.14843589067459106,0.15210096538066864,1.3518813848495483
1789324213285652000,5.69665185546875,-0.25533416867256165,0.2510582208633423,1.4367891550064087
1789324213304502300,5.715502197265625,-0.2761029601097107,0.2718270421028137,1.6090480089187622
1789324213323352600,5.7343525390625,-0.16431790590286255,0.23151111602783203,1.8112385272979736
1789324213342203000,5.753202880859375,-0.012216945178806782,0.13805148005485535,1.9083632230758667
1789324213370478300,5.781478271484375,0.183865025639534,0.034818295389413834,1.9132499694824219
1789324213389328600,5.80032861328125,0.25350162386894226,-0.11300674080848694,2.0183157920837402
1789324213408179000,5.819178955078125,0.3408527672290802,-0.3151971995830536,2.110553741455078
1789324213427029200,5.838029296875,0.43736663460731506,-0.41354358196258545,2.1380417346954346
1789324213445879600,5.856879638671875,0.47707170248031616,-0.38910970091819763,2.2394423484802246
1789324213464729900,5.875729736328125,0.46485477685928345,-0.577861487865448,2.3347346782684326
1789324213483580200,5.894580078125,0.3762819170951843,-0.8405258059501648,2.284034252166748
1789324213502430500,5.913430419921875,0.21196399629116058,-1.0292776823043823,2.1954615116119385
1789324213530706000,5.941705810546875,-0.14721418917179108,-1.1728267669677734,2.061685800552368
1789324213558981400,5.9699814453125,-0.1710372269153595,-0.5491516590118408,1.598052740097046
1789324213577831700,5.988831787109375,0.014660334214568138,-0.2351761907339096,1.3891429901123047
1789324213596682000,6.007681884765625,0.1948602795600891,-0.11667182296514511,1.132510781288147
1789324213615532300,6.0265322265625,0.28037887811660767,-0.042759306728839874,0.7452336549758911
1789324213634382600,6.045382568359375,0.2339545041322708,0.05497625470161438,0.5259394645690918
1789324213653233000,6.06423291015625,0.17348061501979828,0.015271181240677834,0.35978904366493225
1789324213672083200,6.083083251953125,0.1966928243637085,0.03665083646774292,0.0794101431965828
1789324213690933500,6.10193359375,0.15515519678592682,0.20035789906978607,-0.2522799074649811
1789324213709783800,6.12078369140625,0.06169557198882103,0.3432961702346802,-0.5803049206733704
1789324213728634400,6.13963427734375,-0.015271181240677834,0.5595360994338989,-0.9101623892784119
1789324213747484700,6.158484619140625,-0.046424392610788345,0.735460102558136,-1.2937744855880737
1789324213766335000,6.1773349609375,-0.03176405653357506,0.9126058220863342,-1.6713544130325317
1789324213785185300,6.196185302734375,-0.10323318839073181,0.9828532338142395,-1.9028655290603638
1789324213804035600,6.21503564453125,-0.19058434665203094,1.0720369815826416,-2.1209380626678467
1789324213822886000,6.233885986328125,-0.3310792148113251,1.166107416152954,-2.295029401779175
1789324213841736200,6.252736083984375,-0.5540384650230408,1.1172395944595337,-2.405592918395996
1789324213860586500,6.27158642578125,-0.7580614686012268,0.8032641410827637,-2.4434654712677
1789324213879436800,6.290436767578125,-0.943759024143219,0.6126797795295715,-2.4581258296966553
1789324213898287000,6.309287109375,-0.999346137046814,0.3115321099758148,-2.532649040222168
1789324213917137400,6.328137451171875,-1.012784719467163,0.06658235192298889,-2.596177101135254
1789324213935987700,6.34698779296875,-0.9724688529968262,-0.12644538283348083,-2.613891839981079
1789324213954838000,6.365838134765625,-0.7556180357933044,-0.28282228112220764,-2.572964906692505
1789324213983113500,6.394113525390625,-0.2980934679508209,-0.5063923597335815,-2.44041109085083
1789324214001963800,6.4129638671875,-0.16248537600040436,-0.47829338908195496,-2.313354969024658
1789324214020814000,6.43181396484375,-0.12216944992542267,-0.47829338908195496,-2.070237636566162
1789324214039664400,6.450664306640625,-0.06352811306715012,-0.2901524603366852,-1.8051300048828125
1789324214058514700,6.4695146484375,0.25716668367385864,-0.22540263831615448,-1.3976948261260986
1789324214077365000,6.488364990234375,0.4422534108161926,-0.08551861345767975,-0.8643488883972168
1789324214096215300,6.50721533203125,0.34940463304519653,0.1850867122411728,-0.43858832120895386
1789324214115065600,6.526065673828125,0.21746163070201874,0.2229592502117157,-0.10811996459960938
1789324214133916000,6.544916015625,0.08612946420907974,0.1185043677687645,0.20035789906978607
1789324214152766200,6.56376611328125,0.08002099394798279,0.009773556143045425,0.46668729186058044
1789324214171616500,6.582616455078125,0.12827792763710022,-0.004275931045413017,0.6682668924331665
1789324214190467000,6.601467041015625,0.15454435348510742,0.042759306728839874,0.8686248064041138
1789324214209317400,6.6203173828125,0.09895725548267365,0.06047387793660164,1.0262234210968018
1789324214228167700,6.639167724609375,0.021990500390529633,-0.08429691940546036,1.1392301321029663
1789324214247018000,6.65801806640625,-0.04886778071522713,-0.17409147322177887,1.226581335067749
1789324214265868300,6.676868408203125,-0.0787992998957634,-0.22540263831615448,1.2888877391815186
1789324214284718600,6.695718505859375,-0.0525328628718853,-0.0794101431965828,1.3524922132492065
1789324214303569000,6.71456884765625,0.020157959312200546,-0.005497625097632408,1.410522699356079
1789324214322419200,6.733419189453125,0.13621893525123596,0.02076880633831024,1.5278053283691406
1789324214350694700,6.761694580078125,0.1575985997915268,0.06352811306715012,1.7697008848190308
1789324214369545000,6.780544921875,0.20768806338310242,-0.12766708433628082,1.964561104774475
1789324214388395300,6.799395263671875,0.4074351191520691,-0.1435490995645523,2.102001667022705
1789324214407245600,6.81824560546875,0.5534276366233826,-0.15943112969398499,2.13315486907959
1789324214426095900,6.837095947265625,0.5595360994338989,-0.29503923654556274,2.2131760120391846
1789324214444946400,6.855946533203125,0.4196520745754242,-0.3781144618988037,2.241274833679199
1789324214463796700,6.874796630859375,0.31031039357185364,-0.258999228477478,2.127046585083008
1789324214482647000,6.89364697265625,0.2779355049133301,-0.4355340898036957,2.125213861465454
1789324214501497300,6.912497314453125,0.27976804971694946,-0.8356390595436096,2.2266147136688232
1789324214520347600,6.93134765625,0.2596100866794586,-1.2620104551315308,2.173470973968506
1789324214539198000,6.950197998046875,0.12033691257238388,-1.3035480976104736,2.037862777709961
1789324214567473400,6.978473388671875,0.04031591862440109,-0.6719319820404053,1.8344507217407227
1789324214586323700,6.99732373046875,0.12033691257238388,-0.49234288930892944,1.4618338346481323
1789324214605174000,7.016174072265625,0.17775654792785645,-0.34818294644355774,0.9608627557754517
1789324214624024300,7.0350244140625,0.20402298867702484,-0.08857285231351852,0.6310052275657654
1789324214642874600,7.05387451171875,0.13438639044761658,0.18081079423427582,0.43858832120895386
1789324214661725000,7.072724853515625,0.05497625470161438,0.24433889985084534,0.2229592502117157
1789324214680575200,7.0915751953125,0.09407047927379608,0.2608317732810974,-0.1557660549879074
1789324214699425800,7.11042578125,0.09590301662683487,0.37322768568992615,-0.5564818382263184
1789324214718276000,7.129276123046875,0.05986303091049194,0.5491516590118408,-0.856407880783081
1789324214737126400,7.14812646484375,0.0030542362947016954,0.7501204609870911,-1.0280559062957764
1789324214755976700,7.166976806640625,-0.04459185153245926,0.8234221339225769,-1.3512704372406006
1789324214774827000,7.185826904296875,-0.04459185153245926,1.0579874515533447,-1.7580947875976562
1789324214793677300,7.20467724609375,-0.1563768982887268,1.1031901836395264,-2.026256799697876
1789324214812527600,7.223527587890625,-0.2602209448814392,1.0323318243026733,-2.2541027069091797
1789324214831378000,7.2423779296875,-0.40254834294319153,0.9370396733283997,-2.434302568435669
1789324214850228200,7.261228271484375,-0.633448600769043,0.7806627750396729,-2.446519613265991
1789324214869078500,7.28007861328125,-0.8411366939544678,0.7091936469078064,-2.4361352920532227
1789324214887928800,7.2989287109375,-0.911384105682373,0.37383851408958435,-2.417198896408081
1789324214906779100,7.317779052734375,-0.8264763355255127,0.008551862090826035,-2.674365758895874
1789324214925629400,7.33662939453125,-0.7855495810508728,-0.06047387793660164,-2.916872024536133
1789324214944480000,7.35547998046875,-0.6700994372367859,-0.2877090573310852,-2.9883410930633545
1789324214982180600,7.3931806640625,-0.061084724962711334,-0.5234960913658142,-2.5253188610076904
1789324215001031000,7.412031005859375,-0.004275931045413017,-0.5662553906440735,-2.3145766258239746
1789324215019881200,7.430881103515625,-0.010995250195264816,-0.3304683566093445,-1.9272994995117188
1789324215038731500,7.4497314453125,0.16309621930122375,-0.010995250195264816,-1.4514493942260742
1789324215057581800,7.468581787109375,0.3029802441596985,0.17836740612983704,-1.1447277069091797
1789324215076432100,7.48743212890625,0.33413344621658325,0.16431790590286255,-0.809983491897583
1789324215095282400,7.506282470703125,0.2626643180847168,0.1557660549879074,-0.395218163728714
1789324215114132700,7.5251328125,0.130721315741539,0.1313321590423584,0.01832541823387146
1789324215142408200,7.553408203125,0.08674030750989914,0.284654825925827,0.33352261781692505
1789324215161258500,7.572258544921875,0.13377554714679718,0.15271180868148804,0.5308262705802917
1789324215180109000,7.591109130859375,0.1423274129629135,-0.12278030067682266,0.8044858574867249
1789324215198959400,7.60995947265625,0.1582094430923462,-0.0525328628718853,0.9846857786178589
1789324215217809700,7.6288095703125,0.130721315741539,-0.09590301662683487,1.1080769300460815
1789324215236660000,7.647659912109375,0.10017894953489304,-0.17409147322177887,1.2430741786956787
1789324215255510300,7.66651025390625,0.07207997888326645,-0.07635590434074402,1.3610440492630005
1789324215274360600,7.685360595703125,0.0787992998957634,0.11361759155988693,1.3151541948318481
1789324215293211000,7.7042109375,0.04092676565051079,0.18019993603229523,1.3011046648025513
1789324215312061200,7.723061279296875,0.029320668429136276,0.037261683493852615,1.4428975582122803
1789324215330911500,7.741911376953125,0.09895725548267365,-0.16309621930122375,1.64569890499115
1789324215349761800,7.76076171875,0.20646637678146362,-0.15515519678592682,1.7519862651824951
1789324215368612000,7.779612060546875,0.24433889985084534,-0.11606097966432571,1.7721441984176636
1789324215387462400,7.79846240234375,0.25533416867256165,-0.08368607610464096,1.8894269466400146
1789324215406313000,7.81731298828125,0.3640649616718292,-0.24433889985084534,2.0910065174102783
1789324215425163300,7.836163330078125,0.45141613483428955,-0.3274141252040863,2.177135944366455
1789324215444013600,7.855013671875,0.4227063059806824,-0.32008397579193115,2.2131760120391846
1789324215462864000,7.87386376953125,0.3671191930770874,-0.2748812735080719,2.240053176879883
1789324215481714200,7.892714111328125,0.265718549489975,-0.43858832120895386,2.1924071311950684
1789324215500564500,7.911564453125,0.16676130890846252,-0.8771766424179077,2.133765935897827
1789324215519414800,7.930414794921875,0.16492876410484314,-1.1502254009246826,1.9853299856185913
1789324215538265000,7.94926513671875,0.13744063675403595,-0.9749122262001038,1.8454458713531494
1789324215557115400,7.968115478515625,0.12766708433628082,-0.6413896083831787,1.806351661682129
1789324215575965700,7.986965576171875,0.13805148005485535,-0.5961869359016418,1.63592529296875
1789324215594816000,8.00581591796875,0.16737215220928192,-0.45202696323394775,1.3524922132492065
1789324215613666300,8.024666259765626,0.1563768982887268,-0.1832541823387146,1.0512681007385254
1789324215632516900,8.043516845703126,0.09956810623407364,0.0910162404179573,0.7916580438613892
1789324215651367200,8.0623671875,0.0787992998957634,0.16309621930122375,0.4300364851951599
1789324215670217500,8.081217529296875,0.14965757727622986,0.2211267054080963,0.023823043331503868
1789324215689067800,8.10006787109375,0.20035789906978607,0.33169007301330566,-0.37261682748794556
1789324215707918000,8.11891796875,0.10078980028629303,0.5766398310661316,-0.6621584296226501
1789324215726768400,8.137768310546875,-0.009773556143045425,0.7201889157295227,-0.9602518677711487
1789324215745618700,8.15661865234375,-0.017714571207761765,0.8979454636573792,-1.38731050491333
1789324215764469000,8.175468994140624,-0.03237490355968475,0.9571976661682129,-1.7965781688690186
1789324215783319300,8.1943193359375,-0.09468132257461548,1.086086392402649,-2.0543556213378906
1789324215802169600,8.213169677734374,-0.25411245226860046,1.1166287660598755,-2.226003885269165
1789324215821020000,8.23202001953125,-0.42698222398757935,1.0640959739685059,-2.370163679122925
1789324215839870500,8.250870361328126,-0.6621584296226501,0.9315420985221863,-2.3487839698791504
1789324215858720800,8.269720703125,-0.8667922616004944,0.883895993232727,-2.4092578887939453
1789324215877571000,8.288571044921875,-1.0451596975326538,0.6456655263900757,-2.405592918395996
1789324215896421400,8.30742138671875,-1.0720369815826416,0.15943112969398499,-2.5289840698242188
1789324215915271700,8.326271728515625,-1.0445488691329956,0.02504473738372326,-2.648099184036255
1789324215934122000,8.3451220703125,-0.8582404255867004,-0.15149012207984924,-2.5973989963531494
1789324215952972300,8.36397216796875,-0.554649293422699,-0.2107423096895218,-2.558304786682129
1789324215981247700,8.392247802734374,-0.24067382514476776,-0.3158080279827118,-2.558304786682129
1789324216000098000,8.41109814453125,-0.10140064358711243,-0.39766156673431396,-2.373828887939453
1789324216018948400,8.4299482421875,0.0659715011715889,-0.28098973631858826,-2.0427496433258057
1789324216037798700,8.448798583984376,0.26816195249557495,0.007941014133393764,-1.641422986984253
1789324216056649000,8.46764892578125,0.24556060135364532,0.21685077250003815,-1.1545013189315796
1789324216075499500,8.48649951171875,0.12278030067682266,0.19180603325366974,-0.730573296546936
1789324216094349800,8.505349853515625,0.026877280324697495,0.15332266688346863,-0.31031039357185364
1789324216113200000,8.5242001953125,0.12400199472904205,0.12094775587320328,0.09345962852239609
1789324216132050400,8.543050537109375,0.12888877093791962,0.23090025782585144,0.34451785683631897
1789324216150900700,8.561900634765625,0.11972606182098389,0.21562908589839935,0.5699204802513123
1789324216169751000,8.5807509765625,0.05497625470161438,0.1172826737165451,0.8240329623222351
1789324216188601300,8.599601318359374,0.020157959312200546,0.10750912129878998,1.0292776823043823
1789324216207451600,8.61845166015625,-0.06169557198882103,0.13866232335567474,1.1459494829177856
1789324216226302000,8.637302001953126,-0.12644538283348083,-0.033596597611904144,1.2045907974243164
1789324216245152300,8.65615234375,-0.1459924876689911,-0.061084724962711334,1.2919420003890991
1789324216264002600,8.67500244140625,-0.1447708010673523,0.004275931045413017,1.3390535116195679
1789324216282852900,8.693852783203125,-0.09468132257461548,-0.05925218388438225,1.395862340927124
1789324216301703200,8.712703125,-0.02870982140302658,0.04092676565051079,1.5033714771270752
1789324216320553500,8.731553466796875,0.025655584409832954,0.031153209507465363,1.6194324493408203
1789324216339403800,8.75040380859375,0.11483928561210632,-0.06841489672660828,1.7831394672393799
1789324216358254000,8.769254150390625,0.22906772792339325,-0.12033691257238388,1.8698798418045044
1789324216377104400,8.7881044921875,0.3127537965774536,-0.13927318155765533,1.8711014986038208
1789324216395954700,8.80695458984375,0.3439069986343384,-0.20463383197784424,1.9822757244110107
1789324216414805200,8.82580517578125,0.38849884271621704,-0.33230090141296387,2.197293996810913
1789324216433655600,8.844655517578126,0.4599680006504059,-0.546097457408905,2.3145766258239746
1789324216452505900,8.863505859375,0.4831801950931549,-0.6639909744262695,2.3084681034088135
1789324216480781300,8.89178125,0.3946073353290558,-0.7104153633117676,2.049468994140625
1789324216499631600,8.910631591796875,0.265718549489975,-1.216196894645691,2.0097639560699463
1789324216518482000,8.92948193359375,0.20585553348064423,-1.3512704372406006,1.867436408996582
1789324216537332200,8.948332275390625,0.1704263836145401,-0.7886037826538086,1.7727551460266113
1789324216556182500,8.9671826171875,0.2767138183116913,-0.444085955619812,1.8332289457321167
1789324216575032800,8.98603271484375,0.30969956517219543,-0.5558710098266602,1.5943876504898071
1789324216593883100,9.004883056640624,0.261442631483078,-0.474017471075058,1.3108782768249512
1789324216612733400,9.0237333984375,0.18753011524677277,-0.15087927877902985,1.060430884361267
1789324216631583700,9.042583740234376,0.1325538605451584,0.038483377546072006,0.6823163628578186
1789324216650434000,9.06143408203125,0.07330167293548584,0.20035789906978607,0.30847787857055664
1789324216669284600,9.08028466796875,0.05131116881966591,0.20463383197784424,-0.10934165865182877
1789324216688135000,9.099135009765625,0.0525328628718853,0.2980934679508209,-0.4367557764053345
1789324216706985200,9.117985107421875,0.03542914241552353,0.3414636254310608,-0.6456655263900757
1789324216725835500,9.13683544921875,-0.01710372418165207,0.5106683373451233,-0.873511552810669
1789324216744685800,9.155685791015625,-0.07024743407964706,0.6303943991661072,-1.2168077230453491
1789324216763536100,9.1745361328125,-0.12644538283348083,0.6700994372367859,-1.544909119606018
1789324216782386400,9.193386474609374,-0.2113531529903412,0.8582404255867004,-1.9132499694824219
1789324216801236700,9.21223681640625,-0.30725616216659546,1.0628741979599,-2.1820228099823
1789324216820087000,9.231087158203126,-0.4349232614040375,1.258345365524292,-2.387878179550171
1789324216838937300,9.249937255859376,-0.6554391384124756,1.1716049909591675,-2.4813380241394043
1789324216857787600,9.26878759765625,-0.8729007244110107,0.7385143637657166,-2.5546395778656006
1789324216876638000,9.287637939453125,-1.073258638381958,0.32069480419158936,-2.480116128921509
1789324216895488300,9.30648828125,-1.0616525411605835,-0.11545012891292572,-2.6273303031921387
1789324216914338600,9.325338623046875,-0.994459331035614,-0.24128466844558716,-2.663370370864868
1789324216933188900,9.34418896484375,-0.8112051486968994,-0.38605546951293945,-2.6383256912231445
1789324216952039200,9.3630390625,-0.5192201733589172,-0.3927747905254364,-2.5656347274780273
1789324216970889500,9.381889404296874,-0.2510582208633423,-0.45141613483428955,-2.4764511585235596
1789324216989739800,9.40073974609375,-0.09651386737823486,-0.5528167486190796,-2.413533926010132
1789324217008590000,9.419590087890626,0.19180603325366974,-0.5253286361694336,-2.2125651836395264
1789324217027440400,9.4384404296875,0.41048935055732727,-0.4446968138217926,-1.825287938117981
1789324217046290700,9.457290771484375,0.5222744345664978,-0.2357870489358902,-1.4154094457626343
1789324217065141000,9.47614111328125,0.40987852215766907,0.042759306728839874,-1.0378295183181763
1789324217083991600,9.494991455078125,0.2504473626613617,0.16737215220928192,-0.6474980711936951
1789324217102841900,9.513841796875,0.12278030067682266,0.0781884491443634,-0.182643324136734
1789324217121692200,9.532692138671875,0.2510582208633423,0.1044548824429512,0.21501824259757996
1789324217140542500,9.55154248046875,0.38422292470932007,0.01038440316915512,0.42698222398757935
1789324217159392800,9.570392822265624,0.40010493993759155,0.05986303091049194,0.6591041684150696
1789324217178243000,9.5892431640625,0.342074453830719,-0.06352811306715012,0.9504783153533936
1789324217197093400,9.60809326171875,0.27060532569885254,-0.22845686972141266,1.2149752378463745
1789324217215943700,9.626943603515626,0.17775654792785645,-0.20707722008228302,1.3059914112091064
1789324217234794000,9.6457939453125,0.11545012891292572,-0.3133646547794342,1.2155860662460327
1789324217253644300,9.664644287109375,0.09590301662683487,-0.2235700935125351,1.1935955286026
1789324217272494600,9.68349462890625,0.06841489672660828,-0.03420744836330414,1.2589561939239502
1789324217291345000,9.702344970703125,0.12400199472904205,0.007330167107284069,1.3011046648025513
1789324217310195200,9.7211953125,0.1716480851173401,0.13682979345321655,1.3610440492630005
1789324217329045500,9.74004541015625,0.13438639044761658,-0.0018325417768210173,1.5394114255905151
1789324217347895800,9.758895751953125,0.20524467527866364,-0.3139754831790924,1.7886371612548828
1789324217366746000,9.77774609375,0.4727957844734192,-0.44103172421455383,2.000601053237915
1789324217385596400,9.796596435546874,0.7207997441291809,-0.288930743932724,2.0732920169830322
1789324217404446700,9.81544677734375,0.7702783942222595,-0.14110571146011353,2.095893383026123
1789324217423297000,9.834297119140626,0.6383354067802429,-0.2486148327589035,2.0684051513671875
1789324217442147300,9.853147216796875,0.4752391576766968,-0.4214846193790436,2.0128180980682373
1789324217460997600,9.87199755859375,0.41048935055732727,-0.4196520745754242,1.9963252544403076
1789324217479848000,9.890847900390625,0.29259583353996277,-0.8026533126831055,1.9951034784317017
1789324217498698200,9.9096982421875,0.182643324136734,-1.0671501159667969,1.9859408140182495
1789324217517548500,9.928548583984375,0.20585553348064423,-0.8533536195755005,1.9419597387313843
1789324217536398800,9.94739892578125,0.3261924386024475,-0.675597071647644,1.987162470817566
1789324217555249200,9.966249267578124,0.34573954343795776,-0.8264763355255127,1.9010330438613892
1789324217574099500,9.985099365234374,0.3029802441596985,-0.6395570635795593,1.497262954711914
1789324217592949800,10.00394970703125,0.2339545041322708,-0.2363978922367096,1.0121738910675049
1789324217611800000,10.022800048828126,0.18814095854759216,0.13988402485847473,0.7873821258544922
1789324217630650400,10.041650390625,0.21623992919921875,0.30969956517219543,0.5344913601875305
1789324217649500700,10.060500732421875,0.23090025782585144,0.3158080279827118,0.1716480851173401
1789324217668351000,10.07935107421875,0.14660334587097168,0.4068242609500885,-0.2229592502117157
1789324217687201300,10.098201171875,0.03176405653357506,0.6077930331230164,-0.5088357925415039
1789324217706051600,10.117051513671875,-0.0397050715982914,0.70308518409729,-0.7721109390258789
1789324217724902000,10.13590185546875,-0.02504473738372326,0.7238540053367615,-1.1147962808609009
1789324217743752200,10.154752197265625,0.0030542362947016954,0.8283088803291321,-1.482602596282959
1789324217762602500,10.1736025390625,-0.09407047927379608,0.9736905097961426,-1.7990214824676514
1789324217781452800,10.192452880859374,-0.2626643180847168,1.2803359031677246,-2.0195374488830566
1789324217800303000,10.21130322265625,-0.46607646346092224,1.3445512056350708,-2.1753034591674805
1789324217819153400,10.2301533203125,-0.731184184551239,1.273005723953247,-2.26693058013916
1789324217838003700,10.249003662109375,-1.0201148986816406,0.91566002368927,-2.2931969165802
1789324217856854000,10.26785400390625,-1.2632321119308472,0.7696675658226013,-2.307246446609497
1789324217875704300,10.286704345703125,-1.2882769107818604,0.5387672781944275,-2.4037604331970215
1789324217894554600,10.3055546875,-1.2027583122253418,0.2602209448814392,-2.5143237113952637
1789324217913405000,10.324405029296875,-1.1141854524612427,-0.03420744836330414,-2.5638022422790527
1789324217932255200,10.343255126953125,-0.9181034564971924,-0.2632751762866974,-2.706129789352417
1789324217951105500,10.36210546875,-0.5632011890411377,-0.3176405727863312,-2.8154714107513428
1789324217969955800,10.380955810546874,-0.25411245226860046,-0.3439069986343384,-2.6377148628234863
1789324217988806100,10.39980615234375,-0.1960819661617279,-0.38849884271621704,-2.2596004009246826
1789324218007656400,10.418656494140626,-0.19302773475646973,-0.32069480419158936,-1.806351661682129
1789324218026506800,10.4375068359375,-0.026877280324697495,-0.08124268800020218,-1.4343457221984863
1789324218045357000,10.456357177734375,0.11178504675626755,0.16431790590286255,-1.12823486328125
1789324218064207000,10.47520703125,0.13805148005485535,0.22784602642059326,-0.7690566778182983
1789324218083057400,10.494057373046875,0.15332266688346863,0.08857285231351852,-0.34757208824157715
1789324218101907700,10.51290771484375,0.20096874237060547,-0.06169557198882103,0.012827792204916477
1789324218120758000,10.531758056640625,0.24067382514476776,0.036039989441633224,0.31947311758995056
1789324218139608300,10.5506083984375,0.3151971995830536,0.12766708433628082,0.569309651851654
1789324218158458600,10.569458740234374,0.3414636254310608,0.06413896381855011,0.8197570443153381
1789324218177309000,10.588308837890626,0.26877278089523315,-0.004886778071522713,1.109298586845398
1789324218196159200,10.6071591796875,0.19363857805728912,-0.14843589067459106,1.3414969444274902
1789324218215009500,10.626009521484375,0.16309621930122375,-0.15393351018428802,1.395862340927124
1789324218233859800,10.64485986328125,0.10689827054738998,-0.1172826737165451,1.3445512056350708
1789324218252710100,10.663710205078125,0.07696675509214401,0.07574506103992462,1.400138258934021
1789324218271560400,10.682560546875,0.03298575058579445,0.2095206081867218,1.4483952522277832
1789324218290410800,10.70141064453125,0.043981000781059265,0.13805148005485535,1.5161992311477661
1789324218309261000,10.720260986328125,0.10017894953489304,0.0922379344701767,1.678073763847351
1789324218328111400,10.739111328125,0.1710372269153595,-0.09468132257461548,1.8234554529190063
1789324218346961700,10.757961669921874,0.30908870697021484,-0.21257483959197998,1.863160490989685
1789324218365812000,10.77681201171875,0.4092676639556885,-0.28221142292022705,1.9150824546813965
1789324218384662300,10.795662353515626,0.4355340898036957,-0.29565006494522095,1.9773889780044556
1789324218403512300,10.81451220703125,0.42331716418266296,-0.27060532569885254,2.01526141166687
1789324218422362600,10.833362548828125,0.4349232614040375,-0.3518480062484741,2.0830655097961426
1789324218441213000,10.852212890625,0.40987852215766907,-0.35978904366493225,2.1258249282836914
1789324218460063200,10.871063232421875,0.35795649886131287,-0.5497625470161438,2.1001691818237305
1789324218478913500,10.88991357421875,0.2724378705024719,-0.943759024143219,2.0024337768554688
1789324218497763800,10.908763916015625,0.20524467527866364,-1.2736165523529053,1.8845402002334595
1789324218516614100,10.9276142578125,0.12827792763710022,-0.9865183234214783,1.714113712310791
1789324218535464400,10.94646435546875,0.18753011524677277,-0.5467082858085632,1.682349681854248
1789324218554314800,10.965314697265624,0.2480039894580841,-0.4556920528411865,1.562012791633606
1789324218573165000,10.9841650390625,0.23884128034114838,-0.393385648727417,1.271173119544983
1789324218592015400,11.003015380859376,0.17836740612983704,-0.18691925704479218,1.0567657947540283
1789324218610865700,11.02186572265625,0.08185353130102158,0.004886778071522713,0.836860716342926
1789324218629716000,11.040716064453125,0.06780404597520828,0.0910162404179573,0.5277720093727112
1789324218648566000,11.05956591796875,0.09468132257461548,0.10201149433851242,0.18142163753509521
1789324218667416300,11.078416259765625,0.0647498071193695,0.2113531529903412,-0.1325538605451584
1789324218686266600,11.0972666015625,0.006108472589403391,0.37078428268432617,-0.38788801431655884
1789324218705117000,11.116116943359375,-0.08490777015686035,0.6591041684150696,-0.6633801460266113
1789324218723967200,11.13496728515625,-0.19058434665203094,0.8570187091827393,-0.9834640622138977
1789324218742817500,11.153817626953124,-0.25777754187583923,1.0085088014602661,-1.3102673292160034
1789324218761667800,11.172667724609376,-0.2999260127544403,1.0341644287109375,-1.6200432777404785
1789324218780518100,11.19151806640625,-0.3646758198738098,1.1532796621322632,-1.9541767835617065
1789324218799368400,11.210368408203125,-0.5021164417266846,1.132510781288147,-2.171027421951294
1789324218818218500,11.229218505859375,-0.7207997441291809,1.1209046840667725,-2.2876992225646973
1789324218837068800,11.24806884765625,-1.0219475030899048,0.8283088803291321,-2.295640468597412
1789324218855919000,11.266919189453125,-1.2302464246749878,0.6163448691368103,-2.286477565765381
1789324218874769400,11.285769287109375,-1.2888877391815186,0.3127537965774536,-2.2565460205078125
1789324218893619700,11.30461962890625,-1.1960389614105225,0.04031591862440109,-2.4532389640808105
1789324218912470000,11.323469970703124,-1.1117420196533203,-0.07574506103992462,-2.5308165550231934
1789324218931320300,11.3423203125,-0.9810206890106201,-0.2754921019077301,-2.5509746074676514
1789324218950170600,11.361170654296876,-0.7684458494186401,-0.40193748474121094,-2.5509746074676514
1789324218969021000,11.38002099609375,-0.46241137385368347,-0.4709632396697998,-2.5198214054107666
1789324218987871000,11.39887109375,-0.2357870489358902,-0.39888325333595276,-2.4043712615966797
1789324219006721300,11.41772119140625,-0.18019993603229523,-0.291374146938324,-2.119105577468872
1789324219025571600,11.436571533203125,-0.07146912813186646,-0.17714570462703705,-1.7257198095321655
1789324219044422000,11.455421875,0.09956810623407364,0.02870982140302658,-1.3439403772354126
1789324219063272200,11.474272216796875,0.2492256760597229,0.055587101727724075,-0.9364288449287415
1789324219082122200,11.493122314453124,0.28282228112220764,0.1435490995645523,-0.5393781065940857
1789324219100972800,11.511972900390624,0.24678228795528412,-0.03787253051996231,-0.16004198789596558
1789324219119822800,11.53082275390625,0.1832541823387146,0.08979454636573792,0.17286977171897888
1789324219138673200,11.549673095703126,0.20646637678146362,0.01832541823387146,0.4489727318286896
1789324219157523500,11.5685234375,0.1960819661617279,-0.09773556143045425,0.7287407517433167
1789324219176373800,11.587373779296875,0.15087927877902985,-0.12033691257238388,0.9498674869537354
1789324219195224000,11.60622412109375,0.09651386737823486,-0.25350162386894226,1.115407109260559
1789324219214074400,11.625074462890625,0.06719319522380829,-0.21990501880645752,1.2314680814743042
1789324219232924400,11.64392431640625,0.054365407675504684,-0.16248537600040436,1.2778924703598022
1789324219251774700,11.662774658203125,0.030542362481355667,-0.07452336698770523,1.3224843740463257
1789324219270625000,11.681625,0.0024433890357613564,-0.10384403169155121,1.4068576097488403
1789324219289475300,11.700475341796874,-0.01038440316915512,-0.10689827054738998,1.4801592826843262
1789324219308325600,11.71932568359375,0.012216945178806782,-0.1575985997915268,1.5803382396697998
1789324219327175700,11.73817578125,0.09651386737823486,-0.16248537600040436,1.7104486227035522
1789324219346026000,11.75702587890625,0.21196399629116058,-0.13621893525123596,1.77642023563385
1789324219364876300,11.775876220703125,0.33352261781692505,-0.16309621930122375,1.8258987665176392
1789324219383726600,11.7947265625,0.46668729186058044,-0.29259583353996277,1.9401272535324097
1789324219402577000,11.813576904296875,0.5369347333908081,-0.4080459773540497,2.083676338195801
1789324219421427000,11.832427001953125,0.5063923597335815,-0.5613686442375183,2.1319332122802734
1789324219440277200,11.85127734375,0.46729815006256104,-0.601073682308197,2.1007800102233887
1789324219459127600,11.87012744140625,0.4709632396697998,-0.5192201733589172,2.093449831008911
1789324219477977900,11.888977783203124,0.46302223205566406,-0.5998520255088806,2.167973279953003
1789324219496828200,11.907828125,0.38788801431655884,-1.0042328834533691,2.171638250350952
1789324219515678200,11.92667822265625,0.3115321099758148,-1.3647091388702393,2.067183494567871
1789324219534528500,11.945528564453125,0.18019993603229523,-1.2058124542236328,1.867436408996582
1789324219553378800,11.96437890625,0.19302773475646973,-0.7036960124969482,1.728163242340088
1789324219572229000,11.98322900390625,0.3054236173629761,-0.5082249045372009,1.5290271043777466
1789324219591079200,12.0020791015625,0.3817795515060425,-0.44958359003067017,1.1245697736740112
1789324219619354600,12.030354736328125,0.29442837834358215,-0.0018325417768210173,0.6939224600791931
1789324219638205000,12.049204833984374,0.26755109429359436,0.1698155403137207,0.497229665517807
1789324219657055200,12.06805517578125,0.3042019307613373,0.13499724864959717,0.20157960057258606
1789324219675905500,12.086905517578124,0.24617144465446472,0.16309621930122375,-0.12400199472904205
1789324219694755600,12.105755615234376,0.12644538283348083,0.30847787857055664,-0.3439069986343384
1789324219713606000,12.12460595703125,0.02748812735080719,0.5051707029342651,-0.6762079000473022
1789324219741881300,12.15288134765625,0.046424392610788345,0.8270871639251709,-1.3378318548202515
1789324219760731600,12.171731689453125,0.031153209507465363,1.0304993391036987,-1.682349681854248
1789324219779581700,12.190581787109375,-0.1172826737165451,1.1080769300460815,-1.9358513355255127
1789324219798432000,12.209431884765625,-0.2492256760597229,1.1972606182098389,-2.164919137954712
1789324219817282300,12.2282822265625,-0.3927747905254364,1.2613996267318726,-2.291975259780884
1789324219836132400,12.24713232421875,-0.5974085927009583,1.2180293798446655,-2.2852559089660645
1789324219854982700,12.265982666015624,-0.6939224600791931,1.040272831916809,-2.420253276824951
1789324219873833000,12.2848330078125,-0.813648521900177,0.7067502737045288,-2.4611799716949463
1789324219892683300,12.303683349609376,-0.9651386737823486,0.2620534598827362,-2.558304786682129
1789324219911533600,12.322533447265625,-0.9981244206428528,0.021379653364419937,-2.686582565307617
1789324219930383600,12.341383544921875,-0.8667922616004944,-0.10323318839073181,-2.642601490020752
1789324219949234000,12.36023388671875,-0.5870242118835449,-0.08674030750989914,-2.5772409439086914
1789324219968084200,12.379084228515625,-0.3005368411540985,-0.16859383881092072,-2.4996633529663086
1789324219986934300,12.397934326171875,-0.18753011524677277,-0.2724378705024719,-2.425750732421875
1789324220005784600,12.41678466796875,-0.08063183724880219,-0.3701734244823456,-2.361611843109131
1789324220024635000,12.435634765625,0.05070032179355621,-0.3793361485004425,-2.1545345783233643
1789324220043485200,12.454485107421876,0.20585553348064423,-0.2858765125274658,-1.6854039430618286
1789324220062335200,12.473335205078126,0.28221142292022705,-0.13438639044761658,-1.1166287660598755
1789324220081185500,12.492185546875,0.17653486132621765,0.1459924876689911,-0.5961869359016418
1789324220100035800,12.511035888671875,0.08612946420907974,0.17225892841815948,-0.25411245226860046
1789324220118886000,12.529885986328125,0.10201149433851242,0.14049486815929413,-0.008551862090826035
1789324220137736200,12.548736083984375,0.24311721324920654,0.12522368133068085,0.2901524603366852
1789324220156586500,12.56758642578125,0.3127537965774536,0.053143709897994995,0.5479300022125244
1789324220175436500,12.5864365234375,0.30908870697021484,0.054365407675504684,0.735460102558136
1789324220194286800,12.605286865234374,0.24250635504722595,-0.05497625470161438,0.9419264793395996
1789324220213137200,12.62413720703125,0.17714570462703705,-0.1423274129629135,1.13800847530365
1789324220231987200,12.6429873046875,0.12216944992542267,-0.0397050715982914,1.2198619842529297
1789324220250837500,12.66183740234375,0.07391251623630524,-0.05803048983216286,1.2412415742874146
1789324220269687800,12.680687744140625,0.01710372418165207,0.08429691940546036,1.2589561939239502
1789324220288537900,12.699537841796875,-0.004886778071522713,0.07146912813186646,1.2968287467956543
1789324220307388200,12.71838818359375,0.07574506103992462,-0.14721418917179108,1.4416759014129639
1789324220326238500,12.737238525390625,0.2602209448814392,-0.08063183724880219,1.6066046953201294
1789324220345088500,12.756088623046875,0.40193748474121094,0.12155860662460327,1.6683002710342407
1789324220363938800,12.774938720703124,0.41110020875930786,0.11483928561210632,1.6933449506759644
1789324220382789000,12.7937890625,0.34818294644355774,-0.07574506103992462,1.8448350429534912
1789324220401639200,12.81263916015625,0.3817795515060425,-0.21257483959197998,1.9773889780044556
1789324220420489500,12.831489501953126,0.4459185004234314,-0.3005368411540985,2.055577278137207
1789324220439339800,12.85033984375,0.4679090082645416,-0.3805578351020813,2.0971150398254395
1789324220458189800,12.86918994140625,0.45263782143592834,-0.38422292470932007,2.1227705478668213
1789324220477040000,12.8880400390625,0.37200596928596497,-0.5155550837516785,2.1459827423095703
1789324220495890400,12.906890380859375,0.2626643180847168,-0.9290986657142639,2.09039568901062
1789324220514740500,12.925740478515625,0.20035789906978607,-1.073258638381958,1.9725021123886108
1789324220533590800,12.9445908203125,0.1423274129629135,-0.7348492741584778,1.8509435653686523
1789324220552441000,12.963441162109374,0.20035789906978607,-0.6511631608009338,1.8118493556976318
1789324220571291100,12.982291015625,0.26755109429359436,-0.6981984376907349,1.64569890499115
1789324220590141400,13.001141357421876,0.24128466844558716,-0.4416425824165344,1.3616548776626587
1789324220608991500,13.019991455078125,0.20035789906978607,-0.14965757727622986,1.0469921827316284
1789324220627841800,13.038841796875,0.1185043677687645,-0.04581354558467865,0.7146912813186646
1789324220646692000,13.057692138671875,0.06902574002742767,0.01710372418165207,0.35795649886131287
1789324220665542100,13.076542236328125,0.01832541823387146,0.1960819661617279,0.0787992998957634
1789324220684392400,13.095392333984375,-0.006108472589403391,0.34696123003959656,-0.1979145109653473
1789324220703242800,13.11424267578125,-0.030542362481355667,0.5222744345664978,-0.5473191738128662
1789324220722092800,13.1330927734375,-0.12827792763710022,0.6951441764831543,-0.7983773946762085
1789324220740943000,13.151943115234374,-0.21440738439559937,0.7299624681472778,-1.0769237279891968
1789324220759793200,13.170793212890626,-0.26877278089523315,0.836860716342926,-1.4202961921691895
1789324220778643500,13.1896435546875,-0.35856732726097107,0.966971218585968,-1.7116703987121582
1789324220797493500,13.208493408203125,-0.5088357925415039,1.014006495475769,-1.9114174842834473
1789324220816343800,13.22734375,-0.6578825116157532,1.0506572723388672,-2.0647401809692383
1789324220835193900,13.24619384765625,-0.8386932611465454,1.1044118404388428,-2.1209380626678467
1789324220854044200,13.265044189453125,-1.0274450778961182,0.8674030900001526,-2.238220691680908
1789324220872894500,13.28389453125,-1.1459494829177856,0.5790832042694092,-2.289531946182251
1789324220891744500,13.30274462890625,-1.1709941625595093,0.3970507085323334,-2.338399648666382
1789324220910594800,13.3215947265625,-1.0873081684112549,0.34573954343795776,-2.4850029945373535
1789324220929444900,13.34044482421875,-0.9620844125747681,0.08796200156211853,-2.570521593093872
1789324220948295200,13.359295166015626,-0.7995990514755249,-0.18081079423427582,-2.6151134967803955
1789324220967145200,13.378145263671875,-0.5332696437835693,-0.3530697226524353,-2.5741868019104004
1789324220985995500,13.39699560546875,-0.2987042963504791,-0.34451785683631897,-2.399484395980835
1789324221004845800,13.415845703125,-0.1435490995645523,-0.28098973631858826,-2.2101216316223145
1789324221023696000,13.43469580078125,-0.04153761267662048,-0.2339545041322708,-1.95967435836792
1789324221042546200,13.453546142578125,0.0647498071193695,-0.15149012207984924,-1.5748405456542969
1789324221061396200,13.472396240234374,0.2101314514875412,-0.1172826737165451,-1.1545013189315796
1789324221080246500,13.49124658203125,0.37139514088630676,-0.03298575058579445,-0.791047215461731
1789324221099096600,13.5100966796875,0.3927747905254364,0.08918370306491852,-0.42881476879119873
1789324221117947000,13.52894677734375,0.26999449729919434,0.1960819661617279,-0.07085828483104706
1789324221136797000,13.547796875,0.1698155403137207,0.16065283119678497,0.284654825925827
1789324221155647200,13.566647216796875,0.11483928561210632,0.09712471067905426,0.5919110178947449
1789324221174497300,13.585497314453125,0.0781884491443634,0.036039989441633224,0.8050966858863831
1789324221193347600,13.60434765625,0.026877280324697495,-0.03176405653357506,0.9614735841751099
1789324221212197600,13.62319775390625,0.007941014133393764,-0.10628741979598999,1.13800847530365
1789324221231048000,13.6420478515625,0.01710372418165207,-0.16859383881092072,1.2333005666732788
1789324221249898000,13.66089794921875,0.012827792204916477,-0.1453816443681717,1.202147364616394
1789324221268748300,13.679748291015626,-0.0030542362947016954,-0.10384403169155121,1.1740484237670898
1789324221287598300,13.698598388671876,0.009773556143045425,-0.06902574002742767,1.258345365524292
1789324221306448600,13.71744873046875,0.01954711228609085,-0.08429691940546036,1.4038033485412598
1789324221325298700,13.736298583984375,0.10201149433851242,-0.17775654792785645,1.585224986076355
1789324221344149000,13.75514892578125,0.2095206081867218,-0.10628741979598999,1.7403801679611206
1789324221362999000,13.7739990234375,0.3261924386024475,-0.09040539711713791,1.7904696464538574
1789324221381849300,13.792849365234375,0.418430358171463,-0.10873081535100937,1.881485939025879
1789324221400699400,13.811699462890624,0.4990622103214264,-0.3115321099758148,2.072070360183716
1789324221419549700,13.8305498046875,0.5558710098266602,-0.517998456954956,2.2296688556671143
1789324221438399700,13.849399658203126,0.550373375415802,-0.47707170248031616,2.2253928184509277
1789324221457250000,13.86825,0.45202696323394775,-0.4434750974178314,2.1551454067230225
1789324221485525200,13.896525146484375,0.2113531529903412,-0.7226322889328003,2.1032235622406006
1789324221504375300,13.915375244140625,0.15271180868148804,-0.9290986657142639,1.9859408140182495
1789324221523225600,13.9342255859375,0.1820324808359146,-0.8130376935005188,1.8827075958251953
1789324221542075600,13.95307568359375,0.28404396772384644,-0.5790832042694092,1.816736102104187
1789324221560926000,13.971926025390625,0.312142938375473,-0.6230642199516296,1.7416019439697266
1789324221579776000,13.99077587890625,0.258999228477478,-0.6022953987121582,1.5223077535629272
1789324221598626000,14.0096259765625,0.24067382514476776,-0.4679090082645416,1.132510781288147
1789324221617476400,14.028476318359376,0.22051586210727692,-0.20646637678146362,0.7207997441291809
1789324221636326700,14.04732666015625,0.13621893525123596,-0.11545012891292572,0.3811686933040619
1789324221655176700,14.0661767578125,0.0647498071193695,-0.15210096538066864,0.16187451779842377
1789324221674026800,14.08502685546875,0.03787253051996231,-0.06902574002742767,-0.08246438205242157
1789324221692877000,14.103876953125,-0.016492875292897224,0.14049486815929413,-0.38605546951293945
1789324221711727000,14.12272705078125,-0.0916270911693573,0.3805578351020813,-0.7006418108940125
1789324221730577400,14.141577392578125,-0.16126367449760437,0.660936713218689,-0.9217684864997864
1789324221749427500,14.160427490234374,-0.14782503247261047,0.9303203821182251,-1.206423282623291
1789324221768277500,14.179277587890626,-0.13438639044761658,1.0683718919754028,-1.5253620147705078
1789324221787127800,14.1981279296875,-0.22784602642059326,1.1038010120391846,-1.8283421993255615
1789324221805977900,14.216977783203125,-0.3432961702346802,1.0714260339736938,-2.0647401809692383
1789324221824828200,14.235828125,-0.5332696437835693,0.8991671800613403,-2.1759142875671387
1789324221843678200,14.25467822265625,-0.8295305967330933,0.6865923404693604,-2.2449400424957275
1789324221862528300,14.2735283203125,-1.0195040702819824,0.5760289430618286,-2.364665985107422
1789324221881378600,14.292378662109375,-1.0702043771743774,0.3787252902984619,-2.3555033206939697
1789324221900228600,14.311228515625,-0.9804098606109619,0.26999449729919434,-2.422696590423584
1789324221919078700,14.33007861328125,-0.8264763355255127,0.1973036676645279,-2.5338706970214844
1789324221937929000,14.348928955078126,-0.6462764143943787,0.05619794875383377,-2.6432125568389893
1789324221956779000,14.367779052734376,-0.43797749280929565,-0.018936265259981155,-2.7104055881500244
1789324221975629300,14.38662939453125,-0.18875180184841156,0.033596597611904144,-2.5222647190093994
1789324221994479400,14.405479248046875,-0.023823043331503868,0.053143709897994995,-2.275482416152954
1789324222013329400,14.424329345703125,-0.056808795779943466,-0.21623992919921875,-2.1581997871398926
1789324222032179700,14.4431796875,-0.03237490355968475,-0.3787252902984619,-1.9767780303955078
1789324222051029800,14.46202978515625,0.16553960740566254,-0.06291726976633072,-1.7452670335769653
1789324222069879800,14.4808798828125,0.26694026589393616,-0.04886778071522713,-1.2876659631729126
1789324222088730000,14.499730224609374,0.25289076566696167,-0.02076880633831024,-0.7598940134048462
1789324222107580200,14.518580078125,0.15332266688346863,-0.06047387793660164,-0.21562908589839935
1789324222126430200,14.53743017578125,0.12216944992542267,-0.1704263836145401,0.3139754831790924
1789324222145280500,14.556280517578125,0.14171656966209412,-0.029320668429136276,0.7134696245193481
1789324222164130600,14.575130615234375,0.24250635504722595,-0.04825693368911743,0.9767447710037231
1789324222182980600,14.593980712890625,0.26755109429359436,-0.014660334214568138,1.1508362293243408
1789324222201831000,14.612830810546875,0.2217375487089157,-0.02076880633831024,1.273005723953247
1789324222220681000,14.631680908203125,0.14171656966209412,-0.030542362481355667,1.3689850568771362
1789324222239531000,14.650531005859374,0.046424392610788345,-0.19180603325366974,1.4661097526550293
1789324222258381000,14.669381103515626,0.00916270911693573,-0.183865025639534,1.5290271043777466
1789324222277231400,14.6882314453125,-0.015271181240677834,-0.1582094430923462,1.5675103664398193
1789324222296081400,14.707081298828125,0.0006108472589403391,0.0018325417768210173,1.5876684188842773
1789324222314931500,14.725931396484375,-0.0030542362947016954,0.16004198789596558,1.452060341835022
1789324222333781800,14.74478173828125,0.13377554714679718,0.10017894953489304,1.4398432970046997
1789324222352631800,14.7636318359375,0.3542914092540741,-0.054365407675504684,1.687847375869751
1789324222371481900,14.78248193359375,0.5424323678016663,-0.1569877415895462,1.783750295639038
1789324222390332200,14.801332275390624,0.4984513521194458,-0.2241809368133545,1.7226656675338745
1789324222409182200,14.82018212890625,0.34635040163993835,-0.49051034450531006,1.7318283319473267
1789324222428032300,14.8390322265625,0.30725616216659546,-0.5748072862625122,1.857051968574524
1789324222446882300,14.85788232421875,0.35978904366493225,-0.6487197875976562,2.0140397548675537
1789324222465732600,14.876732666015625,0.4214846193790436,-0.7482879161834717,2.121548891067505
1789324222484582700,14.895582763671875,0.37200596928596497,-1.0042328834533691,2.228447198867798
1789324222503432700,14.9144326171875,0.2919849753379822,-1.4514493942260742,2.156978130340576
1789324222522282800,14.93328271484375,0.31947311758995056,-1.0537115335464478,1.9737238883972168
1789324222541133000,14.952133056640625,0.49112120270729065,-0.38727715611457825,1.8918702602386475
1789324222559983000,14.970983154296874,0.47829338908195496,-0.24067382514476776,1.7751984596252441
1789324222578833200,14.989833251953126,0.32252734899520874,-0.26938363909721375,1.4716074466705322
1789324222597683200,15.00868310546875,0.19058434665203094,-0.1698155403137207,1.1984822750091553
1789324222616533500,15.027533447265625,0.17225892841815948,-0.09284878522157669,0.8961129188537598
1789324222635383600,15.046383544921875,0.18019993603229523,0.026877280324697495,0.5980194807052612
1789324222654233600,15.065233642578125,0.20646637678146362,-0.017714571207761765,0.14965757727622986
1789324222673083600,15.084083740234375,0.12461283802986145,0.23884128034114838,-0.2724378705024719
1789324222691934000,15.102933837890625,0.05497625470161438,0.42881476879119873,-0.624285876750946
1789324222710784000,15.121783935546874,-0.01954711228609085,0.6872031688690186,-0.9364288449287415
1789324222729634000,15.140634033203124,-0.07696675509214401,0.7568397521972656,-1.2705622911453247
1789324222748484000,15.159484130859376,-0.1569877415895462,1.0256125926971436,-1.5546826124191284
1789324222767334100,15.178334228515626,-0.3017585575580597,1.0665392875671387,-1.8118493556976318
1789324222786184400,15.197184326171875,-0.4037700295448303,1.192984700202942,-2.0445821285247803
1789324222805034500,15.216034423828125,-0.5479300022125244,0.9517000317573547,-2.258378744125366
1789324222823884500,15.234884521484375,-0.8038749694824219,0.9425373077392578,-2.241274833679199
1789324222842734600,15.253734619140625,-0.9523108601570129,0.897334635257721,-2.4471304416656494
1789324222861584600,15.272584716796874,-1.1264023780822754,0.8496885299682617,-2.457514762878418
1789324222880434700,15.2914345703125,-1.1783243417739868,0.4324798583984375,-2.5833494663238525
1789324222899285000,15.310284912109376,-1.0854755640029907,0.056808795779943466,-2.668868064880371
1789324222918135000,15.329135009765626,-0.8991671800613403,-0.1050657257437706,-2.680474042892456
1789324222936985000,15.347985107421875,-0.5192201733589172,-0.24067382514476776,-2.550363779067993
1789324222955835100,15.366835205078125,-0.25533416867256165,-0.24189551174640656,-2.298083782196045
1789324222984110300,15.3951103515625,-0.12705622613430023,-0.3530697226524353,-2.128268241882324
1789324223002960400,15.41396044921875,0.05131116881966591,-0.4856235682964325,-2.0305325984954834
1789324223021810400,15.432810546875,0.3396310806274414,-0.30969956517219543,-1.7147246599197388
1789324223040660500,15.451660400390624,0.4178195297718048,-0.27976804971694946,-1.243685007095337
1789324223059510500,15.470510498046876,0.3811686933040619,-0.18691925704479218,-0.813648521900177
1789324223078360800,15.48936083984375,0.31092125177383423,-0.047646086663007736,-0.41537612676620483
1789324223097211000,15.5082109375,0.3268032968044281,0.19119518995285034,-0.04337015375494957
1789324223116061000,15.52706103515625,0.3274141252040863,0.22906772792339325,0.26632940769195557
1789324223134911000,15.545910888671875,0.21196399629116058,0.18019993603229523,0.6157340407371521
1789324223153761000,15.564760986328125,0.09284878522157669,-0.13316470384597778,0.8729007244110107
1789324223172611000,15.583611083984374,0.06291726976633072,-0.018936265259981155,1.035386085510254
1789324223191461000,15.602461181640624,0.09468132257461548,-0.0018325417768210173,1.0695935487747192
1789324223210311200,15.621311279296876,0.1301104724407196,0.08551861345767975,1.0805888175964355
1789324223229161500,15.640161376953126,0.09468132257461548,0.08490777015686035,1.0811996459960938
1789324223248011500,15.659011474609375,0.03237490355968475,-0.07635590434074402,1.1349542140960693
1789324223266861600,15.677861572265625,0.07085828483104706,-0.08918370306491852,1.340886116027832
1789324223285711600,15.696711669921875,0.14965757727622986,-0.10995250940322876,1.5943876504898071
1789324223304561700,15.715561767578125,0.30847787857055664,-0.051922015845775604,1.7959673404693604
1789324223323411700,15.73441162109375,0.3530697226524353,-0.055587101727724075,1.8515543937683105
1789324223342261800,15.75326171875,0.37322768568992615,-0.11422843486070633,1.8711014986038208
1789324223361111800,15.77211181640625,0.40132665634155273,-0.09834641218185425,1.908974051475525
1789324223379961900,15.7909619140625,0.46485477685928345,-0.20280128717422485,2.0513014793395996
1789324223398812000,15.80981201171875,0.6120689511299133,-0.390942245721817,2.180190324783325
1789324223417662000,15.828661865234375,0.6322268843650818,-0.5790832042694092,2.234555721282959
1789324223436512000,15.847511962890625,0.4563029110431671,-0.7317950129508972,2.159421443939209
1789324223455362000,15.866362060546875,0.2864873707294464,-0.8472451567649841,2.0390844345092773
1789324223483637200,15.89463720703125,0.05741964280605316,-1.1117420196533203,1.945624828338623
1789324223502487300,15.9134873046875,0.1044548824429512,-0.7531746625900269,1.9584527015686035
1789324223521337300,15.93233740234375,0.29320669174194336,-0.5668662786483765,1.9926601648330688
1789324223540187400,15.9511875,0.3384093940258026,-0.6462764143943787,1.6658568382263184
1789324223559037400,15.970037353515625,0.27854636311531067,-0.3426853120326996,1.3940298557281494
1789324223577887500,15.988887451171875,0.21929416060447693,-0.07024743407964706,1.0708152055740356
1789324223596737500,16.007737548828125,0.16615045070648193,0.004275931045413017,0.6743753552436829
1789324223615587600,16.026587646484376,0.10140064358711243,0.10017894953489304,0.3115321099758148
1789324223634437600,16.045437744140624,0.03298575058579445,0.11911521852016449,0.023212196305394173
1789324223653287700,16.06428759765625,-0.014660334214568138,0.3255815804004669,-0.3640649616718292
1789324223672137700,16.0831376953125,-0.033596597611904144,0.3946073353290558,-0.6065713167190552
1789324223690987800,16.10198779296875,-0.06902574002742767,0.555260181427002,-0.8686248064041138
1789324223709837800,16.120837890625,-0.15210096538066864,0.6700994372367859,-1.111131191253662
1789324223728687900,16.13968798828125,-0.2376195788383484,0.8655705451965332,-1.3781477212905884
1789324223747538000,16.158537841796875,-0.3787252902984619,1.0066763162612915,-1.6890690326690674
1789324223766388200,16.17738818359375,-0.5008947253227234,1.109298586845398,-1.9187475442886353
1789324223785238300,16.19623828125,-0.6413896083831787,1.1587772369384766,-2.116051197052002
1789324223804088300,16.21508837890625,-0.888171911239624,0.9462023973464966,-2.1435394287109375
1789324223822938400,16.2339384765625,-1.0928057432174683,0.7745543122291565,-2.2223386764526367
1789324223841788200,16.2527880859375,-1.1551121473312378,0.7391251921653748,-2.289531946182251
1789324223860638200,16.27163818359375,-1.156944751739502,0.5155550837516785,-2.346951484680176
1789324223879488300,16.29048828125,-1.1404517889022827,0.21562908589839935,-2.4703426361083984
1789324223898338300,16.30933837890625,-1.041494607925415,0.06291726976633072,-2.518599510192871
1789324223917188400,16.328188232421876,-0.8044858574867249,0.037261683493852615,-2.4294159412384033
1789324223936038400,16.347038330078124,-0.48989951610565186,-0.005497625097632408,-2.2687630653381348
1789324223954888400,16.365888427734376,-0.3390202224254608,-0.0390942245721817,-2.1325440406799316
1789324223983163600,16.39416357421875,-0.16126367449760437,-0.3665083646774292,-1.9419597387313843
1789324224002013400,16.413013427734374,0.08185353130102158,-0.37322768568992615,-1.7440452575683594
1789324224020863700,16.43186376953125,0.3164188861846924,-0.12705622613430023,-1.4367891550064087
1789324224039713500,16.450713623046877,0.36039987206459045,0.03176405653357506,-1.0763128995895386
1789324224058563600,16.4695634765625,0.20096874237060547,0.030542362481355667,-0.610236406326294
1789324224077413600,16.48841357421875,0.004886778071522713,0.01954711228609085,-0.10140064358711243
1789324224096263700,16.507263671875,0.023212196305394173,0.15454435348510742,0.31825143098831177
1789324224115113700,16.52611376953125,0.11422843486070633,0.14660334587097168,0.577861487865448
1789324224133963800,16.5449638671875,0.10628741979598999,-0.0018325417768210173,0.7684458494186401
1789324224152813800,16.563813720703124,0.08490777015686035,0.04825693368911743,0.9578084945678711
1789324224171664000,16.582663818359375,0.07452336698770523,0.0659715011715889,1.100746750831604
1789324224190514000,16.601513916015627,0.04703523963689804,0.12094775587320328,1.136786699295044
1789324224209364000,16.620364013671875,-0.047646086663007736,-0.00916270911693573,1.1392301321029663
1789324224228213800,16.6392138671875,-0.06169557198882103,-0.037261683493852615,1.2571237087249756
1789324224247063800,16.658063720703126,-0.08735115826129913,-0.10323318839073181,1.3561573028564453
1789324224265913900,16.676913818359374,-0.05864133685827255,-0.15087927877902985,1.4471734762191772
1789324224284764000,16.695763916015625,-0.033596597611904144,-0.08429691940546036,1.5913335084915161
1789324224303614000,16.714614013671873,0.07330167293548584,-0.12766708433628082,1.8118493556976318
1789324224322464000,16.733464111328125,0.291374146938324,-0.22906772792339325,1.900422215461731
1789324224341314000,16.75231396484375,0.5063923597335815,-0.31031039357185364,1.903476357460022
1789324224360164000,16.7711640625,0.5894675850868225,-0.284654825925827,1.8234554529190063
1789324224379014000,16.790013916015624,0.522885262966156,-0.33596599102020264,1.8185685873031616
1789324224397864000,16.808864013671876,0.365286648273468,-0.5980194807052612,1.9651719331741333
1789324224416714000,16.8277138671875,0.3176405727863312,-0.8160919547080994,2.026867628097534
1789324224435564000,16.84656396484375,0.41110020875930786,-0.7391251921653748,1.9486790895462036
1789324224454414000,16.8654140625,0.3946073353290558,-1.1306782960891724,1.8222336769104004
1789324224482689000,16.89368896484375,0.29259583353996277,-1.5174208879470825,1.571175456047058
1789324224501539000,16.9125390625,0.3512371778488159,-1.1520578861236572,1.4618338346481323
1789324224520389000,16.93138916015625,0.4062134325504303,-0.8063184022903442,1.5369681119918823
1789324224539239000,16.950239013671876,0.3781144618988037,-0.841747522354126,1.465498924255371
1789324224558089000,16.9690888671875,0.3689517378807068,-0.6529957056045532,1.207645058631897
1789324224576939000,16.98793896484375,0.25716668367385864,-0.3823903799057007,0.864959716796875
1789324224595789000,17.0067890625,0.1319430023431778,-0.014660334214568138,0.6358919739723206
1789324224614639000,17.02563916015625,0.05986303091049194,0.2211267054080963,0.4196520745754242
1789324224633489200,17.0444892578125,0.16187451779842377,0.2980934679508209,0.2345653474330902
1789324224652339000,17.0633388671875,0.21990501880645752,0.4355340898036957,-0.09284878522157669
1789324224671189000,17.08218896484375,0.1966928243637085,0.42637139558792114,-0.43981003761291504
1789324224690039000,17.1010390625,0.09468132257461548,0.5173876285552979,-0.873511552810669
1789324224708889000,17.11988916015625,-0.0781884491443634,0.80937260389328,-1.2278029918670654
1789324224727739100,17.1387392578125,-0.18142163753509521,0.92054682970047,-1.4942086935043335
1789324224746589000,17.1575888671875,-0.19913621246814728,1.1545013189315796,-1.7391585111618042
1789324224765439000,17.17643896484375,-0.24556060135364532,1.1899304389953613,-1.8784316778182983
1789324224784289000,17.1952890625,-0.37383851408958435,1.159998893737793,-2.1087210178375244
1789324224803139000,17.21413916015625,-0.6175665855407715,0.8448017835617065,-2.1722493171691895
1789324224821988900,17.23298876953125,-0.7831062078475952,0.9144383668899536,-2.3060247898101807
1789324224840839000,17.2518388671875,-0.9077190160751343,0.7592831254005432,-2.4624016284942627
1789324224859689000,17.27068896484375,-1.0103414058685303,0.5338805317878723,-2.4709534645080566
1789324224878539000,17.2895390625,-0.9382613897323608,0.2736595869064331,-2.6383256912231445
1789324224897389000,17.30838916015625,-0.832584798336029,0.3683409094810486,-2.645655870437622
1789324224916238800,17.32723876953125,-0.6896465420722961,0.18936264514923096,-2.6389365196228027
1789324224935089000,17.3460888671875,-0.4434750974178314,0.07635590434074402,-2.5723540782928467
1789324224953939000,17.36493896484375,-0.1948602795600891,-0.01710372418165207,-2.390932559967041
1789324224982214000,17.3932138671875,-0.06963659077882767,-0.05131116881966591,-1.9841082096099854
1789324225001064000,17.41206396484375,0.033596597611904144,-0.07574506103992462,-1.667689323425293
1789324225038763800,17.449763671875,0.3304683566093445,-0.0012216945178806782,-0.92054682970047
1789324225057613800,17.46861376953125,0.3946073353290558,-0.016492875292897224,-0.522885262966156
1789324225076463600,17.487463623046875,0.30725616216659546,-0.04947862774133682,-0.062306419014930725
1789324225095313700,17.506313720703126,0.20463383197784424,-0.05864133685827255,0.2980934679508209
1789324225114163700,17.525163818359374,0.08918370306491852,0.15332266688346863,0.5387672781944275
1789324225133013500,17.544013427734374,0.04825693368911743,-0.09529217332601547,0.7757760286331177
1789324225151863600,17.562863525390625,0.034818295389413834,0.01588202826678753,1.0408837795257568
1789324225170713600,17.581713623046873,0.08429691940546036,0.01710372418165207,1.207645058631897
1789324225189563400,17.6005634765625,0.12827792763710022,-0.10934165865182877,1.1490037441253662
1789324225208413400,17.619413330078125,0.04886778071522713,-0.05131116881966591,1.2846118211746216
1789324225227263500,17.638263427734376,-0.004275931045413017,-0.14171656966209412,1.5455199480056763
1789324225246113500,17.657113525390624,-0.012216945178806782,-0.0030542362947016954,1.6450880765914917
1789324225264963300,17.67596337890625,-0.05375456064939499,0.15271180868148804,1.5168100595474243
1789324225283813400,17.6948134765625,-0.042759306728839874,0.1973036676645279,1.5076473951339722
1789324225302663200,17.7136630859375,0.024433890357613564,0.16737215220928192,1.59988534450531
1789324225321513200,17.73251318359375,0.19302773475646973,-0.03542914241552353,1.7202222347259521
1789324225340363300,17.75136328125,0.3903313875198364,-0.21868331730365753,1.835672378540039
1789324225359213000,17.770213134765626,0.48012593388557434,-0.5149442553520203,1.9248560667037964
1789324225378063000,17.78906298828125,0.5112791657447815,-0.5308262705802917,2.003044605255127
1789324225396913200,17.8079130859375,0.5173876285552979,-0.6792621612548828,2.1545345783233643
1789324225415763000,17.826762939453126,0.5473191738128662,-0.6682668924331665,2.3060247898101807
1789324225434613000,17.845613037109374,0.46241137385368347,-0.7281299233436584,2.2883102893829346
1789324225453462800,17.864462890625,0.39643988013267517,-1.409911870956421,2.2938077449798584
1789324225481737700,17.89273779296875,0.4593571424484253,-1.318819284439087,1.8362832069396973
1789324225500587800,17.911587890625,0.3970507085323334,-0.7140804529190063,1.6383687257766724
1789324225519437800,17.930437744140626,0.2504473626613617,-0.6633801460266113,1.4832135438919067
1789324225538287600,17.94928759765625,0.21807247400283813,-0.7684458494186401,1.0531007051467896
1789324225557137700,17.9681376953125,0.22479179501533508,-0.53143709897995,0.7788302302360535
1789324225575987500,17.986987548828125,0.20096874237060547,-0.4556920528411865,0.554649293422699
1789324225594837500,18.00583740234375,0.2211267054080963,-0.42881476879119873,0.37567105889320374
1789324225613687600,18.0246875,0.1979145109653473,-0.1319430023431778,0.1172826737165451
1789324225632537300,18.043537353515624,0.014660334214568138,0.20280128717422485,-0.03237490355968475
1789324225651387400,18.062387451171876,-0.07635590434074402,0.40010493993759155,-0.2217375487089157
1789324225670237400,18.081237548828124,-0.12278030067682266,0.6273401379585266,-0.469741553068161
1789324225689087200,18.100087158203124,-0.14660334587097168,0.9718579649925232,-0.7989882230758667
1789324225707937300,18.118937255859375,-0.2345653474330902,1.0854755640029907,-1.0286667346954346
1789324225726787000,18.137787109375,-0.2596100866794586,1.2949961423873901,-1.3200409412384033
1789324225745637000,18.15663720703125,-0.3261924386024475,1.482602596282959,-1.692123293876648
1789324225764487000,18.17548681640625,-0.4611896872520447,1.4392324686050415,-2.086730480194092
1789324225783337000,18.1943369140625,-0.7403468489646912,0.9706363081932068,-2.2449400424957275
1789324225802186800,18.213186767578126,-1.003622055053711,0.5442649126052856,-2.33901047706604
1789324225821036800,18.232036865234374,-1.1031901836395264,0.3573456406593323,-2.3829915523529053
1789324225839886800,18.250886962890625,-0.9895725846290588,0.014660334214568138,-2.4966092109680176
1789324225858736600,18.269736572265625,-0.8661814332008362,-0.13682979345321655,-2.6181676387786865
1789324225877586700,18.288586669921877,-0.7134696245193481,-0.24494975805282593,-2.6621487140655518
1789324225896436500,18.3074365234375,-0.42759308218955994,-0.30664533376693726,-2.579684257507324
1789324225915286500,18.32628662109375,-0.12155860662460327,-0.3255815804004669,-2.511880397796631
1789324225934136300,18.34513623046875,0.15026842057704926,-0.23334364593029022,-2.466677665710449
1789324225952986400,18.363986328125,0.2486148327589035,-0.25472331047058105,-2.3139657974243164
1789324225981261000,18.392260986328125,0.25655585527420044,-0.33230090141296387,-2.0684051513671875
1789324226000111000,18.411111083984373,0.2492256760597229,-0.32130566239356995,-1.6854039430618286
1789324226018961000,18.4299609375,0.342074453830719,-0.11300674080848694,-1.1416735649108887
1789324226037811000,18.44881103515625,0.37078428268432617,-0.04031591862440109,-0.5851916670799255
1789324226056660700,18.46766064453125,0.3158080279827118,0.1044548824429512,-0.16431790590286255
1789324226075510800,18.4865107421875,0.24128466844558716,0.21807247400283813,0.1850867122411728
1789324226094360600,18.505360595703124,0.22906772792339325,0.183865025639534,0.5540384650230408
1789324226113210600,18.524210693359375,0.21196399629116058,0.09956810623407364,0.841747522354126
1789324226132060400,18.543060302734375,0.1447708010673523,0.04825693368911743,0.9596410393714905
1789324226150910500,18.561910400390627,0.04092676565051079,0.130721315741539,1.0445488691329956
1789324226169760300,18.58076025390625,-0.05131116881966591,-0.024433890357613564,1.152668833732605
1789324226188610300,18.5996103515625,-0.12888877093791962,0.09956810623407364,1.2827792167663574
1789324226207460000,18.618460205078126,-0.17409147322177887,0.05741964280605316,1.3506596088409424
1789324226226310100,18.63731005859375,-0.11300674080848694,0.04337015375494957,1.3995274305343628
1789324226245160000,18.656159912109374,0.0525328628718853,-0.015271181240677834,1.5186426639556885
1789324226264010000,18.675010009765625,0.31825143098831177,-0.022601349279284477,1.6383687257766724
1789324226282859800,18.69385986328125,0.5351021885871887,0.016492875292897224,1.7379368543624878
1789324226301709600,18.71270947265625,0.5405998229980469,-0.24678228795528412,1.863160490989685
1789324226320559600,18.7315595703125,0.569309651851654,-0.5363239049911499,2.0256459712982178
1789324226339409400,18.750409423828124,0.5888567566871643,-0.49295374751091003,1.9816648960113525
1789324226358259500,18.769259521484376,0.5894675850868225,-0.5125008225440979,1.8460568189620972
1789324226377109200,18.788109130859375,0.4715740978717804,-0.5027272701263428,1.8045191764831543
1789324226395959300,18.806959228515623,0.34757208824157715,-0.5619794726371765,1.7874153852462769
1789324226414809000,18.82580908203125,0.25594499707221985,-0.8258655071258545,1.8778208494186401
1789324226433659000,18.844658935546875,0.08429691940546036,-1.3273711204528809,2.0250349044799805
1789324226452509000,18.863509033203126,0.038483377546072006,-1.4612230062484741,1.8686580657958984
1789324226471358700,18.882358642578126,0.20219044387340546,-0.7525638341903687,1.7959673404693604
1789324226490208800,18.901208740234374,0.2877090573310852,-0.5381564497947693,1.8552194833755493
1789324226509058600,18.92005859375,0.21440738439559937,-0.7855495810508728,1.8460568189620972
1789324226527908400,18.938908447265625,0.1588202863931656,-0.5515950918197632,1.405635952949524
1789324226546758400,18.95775830078125,0.08551861345767975,-0.13927318155765533,0.9956810474395752
1789324226565608200,18.976608154296876,0.0525328628718853,-0.01588202826678753,0.6316160559654236
1789324226584458200,18.995458251953124,0.0653606578707695,0.2351761907339096,0.17409147322177887
1789324226603308000,19.01430810546875,0.08490777015686035,0.34635040163993835,-0.11056335270404816
1789324226622157800,19.03315771484375,0.06047387793660164,0.3640649616718292,-0.2993151545524597
1789324226641007900,19.0520078125,0.04947862774133682,0.48989951610565186,-0.6126797795295715
1789324226659857700,19.070857666015623,-0.034818295389413834,0.6132906675338745,-0.9694145917892456
1789324226678707500,19.08970751953125,-0.10201149433851242,0.6829272508621216,-1.4135769605636597
1789324226697557500,19.1085576171875,-0.20402298867702484,0.975523054599762,-1.7550405263900757
1789324226716407300,19.1274072265625,-0.2632751762866974,0.9736905097961426,-2.011596441268921
1789324226735257000,19.146257080078126,-0.39766156673431396,1.248571753501892,-2.1862986087799072
1789324226754107100,19.165107177734374,-0.569309651851654,1.0622633695602417,-2.1875205039978027
1789324226772957000,19.18395703125,-0.6132906675338745,1.1795459985733032,-2.370774507522583
1789324226791806700,19.202806640625,-0.7336275577545166,0.7134696245193481,-2.584571123123169
1789324226810656800,19.22165673828125,-0.8887827396392822,0.3665083646774292,-2.7195682525634766
1789324226829506600,19.240506591796876,-0.9064973592758179,0.11361759155988693,-2.8344075679779053
1789324226848356600,19.259356689453124,-0.7018635272979736,-0.11239589750766754,-2.7336177825927734
1789324226867206400,19.278206298828124,-0.35856732726097107,-0.0006108472589403391,-2.604729175567627
1789324226886056200,19.29705615234375,-0.16431790590286255,-0.054365407675504684,-2.503328323364258
1789324226904906200,19.31590625,-0.033596597611904144,-0.1850867122411728,-2.324350118637085
1789324226923756000,19.334756103515623,0.11606097966432571,-0.2211267054080963,-2.1410961151123047
1789324226942605800,19.353605712890626,0.16859383881092072,-0.2638860046863556,-1.8851510286331177
1789324226961455600,19.37245556640625,0.24128466844558716,-0.21440738439559937,-1.4966521263122559
1789324226980305700,19.3913056640625,0.2877090573310852,-0.09712471067905426,-1.0250016450881958
1789324226999155500,19.410155517578126,0.2779355049133301,-0.043981000781059265,-0.5760289430618286
1789324227018005200,19.429005126953125,0.21196399629116058,-0.04031591862440109,-0.16676130890846252
1789324227036855300,19.447855224609373,0.1319430023431778,-0.0390942245721817,0.16859383881092072
1789324227055705000,19.466705078125,0.12278030067682266,0.005497625097632408,0.49356457591056824
1789324227074555000,19.485554931640625,0.14110571146011353,0.16370706260204315,0.8350282311439514
1789324227093404700,19.50440478515625,0.17409147322177887,0.19241689145565033,1.1459494829177856
1789324227112254700,19.523254638671876,0.2113531529903412,-0.08612946420907974,1.3310362100601196
1789324227131104500,19.5421044921875,0.2736595869064331,-0.12094775587320328,1.3677634000778198
1789324227149954300,19.560954345703124,0.26816195249557495,-0.13621893525123596,1.3390535116195679
1789324227168804000,19.57980419921875,0.21501824259757996,-0.0787992998957634,1.3378318548202515
1789324227187654100,19.598654052734375,0.05803048983216286,0.014049487188458443,1.3970839977264404
1789324227206504000,19.61750390625,-0.047646086663007736,0.04153761267662048,1.4948196411132812
1789324227225353700,19.636353759765626,0.0036650835536420345,0.09895725548267365,1.618821620941162
1789324227244203500,19.65520361328125,0.1588202863931656,0.1698155403137207,1.7635923624038696
1789324227263053600,19.674053466796874,0.33169007301330566,-0.018936265259981155,1.8711014986038208
1789324227281903400,19.6929033203125,0.4990622103214264,-0.24556060135364532,1.978610634803772
1789324227300753200,19.711753173828125,0.5577035546302795,-0.45202696323394775,2.0714592933654785
1789324227319603000,19.73060302734375,0.5442649126052856,-0.4831801950931549,2.1093318462371826
1789324227338453000,19.749452880859376,0.4837910234928131,-0.5296045541763306,2.1435394287109375
1789324227357302800,19.768302734375,0.3793361485004425,-0.7201889157295227,2.1838552951812744
1789324227376152600,19.787152587890624,0.23823043704032898,-1.2888877391815186,2.1893529891967773
1789324227395002400,19.80600244140625,0.13682979345321655,-1.543687343597412,2.095893383026123
1789324227413852200,19.82485205078125,0.01832541823387146,-1.2809467315673828,1.9187475442886353
1789324227432702200,19.8437021484375,0.047646086663007736,-0.911384105682373,1.8845402002334595
1789324227451552000,19.862552001953127,0.11606097966432571,-0.809983491897583,1.7061727046966553
1789324227470401800,19.88140185546875,0.1178935244679451,-0.5204418897628784,1.385477900505066
1789324227489251600,19.90025146484375,0.13927318155765533,-0.13866232335567474,1.0897514820098877
1789324227508101400,19.919101318359374,0.07513421028852463,-0.0012216945178806782,0.8112051486968994
1789324227526951400,19.937951416015625,0.1185043677687645,0.03787253051996231,0.4734066128730774
1789324227545801200,19.95680126953125,0.12583453953266144,0.10995250940322876,0.12644538283348083
1789324227564651000,19.975651123046877,-0.00916270911693573,0.1429382562637329,-0.1319430023431778
1789324227583500800,19.994500732421876,-0.08918370306491852,0.27915719151496887,-0.47646087408065796
1789324227602350600,20.0133505859375,-0.10262233763933182,0.4953971207141876,-0.8588512539863586
1789324227621200400,20.032200439453124,-0.10873081535100937,0.7989882230758667,-1.2180293798446655
1789324227640050400,20.051050537109376,-0.1844758689403534,1.090362310409546,-1.5198643207550049
1789324227658900200,20.069900146484375,-0.342074453830719,1.1850436925888062,-1.7367150783538818
1789324227677750000,20.08875,-0.4850127100944519,1.2192511558532715,-2.0042662620544434
1789324227696599800,20.107599853515627,-0.6639909744262695,1.1074661016464233,-2.1520912647247314
1789324227715449600,20.12644970703125,-0.9174925684928894,0.8521319031715393,-2.2162301540374756
1789324227734299400,20.14529931640625,-0.9865183234214783,0.7812736630439758,-2.4330809116363525
1789324227753149400,20.1641494140625,-1.0109522342681885,0.5528167486190796,-2.477672815322876
1789324227771999200,20.182999267578126,-0.9174925684928894,0.16187451779842377,-2.4996633529663086
1789324227790849000,20.20184912109375,-0.7983773946762085,0.07635590434074402,-2.6059508323669434
1789324227809698800,20.22069873046875,-0.6352811455726624,-0.17409147322177887,-2.798978567123413
1789324227828548600,20.239548583984377,-0.34879377484321594,-0.4062134325504303,-2.807530403137207
1789324227847398400,20.2583984375,-0.02748812735080719,-0.2907632887363434,-2.7427804470062256
1789324227866248200,20.277248291015624,0.13316470384597778,-0.2644968628883362,-2.546698570251465
1789324227885098000,20.296097900390624,0.12522368133068085,-0.16004198789596558,-2.164919137954712
1789324227903947800,20.31494775390625,0.029320668429136276,-0.15943112969398499,-1.7446560859680176
1789324227922797800,20.3337978515625,0.055587101727724075,-0.11361759155988693,-1.4178528785705566
1789324227941647600,20.352647705078127,0.24311721324920654,-0.18142163753509521,-0.9364288449287415
1789324227960497400,20.371497314453126,0.4312581717967987,-0.13805148005485535,-0.4459185004234314
1789324227979347200,20.39034716796875,0.41171106696128845,0.05986303091049194,-0.08551861345767975
1789324227998197000,20.409197021484374,0.3658975064754486,0.11178504675626755,0.1954711228609085
1789324228017046800,20.428046875,0.2907632887363434,0.09651386737823486,0.4679090082645416
1789324228035896600,20.446896484375,0.24494975805282593,-0.11178504675626755,0.7617265582084656
1789324228054746400,20.465746337890625,0.183865025639534,-0.23823043704032898,1.0121738910675049
1789324228073596200,20.48459619140625,0.1569877415895462,-0.37383851408958435,1.2155860662460327
1789324228092446000,20.503446044921876,0.15087927877902985,-0.37139514088630676,1.1923738718032837
1789324228111295700,20.522295654296876,0.1569877415895462,-0.038483377546072006,1.2186403274536133
1789324228130145500,20.5411455078125,0.1301104724407196,0.1698155403137207,1.336610198020935
1789324228148995300,20.559995361328124,0.15026842057704926,0.11483928561210632,1.5265836715698242
1789324228167845400,20.578845458984375,0.2376195788383484,-0.11117420345544815,1.6805171966552734
1789324228186695200,20.597695068359375,0.3665083646774292,-0.16248537600040436,1.7379368543624878
1789324228205545000,20.616544921875,0.45385950803756714,-0.2363978922367096,1.784972071647644
1789324228224394800,20.635394775390626,0.47890424728393555,-0.41232189536094666,1.8888161182403564
1789324228243244500,20.65424462890625,0.5265503525733948,-0.5424323678016663,2.038473606109619
1789324228262094300,20.67309423828125,0.5894675850868225,-0.4990622103214264,2.1429286003112793
1789324228280944000,20.691944091796874,0.5485408306121826,-0.4428642690181732,2.1545345783233643
1789324228299794000,20.7107939453125,0.45508119463920593,-0.48073679208755493,2.1661407947540283
1789324228318643700,20.729643798828125,0.42881476879119873,-0.5558710098266602,2.2192845344543457
1789324228337493500,20.748493408203124,0.4282039403915405,-0.869846522808075,2.2266147136688232
1789324228356343300,20.76734326171875,0.390942245721817,-1.2070342302322388,2.089784860610962
1789324228375193000,20.786193115234376,0.27060532569885254,-1.0885298252105713,1.8362832069396973
1789324228394043000,20.80504296875,0.3176405727863312,-0.6768187880516052,1.682349681854248
1789324228412892700,20.823892578125,0.40132665634155273,-0.554649293422699,1.6023286581039429
1789324228431742500,20.842742431640627,0.3683409094810486,-0.5717530250549316,1.336610198020935
1789324228450592300,20.86159228515625,0.2870981991291046,-0.45324867963790894,0.92054682970047
1789324228469442000,20.880442138671874,0.22479179501533508,-0.23151111602783203,0.5766398310661316
1789324228488291800,20.899291748046874,0.1979145109653473,-0.023823043331503868,0.30786702036857605
1789324228507141600,20.9181416015625,0.11300674080848694,0.10201149433851242,0.03420744836330414
1789324228525991400,20.936991455078125,0.05619794875383377,0.29259583353996277,-0.265718549489975
1789324228544841200,20.95584130859375,-0.007330167107284069,0.5296045541763306,-0.5467082858085632
1789324228563691000,20.97469091796875,-0.04947862774133682,0.8032641410827637,-0.8777875304222107
1789324228582540800,20.993540771484376,-0.08490777015686035,1.147171139717102,-1.2333005666732788
1789324228601390600,21.012390625,-0.15515519678592682,1.30476975440979,-1.5473524332046509
1789324228620240400,21.031240478515624,-0.24372805655002594,1.327981948852539,-1.8509435653686523
1789324228639090200,21.050090087890624,-0.3414636254310608,1.3549355268478394,-2.159421443939209
1789324228657940000,21.06893994140625,-0.5656445622444153,1.2479609251022339,-2.2730391025543213
1789324228676789800,21.087789794921875,-0.9278770089149475,1.0830321311950684,-2.196683168411255
1789324228695639600,21.1066396484375,-1.064706802368164,0.9236010313034058,-2.3787155151367188
1789324228714489300,21.1254892578125,-1.1172395944595337,0.6945333480834961,-2.4037604331970215
1789324228733339100,21.144339111328126,-1.1129636764526367,0.4318690001964569,-2.514934539794922
1789324228752189000,21.16318896484375,-1.0231691598892212,0.21990501880645752,-2.6755874156951904
1789324228771038500,21.18203857421875,-0.8228112459182739,-0.05925218388438225,-2.6878042221069336
1789324228789888300,21.20088818359375,-0.5045598149299622,-0.2516690790653229,-2.642601490020752
1789324228808738000,21.219738037109376,-0.2779355049133301,-0.2626643180847168,-2.5112693309783936
1789324228827587800,21.238587890625,-0.1692046970129013,-0.2767138183116913,-2.2822017669677734
1789324228846437600,21.257437744140624,-0.0659715011715889,-0.2999260127544403,-1.9584527015686035
1789324228865287400,21.276287353515624,0.10323318839073181,-0.19180603325366974,-1.637147068977356
1789324228884137200,21.29513720703125,0.2748812735080719,-0.024433890357613564,-1.3353121280670166
1789324228902987000,21.313987060546875,0.2644968628883362,0.047646086663007736,-0.9236010313034058
1789324228921836800,21.3328369140625,0.19180603325366974,0.16309621930122375,-0.522885262966156
1789324228940686600,21.3516865234375,0.13499724864959717,0.3164188861846924,-0.18019993603229523
1789324228959536400,21.370536376953126,0.10628741979598999,0.28037887811660767,0.09895725548267365
1789324228978386200,21.38938623046875,0.1575985997915268,0.14843589067459106,0.33535513281822205
1789324228997235700,21.408235595703125,0.21196399629116058,0.06963659077882767,0.577861487865448
1789324229016085500,21.42708544921875,0.24678228795528412,0.014660334214568138,0.8466343283653259
1789324229034935300,21.445935302734377,0.21623992919921875,0.011606098152697086,1.0506572723388672
1789324229053785000,21.46478515625,0.13866232335567474,-0.08063183724880219,1.1416735649108887
1789324229072635000,21.483634765625,0.05741964280605316,-0.026877280324697495,1.2278029918670654
1789324229091484700,21.502484619140624,0.015271181240677834,0.06780404597520828,1.4178528785705566
1789324229110334500,21.52133447265625,0.02993151545524597,0.1423274129629135,1.5864466428756714
1789324229129184300,21.540184326171875,0.08979454636573792,0.13499724864959717,1.6988425254821777
1789324229148033800,21.55903369140625,0.19974705576896667,0.03176405653357506,1.7483211755752563
1789324229176308500,21.58730859375,0.38605546951293945,-0.2608317732810974,1.857051968574524
1789324229195158300,21.606158203125,0.446529358625412,-0.2773246467113495,1.9010330438613892
1789324229214008000,21.625008056640624,0.46851983666419983,-0.2901524603366852,1.9822757244110107
1789324229232857900,21.64385791015625,0.45080527663230896,-0.4092676639556885,2.081843852996826
1789324229251707600,21.662707763671875,0.4459185004234314,-0.5399889945983887,2.1514804363250732
1789324229270557200,21.68155712890625,0.4453076422214508,-0.5766398310661316,2.1985156536102295
1789324229289407000,21.700406982421875,0.3897205591201782,-0.8057075142860413,2.144761085510254
1789324229308256800,21.7192568359375,0.32069480419158936,-1.1997040510177612,2.037862777709961
1789324229327106600,21.7381064453125,0.2895416021347046,-1.1202938556671143,1.8973679542541504
1789324229345956400,21.756956298828126,0.2486148327589035,-0.8063184022903442,1.8283421993255615
1789324229364806000,21.775805908203125,0.22601348161697388,-0.7666133046150208,1.7642031908035278
1789324229383655700,21.79465576171875,0.24433889985084534,-0.7666133046150208,1.5559042692184448
1789324229402505500,21.81350537109375,0.2724378705024719,-0.5033381581306458,1.2229162454605103
1789324229421355300,21.832355224609376,0.19424942135810852,-0.24556060135364532,0.897334635257721
1789324229440205000,21.851205078125,0.10262233763933182,-0.17775654792785645,0.652384877204895
1789324229459054800,21.870054931640624,0.02748812735080719,-0.0922379344701767,0.5082249045372009
1789324229477904400,21.888904296875,0.02870982140302658,-0.022601349279284477,0.1966928243637085
1789324229496754200,21.907754150390623,0.02870982140302658,0.1172826737165451,-0.24494975805282593
1789324229515604000,21.92660400390625,-0.038483377546072006,0.3518480062484741,-0.6420004963874817
1789324229534453800,21.945453857421874,-0.12094775587320328,0.6413896083831787,-0.8832851648330688
1789324229553303600,21.964303466796874,-0.19913621246814728,0.8362498879432678,-1.156944751739502
1789324229581578000,21.992577880859375,-0.3158080279827118,1.1209046840667725,-1.7073944807052612
1789324229609852700,22.020852783203125,-0.5296045541763306,1.2907202243804932,-2.0763461589813232
1789324229628702500,22.039702392578125,-0.7201889157295227,1.1783243417739868,-2.177135944366455
1789324229666401800,22.07740185546875,-1.1667182445526123,0.7531746625900269,-2.3756613731384277
1789324229685251600,22.09625146484375,-1.2980504035949707,0.4581354558467865,-2.3891000747680664
1789324229704101400,22.115101318359375,-1.2345223426818848,0.2339545041322708,-2.483781337738037
1789324229722951200,22.133951171875,-1.0989142656326294,0.16370706260204315,-2.544255256652832
1789324229741800700,22.15280078125,-0.9107732772827148,0.020157959312200546,-2.5430335998535156
1789324229760650500,22.171650390625,-0.6297835111618042,-0.17286977171897888,-2.6004531383514404
1789324229779500300,22.190500244140626,-0.3817795515060425,-0.2596100866794586,-2.549752712249756
1789324229798350000,22.20935009765625,-0.2357870489358902,-0.23151111602783203,-2.3402321338653564
1789324229817199600,22.22819970703125,-0.183865025639534,-0.2498365342617035,-1.9566200971603394
1789324229836049400,22.24704931640625,-0.13927318155765533,-0.18936264514923096,-1.4789376258850098
1789324229854899200,22.265899169921877,-0.051922015845775604,-0.029320668429136276,-1.0219475030899048
1789324229873749000,22.2847490234375,0.13377554714679718,0.08918370306491852,-0.605960488319397
1789324229892598500,22.3035986328125,0.21990501880645752,0.09040539711713791,-0.2351761907339096
1789324229911448300,22.3224482421875,0.2730487287044525,0.07391251623630524,0.09529217332601547
1789324229930298000,22.341298095703124,0.2644968628883362,0.05070032179355621,0.3286358118057251
1789324229949147600,22.360147705078123,0.2730487287044525,-0.02626643143594265,0.550373375415802
1789324229967997400,22.37899755859375,0.29503923654556274,0.0525328628718853,0.8130376935005188
1789324229986847200,22.39784716796875,0.2583884000778198,-0.03542914241552353,1.0781453847885132
1789324230005696800,22.41669677734375,0.17714570462703705,-0.18875180184841156,1.2375766038894653
1789324230024546600,22.435546630859374,0.1056765764951706,-0.3506263196468353,1.2552911043167114
1789324230043396400,22.454396240234374,0.11422843486070633,-0.342074453830719,1.2681188583374023
1789324230062246000,22.473245849609373,0.13744063675403595,-0.12888877093791962,1.3586006164550781
1789324230081095700,22.492095703125,0.182643324136734,-0.021379653364419937,1.511312484741211
1789324230099945500,22.510945556640625,0.21501824259757996,-0.05864133685827255,1.580949068069458
1789324230118795000,22.529794921875,0.30725616216659546,-0.17409147322177887,1.5901117324829102
1789324230137644800,22.548644775390624,0.4355340898036957,-0.3127537965774536,1.6902906894683838
1789324230156494600,22.56749462890625,0.5906893014907837,-0.48806697130203247,1.9297428131103516
1789324230175344000,22.58634423828125,0.7275190949440002,-0.4831801950931549,2.1490371227264404
1789324230194194000,22.60519384765625,0.7733326554298401,-0.5577035546302795,2.2186737060546875
1789324230213043700,22.624043701171875,0.6969767212867737,-0.6700994372367859,2.205235004425049
1789324230231893200,22.642893310546874,0.5882459282875061,-0.6981984376907349,2.1936287879943848
1789324230250743000,22.661742919921874,0.4984513521194458,-0.8594620823860168,2.2046241760253906
1789324230269592800,22.6805927734375,0.3921639323234558,-1.299272060394287,2.112997055053711
1789324230288442400,22.6994423828125,0.23945212364196777,-1.4282371997833252,1.8546086549758911
1789324230307292200,22.718292236328125,0.2608317732810974,-0.9761339426040649,1.6566941738128662
1789324230326142000,22.737141845703125,0.38544461131095886,-0.7953231334686279,1.660359263420105
1789324230344991500,22.755991455078124,0.37689274549484253,-0.8502993583679199,1.6243191957473755
1789324230363841300,22.77484130859375,0.3542914092540741,-0.5760289430618286,1.3488271236419678
1789324230382691000,22.793691162109376,0.32313820719718933,-0.2229592502117157,1.0384403467178345
1789324230401540600,22.81254052734375,0.24372805655002594,-0.04337015375494957,0.7598940134048462
1789324230420390400,22.831390380859375,0.17531315982341766,0.07085828483104706,0.365286648273468
1789324230439240200,22.850240234375,0.13866232335567474,0.24250635504722595,-0.09468132257461548
1789324230458089700,22.86908984375,0.08857285231351852,0.4428642690181732,-0.4709632396697998
1789324230486364400,22.897364501953124,0.07269082218408585,0.7745543122291565,-0.9535325765609741
1789324230505214000,22.9162138671875,0.038483377546072006,0.8557969927787781,-1.2369656562805176
1789324230524063700,22.935063720703123,-0.055587101727724075,1.0793671607971191,-1.497262954711914
1789324230542913500,22.95391357421875,-0.19424942135810852,1.175881028175354,-1.6945666074752808
1789324230561763000,22.97276318359375,-0.32374903559684753,1.2125318050384521,-1.95967435836792
1789324230580612900,22.99161279296875,-0.4294256269931793,1.273005723953247,-2.200348138809204
1789324230599462400,23.01046240234375,-0.624896764755249,1.156944751739502,-2.2913644313812256
1789324230618312200,23.029312255859374,-0.9681929349899292,1.0494356155395508,-2.2999162673950195
1789324230637161700,23.04816162109375,-1.1673290729522705,0.9675820469856262,-2.5137128829956055
1789324230656011500,23.067011474609377,-1.235133171081543,0.6810947060585022,-2.512491226196289
1789324230674861300,23.085861328125,-1.2039799690246582,0.3970507085323334,-2.6432125568389893
1789324230693710800,23.1047109375,-1.0341644287109375,0.10017894953489304,-2.7250659465789795
1789324230712560600,23.123560546875,-0.7556180357933044,-0.09284878522157669,-2.8142497539520264
1789324230731410200,23.14241015625,-0.3793361485004425,-0.0922379344701767,-2.804476022720337
1789324230750260000,23.161260009765623,-0.14110571146011353,0.05497625470161438,-2.634049654006958
1789324230769109500,23.180109619140627,-0.10873081535100937,-0.03420744836330414,-2.3048031330108643
1789324230787959300,23.198959228515626,0.03665083646774292,-0.10689827054738998,-1.8307856321334839
1789324230806809000,23.21780908203125,0.2363978922367096,0.05131116881966591,-1.3989166021347046
1789324230825658600,23.23665869140625,0.3439069986343384,0.15943112969398499,-1.064706802368164
1789324230844508400,23.25550830078125,0.32069480419158936,0.05619794875383377,-0.7244648337364197
1789324230863358000,23.27435791015625,0.1820324808359146,0.06169557198882103,-0.3280249834060669
1789324230882207700,23.293207763671877,0.09590301662683487,0.045202698558568954,0.0916270911693573
1789324230901057300,23.312057373046876,0.13377554714679718,0.13316470384597778,0.5051707029342651
1789324230919907000,23.330906982421876,0.16370706260204315,0.15393351018428802,0.8429692387580872
1789324230938756600,23.349756591796876,0.20585553348064423,0.14843589067459106,1.0469921827316284
1789324230957606400,23.3686064453125,0.21318569779396057,0.15149012207984924,1.1764918565750122
1789324230985880800,23.396880859375,0.09284878522157669,-0.09834641218185425,1.3787586688995361
1789324231004730600,23.415730712890625,0.01038440316915512,-0.3115321099758148,1.5333030223846436
1789324231023580200,23.434580078125,0.02504473738372326,-0.30481278896331787,1.576673150062561
1789324231042430000,23.453429931640624,0.05619794875383377,-0.10262233763933182,1.5583477020263672
1789324231061279500,23.472279541015624,0.11667182296514511,0.1692046970129013,1.6279842853546143
1789324231080129300,23.49112939453125,0.14904673397541046,0.22051586210727692,1.7446560859680176
1789324231098978800,23.509978759765627,0.23945212364196777,0.004886778071522713,1.8698798418045044
1789324231117828600,23.52882861328125,0.39766156673431396,-0.1966928243637085,1.970058798789978
1789324231136678100,23.54767822265625,0.5711421966552734,-0.16798299551010132,2.1178839206695557
1789324231155528000,23.56652783203125,0.70797199010849,-0.20768806338310242,2.2211170196533203
1789324231174377500,23.58537744140625,0.6737645268440247,-0.45447036623954773,2.2192845344543457
1789324231193227300,23.604227294921873,0.5381564497947693,-0.6908682584762573,2.1893529891967773
1789324231212076800,23.623076904296877,0.5082249045372009,-0.7434011101722717,2.093449831008911
1789324231230926600,23.641926513671876,0.5558710098266602,-0.8044858574867249,2.0543556213378906
1789324231249776000,23.660776123046876,0.5131117105484009,-1.0439379215240479,2.0427496433258057
1789324231268626000,23.6796259765625,0.46668729186058044,-1.086086392402649,1.9150824546813965
1789324231287475500,23.698475341796875,0.38666632771492004,-1.1318999528884888,1.683571457862854
1789324231306325000,23.717324951171875,0.16004198789596558,-0.8118160367012024,1.465498924255371
1789324231325174800,23.7361748046875,0.19424942135810852,-0.44103172421455383,1.1636639833450317
1789324231344024300,23.7550244140625,0.25716668367385864,-0.2510582208633423,0.809983491897583
1789324231362874000,23.7738740234375,0.2602209448814392,-0.0922379344701767,0.5351021885871887
1789324231381723600,23.7927236328125,0.18081079423427582,0.047646086663007736,0.3689517378807068
1789324231400573400,23.811573486328125,0.11667182296514511,0.05375456064939499,0.13316470384597778
1789324231419423000,23.830423095703125,0.045202698558568954,0.13682979345321655,-0.19363857805728912
1789324231438272800,23.849272705078125,-0.01038440316915512,0.3640649616718292,-0.5723638534545898
1789324231457122300,23.868122314453124,-0.12705622613430023,0.6279509663581848,-0.869846522808075
