time,seconds_elapsed,z,y,x
1789214101494129400,0.03612939453125,7.864503540802001,6.567295153808593,0.14604630126953125
1789214101504161300,0.046161376953125,7.890241208648681,6.816441764068603,0.03920505218505859
1789214101514192400,0.0561923828125,7.843255001068115,6.635978813934326,-0.07781155395507812
1789214101524224300,0.066224365234375,7.803750673675537,6.373514456939697,-0.18106150054931638
1789214101534255400,0.07625537109375,8.123825508117676,6.174047531127929,-0.4031237045288086
1789214101544287500,0.08628759765625,8.489240536499024,5.979518646240234,-0.18525135345458985
1789214101554318300,0.096318359375,8.482656481933594,5.739799205017089,0.2284966209411621
1789214101564350500,0.1063505859375,8.264185580444336,5.418377632141113,0.538845011138916
1789214101574381300,0.11638134765625,7.516745749664306,4.996848502349853,0.9160814102172851
1789214101584413200,0.1264130859375,6.935553296661377,4.4662335594177245,1.3715782760620117
1789214101594444300,0.1364443359375,5.738153191375732,4.987271695709228,1.348982997894287
1789214101604476400,0.146476318359375,5.09471149520874,5.098901348114014,0.7495347572326659
1789214101614508300,0.15650830078125,5.448754065704345,5.512200409698486,0.303913973236084
1789214101624539400,0.166539306640625,5.517138450622558,6.435913337707519,-0.26485855865478514
1789214101634571300,0.1765712890625,5.680692351531982,7.1410057266235345,-0.723946726989746
1789214101644602400,0.186602294921875,6.018424423217773,7.556549352264404,-0.9255085792541503
1789214101654634500,0.196634521484375,6.086808808135986,7.880963677215576,-0.7410054138183594
1789214101664665300,0.206665283203125,6.234950035858154,8.030152368164062,-0.4923077163696289
1789214101674697500,0.216697509765625,6.836642840576172,7.958326318359375,-0.32576106338500976
1789214101684728300,0.226728271484375,7.9019129417419425,7.690325370025635,-0.16789339141845702
1789214101694760400,0.236760498046875,8.735244757080078,7.282263624572754,0.1096843635559082
1789214101704791300,0.246791259765625,9.054421765899658,6.8976949829101555,0.5478232673645019
1789214101714823400,0.256823486328125,9.051129738616943,6.547094077301025,0.9819219558715819
1789214101724855300,0.266855224609375,8.8995468460083,6.319345644378662,1.1623849060058593
1789214101734886400,0.276886474609375,8.87994431991577,6.16731383895874,1.0600327850341795
1789214101744918300,0.286918212890625,8.917054445648192,6.19903701095581,0.6889315277099609
1789214101754949400,0.296949462890625,8.546551738739014,6.354660118865967,0.30137013397216794
1789214101764981200,0.306981201171875,7.735067013549804,6.453570574951171,0.13302782974243163
1789214101775012400,0.317012451171875,6.97176559677124,5.7511716629028315,-0.007032967376708984
1789214101785044500,0.32704443359375,6.501304970550537,5.18434441986084,-0.20545242996215818
1789214101795075300,0.337075439453125,6.244077929687499,4.967818807220459,-0.5992986030578613
1789214101805107500,0.347107421875,6.7926493850708,4.761169276428222,-1.134402674102783
1789214101815138300,0.35713818359375,7.671620669555663,4.9534535972595215,-1.3256395317077636
1789214101825170200,0.367170166015625,8.189815691375731,5.327697244262695,-1.1240776794433593
1789214101835201300,0.377201171875,8.289923248291014,5.591508339691162,-0.5936123741149902
1789214101845233400,0.3872333984375,8.761880250549316,5.915773027038574,-0.15562310791015624
1789214101855265300,0.397265380859375,8.445247080993651,5.610213040161132,-0.09457096557617187
1789214101865296400,0.40729638671875,7.819462622070312,5.194669414520264,0.21472996139526365
1789214101875328300,0.417328369140625,7.085490175628662,4.94193150177002,-0.18614917907714842
1789214101885359400,0.427359375,6.913107656097412,4.303577484130859,-1.4802151763916014
1789214101895391500,0.4373916015625,8.016385708618163,3.990834892272949,-2.3753473220825194
1789214101905422300,0.44742236328125,8.383147475433349,5.034108265686035,-1.5216647926330567
1789214101915454500,0.457454345703125,8.002619049072266,6.143072547149658,-0.3286041778564453
1789214101925485300,0.4674853515625,7.921665105438232,6.201431212615966,-0.2527379127502441
1789214101935517200,0.47751708984375,8.051101632690429,5.876268699645996,-0.891241567993164
1789214101945549300,0.48754931640625,7.6847887786865225,5.912929912567138,-0.891241567993164
1789214101955580400,0.497580322265625,7.305158177947997,5.790227077484131,-0.5018845230102539
1789214101965612300,0.5076123046875,7.258770520782471,5.586869573974609,-0.04249707946777344
1789214101975643400,0.517643310546875,7.023540207672118,5.628169552612304,-0.33788170928955075
1789214101985675300,0.52767529296875,7.392396900939941,6.118531980133056,-1.5025111793518064
1789214101995706400,0.537706298828125,7.717409776306152,6.324882235717773,-2.4990976203918454
1789214102005738200,0.54773828125,7.925555683135986,6.206518891143799,-2.413953823852539
1789214102015769600,0.55776953125,7.376684952545165,6.179733760070801,-1.8752584503173828
1789214102025801500,0.567801513671875,6.81853669052124,6.047454118347168,-2.027140618133545
1789214102035832300,0.577832275390625,6.675782416534424,5.932831713867187,-1.7781436454772948
1789214102045859000,0.587859130859375,6.750601218414306,5.345055206298828,-0.8149263900756836
1789214102055891200,0.59789111328125,6.993463049316406,4.777330137634277,0.6988076095581054
1789214102065922300,0.60792236328125,7.1869444709777826,4.75653051071167,2.972999911499023
1789214102075954200,0.6179541015625,6.572981382751465,5.633556506347656,2.8030115936279296
1789214102085985300,0.6279853515625,5.693261910247802,6.865373260498046,2.018760912322998
1789214102096017200,0.63801708984375,5.038447756195068,6.924330476379394,0.7453449043273925
1789214102106048000,0.648048095703125,5.762544120788574,5.936572653961181,0.23567922592163085
1789214102116080000,0.658080078125,8.049904531860351,3.8697780708312988,-0.020949264526367185
1789214102126111200,0.668111328125,10.70657054901123,4.624550144195556,-1.1532570121765136
1789214102136143000,0.67814306640625,9.840617736053467,5.8469397293090815,-1.4344260696411133
1789214102146175200,0.68817529296875,8.808866458129883,5.90544803237915,-0.5557540603637695
1789214102156206000,0.6982060546875,9.176077137756348,4.853794953155517,-0.01331774673461914
1789214102166238000,0.708238037109375,8.969128331756592,4.685452648925781,0.8704419410705566
1789214102176269000,0.71826904296875,8.763077351379394,4.520701647186279,1.541716231536865
1789214102186301200,0.72830126953125,8.405892391204834,4.342183985900879,1.7850269752502441
1789214102196332300,0.738332275390625,7.917774527740478,4.14960038986206,1.7905635665893553
1789214102206364200,0.7483642578125,7.498190686798095,3.5782840187072753,1.7407342445373535
1789214102216395300,0.758395263671875,7.100304298400879,3.3846529594421386,1.5445593460083007
1789214102226427100,0.76842724609375,6.749553755187988,3.65819049911499,0.7140706451416016
1789214102236459300,0.778459228515625,6.685808135986328,4.0991725173950195,-0.4513070129394531
1789214102246490400,0.788490478515625,6.838887404632568,4.4689270362854,-0.7471405555725097
1789214102256522200,0.798522216796875,6.985083343505859,4.869656539154052,-1.0268132369995118
1789214102266553000,0.808552978515625,7.256077043914795,5.427206250762939,-1.1773486663818358
1789214102276585200,0.818585205078125,7.958027043151855,6.079177290344238,-0.7109282554626465
1789214102286616000,0.828615966796875,10.19495958175659,7.509563144683837,0.8595183959960937
1789214102296648200,0.838648193359375,11.28102930984497,8.607903156280518,2.033275759887695
1789214102306679300,0.84867919921875,10.499621743011474,8.667458922576904,1.4944307487487791
1789214102316711200,0.858711181640625,9.330503144836426,9.407416873168945,0.4918588035583496
1789214102326742300,0.8687421875,7.594856578826904,9.898377851104735,-0.7148188331604004
1789214102336774100,0.878774169921875,7.461529473876952,6.851008050537109,-0.0056862289428710935
1789214102346806000,0.888805908203125,9.0780645072937,4.87773696975708,1.4866495933532713
1789214102356837400,0.89883740234375,8.63872850265503,6.316652167510986,1.537227103424072
1789214102366869200,0.908869140625,8.962245001983643,6.8308069740295405,0.7164648468017578
1789214102376900000,0.918900146484375,9.395595502471924,6.6617164817810055,0.48662148742675776
1789214102386932200,0.92893212890625,9.18640213241577,6.635080988311767,1.0458172126770018
1789214102396963000,0.938963134765625,8.877400480651856,6.515071630096435,1.6329951698303222
1789214102406995000,0.948994873046875,8.438962301635742,6.061819328308105,1.795202332305908
1789214102417027300,0.95902734375,8.235006247711182,5.913827738189697,1.8124106567382812
1789214102427058200,0.96905810546875,7.749731498718261,5.941510694885253,1.4001590583801269
1789214102437090000,0.979090087890625,7.46960990447998,6.099976917266845,0.5891232460021972
1789214102447121200,0.98912109375,7.408108849334717,6.132149002075195,0.0565630142211914
1789214102457153000,0.999153076171875,6.528688652038574,6.392069519805908,-0.8759785324096679
1789214102467184000,1.00918408203125,6.957550024414062,6.692541828155517,-1.1819874320983885
1789214102477216300,1.01921630859375,7.211933950805664,7.083694524383544,-0.7719803977966309
1789214102487247000,1.0292470703125,7.0078282592773435,7.173477086639404,-0.7118260810852051
1789214102497279200,1.039279296875,7.2523361038208005,6.667103435516357,-1.1285668075561524
1789214102507311000,1.04931103515625,8.227075454711914,6.333710854339599,-0.2576759536743164
1789214102517342200,1.05934228515625,8.289773610687256,5.92415273284912,-0.0022445640563964844
1789214102527374300,1.069374267578125,8.070853796386718,5.737105728149413,0.07736264114379883
1789214102537405200,1.0794052734375,9.067290599822998,5.084386500549316,0.8976759849548339
1789214102547437300,1.089437255859375,8.240692476654052,4.546140039825439,0.3082534637451172
1789214102557468200,1.09946826171875,6.780678376770019,5.596596018218994,-0.7682394577026367
1789214102567500000,1.1095,6.791003371429443,6.495768379211426,-1.4769231491088866
1789214102577532200,1.1195322265625,6.753444332885742,6.8864721626281735,-2.124704335784912
1789214102587563300,1.129563232421875,6.739378398132324,6.6258034568786615,-2.206556105041504
1789214102597595100,1.13959521484375,6.247968507385253,6.583456015014648,-2.2303484840393066
1789214102607626200,1.149626220703125,7.683741315460205,5.838410385894775,-1.516277838897705
1789214102617658000,1.159658203125,7.528567120361328,5.869983920288085,-1.1022305892944335
1789214102627689200,1.169689208984375,7.748384760284424,6.01408493270874,-0.9689034843444824
1789214102637721000,1.17972119140625,7.9475524108886715,5.0748096939086915,-0.7820061172485351
1789214102647752000,1.189751953125,8.090905235290528,5.108029241943359,-0.6055833824157715
1789214102657784300,1.199784423828125,8.116642903137206,5.293280595397949,-0.7613561279296874
1789214102667816200,1.209816162109375,7.954136465454101,5.721992330169678,-0.8658031753540039
1789214102677847000,1.219846923828125,8.307580485534668,6.016778409576416,-0.9017162002563476
1789214102687879200,1.229879150390625,7.8161705947875975,4.965723880767822,-1.1822867073059082
1789214102697910000,1.239909912109375,7.98675746307373,5.021688344573974,-0.9871592720031738
1789214102707942100,1.249942138671875,8.422801440429687,4.5699324188232415,-0.7240963645935058
1789214102717973200,1.25997314453125,7.865999916839599,5.05640426864624,-0.9701005851745604
1789214102728005000,1.270005126953125,7.711274634552002,5.981763210296631,-1.435772808074951
1789214102738037000,1.280037109375,7.626879026031494,6.087556996154785,-1.6326958946228027
1789214102748068000,1.290068115234375,7.6005428077697745,6.014384207916259,-1.6530466087341307
1789214102758100200,1.300100341796875,8.491485100555419,5.239859970855712,-1.1314099220275877
1789214102768131300,1.31013134765625,8.091952698516845,5.1219455390930175,-1.016937155151367
1789214102778163200,1.3201630859375,8.12098239364624,5.360318241882324,-1.3456909706115723
1789214102788194300,1.3301943359375,8.224381977844239,4.90317536239624,-1.0920552322387695
1789214102798226200,1.34022607421875,7.780257569885253,4.706401913452148,-1.078288572692871
1789214102808257000,1.350257080078125,7.550713485717773,5.315426960754394,-1.0516530792236327
1789214102818289200,1.3602890625,7.4326494163513175,5.4890065811157225,-1.0209773704528808
1789214102828321300,1.3703212890625,7.255478493499756,5.408351912689208,-1.1198878265380858
1789214102838352100,1.38035205078125,7.238868719482421,5.58028551940918,-0.9605237785339354
1789214102848384300,1.39038427734375,7.356633513641357,5.895721588134765,-0.9198223503112792
1789214102858415000,1.4004150390625,7.353191848754882,5.76478868484497,-0.6293757614135742
1789214102868447000,1.410447021484375,7.434445067596435,5.3205146392822265,-0.5312134933471679
1789214102878478000,1.42047802734375,7.468712078857421,5.163095880126953,-0.6358101783752441
1789214102888510200,1.43051025390625,7.462427299499511,5.115660759735107,-0.14559738845825196
1789214102898542000,1.4405419921875,7.445368612670898,4.983081842803955,-0.2537853759765625
1789214102908573200,1.4505732421875,7.442076585388183,5.285349802398681,-0.6856395004272461
1789214102918605000,1.46060498046875,7.448810277557373,5.485415278625488,-0.31753099517822264
1789214102928636200,1.47063623046875,7.179462590789795,5.381267506408691,-0.44966099929809566
1789214102938668300,1.480668212890625,7.4119994270324705,5.239111782836914,-0.7276876670837402
1789214102948700200,1.4907001953125,8.06965669555664,5.717353564453124,-0.05626373901367187
1789214102958731300,1.500731201171875,8.246977256011963,5.8551697975158685,0.06718728408813476
1789214102968763100,1.51076318359375,8.755595471191405,5.6678235176086424,0.4722562774658203
1789214102978794000,1.5207939453125,8.777442561340331,5.756109703826904,0.4617816452026367
1789214102988826400,1.530826416015625,8.767416841888426,5.864596966552734,0.6171054779052734
1789214102998857200,1.540857177734375,8.51632494277954,6.270414147949219,0.2680009483337402
1789214103008889000,1.55088916015625,8.409782968902588,6.215347509765625,0.16505027694702148
1789214103018921200,1.560921142578125,8.244283779144286,6.335356867980956,0.22505495605468748
1789214103028952000,1.5709521484375,8.300547518157959,6.387580391693115,0.43454760131835934
1789214103038984000,1.58098388671875,8.333767066192626,6.1544450050354,0.8848071510314941
1789214103049015000,1.59101513671875,8.487444885253906,6.469432160949706,1.0663175643920897
1789214103059047000,1.601046875,8.460659754180908,6.185120713806152,1.5367781906127929
1789214103069078000,1.611078125,8.319850769042969,5.966949087524414,1.9051859710693357
1789214103079110000,1.62110986328125,8.309076861572265,5.8265890151977535,2.0012533126831054
1789214103089142000,1.63114208984375,8.168567151641845,5.7137622619628905,2.0034978767395017
1789214103099173000,1.641173095703125,7.94859987411499,5.5798366065979,1.9071312599182129
1789214103109205000,1.651205078125,7.61640439376831,5.44546203842163,1.7184382415771484
1789214103119236000,1.661236083984375,7.237222705841064,5.1791071037292475,1.732055263519287
1789214103129268000,1.67126806640625,6.935702934265136,5.0376995681762695,1.6629226905822754
1789214103139298800,1.681298828125,6.604106004333496,5.0017865432739255,1.808669716644287
1789214103149331200,1.691331298828125,6.728305215454101,5.042188696289062,1.8257284034729002
1789214103159363000,1.701363037109375,6.976105087280273,5.12044916305542,1.732055263519287
1789214103169394000,1.711393798828125,7.1026985000610345,5.182099855804443,1.5907973655700682
1789214103179426000,1.721426025390625,7.350049459075927,5.228038600158691,1.6774375381469726
1789214103189457000,1.731456787109375,7.299322311401367,5.209034624481201,2.042254016113281
1789214103199488800,1.74148876953125,7.3374799003601066,4.976497788238525,2.360233924102783
1789214103209521200,1.751521240234375,7.286752752685547,4.865765961456298,2.5878327194213866
1789214103219552000,1.761552001953125,7.583184845733642,4.2320507095336914,3.0825346374511717
1789214103229584000,1.771583984375,7.703493479156494,-0.5467758041381836,4.085256220245361
1789214103239615000,1.781614990234375,6.2599395156860345,4.605246893310547,3.9098809486389157
1789214103249646800,1.791646728515625,6.30752427368164,6.391620606994628,2.8657097496032713
1789214103259678000,1.801677978515625,7.562834131622314,5.735908627319335,1.2656348526000976
1789214103269710000,1.8117099609375,6.104017132568359,4.799925415802002,2.0388123512268064
1789214103279742000,1.821741943359375,6.518662932586669,3.01355170211792,2.964320930480957
1789214103289773000,1.83177294921875,6.802375829315185,2.6779145568847653,2.94980608291626
1789214103299805000,1.841804931640625,6.5595139984130855,2.9177836357116695,3.602525310516357
1789214103309836000,1.8518359375,6.318148543548584,1.9029414070129393,4.177283346557617
1789214103319868200,1.8618681640625,6.194697520446777,0.9216180015563964,4.50768317565918
1789214103329900000,1.871900146484375,11.528380268859863,-0.2353799507141113,7.545925082397461
1789214103339931100,1.88193115234375,13.007398344421386,-1.6400281372070311,10.787674130249023
1789214103349963000,1.891962890625,7.29692810974121,-0.14888941574096679,7.503278365325928
1789214103359993900,1.901993896484375,4.659565343475341,1.225232699584961,4.543596200561523
1789214103370026000,1.91202587890625,1.894860976409912,1.530343773651123,1.4241010749816894
1789214103380057000,1.92205712890625,1.1393407150268553,2.1447557746887207,0.5761047744750977
1789214103390089000,1.9320888671875,1.0305541770935058,2.8275521606445313,1.0821791503906248
1789214103400121000,1.94212109375,1.7778443702697753,3.1652842323303223,1.43008657913208
1789214103410152000,1.95215185546875,2.0096330184936524,3.4581250228881832,2.5959131500244137
1789214103420183800,1.962183837890625,2.5124153671264646,2.7795184898376464,4.057722901153564
1789214103430215000,1.97221484375,2.685845349884033,2.7647043670654297,3.3801638313293454
1789214103440247000,1.9822470703125,2.158672071838379,2.5872341690063476,2.7246014892578123
1789214103450278100,1.992278076171875,1.0140940406799315,1.8626888916015625,2.191741982269287
1789214103460310000,2.00231005859375,-0.5743091232299804,0.8984241729736328,2.694823606109619
1789214103470342000,2.012341796875,-1.050156703186035,0.08693944778442382,3.7312136497497557
1789214103480373000,2.022373046875,0.0652419952392578,-0.8104372619628906,5.030516963195801
1789214103490405000,2.032405029296875,0.977432827758789,-1.5333365257263183,6.1082069854736325
1789214103500436000,2.04243603515625,1.6202759735107422,-1.9051859710693357,7.002291667938232
1789214103510468000,2.052468017578125,2.370409281158447,-1.9987094734191893,7.987206375885009
1789214103520500000,2.0625,2.1109376762390135,-1.665017617034912,8.585307878112792
1789214103530530800,2.07253076171875,0.16041151123046873,-1.0238204849243164,9.671527243804931
1789214103540563200,2.082563232421875,-1.2620435501098632,-0.2929904281616211,11.097723245239257
1789214103550594000,2.092593994140625,-0.7870937957763672,0.6998550727844238,13.27285545349121
1789214103560626000,2.1026259765625,1.2265794380187987,0.9727940620422363,15.369128644561767
1789214103570657000,2.112656982421875,3.1759085021972653,0.773776049041748,17.650802826690672
1789214103580689000,2.12268896484375,4.449174872589111,0.9949404273986816,19.319262108612058
1789214103590720800,2.132720703125,4.579808500671386,1.5637129592895507,19.405453368377685
1789214103600751900,2.142751953125,3.4657565406799313,1.8391957878112792,19.182044425964353
1789214103610784000,2.152783935546875,2.662801158905029,1.1249755050659178,18.639308837127686
1789214103620815000,2.162815185546875,2.5995044525146485,-0.13198036651611328,18.129942433929443
1789214103630847000,2.172846923828125,2.468870824432373,-1.20667763671875,17.602469880676267
1789214103640878800,2.18287890625,2.473808865356445,-1.4381670097351074,16.84021592712402
1789214103650910000,2.192909912109375,2.2272060943603513,-0.9132382957458496,16.1143239112854
1789214103660942000,2.202942138671875,1.1474211456298828,-0.47764323120117186,16.042797136688232
1789214103670973200,2.21297314453125,-0.5172971961975097,-0.9386766883850097,17.30274576034546
1789214103681005000,2.223005126953125,-1.454926421356201,-2.770240958404541,17.383250791168212
1789214103691037000,2.233036865234375,-1.5921441040039062,-4.259284753417968,15.293860929870604
1789214103701068000,2.243068115234375,-2.5329157188415525,-5.273827706909179,13.896993898773193
1789214103711100200,2.25310009765625,-4.556016121673584,-5.712116248321533,13.87305188217163
1789214103721131000,2.263131103515625,-3.963451210784912,-1.6309002433776854,14.688277547454833
1789214103731163100,2.2731630859375,-2.353949144744873,-0.3242646873474121,13.807211336517334
1789214103741195000,2.283195068359375,-1.303642803955078,-2.451063949584961,12.813617647552489
1789214103751225900,2.293225830078125,-0.8566752815246581,-3.8890813217163083,12.25038170700073
1789214103761258000,2.303258056640625,-0.4638765716552734,-4.731989943695068,11.826608013153075
1789214103771289000,2.3132890625,0.03890577697753906,-5.464466014099121,11.93240179901123
1789214103781321000,2.323321044921875,0.47375265350341794,-5.878662901306152,12.492644987487791
1789214103791352000,2.33335205078125,0.3511994560241699,-6.0799254783630365,13.211803311157226
1789214103801384000,2.343384033203125,0.46208092041015625,-5.39473489074707,13.80197402038574
1789214103811415800,2.353415771484375,1.5990274337768553,-4.989067346954346,13.58021109161377
1789214103821447000,2.363447021484375,2.8098949234008788,-5.638644184875488,14.125191244506835
1789214103831479000,2.37347900390625,3.976020769500732,-6.446238332366943,11.9258177444458
1789214103841510100,2.38351025390625,3.5965398063659664,-6.557269434356689,9.937732540893554
1789214103851542000,2.3935419921875,1.521365517425537,-6.826617121124267,8.230666757202147
1789214103861574000,2.403573974609375,2.6134207496643067,-4.780023614501953,8.329427575683594
1789214103871605000,2.41360498046875,1.9074305351257324,-5.751022025299072,8.737339683532714
1789214103881637000,2.42363720703125,1.465849966430664,-6.466589046478271,8.31236888885498
1789214103891668000,2.43366796875,3.5972879943847653,-6.177938108825683,7.070676052856445
1789214103901700000,2.4437001953125,3.6936546112060546,-6.801478003692626,7.062745259857177
1789214103911732000,2.45373193359375,2.705747151184082,-7.428459563446045,7.072322066497803
1789214103921762800,2.4637626953125,2.50238964767456,-4.3722611442565915,7.082048510742187
1789214103931795000,2.473794921875,4.15588516921997,-2.543689626312256,8.150161726379395
1789214103941826000,2.483825927734375,2.948459344482422,-5.447108052062988,8.710105639648438
1789214103951858000,2.49385791015625,2.523787825012207,-7.745691283416748,8.419359775543212
1789214103961890000,2.50389013671875,3.291578369903564,-8.684218334197997,8.03134946899414
1789214103971921000,2.5139208984375,10.97502041015625,-9.018059828186034,8.75948604888916
1789214103981953000,2.523953125,4.418648801422119,-5.792172366333007,10.832864686584472
1789214103991983900,2.53398388671875,0.0037409400939941405,-3.7957074569702147,6.8025254669189446
1789214104002016000,2.54401611328125,5.9311857002258295,-6.350769541168212,6.289268486022949
1789214104012047000,2.554047119140625,5.806687213897705,-8.353219954681396,8.030152368164062
1789214104022079000,2.564078857421875,-4.496759630584717,-5.952134964752197,6.067804832458496
1789214104032110800,2.57411083984375,-1.874959175109863,-3.7448306716918944,3.8495769943237304
1789214104042142000,2.584141845703125,2.025195329284668,-6.6437599693298335,5.54766452178955
1789214104052173800,2.594173828125,1.6805799278259277,-6.112097563171386,6.720224784851074
1789214104062205000,2.604204833984375,1.8227356513977049,-7.239317632293701,7.914033587646484
1789214104072237000,2.614237060546875,5.12044916305542,-7.331195121002197,9.495852696990966
1789214104082269000,2.62426904296875,5.810128878784179,-7.956530667114257,9.859771349334716
1789214104092300000,2.634300048828125,2.920926025390625,-4.2128970962524415,8.16557439956665
1789214104102332000,2.644331787109375,1.4564227973937987,-2.2643162200927733,6.502801346588134
1789214104112362800,2.65436279296875,0.9201216255187987,-5.831527056121826,5.145887555694579
1789214104122395000,2.664394775390625,0.6910264541625977,-6.44818362121582,3.462314875793457
1789214104132427000,2.674427001953125,0.244507844543457,-5.22878678817749,2.593967861175537
1789214104142457900,2.684457763671875,-0.20066402664184568,-4.210053981781005,1.8510171585083006
1789214104152490000,2.694489990234375,-0.44367549514770505,-3.2582091842651364,1.3660416847229002
1789214104162520800,2.704520751953125,-0.0809539436340332,-2.657713480377197,1.2146084297180175
1789214104172552700,2.714552734375,0.4435258575439453,-2.9439702163696286,1.9303250885009764
1789214104182585000,2.724585205078125,-0.6477811866760254,-2.160018810272217,2.034772135925293
1789214104192616000,2.734615966796875,0.3199251968383789,-2.2279542823791503,2.8088474601745603
1789214104202647800,2.744647705078125,0.8203133438110352,-3.443011624908447,3.1012393379211423
1789214104212679000,2.754678955078125,1.0733505317687988,-3.8344635963439937,3.014000614929199
1789214104222710800,2.764710693359375,1.4477438163757324,-3.738695529937744,2.971802810668945
1789214104232743000,2.774742919921875,1.3423989433288575,-3.5317467239379883,3.0939070953369137
1789214104242774000,2.78477392578125,1.0547954689025878,-3.133561060333252,3.35173268661499
1789214104252806000,2.794805908203125,0.598251139831543,-3.0795418853759764,3.8230911384582518
1789214104262837000,2.8048369140625,-0.15981296081542967,-3.9363668045043942,4.507982450866699
1789214104272868900,2.814868896484375,-0.5681739814758301,-6.70346537322998,5.27996284866333
1789214104282900700,2.824900634765625,-0.1322796417236328,-9.992948816680908,6.932560544586181
1789214104292931800,2.834931884765625,0.656310530090332,-14.777910472106933,9.48044002380371
1789214104302964000,2.8449638671875,0.32710780181884763,-19.309236389160155,12.465560581207274
1789214104312995000,2.8549951171875,0.2868552864074707,-18.102858027648924,15.174300484466551
1789214104323027000,2.86502685546875,-0.4664204109191894,-15.364489878845214,15.500510460662841
1789214104333058800,2.875058837890625,-1.7829320487976072,-12.463465654754637,13.459453545379638
1789214104343090000,2.88508984375,0.33533787002563475,-10.944344701385498,11.034127263641357
1789214104353122000,2.8951220703125,1.202188508605957,-10.364050074005126,9.24520971069336
1789214104363153000,2.90515283203125,1.5514426757812498,-10.11879404144287,8.226476904296874
1789214104373185000,2.91518505859375,1.6297031425476074,-10.130765049743651,7.496694310760498
1789214104383217000,2.925216796875,1.5234604438781738,-9.721206928253173,7.023689845275879
1789214104393247700,2.935247802734375,1.2005424949645995,-7.791330752563476,6.283282981872558
1789214104403280100,2.945280029296875,0.4525041137695312,-6.697479869079589,5.951985327148437
1789214104413311000,2.95531103515625,-0.10639233627319335,-5.894524487304687,5.07525860671997
1789214104423342800,2.9653427734375,1.039981346130371,-2.601599378967285,4.399495188140869
1789214104433375000,2.975375,-0.16220716247558592,-2.5999533653259275,4.046948993682861
1789214104443405800,2.98540576171875,1.0082581741333008,-1.7007810043334959,4.971709384918213
1789214104453437700,2.995437744140625,1.9104232872009277,0.0017956512451171875,3.5589807678222654
1789214104463470000,3.005469970703125,-0.7938274879455566,-0.020201076507568357,3.919158480072021
1789214104473501000,3.0155009765625,-0.6443395217895508,-2.779219214630127,5.710769509887695
1789214104483532800,3.02553271484375,0.9253589416503906,-4.6651019348144525,5.410147563934326
1789214104493564000,3.03556396484375,-0.0618003303527832,-5.738452466583252,5.359719691467284
1789214104503595800,3.045595703125,-0.6922235549926757,-5.17746109008789,6.1176341545104975
1789214104513628000,3.0556279296875,-0.5083189399719238,-4.547187503051758,5.514444973754882
1789214104523659000,3.065658935546875,-0.2362777763366699,-4.043357691192627,3.897012114715576
1789214104533691000,3.07569091796875,0.45175592575073237,-3.3975217933654784,3.503315579223633
1789214104543722000,3.085721923828125,0.8526350662231444,-2.6197055290222164,4.104559471130371
1789214104553753900,3.09575390625,0.9807248550415039,-1.8315642700195311,4.824316345214844
1789214104563785700,3.10578564453125,1.158793603515625,-1.2237363235473633,5.26095887298584
1789214104573817000,3.115817138671875,0.870142665863037,-0.9804255798339843,5.376928015899658
1789214104583849000,3.125848876953125,0.15158289260864258,-1.6026187362670898,5.218761068725586
1789214104593880000,3.135880126953125,-0.21173720932006834,-3.0240263343811034,4.958092362976074
1789214104603912000,3.145911865234375,-0.22999299697875975,-4.067898258209229,4.440196616363525
1789214104613943800,3.15594384765625,-0.31064766540527344,-5.0495209388732905,4.277839816284179
1789214104623975000,3.165974853515625,-0.10265139617919922,-6.291812325286865,4.4288241584777825
1789214104634007000,3.176007080078125,-0.361973363494873,-7.744643820190429,5.029319862365722
1789214104644039000,3.186038818359375,-1.1026795021057127,-8.128913186645507,6.246771406555175
1789214104654070000,3.196070068359375,-1.4305354919433593,-8.697087168121337,8.668356748199463
1789214104664102000,3.206101806640625,-1.3679869735717773,-10.86069728088379,11.465382837677002
1789214104674132700,3.2161328125,-1.5343839889526367,-13.282432260131834,13.552228859710693
1789214104684165000,3.2261650390625,-2.0464438690185545,-14.20509772491455,14.316877014923096
1789214104694197000,3.236197021484375,-2.631077986907959,-15.420603980255127,13.67523097000122
1789214104704227800,3.246227783203125,-3.0056209091186523,-14.28769768218994,11.190947472381591
1789214104714260000,3.256260009765625,-2.598905902099609,-12.198607096099852,8.635137200164795
1789214104724290800,3.266290771484375,-2.2092495819091797,-9.698611650085448,7.053467728424072
1789214104734323000,3.276322998046875,-2.159719535064697,-6.404639078521728,5.138854588317871
1789214104744355000,3.28635498046875,-1.6710031211853027,-3.6248213134765623,3.046322337341308
1789214104754386000,3.296385986328125,-1.5783774444580077,-2.3114520652770993,1.7791911087036132
1789214104764417800,3.306417724609375,-1.2095207511901855,-1.992424694061279,0.9279027809143066
1789214104774450000,3.316449951171875,-0.4159925384521484,-1.7221791816711425,0.963366893005371
1789214104784480800,3.326480712890625,-0.17821838607788085,-2.2931962776184083,1.4049474617004394
1789214104794513000,3.336512939453125,0.043245267486572266,-2.4779987182617185,2.0355203239440915
1789214104804544000,3.3465439453125,0.7278373046875,-2.2532430374145505,2.533364631652832
1789214104814575900,3.356575927734375,0.6503250259399413,-1.7972972587585447,2.657713480377197
1789214104824607700,3.366607666015625,0.7992144416809082,-2.9275100799560545,2.7533319091796873
1789214104834638800,3.376638916015625,0.5090671279907226,-4.14975002746582,3.3571196403503416
1789214104844671000,3.3866708984375,-0.45115737533569333,-6.123619658660888,4.189104717254638
1789214104854702000,3.3967021484375,0.6117185241699218,-8.162432009887695,6.883928323364257
1789214104864734000,3.40673388671875,1.7292121490478514,-11.359439414215087,10.104877744293212
1789214104874765800,3.416765869140625,3.1377509132385253,-15.118336020660399,14.170830713653563
1789214104884797000,3.426796875,3.467252916717529,-13.725658842468262,16.75163046569824
1789214104894828800,3.436828857421875,3.6535517333984373,-13.510031055450439,18.186655085754392
1789214104904861000,3.44686083984375,1.7194857048034666,-12.546514524841308,17.907132041931153
1789214104914892000,3.45689208984375,0.47973815765380856,-13.034183475494384,15.333365257263182
1789214104924924000,3.466923828125,-0.01092354507446289,-12.550704377746582,13.231405837249754
1789214104934955000,3.476955078125,0.8128314636230468,-12.707075673675536,8.25475841140747
1789214104944987000,3.48698681640625,1.5472528228759765,-12.471845360565185,2.6405051559448243
1789214104955019000,3.49701904296875,1.7012299171447753,-11.736975088500976,-1.0920552322387695
1789214104965049900,3.5070498046875,1.3563152404785155,-9.305064752197264,-4.352658618164062
1789214104975082000,3.51708203125,-0.8895955543518066,-8.438812664031982,-2.6767174560546874
1789214104985113900,3.52711376953125,-1.2144587921142578,-9.418639693450928,2.014122146606445
1789214104995145000,3.53714501953125,-0.4161421760559082,-10.659883616638183,8.241590302276611
1789214105005177000,3.547177001953125,-0.43574470214843747,-12.517185554504394,14.03855107192993
1789214105015209000,3.557208984375,0.36391865234375,-13.672088580322265,16.306608232116698
1789214105025240000,3.567239990234375,2.0822072563171385,-12.805237941741943,15.123274061584471
1789214105035272000,3.57727197265625,2.683151873016357,-11.163713428497314,12.508356935882567
1789214105045304800,3.587304931640625,2.4793454566955564,-9.847052153015136,10.09365492401123
1789214105055335700,3.597335693359375,1.8662801940917968,-8.377760521697997,8.78432589111328
1789214105065368000,3.6073681640625,1.1150994232177733,-8.031648744201659,8.035838597106933
1789214105075399000,3.61739892578125,0.752677146911621,-7.713369561004638,7.308749480438232
1789214105085430800,3.6274306640625,-0.3580827857971191,-4.889408702850342,7.233032852935791
1789214105095463000,3.637462890625,-2.1191677444458006,-5.438578708648682,6.606200930786132
1789214105105493800,3.64749365234375,-0.09068038787841796,-6.16087942199707,5.6030304351806635
1789214105115526000,3.65752587890625,2.3766940605163573,-5.436334144592285,4.841823944854736
1789214105125558000,3.66755810546875,3.3200095146179196,-4.100219980621338,2.6755203552246094
1789214105135588900,3.6775888671875,3.5378818656921385,-2.31115279006958,-0.4730044654846191
1789214105145620700,3.687620849609375,3.368342460632324,-0.1762730972290039,-2.5076269638061524
1789214105155651800,3.69765185546875,2.8012159423828122,1.3518261123657225,-2.133233679199219
1789214105165684000,3.70768408203125,2.027140618133545,0.31753099517822264,0.33848025970458984
1789214105175715800,3.7177158203125,1.9008464805603027,-0.9759364517211914,3.0877719535827635
1789214105185747000,3.727746826171875,0.8661024505615234,-2.1773767723083495,4.630386010742187
1789214105195778800,3.73777880859375,-0.2193687271118164,-3.57529126663208,5.023633633422851
1789214105205810700,3.747810791015625,-0.5119102424621582,-4.375104258728027,4.4211926406860345
1789214105215841800,3.757841796875,-0.455197590637207,-4.831050037384033,4.349516228485107
1789214105225874000,3.7678740234375,-0.3028665100097656,-5.672911196136474,4.663455921173095
1789214105235905800,3.77790576171875,0.6720224784851074,-6.367379315185547,4.584896179199219
1789214105245937000,3.78793701171875,1.1384428894042968,-6.002562837219238,4.605995081329345
1789214105255968800,3.79796875,1.7950526947021483,-7.511209158325195,6.241534090423584
1789214105266000000,3.807999755859375,2.5189994216918943,-8.345289161682128,5.7894788894653315
1789214105276032000,3.818031982421875,3.155857063293457,-6.8296098731994626,6.308721374511719
1789214105286063900,3.82806396484375,3.28155265045166,-10.9298298538208,7.475595408630371
1789214105296095000,3.838094970703125,3.337517114257812,-11.773337026214598,9.898826763916015
1789214105306126800,3.848126953125,2.0609587165832517,-10.52116955795288,11.291204666900635
1789214105316158700,3.85815869140625,-0.15592238311767578,-9.779266318511961,12.209081728363037
1789214105326189800,3.86818994140625,-1.4724340209960938,-9.827150351715087,12.618041299438476
1789214105336222000,3.878221923828125,-1.4297873039245605,-7.736563389587402,11.56189909210205
1789214105346252800,3.888252685546875,-2.175730758666992,-7.517793212890624,10.819098027038574
1789214105356285000,3.898284912109375,-3.2077813117980956,-8.826224420166016,9.39140564956665
1789214105366316800,3.90831689453125,-3.5859155364990234,-8.658181391143799,7.93528212738037
1789214105376348000,3.918347900390625,-3.29427184677124,-6.146963124847412,7.111078205871582
1789214105386380000,3.928380126953125,-3.623773850250244,-6.440103190612793,6.460453904724121
1789214105396412000,3.938411865234375,-3.3641526077270507,-6.18616817703247,6.120626906585693
1789214105406443000,3.948443115234375,-2.9692589714050293,-5.335179124450684,5.811325979614257
1789214105416475000,3.958474853515625,-2.9405285514831543,-4.44363828125,5.534197137451171
1789214105426506800,3.9685068359375,-2.166752502441406,-3.857358149719238,6.202628313446045
1789214105436537900,3.978537841796875,-1.926135235595703,-3.3515830490112304,6.711994716644287
1789214105446570000,3.988570068359375,-2.3870190551757813,-2.4938603042602536,7.0634934478759765
1789214105456600800,3.998600830078125,-2.1187188316345216,-1.7209820808410643,6.91430475692749
1789214105466633000,4.008633056640625,-2.3939023849487304,-2.3970447746276853,6.439803915405273
1789214105476664800,4.018664794921875,-2.0919337005615235,-2.519897247314453,6.069301208496094
1789214105486695700,4.02869580078125,-2.6746225296020505,-2.6536732650756836,5.685331117248535
1789214105496728000,4.03872802734375,-3.6138977684020994,-3.719541916656494,5.817311483764648
1789214105506760000,4.048760009765625,-4.005948290252685,-4.267514821624756,5.987599076843261
1789214105516790800,4.058790771484375,-5.226691861724853,-3.1748610389709473,6.504148085021972
1789214105526823000,4.068822998046875,-6.0136360198974605,-4.833444239044189,7.166444119262695
1789214105536855000,4.07885498046875,-5.570559075164795,-5.679495250701904,6.401795964050293
1789214105546886000,4.088885986328125,-5.89901361541748,-6.5780690612792965,5.814618006896972
1789214105556918000,4.09891796875,-5.4649149269104,-5.859210012817383,5.645677152252197
1789214105566950000,4.108949951171875,-4.705803363037109,-6.038026949310303,5.856217260742187
1789214105576980700,4.118980712890625,-5.429301177215576,-4.66734649887085,4.977245976257324
1789214105587012900,4.129012939453125,-4.444536106872558,-4.206313041687012,4.539855260467529
1789214105597045000,4.139044921875,-4.380640850067138,-4.274098876190186,4.904073188018798
1789214105607075800,4.149075927734375,-4.265569532775879,-4.032434146118164,5.102492650604248
1789214105617108000,4.15910791015625,-5.328894345092773,-3.7228339439392086,4.9416322265625
1789214105627138800,4.169138916015625,-5.232228453063964,-4.56514401550293,4.962581491088867
1789214105637170700,4.179170654296875,-5.761795932769775,-5.3472997703552245,5.067178176116943
1789214105647203000,4.189203125,-5.986102700805664,-5.817311483764648,4.9540521476745605
1789214105657234000,4.19923388671875,-6.809558434295654,-6.35914924697876,5.670816269683837
1789214105667265800,4.209265869140625,-7.001543479919433,-7.3198226631164545,5.796212581634522
1789214105677298000,4.2192978515625,-7.485471490478515,-8.80392841720581,5.952733515167236
1789214105687328800,4.229328857421875,-8.33077431411743,-10.19555813217163,7.707084781646728
1789214105697360600,4.239360595703125,-8.908076189422607,-11.16640690536499,10.207229865264893
1789214105707393000,4.24939306640625,-7.784297785186767,-12.498181578826904,10.93626427078247
1789214105717423900,4.259423828125,-3.7907694160461425,-10.54660795059204,8.533383629608155
1789214105727455700,4.269455810546875,-0.8945335952758788,-12.771569480895995,8.116642903137206
1789214105737488000,4.27948779296875,0.21577742462158203,-8.041973738861083,5.740996305847168
1789214105747518700,4.289518798828125,-1.2761094848632812,-2.482637483978271,6.1547442802429195
1789214105757550800,4.29955078125,-0.397736750793457,-1.243039574432373,6.668749449157715
1789214105767583000,4.3095830078125,1.6674118186950682,-5.677549961853027,7.191882511901855
1789214105777613800,4.31961376953125,0.18420389022827147,-7.607875050354004,7.61640439376831
1789214105787645700,4.329645751953125,0.5850830307006836,-7.5923127395629875,8.728959977722168
1789214105797677800,4.339677734375,-0.8922890312194823,-8.015338245391845,10.637737251281738
1789214105807709000,4.349708984375,-3.8221933128356933,-7.108983279418945,10.611101757812499
1789214105817740800,4.35974072265625,-4.620958841705322,-6.375010832977295,8.289324697875976
1789214105827772000,4.36977197265625,-4.564246189880371,-5.101894100189209,6.054038172912597
1789214105837803800,4.3798037109375,-2.094776815032959,-5.434388855743408,7.076811194610595
1789214105847836000,4.3898359375,-0.44068274307250976,-7.274931381988525,7.429357389068603
1789214105857866800,4.39986669921875,0.22939444656372068,-6.839785230255127,7.033117014312744
1789214105867899000,4.40989892578125,0.08723872299194335,-6.178686296844482,5.9217585311889644
1789214105877930800,4.4199306640625,-0.6367080039978027,-6.524049886322021,3.6394857986450195
1789214105887961900,4.4299619140625,-1.4456488899230957,-8.900145396423339,2.1734861946105957
1789214105897993700,4.43999365234375,-3.248931652832031,-8.207772203826904,3.2664392524719235
1789214105908025900,4.45002587890625,-4.40473250427246,-6.870161663818359,4.27724126586914
1789214105918057000,4.460056884765625,-4.138976119995117,-5.539883366394043,5.182698406219482
1789214105928088800,4.4700888671875,-3.349039209747314,-4.8512511138916015,5.167734645843505
1789214105938121000,4.480120849609375,-3.717746265411377,-6.408529656219482,4.958990188598633
1789214105948151800,4.49015185546875,-1.7966987083435058,-9.221118056488036,4.53282229309082
1789214105958183700,4.50018359375,-1.9629460861206054,-12.593500732421875,4.252551061248779
1789214105968216000,4.510216064453125,-1.4426561378479004,-16.328604959869384,1.2259808876037597
1789214105978247000,4.520246826171875,1.671452033996582,-19.808876348114012,-1.8688240333557127
1789214105988278800,4.53027880859375,-0.7685387329101562,-18.6939265625,-3.089567604827881
1789214105998311000,4.540310791015625,-2.8769325698852537,-13.978396755218505,-1.6470611045837402
1789214106008341800,4.550341796875,-3.5076550697326656,-10.132560700988769,-0.08529343414306641
1789214106018374000,4.560373779296875,-4.942530052185059,-9.868599967956543,0.041000703430175776
1789214106028406000,4.570406005859375,-5.342960279846191,-11.26786120071411,0.5805939025878906
1789214106038436900,4.580436767578125,-6.924031201171875,-10.927435652160645,1.094299796295166
1789214106048468200,4.59046826171875,-4.444087194061279,-8.741230261230468,1.8697218589782714
1789214106058500400,4.600500244140625,-3.08343246307373,-5.625476075744628,2.3778911613464353
1789214106068531200,4.61053125,-1.6989853530883787,-3.268384541320801,4.902427174377441
1789214106078563300,4.620563232421875,0.19797054977416992,-1.7676690132141113,6.724115362548828
1789214106088595500,4.630595458984375,-0.2332850242614746,-1.214309154510498,11.08979245223999
1789214106098626300,4.640626220703125,-0.62563482131958,0.14021043472290037,16.593014605712888
1789214106108658400,4.650658447265625,-2.110488763427734,-1.8882769218444824,17.973271862792966
1789214106118690300,4.660690185546875,-2.7268460533142087,-4.661510632324219,16.441431713104247
1789214106128721400,4.670721435546875,-2.928407905578613,-6.378901410675049,14.973786095428466
1789214106138753500,4.68075341796875,-2.9550433990478515,-5.421220746612549,14.44152513885498
1789214106148784400,4.690784423828125,-2.18979669342041,-4.129399313354492,12.66053837890625
1789214106158816300,4.700816162109375,-1.0588356842041016,-4.340986885070801,10.562020623779297
1789214106168848400,4.710848388671875,-1.7758990814208984,-5.438129795837402,7.76364779586792
1789214106178879200,4.720879150390625,-1.7313070755004882,-9.160215551757812,5.627122089385986
1789214106188911400,4.730911376953125,-3.33886385269165,-9.984419473266602,4.125808010864257
1789214106198943500,4.740943603515625,-4.116829754638672,-9.990554615020752,3.2396541213989254
1789214106208974300,4.750974365234375,-5.046677824401855,-9.739013803100585,3.3460464576721187
1789214106219006200,4.761006103515625,-6.271760886383056,-9.475950895690918,2.5571570106506347
1789214106229038600,4.77103857421875,-7.782202858734131,-9.263914411163329,1.2578536972045897
1789214106239069400,4.7810693359375,-7.951592626190185,-7.905504244232177,1.5658078857421873
1789214106249101300,4.791101318359375,-7.842057900238037,-6.449979272460937,1.6662147178649902
1789214106259133400,4.801133544921875,-7.397634217071532,-6.084863519287109,2.3300071281433103
1789214106269164300,4.811164306640625,-5.852925233459472,-6.723067899322509,2.54099614944458
1789214106279196200,4.821196044921875,-5.008819510650635,-7.071424240875244,2.6167127769470215
1789214106289228500,4.831228515625,-4.82626163406372,-6.942286988830566,2.9855694702148434
1789214106299259400,4.84125927734375,-4.687547575378417,-5.419724370574951,3.7988498466491696
1789214106309291300,4.851291259765625,-4.226813393402099,-5.269787491607666,5.767482161712646
1789214106319323400,4.861323486328125,-4.248959758758545,-5.693261910247802,6.807762783050537
1789214106329354200,4.871354248046875,-4.818480478668213,-5.9014078170776365,6.733542531585693
1789214106339386400,4.881386474609375,-4.9155952835083,-6.178387021636962,7.363516843414306
1789214106349418500,4.89141845703125,-4.95450106048584,-6.264727919006347,8.03763424835205
1789214106359449300,4.901449462890625,-4.825812721252441,-5.8349687210083,8.099434578704834
1789214106369481200,4.911481201171875,-4.724208788299561,-5.240907434082031,7.748235122680663
1789214106379513300,4.921513427734375,-4.550928443145752,-3.6463691284179687,6.852205151367187
1789214106389544200,4.931544189453125,-5.255272644042968,-3.6749499107360837,6.406285092163086
1789214106399576300,4.941576416015625,-5.482721801757812,-4.087500784301757,5.883600942230224
1789214106409608400,4.9516083984375,-5.506065267944336,-4.10515802154541,4.988768071746826
1789214106419639300,4.961639404296875,-5.092317293548584,-4.302380383300781,4.191498918914795
1789214106429671200,4.971671142578125,-5.0769046203613275,-4.132092790222168,3.873967923736572
1789214106439702300,4.981702392578125,-5.208286436462402,-3.7535096527099605,4.342034348297119
1789214106449734400,4.991734375,-5.517288088226318,-2.7515362579345704,5.363909544372558
1789214106459766300,5.001766357421875,-5.549011260223389,-2.3081600379943845,6.676829879760742
1789214106469797400,5.01179736328125,-5.411643939971923,-2.555062084197998,7.625681925201415
1789214106479829200,5.021829345703125,-5.5635261077880855,-2.5119664543151856,8.047659967803954
1789214106489861400,5.031861328125,-5.992986030578613,-2.0040964271545407,8.392275369262695
1789214106499892500,5.041892578125,-6.340294908905029,-1.3033435287475585,7.602937009429931
1789214106509924400,5.05192431640625,-6.584952391052246,-0.36017771224975587,7.1954738143920896
1789214106519956200,5.061956298828125,-6.273706175231934,-1.1751041023254394,6.816292126464844
1789214106529987300,5.0719873046875,-5.425709874725341,-1.4065934753417968,6.016179859161377
1789214106540019200,5.082019287109375,-5.5169888130187985,-2.126499987030029,4.555267933654785
1789214106550051300,5.09205126953125,-4.840626844024658,-2.128594913482666,3.1350574363708494
1789214106560082400,5.10208251953125,-4.979041627502441,-1.5269021087646484,2.1226094093322754
1789214106570114300,5.1121142578125,-5.156811100769042,-1.8752584503173828,1.2641384765625
1789214106580146400,5.122146484375,-6.153397541809082,-2.5378537597656248,1.1682207725524902
1789214106590177300,5.13217724609375,-6.054038172912597,-3.7442321212768555,2.906710453033447
1789214106600209400,5.14220947265625,-5.6772506866455075,-5.009567698669433,5.224596935272216
1789214106610241500,5.152241455078125,-5.330241083526611,-5.53539423828125,6.586748042297363
1789214106620272400,5.1622724609375,-5.31812043762207,-7.435043618011474,8.279897528839111
1789214106630304300,5.17230419921875,-5.095310045623779,-10.266785631561278,9.24984847640991
1789214106640336400,5.18233642578125,-4.902127899169922,-9.360281027984618,9.389011447906494
1789214106650367200,5.1923671875,-4.638167166137695,-6.4466872451782224,9.332598071289063
1789214106660399400,5.2023994140625,-4.022408426666259,-2.685845349884033,8.482506844329833
1789214106670431500,5.212431396484375,-3.3110312583923336,-2.60474176864624,7.158812601470947
1789214106680462300,5.22246240234375,-3.7515643638610836,-4.521150559997558,6.8309566116333
1789214106690494200,5.232494140625,-4.122515983581542,-5.932981351470947,7.800159371185302
1789214106700525300,5.242525390625,-4.8006736038208,-8.226925817108153,7.103745963287353
1789214106710557400,5.252557373046875,-5.72693037109375,-13.467533975982665,6.414964073181152
1789214106720589300,5.26258935546875,-5.692812997436523,-13.521104238128661,7.482927651214599
1789214106730620400,5.272620361328125,-5.904550206756592,-11.900678627014159,7.728782234191894
1789214106740652300,5.28265234375,-5.371541062164306,-10.210521892547607,8.206275827789305
1789214106750684200,5.29268408203125,-4.523694399261474,-9.55091933517456,8.29351455078125
1789214106760715500,5.302715576171875,-4.4756607284545895,-7.451803029632568,6.086210257720947
1789214106770747400,5.312747314453125,-5.552602562713623,-6.024409927368164,3.7934628929138183
1789214106780779300,5.322779296875,-3.814561795043945,-6.409427481842041,4.805761282348633
1789214106790810400,5.332810302734375,-2.708739903259277,-6.830058786010742,7.48232910079956
1789214106800842200,5.34284228515625,-2.9996354049682616,-7.860612963104248,9.309703517913817
1789214106810874400,5.352874267578125,-3.5543420021057126,-8.361898935699463,9.358335739135741
1789214106820905500,5.362905517578125,-3.9360675292968748,-8.30593447189331,8.877400480651856
1789214106830937300,5.372937255859375,-4.62829108428955,-8.847921872711181,8.916156620025633
1789214106840969200,5.38296923828125,-3.8787563270568843,-8.654590088653563,10.478672478485107
1789214106851000300,5.393000244140625,-1.9895815795898437,-6.411971321105956,12.394632357025145
1789214106861032400,5.403032470703125,-1.2645873893737791,-1.4665981544494628,13.570335009765625
1789214106871064300,5.413064208984375,-5.0489223884582515,-0.603338818359375,8.88009395751953
1789214106881095400,5.423095458984375,-5.584325734710693,-1.7132009254455565,4.229207595062255
1789214106891127300,5.433127197265625,-4.8403275688171385,-2.7621605278015133,3.351283773803711
1789214106901159200,5.4431591796875,-3.481917401885986,-4.10530765914917,3.1165023735046384
1789214106911190300,5.453190185546875,-2.4513632247924804,-5.936871929168701,2.379836450195312
1789214106921222400,5.463222412109375,-3.0889690544128414,-5.999420447540283,2.00469497756958
1789214106931254300,5.473254150390625,-3.3919852020263668,-6.415562623596191,1.9677344894409179
1789214106941285400,5.483285400390625,-1.214309154510498,-7.030573175048827,1.7968483459472655
1789214106951317200,5.493317138671875,3.9074867469787598,-11.000458802795409,-1.8944120635986328
1789214106961349400,5.503349365234375,-1.600523809814453,-10.851569387054443,2.4820389335632322
1789214106971380500,5.51338037109375,-4.480598769378662,-9.681403325653076,3.905990370941162
1789214106981412400,5.523412353515625,-7.868394118499755,-8.28004716644287,3.5926492286682126
1789214106991444200,5.5334443359375,-7.924208944702148,-7.25278501663208,3.5218706420898434
1789214107001475300,5.543475341796875,-5.013308638763427,-9.605237785339355,3.1399954772949217
1789214107011507200,5.553507080078125,-6.7459624526977535,-9.91513726272583,4.8880619644165035
1789214107021538300,5.563538330078125,-5.880907465362548,-8.920346472930907,6.558017622375488
1789214107031570400,5.5735703125,-0.09696516723632811,-8.96269391479492,8.460061203765868
1789214107041602300,5.583602294921875,0.4750993919372558,-8.466944533538818,8.95102218170166
1789214107051633700,5.593633544921875,-1.721879906463623,-7.420079857635498,5.86714080581665
1789214107061665800,5.603665771484375,-3.9796120719909664,-6.7374331092834465,5.24105707168579
1789214107071697700,5.61369775390625,-4.38557889099121,-6.533177780151367,5.9850552375793455
1789214107081728800,5.623728759765625,-3.5423709938049313,-6.202329038238525,5.8349687210083
1789214107091760600,5.6337607421875,-3.270030554962158,-5.3107881950378415,7.214777065277099
1789214107101792500,5.64379248046875,-3.1043817276000976,-4.9455228042602535,10.06776761856079
1789214107111823600,5.65382373046875,-2.2186767509460448,-5.6947582862854,12.18139877166748
1789214107121855700,5.663855712890625,-3.715052788543701,-6.919691710662842,11.72784719467163
1789214107131887600,5.6738876953125,-4.4105683708190915,-7.276128482818603,10.285789607238769
1789214107141918700,5.683918701171875,-3.8200983863830564,-6.930615255737305,8.661772693634033
1789214107151950600,5.69395068359375,-3.1176994743347164,-6.353014105224609,6.953210533905029
1789214107161982700,5.703982666015625,-3.4118870033264157,-6.146663849639892,5.482721801757812
1789214107172014600,5.7140146484375,-4.0991725173950195,-5.366902296447754,3.899406316375732
1789214107182045700,5.724045654296875,-3.6542999214172363,-3.9248447090148924,4.132242427825927
1789214107192077600,5.73407763671875,-4.184465951538086,-4.649090711212158,5.237615406799316
1789214107202108700,5.744108642578125,-4.547337140655517,-6.322488034057617,7.11870972366333
1789214107212140500,5.754140625,-4.7469537040710446,-8.207921841430663,7.690774282836913
1789214107222172700,5.764172607421875,-5.161898779296875,-9.712976860046385,7.299172673797607
1789214107232203800,5.774203857421875,-4.592378059387206,-10.095151300048828,6.118681617736816
1789214107242235600,5.784235595703125,-4.613776236724854,-8.587851717376708,4.4193969894409175
1789214107252267500,5.794267578125,-4.2694601104736325,-5.765387235260009,3.1989526931762695
1789214107262298600,5.804298583984375,-4.000710974121094,-3.8022915115356444,2.258779628753662
1789214107272330800,5.814330810546875,-4.064007680511474,-2.559551212310791,2.568978381347656
1789214107282362600,5.824362548828125,-3.700388303375244,-1.1611878051757811,2.9496564453125
1789214107292393700,5.834393798828125,-3.649361880493164,-0.21862053909301757,3.687669107055664
1789214107302425600,5.844425537109375,-4.301482557678223,-2.1375731697082516,4.77568412399292
1789214107312457500,5.85445751953125,-4.727800090789795,-3.7262756088256834,5.7709238265991205
1789214107322488600,5.864488525390625,-4.746504791259765,-3.4280478645324703,5.32485412979126
1789214107332520700,5.874520751953125,-4.621258116912841,-3.6975451889038085,4.574271909332275
1789214107342552600,5.884552490234375,-4.32841732635498,-4.892401454925537,5.219509256744384
1789214107352583700,5.894583740234375,-4.309562988281249,-5.772869115447998,6.54410132522583
1789214107362615600,5.904615478515625,-4.454861101531982,-5.397578005218506,7.184699906921386
1789214107372647700,5.914647705078125,-4.4297219841003415,-4.154987343597412,6.338199982452392
1789214107382679800,5.9246796875,-4.287117347717285,-3.9567175186157226,6.252607273101806
1789214107392710700,5.934710693359375,-4.724208788299561,-2.133682592010498,7.014113038635253
1789214107402742500,5.944742431640625,-4.423586842346191,-2.201767701721191,7.174823825073242
1789214107412774700,5.954774658203125,-4.352957893371582,-2.231844860076904,7.274482469177245
1789214107422805500,5.964805419921875,-4.9075148529052735,-1.3376105400085447,7.40586428527832
1789214107432837600,5.974837646484375,-4.448875597381591,-1.6877625328063963,7.159710427093505
1789214107442869800,5.984869873046875,-3.341557329559326,0.628178660583496,7.312340782928467
1789214107452900600,5.994900634765625,0.6566098052978515,0.41793782730102536,6.066757369232177
1789214107462932500,6.004932373046875,1.6499042190551756,0.04144961624145507,5.586869573974609
1789214107472964900,6.01496484375,-1.648407843017578,6.347028601074219,6.8195841537475586
1789214107482995700,6.02499560546875,-2.276436865997314,1.7476175743103026,9.13028803100586
1789214107493027600,6.035027587890625,-7.85283180770874,-5.7311202239990235,7.957428492736816
1789214107503059700,6.045059814453125,-7.712621372985839,-17.55727932434082,10.648960071563721
1789214107513090600,6.055090576171875,-5.679644888305663,-22.313959472656247,9.439289682769775
1789214107523122400,6.065122314453125,-2.9734488243103026,-19.13475894317627,4.164713787841797
1789214107533154800,6.07515478515625,-1.9975123725891113,-14.643685541534422,4.483441883850097
1789214107543185700,6.085185546875,-2.7174188842773437,-9.509320081329346,5.802796636199951
1789214107553217500,6.095217529296875,-5.328445432281494,-5.183446594238281,9.066991324615477
1789214107563249700,6.105249755859375,-4.191648556518555,-3.1214404144287107,10.911723703765869
1789214107573280500,6.115280517578125,1.919102268218994,-3.984250837707519,8.31910258102417
1789214107583312600,6.125312744140625,-2.680608033752441,-6.302735870361328,1.3024457031249999
1789214107593344800,6.1353447265625,-9.088239864349365,-6.924330476379394,1.98554136428833
1789214107603375600,6.145375732421875,-6.6714429260253905,-6.133346102905273,2.4760534294128416
1789214107613407500,6.155407470703125,-6.490082150268554,-8.994267449188232,0.04563946914672851
1789214107623439600,6.165439697265625,-6.18033231048584,-11.506084265899657,0.06793547210693358
1789214107633470700,6.175470703125,-5.821950249481201,-9.38571942062378,2.5846903297424313
1789214107643502600,6.185502685546875,-5.822099887084961,-9.23817674331665,4.242375704193115
1789214107653534700,6.19553466796875,-5.3019595764160155,-10.121337880706786,6.3250318733215325
1789214107663565600,6.205565673828125,-5.754762965393066,-10.858901629638671,6.362291636657715
1789214107673597700,6.21559765625,-4.721664949035644,-10.339509506988525,5.561580818939209
1789214107683629800,6.2256298828125,-3.373430139160156,-9.84450831375122,5.417180531311035
1789214107693660700,6.23566064453125,-3.4407670608520506,-10.786626667022704,4.938639474487305
1789214107703692800,6.24569287109375,-4.09872360458374,-7.720701803588867,5.207538248443603
1789214107713724700,6.255724609375,-2.424129180908203,-8.614337573242187,4.684105910491943
1789214107723755500,6.265755615234375,-2.0020015007019043,-10.258555563354491,3.385401147460937
1789214107733787600,6.27578759765625,-4.430919084930419,-9.754875389099121,3.5488054107666014
1789214107743819800,6.28581982421875,-3.9172131912231443,-10.508001448822021,3.328838133239746
1789214107753850600,6.2958505859375,-3.577835105895996,-11.039663854980468,3.03270531539917
1789214107763882800,6.3058828125,-4.004900827026367,-9.980379257965087,3.617339433288574
1789214107773914600,6.31591455078125,-4.20137500076294,-8.225429441070556,4.557662135314941
1789214107783945500,6.325945556640625,-3.7683237754821777,-6.751349406433105,5.774964041900635
1789214107793977900,6.335977783203125,-2.6611551452636717,-5.969044013977051,6.351667366790771
1789214107804009700,6.346009765625,-1.7790414710998534,-6.365733301544189,6.254253286743164
1789214107814041600,6.35604150390625,-2.2836194709777833,-7.111676756286621,5.672462283325195
1789214107824072700,6.36607275390625,-2.5610475883483885,8.096441826629638,8.498966980743408
1789214107834104800,6.376104736328125,-4.346523476409912,21.3869545173645,10.619182188415527
1789214107844136700,6.38613671875,-5.377825841522217,-8.034791133880615,3.7599440696716306
1789214107854167800,6.396167724609375,-3.150021196746826,-18.49475891189575,6.279542041778564
1789214107864199700,6.40619970703125,-4.43032053451538,-12.039691960906982,11.096975057220458
1789214107874231600,6.4162314453125,-4.272752137756347,-13.1776859375,11.49156941833496
1789214107884262700,6.4262626953125,-3.5372833152770995,-14.060248524475098,10.217405222320556
1789214107894294800,6.436294677734375,-2.752434083557129,-12.96714582901001,7.5142019104003905
1789214107904326700,6.44632666015625,-2.5457845527648924,-11.942128243255615,4.164264875030518
1789214107914357800,6.456357666015625,-3.2140660911560057,-11.010933435058593,3.094954558563232
1789214107924389600,6.4663896484375,-4.736030158996582,-11.222072093963622,1.9788076721191405
1789214107934421800,6.476421875,-5.973383504486083,-10.96828671798706,2.0388123512268064
1789214107944452900,6.486452880859375,-5.387402648162841,-10.576535471343993,2.87289235458374
1789214107954484700,6.496484619140625,-4.4577042160034175,-9.559897591400146,4.431517635345458
1789214107964516600,6.5065166015625,-3.9323265892028805,-9.381978480529785,4.444985019683838
1789214107974547700,6.516547607421875,-3.720140467071533,-7.858069123840331,4.674080191040039
1789214107984579600,6.52657958984375,-3.2638954132080076,-7.888146282196044,5.073911868286133
1789214107994611700,6.53661181640625,-3.4255040252685545,-9.349656758117675,6.683114659118652
1789214108004643600,6.5466435546875,-4.02854356842041,-9.383774131774901,7.4874167793273925
1789214108014674700,6.5566748046875,-4.218284049987793,-9.51306102142334,6.9810431282043455
1789214108024706600,6.56670654296875,-4.052186309814453,-9.985317298889159,6.166416013336181
1789214108034738400,6.576738525390625,-4.386177441406249,-11.277587644958496,5.673210471343994
1789214108044769800,6.586769775390625,-5.127182855224609,-12.900856370544433,5.42630842514038
1789214108054801200,6.59680126953125,-5.718101752471924,-13.717877687072754,5.840804587554931
1789214108064833300,6.606833251953125,-5.177012177276611,-12.742240510559082,6.753444332885742
1789214108074864000,6.616864013671875,-2.8549358421325683,-10.670956799316405,6.617274113464355
1789214108084896000,6.62689599609375,-2.4760534294128416,-8.164227661132813,5.72034631652832
1789214108094928400,6.636928466796875,-1.7401356941223143,-5.153519073486327,5.347599045562744
1789214108104959200,6.646959228515625,-1.901893943786621,-2.048838070678711,4.153042054748535
1789214108114991000,6.6569912109375,-2.395398760986328,-1.1954548164367675,2.678213832092285
1789214108125023200,6.667023193359375,-2.4919150154113767,-1.906383071899414,2.4492682983398435
1789214108135055000,6.67705517578125,-4.144363073730468,-3.52396556854248,3.1955110282897947
1789214108145086000,6.6870859375,-5.580884069824219,-4.905120651245117,3.978564608764648
1789214108155118300,6.697118408203125,-5.2162172294616695,-5.185990433502197,4.043058415985107
1789214108165150200,6.707150146484375,-3.2296284019470214,-4.969913733673096,3.7318122001647946
1789214108175181000,6.71718115234375,-2.1411644721984864,-4.76880079421997,3.9764696823120116
1789214108185213200,6.727213134765625,-3.419518521118164,-5.399224018859863,4.3537060813903805
1789214108195245300,6.737245361328125,-4.698022207641602,-5.531952573394775,5.421220746612549
1789214108205276200,6.747276123046875,-5.786635774993896,-5.055207167816162,6.054487085723877
1789214108215308300,6.757308349609375,-5.913678100585937,-4.272003949737549,5.639691648101806
1789214108225340200,6.767340087890625,-5.892130285644531,-3.8896798721313472,4.597914650726318
1789214108235371000,6.77737109375,-5.889137533569335,-3.74123936920166,3.5244144813537597
1789214108245403100,6.787403076171875,-5.309890369415283,-3.3725323135375973,2.8589760574340817
1789214108255435300,6.797435302734375,-5.11386510848999,-3.5604771438598632,2.7084406280517577
1789214108265467100,6.807467041015625,-5.3968298171997064,-3.6947020744323726,3.271826206207275
1789214108275498200,6.817498291015625,-5.49708701171875,-3.3833062210083007,3.9344215156555173
1789214108285530000,6.827530029296875,-5.083339037322998,-3.3162685745239258,4.402487940216064
1789214108295562200,6.837562255859375,-4.700865322113037,-3.5992332832336422,4.648342523193359
1789214108305593300,6.84759326171875,-4.256740914154053,-3.618386896514892,4.458153128814697
1789214108315625200,6.857625244140625,-4.268562284851074,-3.432088079833984,3.8153099830627437
1789214108325657000,6.867656982421875,-4.576366835784912,-3.1762077774047848,3.571400688934326
1789214108335688200,6.877688232421875,-5.288492192077636,-2.9550433990478515,4.050689933776855
1789214108345720000,6.887719970703125,-5.163544792938232,-3.114856359863281,4.819976854705811
1789214108355752200,6.897752197265625,-4.704606262207031,-3.539527879333496,5.178658190917968
1789214108365784000,6.9077841796875,-4.549132791900634,-3.8251860649108886,5.242254172515869
1789214108375815200,6.917815185546875,-4.313603203582764,-3.946542161560058,5.074959331512451
1789214108385847000,6.927846923828125,-4.265120619964599,-4.190601093292236,4.714183068847656
1789214108395879200,6.937879150390625,-3.8353614219665526,-4.66674794845581,4.219181875610351
1789214108405910300,6.94791015625,-3.6170401580810543,-5.155613999938964,3.4249054748535155
1789214108415942100,6.957942138671875,-3.9613562843322754,-5.967398000335693,2.722955475616455
1789214108425974000,6.96797412109375,-4.439598065948486,-6.746112090301513,2.733729383087158
1789214108436005000,6.978005126953125,-4.455459651947021,-7.634959456634521,3.2441432495117186
1789214108446037000,6.988037109375,-4.509029914093017,-8.501959732818603,3.736002053070068
1789214108456069000,6.998069091796875,-4.722113861846924,-8.897003006744384,4.275146339416503
1789214108466101200,7.008101318359375,-4.8317982254028315,-8.610895908355712,5.28579871520996
1789214108476132000,7.018132080078125,-5.00507857055664,-8.272266011047362,6.580762538146972
1789214108486164000,7.0281640625,-5.023783271026611,-8.343792785644531,7.317129186248779
1789214108496196400,7.0381962890625,-5.10728105392456,-8.095992913818359,7.494150471496582
1789214108506227200,7.048227294921875,-6.318298181152343,-7.470208454895019,7.418433843994141
1789214108516259000,7.058259033203125,-7.165695931243896,-6.733392893981933,7.27852268447876
1789214108526291200,7.068291259765625,-6.699874070739746,-6.160580146789551,6.973561248016357
1789214108536322000,7.078322021484375,-5.93133533782959,-6.148758776092529,6.669796912384033
1789214108546354200,7.088354248046875,-5.453991381835937,-6.444741956329345,6.143820735168457
1789214108556386300,7.09838623046875,-5.04996985168457,-6.636727001953124,5.684134016418457
1789214108566418200,7.108418212890625,-4.3734582450866695,-6.707655226135254,5.571756175994873
1789214108576449300,7.11844921875,-3.8226422256469723,-6.845920372009277,5.4698529678344725
1789214108586481200,7.128481201171875,-3.627365152740478,-7.653514519500732,5.716156463623046
1789214108596513300,7.13851318359375,-3.815758895874023,-8.93770443496704,6.001814649200439
1789214108606544400,7.14854443359375,-4.07971962890625,-10.478073928070067,6.091297936248779
1789214108616576300,7.158576171875,-3.853617209625244,-11.880028637695311,6.293159063720703
1789214108626608000,7.168608154296875,-3.791068691253662,-12.900856370544433,6.037278761291503
1789214108636639200,7.17863916015625,-4.0453029800415035,-13.070246138000487,4.994155025482177
1789214108646671000,7.188671142578125,-4.106654397583007,-12.849231397247314,3.5667619232177734
1789214108656703200,7.198703125,-4.071938473510742,-11.879579724884033,2.926013703918457
1789214108666734300,7.208734375,-4.091391361999512,-10.983998666381835,2.596511700439453
1789214108676766200,7.21876611328125,-4.153490967559814,-10.353126528930664,2.442085693359375
1789214108686798000,7.228798095703125,-4.3257238494873045,-10.024671988677978,2.1446061370849607
1789214108696830200,7.238830322265625,-4.463540082550049,-9.829394915771484,2.019509100341797
1789214108706861300,7.248861328125,-4.867411975097656,-9.9591307182312,2.1666028648376465
1789214108716893200,7.25889306640625,-5.323357753753662,-10.280402653503417,2.4595932929992674
1789214108726925000,7.268925048828125,-5.707926395416259,-10.512191301727293,2.733280470275879
1789214108736956200,7.2789560546875,-5.862352402496337,-10.473884075164793,2.8549358421325683
1789214108746988000,7.288988037109375,-6.081421854400634,-10.098592964935301,2.611774736022949
1789214108757020200,7.299020263671875,-5.944353809356689,-9.618256256866454,2.1883003173828124
1789214108767051300,7.30905126953125,-5.321861377716064,-8.869619325256346,1.885882720184326
1789214108777083100,7.319083251953125,-4.003703726196289,-8.377461246490478,1.6112977172851561
1789214108787115000,7.329114990234375,-2.490568276977539,-8.060379164123535,1.624166551208496
1789214108797147400,7.3391474609375,-1.8124106567382812,-7.677905448913574,2.045546043395996
1789214108807178200,7.34917822265625,-2.0786159538269042,-7.413346165466308,2.571522220611572
1789214108817210000,7.359210205078125,-2.707991715240478,-7.208342648315429,3.08343246307373
1789214108827242200,7.3692421875,-3.1962592163085937,-7.266701313781738,3.3289877708435056
1789214108837273000,7.379273193359375,-3.2417490478515623,-7.6753616096496575,3.4874539932250976
1789214108847305000,7.389304931640625,-3.1145570846557615,-8.113201238250731,3.7419875572204586
1789214108857337300,7.39933740234375,-3.071760729980469,-8.407538404846191,4.109647149658203
1789214108867368200,7.4093681640625,-3.3604116676330564,-8.613739022827147,4.279336192321777
1789214108877400000,7.419400146484375,-3.7044285186767576,-8.907776914215088,4.3908162071228025
1789214108887432200,7.42943212890625,-4.242824617004394,-9.298181422424316,4.8050130943298335
1789214108897464300,7.43946435546875,-4.874295304870605,-9.849446354675292,5.393537789916992
1789214108907495200,7.4494951171875,-5.376329465484619,-10.3038957572937,6.054636723327636
1789214108917527300,7.45952734375,-5.440972910308838,-10.771812544250487,6.826317845916748
1789214108927559200,7.46955908203125,-5.476736297607421,-11.01302836151123,7.080851409912109
1789214108937590000,7.479590087890625,-5.226392586517334,-10.848875910186766,6.831704799652099
1789214108947622100,7.4896220703125,-4.389619106292725,-10.088567245483398,6.129754800415038
1789214108957654300,7.499654296875,-3.4454058265686034,-9.48178676223755,5.122244814300537
1789214108967686100,7.50968603515625,-3.3461960952758787,-8.894459167480468,4.135384817504883
1789214108977717200,7.51971728515625,-3.873967923736572,-7.8633064399719235,3.3342250869750973
1789214108987749000,7.5297490234375,-4.683208084869385,-7.347954532623291,3.4394203224182127
1789214108997781200,7.53978125,-5.163694430541992,-7.243657122802734,4.438849877929687
1789214109007812400,7.549812255859375,-5.2624552490234375,-7.785494886016846,5.240308883666992
1789214109017844200,7.55984423828125,-5.051017314910888,-8.66940421142578,5.770175638580322
1789214109027876000,7.5698759765625,-4.641608831024169,-9.178770614624023,6.433070223236084
1789214109037907200,7.5799072265625,-3.9489363632202146,-9.593416414642334,6.576423047637939
1789214109047939000,7.58993896484375,-3.502417753601074,-9.585036708831787,6.3627405494689935
1789214109057971000,7.599970947265625,-3.196558491516113,-9.432705628204346,6.264877556610107
1789214109068003000,7.610003173828125,-3.375375428009033,-9.483432775878907,6.7368345588684075
1789214109078034200,7.6200341796875,-3.6694133193969725,-8.909572565460204,7.274332831573486
1789214109088066000,7.630066162109375,-4.278737641906738,-7.375038938903808,7.0184525291442865
1789214109098098000,7.640097900390625,-5.140949514770507,-5.064335061645507,5.567416685485839
1789214109108129000,7.65012890625,-4.499004194641113,-2.5775077247619627,3.5028666664123533
1789214109118161200,7.6601611328125,-3.8142625198364257,-1.2141595169067383,1.2202946586608887
1789214109128193000,7.670193115234375,-4.161122485351562,-0.38142625198364255,-0.405368268585205
1789214109138225200,7.68022509765625,-4.5516766311645505,0.7799111907958984,-1.4634557647705078
1789214109148256000,7.690256103515625,-4.038718925476074,2.1823148132324217,-2.013972509002685
1789214109158288100,7.7002880859375,-3.12847338180542,3.482067039489746,-2.492214290618896
1789214109168320300,7.7103203125,-3.337666751861572,3.999064960479736,-1.917156979370117
1789214109178351000,7.72035107421875,-3.656245210266113,3.918410292053222,-0.452653751373291
1789214109188383000,7.730383056640625,-2.735674671936035,3.5589807678222654,0.6596025573730468
1789214109198415000,7.7404150390625,-1.7654244491577147,2.878578583526611,1.4287398406982421
1789214109208446000,7.750446044921875,-0.8725368675231933,2.0184616371154784,1.9424457344055175
1789214109218478000,7.76047802734375,-0.2454056701660156,0.799962629699707,2.29214881439209
1789214109228510200,7.77051025390625,0.25528175201416015,-0.5291185668945312,2.550572956085205
1789214109238542000,7.7805419921875,0.9712976860046386,-1.923591396331787,2.7186159851074216
1789214109248573200,7.7905732421875,1.0504559783935545,-3.7306150993347167,2.91119958114624
1789214109258605000,7.80060498046875,-0.8186673301696776,-5.827337203216552,3.4555811836242674
1789214109268637200,7.81063720703125,-4.2694601104736325,-8.588749542999267,4.642955569458008
1789214109278668300,7.820668212890625,-5.481375063323974,-12.930334978485106,6.385335827636719
1789214109288700200,7.8307001953125,-4.684405185699463,-17.525855427551267,7.398980955505371
1789214109298732000,7.84073193359375,-4.539855260467529,-20.111593220520017,7.02279201965332
1789214109308764200,7.85076416015625,-4.546439315032958,-20.157531964874266,6.256348213195801
1789214109318795300,7.860795166015625,-5.41373886642456,-18.862119229125977,6.0610711402893065
1789214109328827100,7.8708271484375,-6.494870553588867,-17.095198403930663,5.617545282745361
1789214109338859000,7.88085888671875,-6.691943277740478,-15.298350057983397,5.351190348052978
1789214109348890000,7.89089013671875,-6.789506995391846,-13.383437642669676,5.536441701507568
1789214109358922000,7.900921875,-7.04224490814209,-11.594969002532958,5.6760535858154295
1789214109368954000,7.9109541015625,-6.961440602111816,-9.942670581817627,5.428552989196777
1789214109378985200,7.920985107421875,-6.434117686462402,-8.374767769622803,5.157858563995361
1789214109389017000,7.93101708984375,-6.1842228881835934,-7.283011812591552,4.785709843444824
1789214109399049000,7.941049072265625,-5.720645591735839,-7.316231360626221,4.18147319946289
1789214109409081300,7.951081298828125,-5.6441807762146,-8.038980986785889,3.3125276344299315
1789214109419112200,7.9611123046875,-6.2772974777221675,-9.430610701751709,2.4595932929992674
1789214109429144000,7.97114404296875,-6.743418613433837,-10.940753398895263,2.1329344039916993
1789214109439176200,7.98117626953125,-6.592284633636474,-12.549208001708983,2.079364141845703
1789214109449207000,7.99120703125,-6.10985299911499,-13.537564374542235,2.9269115295410155
1789214109459239000,8.001239013671874,-5.262006336212158,-12.580482260894774,4.671536351776123
1789214109469271300,8.011271240234375,-4.708796115112304,-11.075576879882812,5.816862570953369
1789214109479302100,8.02130224609375,-4.568286405181884,-9.667337390899657,6.2210337387084955
1789214109489334000,8.031333984375,-4.346523476409912,-8.449287296295166,6.1839236129760735
1789214109499366100,8.0413662109375,-3.9591117202758785,-7.410503050994873,6.072144322967529
1789214109509398300,8.051398193359375,-3.7689223258972167,-6.686406686401367,5.622184048461913
1789214109519429000,8.06142919921875,-3.563619533538818,-6.248866333007812,4.780023614501953
1789214109529461200,8.071461181640625,-3.0919618064880368,-5.969792201995849,3.9912838050842283
1789214109539493000,8.0814931640625,-2.867655038452148,-5.959317569732666,3.4051533111572265
1789214109549524000,8.09152392578125,-2.9893104103088377,-6.301838044738769,2.9893104103088377
1789214109559556000,8.10155615234375,-2.724152576446533,-6.772149033355713,2.6355671150207516
1789214109569588200,8.111588134765626,-2.1722890937805173,-7.1121256690979,2.4718635765075683
1789214109579620000,8.1216201171875,-2.2794296180725095,-7.477241422271728,2.184559377288818
1789214109589651200,8.131651123046876,-3.03884045715332,-7.877970925140381,2.1529858428955078
1789214109599683000,8.14168310546875,-3.9249943466186523,-8.435969549560546,2.4766519798278805
1789214109609715200,8.151715087890626,-4.946719905090331,-9.08449892425537,2.8871079269409177
1789214109619746300,8.161746337890625,-5.91801759109497,-9.751433724212646,3.2673370780944824
1789214109629778200,8.171778076171876,-6.59512774810791,-10.31092872467041,3.7982512962341306
1789214109639810000,8.18181005859375,-7.139060437774658,-10.597335098266601,4.582950890350341
1789214109649842000,8.191842041015626,-7.276427758026123,-10.612298858642578,5.7511716629028315
1789214109659873000,8.201873046875,-6.921038449096679,-10.490044936370849,6.9521630706787105
1789214109669905200,8.2119052734375,-6.073341423797607,-10.795156010437012,7.987804926300049
1789214109679937000,8.22193701171875,-5.380818593597412,-10.956764622497557,8.712350203704833
1789214109689968000,8.231968017578126,-4.9078141281127925,-10.791115795135497,8.781931689453124
1789214109700000000,8.242,-4.889408702850342,-10.53418802947998,7.805546324920654
1789214109710032100,8.2520322265625,-4.807856208801269,-9.126247815704344,5.9953802322387695
1789214109720064300,8.262064208984375,-3.866336405944824,-7.549815660095215,4.086602958679199
1789214109730095000,8.27209521484375,-3.2390555709838864,-6.8308069740295405,2.8661586624145508
1789214109740127000,8.282126953125,-2.9940988136291504,-5.902156005096435,2.404975567626953
1789214109750159000,8.2921591796875,-3.496731524658203,-4.581903427124023,1.9726725303649901
1789214109760190000,8.30218994140625,-4.808454759216309,-3.380014193725586,1.7823334983825683
1789214109770222000,8.31222216796875,-5.6295162910461425,-2.8522423652648925,2.0412065528869627
1789214109780254200,8.322254150390625,-5.504119979095458,-3.1260791801452634,2.3000796073913574
1789214109790285000,8.33228515625,-4.73064320526123,-4.000112423706055,3.0814871742248533
1789214109800317000,8.34231689453125,-4.1362826431274415,-5.425410599517822,4.1280525749206545
1789214109810349300,8.352349365234375,-4.230404695892334,-6.632387511444091,4.809651860046387
1789214109820381200,8.362381103515625,-4.16875400314331,-6.678625531005859,4.938340199279785
1789214109830412000,8.372412109375,-4.215590573120117,-5.975029518127441,4.2031706520080565
1789214109840444200,8.382444091796875,-4.096030127716064,-4.875642043304443,3.5811271331787107
1789214109850476000,8.39247607421875,-4.423736479949951,-3.5028666664123533,3.777451669311523
1789214109860507100,8.402507080078125,-4.47521181564331,-2.2342390617370604,4.404133953857421
1789214109870539300,8.412539306640625,-4.173692044067383,-1.349581548309326,4.310610451507568
1789214109880571100,8.422571044921876,-4.114285915374755,-0.74699091796875,3.156006700897217
1789214109890603000,8.43260302734375,-3.7874773887634277,-1.3506290115356445,2.025793879699707
1789214109900634000,8.442634033203126,-2.4670751731872556,-2.4349030883789062,1.3741221153259278
1789214109910666200,8.452666259765625,-2.4172458511352537,-1.9194015434265135,1.3754688537597655
1789214109920698000,8.462697998046876,-4.491971227264404,-0.3586813362121582,2.2095488571166992
1789214109930729200,8.472729248046875,-6.58210927658081,0.27518355331420896,3.443759812927246
1789214109940761000,8.482760986328126,-6.393266620635986,-0.8877999031066894,4.927416654205322
1789214109950793000,8.49279296875,-3.847781343078613,-3.0825346374511717,5.728576384735107
1789214109960825000,8.5028251953125,-2.168847428894043,-4.546738590240478,5.275772995758056
1789214109970856200,8.512856201171875,-3.0448259613037107,-5.042188696289062,4.1009681686401365
1789214109980888000,8.52288818359375,-4.633827675628662,-5.136460386657714,3.360710942840576
1789214109990920200,8.532920166015625,-4.243572805023193,-5.799654246520996,3.608361177062988
1789214110000951000,8.542950927734376,-3.57529126663208,-7.037755780029296,4.376151721954345
1789214110010983200,8.552983154296875,-4.033331971740722,-8.373720306396484,5.143942266845703
1789214110021015000,8.56301513671875,-4.238335488891601,-9.682450788879393,5.657947435760498
1789214110031046100,8.573046142578125,-0.41314942398071286,-10.36764137649536,5.639990923309326
1789214110041078000,8.583078125,1.123030216217041,-9.352350234985352,6.291961962890625
1789214110051110400,8.5931103515625,-5.412541765594482,-8.801983128356934,5.714510449981689
1789214110061142800,8.603142822265625,-7.141305001831054,-9.039158730316162,3.760991532897949
1789214110071173600,8.613173583984375,-5.50935729522705,-9.92740754623413,3.65819049911499
1789214110081205500,8.62320556640625,-5.893626661682129,-10.867430973052977,5.193472313690185
1789214110091237600,8.633237548828125,-6.203376501464843,-10.94269868774414,5.930437512207031
1789214110101268500,8.6432685546875,-6.063016429138183,-11.128847866821289,4.90946014175415
1789214110111300600,8.653300537109375,-5.1033904762268065,-11.569680247497558,3.806930277252197
1789214110121332700,8.663332763671875,-5.76493832244873,-11.930755785369872,4.115333378601074
1789214110131364600,8.673364501953126,-7.372046186828613,-12.823493729400633,4.8038159934997555
1789214110141395500,8.6833955078125,-7.007379346466064,-13.73284144744873,5.312883121490478
1789214110151427600,8.693427490234376,-5.612607241821289,-13.252953652191161,5.533000036621093
1789214110161459700,8.703459716796875,-4.872948566436767,-11.150694956970215,5.165340444183349
1789214110171490600,8.713490478515626,-4.980687641143798,-9.102156161499023,4.707748651885986
1789214110181522700,8.723522705078125,-5.338022238922119,-7.627178301239013,4.002356987762451
1789214110191554600,8.733554443359376,-5.572803639221191,-6.921786637115478,2.6418518943786617
1789214110201585400,8.74358544921875,-5.264999088287353,-6.90772070236206,1.7206828056335448
1789214110211617800,8.75361767578125,-4.556165759277343,-7.557447177886963,1.6684592819213866
1789214110221649700,8.763649658203125,-4.385728528594971,-8.62526111831665,1.9930232444763183
1789214110231681500,8.773681640625,-4.649389986419678,-9.93354268798828,2.2972364929199216
1789214110241712600,8.783712646484375,-4.369418029785156,-10.786626667022704,2.6144682128906247
1789214110251744500,8.79374462890625,-3.9905356170654294,-10.897807406616211,2.834136215209961
1789214110261776600,8.803776611328125,-4.2582372901916505,-10.490793124389647,3.376722166442871
1789214110271807700,8.813807861328126,-4.942081139373779,-9.64698667678833,3.7298669113159177
1789214110281839600,8.823839599609375,-5.600785871124267,-8.641721254730225,3.8886324089050293
1789214110291871500,8.83387158203125,-5.2356701179504395,-8.055291485595703,4.188955079650879
1789214110301902600,8.843902587890625,-4.10530765914917,-7.823502837371826,4.568884955596924
1789214110311934700,8.853934814453124,-3.413533016967773,-7.758260842132568,4.733336682128906
1789214110321966600,8.863966552734375,-3.4989760887145995,-7.8998180152893065,4.658966793060302
1789214110331998500,8.87399853515625,-4.167706539916992,-8.328829025268554,4.356848471069336
1789214110342029600,8.884029541015625,-4.970063371276855,-8.998906214904785,3.9981671348571775
1789214110352061400,8.8940615234375,-5.568464148712158,-9.713874685668944,3.799149121856689
1789214110362093600,8.904093505859375,-5.691166983795165,-10.22773021697998,3.7394437179565427
1789214110372124700,8.914124755859374,-5.068225639343261,-10.429591344451904,3.7023335922241207
1789214110382156500,8.924156494140625,-3.928136736297607,-10.244190353393554,3.632003918457031
1789214110392188700,8.934188720703125,-3.433584455871582,-10.038737923431396,3.697245913696289
1789214110402219500,8.944219482421875,-3.8953661010742184,-9.931597399139404,4.114136277770996
1789214110412251600,8.954251708984375,-4.385279615783691,-9.914239437103271,4.829553661346435
1789214110422283800,8.96428369140625,-4.281880031585693,-9.988758963775634,5.715707550811767
1789214110432315600,8.974315673828125,-4.229955783081055,-9.986664037322997,6.437708988952636
1789214110442346500,8.984346435546875,-4.370016580200195,-9.905410818481444,6.8314055244445795
1789214110452378600,8.994378662109375,-4.517708895111084,-9.777620304870604,7.025635134124755
1789214110462410800,9.00441064453125,-4.856937342834472,-9.669881230163574,6.90816961517334
1789214110472441600,9.014441650390625,-4.961833303070068,-9.634716393280028,6.62101505355835
1789214110482473700,9.0244736328125,-5.433640667724609,-9.693075058746338,6.187066002655029
1789214110492505600,9.034505615234375,-5.829432129669189,-9.788244574737549,5.762993033599853
1789214110502537700,9.044537841796876,-5.788132151031494,-9.750685536193847,5.421669659423828
1789214110512568800,9.05456884765625,-4.998195240783691,-9.274389043426513,5.0203416061401365
1789214110522600700,9.0646005859375,-4.179228635406494,-8.674491889953613,4.41790061340332
1789214110532632600,9.074632568359375,-3.2933740211486815,-8.197746484375,3.8793548774719238
1789214110542663700,9.08466357421875,-2.587383806610107,-7.536497913360595,3.7166988021850584
1789214110552695600,9.094695556640625,-2.877830395507812,-6.706009212493896,3.9846997505187987
1789214110562727700,9.104727783203124,-3.6100071907043456,-5.64388150100708,4.866364511871337
1789214110572758800,9.1147587890625,-4.16920291595459,-4.204517390441894,5.0948611328124995
1789214110582790700,9.124790771484374,-4.500650208282471,-2.5664345420837402,4.199280074310303
1789214110592822500,9.134822509765625,-4.811597148895263,-1.2433388496398925,3.3469442832946776
1789214110602854700,9.144854736328124,-4.5696331436157225,-0.48677112503051756,2.8003181167602538
1789214110612885800,9.1548857421875,-3.949385276031494,-0.46731823654174803,2.3205799591064453
1789214110622917600,9.164917724609374,-4.319738345336914,-0.9147346717834473,2.453009238433838
1789214110632949500,9.174949462890625,-3.8742671989440916,-1.8939631507873533,2.290053887939453
1789214110642980600,9.184980712890624,-3.4256536628723144,-2.805854708099365,1.3034931663513183
1789214110653012500,9.195012451171875,-3.584718435668945,-2.8886043029785156,0.7209539749145507
1789214110663044600,9.205044677734374,-4.359990860748291,-2.0034978767395017,0.8532336166381835
1789214110673075700,9.21507568359375,-4.701164597320556,-1.2328642173767088,1.2527660186767577
1789214110683107600,9.225107666015624,-4.56484474029541,-1.0760440086364746,2.340481760406494
1789214110693139500,9.235139404296875,-4.075080863189697,-1.1471218704223631,3.6131495803833005
1789214110703171800,9.245171875,-3.3825580329895018,-1.6352397338867186,4.1368811935424805
1789214110713202700,9.25520263671875,-3.212120802307129,-2.030881558227539,3.92634108505249
1789214110723234600,9.265234619140625,-3.938461730957031,-2.1327847663879393,3.6276644279479977
1789214110733266700,9.2752666015625,-4.830002574157715,-2.193537633514404,3.893271174621582
1789214110743297500,9.285297607421874,-4.93534744720459,-2.5863363433837887,4.570082056427002
1789214110753329400,9.295329345703125,-4.521749110412597,-3.3262942939758298,4.845115972137451
1789214110763361800,9.30536181640625,-4.661510632324219,-4.159326834106445,4.778676876068115
1789214110773393700,9.3153935546875,-4.461145880889893,-5.01196190032959,4.949114106750488
1789214110783424500,9.325424560546875,-4.305672410583496,-6.158185945129394,5.225045848083496
1789214110793456600,9.33545654296875,-4.185962327575683,-7.451653392028808,5.1803042045593255
1789214110803488800,9.34548876953125,-4.154388793182373,-8.677783917236328,5.10728105392456
1789214110813519600,9.35551953125,-4.31584776763916,-9.776722479248047,5.417928719329834
1789214110823551700,9.3655517578125,-4.253748162078857,-10.862642569732666,5.822099887084961
1789214110833583600,9.37558349609375,-4.048445369720459,-11.982979309082031,6.196493171691894
1789214110843614500,9.385614501953125,-3.3933319404602047,-12.71081661376953,6.244526842498779
1789214110853646600,9.395646484375,-3.7765538436889647,-12.435034510040282,6.021267537689209
1789214110863678700,9.4056787109375,-4.617816452026367,-11.537508162689209,5.8822542037963865
1789214110873710600,9.415710693359374,-5.151573784637451,-10.772261457061767,5.640439836120605
1789214110883741700,9.42574169921875,-5.261258148193359,-10.162039308929442,5.186888259124755
1789214110893773600,9.435773681640624,-5.168632471466064,-9.575310264587403,4.765957679748535
1789214110903805700,9.4458056640625,-5.230432801818847,-8.949825080871582,4.465335733795166
1789214110913836800,9.4558369140625,-5.121496626281738,-8.745869026947021,4.098125054168701
1789214110923868700,9.46586865234375,-4.815787001800537,-9.032574675750732,3.591152852630615
1789214110933900500,9.475900634765624,-4.70520481262207,-9.776722479248047,3.164835319519043
1789214110943931600,9.485931640625,-5.155613999938964,-10.76403138885498,3.0473698005676266
1789214110953963500,9.495963623046874,-5.654805046081543,-11.735478712463378,3.1561563385009763
1789214110963995600,9.50599560546875,-5.862950952911377,-12.2836012550354,3.656843760681152
1789214110974026800,9.51602685546875,-5.870881745910644,-12.160599144744872,4.025700453948974
1789214110984058600,9.52605859375,-5.144091904449462,-11.577760678100585,4.331559716033936
1789214110994090500,9.536090576171874,-3.946542161560058,-10.705373448181152,4.257938014984131
1789214111004122600,9.54612255859375,-3.2077813117980956,-9.821164847564697,3.950582376861572
1789214111014153700,9.55615380859375,-3.6501100685119625,-9.022848231506346,3.263446500396728
1789214111024185600,9.566185546875,-4.211699995422363,-8.538022395324706,2.6987141838073727
1789214111034217500,9.576217529296875,-4.218732962799072,-8.238896825408935,2.552518244934082
1789214111044248600,9.58624853515625,-4.061912754058838,-8.068459594726562,2.5649381660461423
1789214111054281000,9.596281005859375,-3.987692502593994,-8.053196559143066,2.66205297088623
1789214111064312800,9.606312744140626,-4.031536320495605,-7.9834654357910155,2.743306189727783
1789214111074344000,9.616343994140625,-3.8708255340576168,-7.8441528266906735,2.7084406280517577
1789214111084376000,9.6263759765625,-3.6113539291381835,-7.701398552703857,2.483984222412109
1789214111094408000,9.636407958984375,-3.7237317695617675,-7.702745291137695,2.429067221832275
1789214111104439000,9.64643896484375,-4.440645529174804,-7.9475524108886715,2.6128221992492673
1789214111114471000,9.656470947265625,-4.968566995239257,-8.329577213287353,2.734028658294678
1789214111124503000,9.6665029296875,-4.497507818603515,-8.750358155059814,2.6910826660156246
1789214111134535200,9.67653515625,-4.046200805664062,-9.206752846527099,3.095852384185791
1789214111144566000,9.68656591796875,-4.314501029205322,-9.677063835144043,3.6960488128662106
1789214111154598000,9.696597900390625,-4.70505517501831,-10.058041174316406,4.132990615844727
1789214111164630000,9.706630126953126,-4.814889176177978,-10.264241792297362,4.857386255645752
1789214111174660900,9.716660888671875,-4.875642043304443,-10.384251150512695,5.672611920928955
1789214111184693000,9.72669287109375,-4.846462710571289,-10.199897622680663,6.062567516326904
1789214111194725000,9.73672509765625,-4.434959300231934,-9.847201790618897,6.224176128387451
1789214111204756000,9.746755859375,-4.253448886871338,-9.667487028503418,6.159981596374512
1789214111214787800,9.756787841796875,-4.613476961517334,-9.574412438964844,5.98206248550415
1789214111224820200,9.7668203125,-5.256619382476806,-9.561842880249023,5.716455738830566
1789214111234852000,9.77685205078125,-5.581183345031738,-9.552714986419677,5.128230318450927
1789214111244883000,9.786883056640624,-5.420771833801269,-9.543287817382812,4.299836544036865
1789214111254915000,9.7969150390625,-4.745756603240967,-9.400982456207275,3.8404491004943844
1789214111264947000,9.806947021484374,-4.050241020965576,-9.152434396362304,3.715052788543701
1789214111274978000,9.81697802734375,-3.686771281433105,-9.002796792602538,3.972279829406738
1789214111285010200,9.82701025390625,-3.627963703155517,-8.824728044128417,4.663455921173095
1789214111295042000,9.8370419921875,-3.771915077972412,-8.850316074371337,5.513547148132324
1789214111305073000,9.847072998046874,-4.211849633026123,-8.987234481811523,6.0784291023254395
1789214111315105000,9.85710498046875,-4.6909892402648925,-8.81694688873291,6.069750121307373
1789214111325137200,9.86713720703125,-4.735730883789063,-8.60012200088501,5.625476075744628
1789214111335169000,9.8771689453125,-4.457853853607178,-8.352771041870117,5.225195485687255
1789214111345200000,9.8872001953125,-3.6725557090759273,-8.47188257446289,5.304802690887451
1789214111355232000,9.89723193359375,-3.7172973526000974,-8.450035484313965,5.294477696228027
1789214111365264000,9.907263916015625,-3.760991532897949,-7.989301302337646,5.300912113189697
1789214111375295000,9.917294921875,-3.1452327934265134,-6.862530146026611,5.258714308929443
1789214111385327000,9.9273271484375,-3.205536747741699,-5.434987406158447,4.923974989318848
1789214111395359000,9.93735888671875,-3.4769793609619137,-3.9797617095947264,4.116380841827392
1789214111405390000,9.94739013671875,-3.597587269592285,-3.051110740661621,3.142389678955078
1789214111415422000,9.957421875,-3.520972816467285,-2.8239608581542965,3.0226795959472654
1789214111425454000,9.9674541015625,-4.252700698852538,-3.227982388305664,3.7172973526000974
1789214111435486000,9.97748583984375,-4.916792384338379,-3.623025662231445,4.254047437286377
1789214111445517000,9.98751708984375,-4.880131171417236,-3.7032314178466796,4.285172058868408
1789214111455549000,9.997548828125,-4.539705622863769,-3.521122454071045,3.698592652130127
1789214111465581000,10.0075810546875,-5.355230563354492,-3.1853356712341307,2.9664158569335934
1789214111475612000,10.01761181640625,-5.189731373596191,-2.9141923332214352,3.0448259613037107
1789214111485644000,10.02764404296875,-5.040991595458984,-2.9864672958374023,3.9447465103149413
1789214111495676200,10.03767626953125,-4.8792333457946775,-2.946514055633545,4.386626354217529
1789214111505707000,10.04770703125,-4.861127195739746,-2.3395839347839353,4.370764768218994
1789214111515739000,10.05773876953125,-4.415057498931884,-1.740434969329834,4.73094248046875
1789214111525771300,10.067771240234375,-3.5513492500305173,-1.2623428253173827,4.617217901611328
1789214111535803100,10.07780322265625,-2.755426835632324,-0.7493851196289062,3.867832781982422
1789214111545834000,10.087833984375,-3.071461454772949,-0.4182371025085449,3.2193034072875975
1789214111555866000,10.0978662109375,-3.979462434387207,-0.5952583877563477,3.0576947952270506
1789214111565898000,10.10789794921875,-4.620659566497802,-1.3925275405883788,3.1821932815551754
1789214111575928800,10.1179287109375,-5.351190348052978,-2.6294319732666014,3.4757822601318358
1789214111585961200,10.127961181640625,-5.601085146331787,-3.752162914276123,3.944447235107422
1789214111595993000,10.1379931640625,-5.6961050247192375,-4.75009609375,4.510227014923095
1789214111606024000,10.14802392578125,-5.353584549713134,-5.6283191902160645,5.084685775756836
1789214111616056000,10.15805615234375,-4.613177686309815,-6.488286499023437,5.569810887145996
1789214111626088200,10.168088134765625,-3.8612487274169918,-7.422324421691894,5.902904193115234
1789214111636120000,10.1781201171875,-3.9921816307067868,-8.42055687637329,6.118382342529297
1789214111646151200,10.188151123046875,-4.596118999481201,-9.25044702682495,6.395960097503662
1789214111656183000,10.19818310546875,-5.172672686767577,-9.846154327392577,6.814945388031005
1789214111666215000,10.20821484375,-5.341164628601074,-10.116250202178955,7.054365554046631
1789214111676246000,10.21824609375,-5.008370597839355,-10.071957471466064,6.710498340606689
1789214111686278100,10.228278076171875,-4.340388334655762,-9.779864868927001,5.900958904266357
1789214111696310000,10.23831005859375,-3.7599440696716306,-9.228450299072264,4.798578677368163
1789214111706341000,10.248341064453125,-3.3452982696533202,-8.42699129333496,3.9181110168457027
1789214111716373000,10.258373046875,-3.31342546005249,-7.521534152984619,3.259256647491455
1789214111726405000,10.268405029296876,-3.113060708618164,-6.593781009674072,2.93678761138916
1789214111736436200,10.278436279296875,-2.8384757057189938,-5.804592287445068,2.792387323760986
1789214111746468000,10.288468017578126,-2.779817765045166,-5.313032759094238,2.712181568145752
1789214111756500000,10.2985,-2.8802245971679685,-5.280262123870849,2.7795184898376464
1789214111766531800,10.30853173828125,-3.306392492675781,-5.740547393035889,2.9496564453125
1789214111776563000,10.31856298828125,-3.8920740737915036,-6.666205609893798,3.1555577880859373
1789214111786595000,10.328594970703126,-4.494963979339599,-8.039729174804688,3.372831588745117
1789214111796627000,10.338626953125,-5.1596542152404785,-9.624690673828125,3.810671217346191
1789214111806658000,10.348657958984376,-5.61784455795288,-11.181370665740966,4.425232855987549
1789214111816690000,10.35868994140625,-5.568015235900878,-12.770073104858398,4.609736021423339
1789214111826722000,10.36872216796875,-5.619640209197998,-13.639018669891357,4.680364970397949
1789214111836753200,10.378753173828125,-6.079326927947998,-13.999944570159911,4.746804066467285
1789214111846785000,10.388784912109376,-6.282983706665039,-13.883227239227294,4.966023155975342
1789214111856817000,10.39881689453125,-6.035333472442627,-13.639617220306397,4.775983399200439
1789214111866848000,10.408847900390626,-5.998971534729003,-12.621034051513671,4.178929360198975
1789214111876880000,10.4188798828125,-6.043264265441894,-11.492467243957519,3.714903150939941
1789214111886912000,10.428912109375,-6.236895324707031,-10.915464643859863,3.6756980987548826
1789214111896943000,10.438943115234375,-6.3509191787719725,-10.107571221160889,3.7165491645812985
1789214111906975000,10.44897509765625,-5.929240411376953,-9.255085792541504,3.7376480667114254
1789214111917006800,10.4590068359375,-5.190928474426269,-8.601618376922607,3.9023990684509275
1789214111927039200,10.469039306640624,-4.7387236358642575,-7.927052059173583,3.712508949279785
1789214111937070000,10.479070068359375,-4.552873731994628,-7.328501644134521,3.028515462493896
1789214111947102000,10.48910205078125,-4.210203619384766,-6.921636999511718,2.337339370727539
1789214111957134000,10.499134033203125,-3.812167593383789,-6.9612909645080565,1.9487305137634277
1789214111967165000,10.5091650390625,-3.6426281883239744,-7.334187873077392,1.8668787445068358
1789214111977197000,10.519197021484375,-3.680037589263916,-7.76319888305664,2.1232079597473144
1789214111987229200,10.529229248046875,-3.847332430267334,-8.147917162322997,2.389562894439697
1789214111997260000,10.539260009765625,-4.009689230346679,-8.456469901275634,2.7789199394226074
1789214112007292200,10.549292236328125,-3.9441479598999023,-8.792855234527588,3.108721218109131
1789214112017324000,10.559323974609375,-3.6510078941345214,-9.235932179260253,3.411587728118896
1789214112027355000,10.56935498046875,-2.832789476776123,-9.478644372558593,3.8009447731018065
1789214112037387000,10.579386962890625,-3.16019655380249,-9.274987593841551,4.053084135437011
1789214112047419100,10.589419189453125,-4.113837002563477,-9.003544980621337,4.316745593261719
1789214112057451300,10.599451171875,-4.402338302612304,-8.485200321197508,4.846462710571289
1789214112067482000,10.609482177734375,-4.950311207580566,-8.027009978485108,5.613654705047607
1789214112077514200,10.61951416015625,-5.316474423980712,-8.10093095474243,6.447136157989502
1789214112087546400,10.62954638671875,-5.294776971435547,-8.213308795166014,7.001543479919433
1789214112097577200,10.6395771484375,-5.426906975555419,-8.627954595184326,7.34181939086914
1789214112107609300,10.649609375,-5.685630392456054,-9.286360051727295,7.50821640625
1789214112117641200,10.65964111328125,-5.708824221038818,-9.425822298431395,7.063343810272216
1789214112127672300,10.66967236328125,-5.057601369476318,-8.811111022186278,6.031442894744873
1789214112137704200,10.6797041015625,-3.989637791442871,-8.035539321899414,5.116259310150146
1789214112147736300,10.689736328125,-3.7927147048950194,-7.587524336242676,4.15004930267334
1789214112157767200,10.69976708984375,-4.0714895606994626,-7.1778165771484375,3.583371697235107
1789214112167799300,10.70979931640625,-4.019864587402344,-6.566397328186035,3.762787184143066
1789214112177831200,10.7198310546875,-4.2521021484374995,-6.430975296783447,3.8709751716613767
1789214112187862300,10.7298623046875,-4.357147746276855,-6.60156216506958,3.8168063591003416
1789214112197894400,10.739894287109376,-4.400393013763427,-6.640019029235839,3.787178113555908
1789214112207926300,10.74992626953125,-4.7623663772583,-6.8976949829101555,3.2912790946960446
1789214112217958100,10.759958251953124,-4.275894527435303,-6.856095729064941,3.558831130218506
1789214112227989200,10.7699892578125,-4.0714895606994626,-7.110778930664062,4.046500080871581
1789214112238021000,10.780021240234374,-4.179378273010253,-7.832181818389892,4.2411786033630365
1789214112248053200,10.79005322265625,-4.179976823425292,-8.151508464813231,4.49466470413208
1789214112258084400,10.80008447265625,-3.838354174041748,-7.63585728225708,5.005677120971679
1789214112268116200,10.8101162109375,-4.063409130096435,-6.959345675659179,5.433491030120849
1789214112278148000,10.820148193359374,-4.068347171020507,-6.349722077941895,5.678148512268066
1789214112288179200,10.83017919921875,-3.965845412445068,-6.198887373352051,5.410895751953125
1789214112298211300,10.84021142578125,-4.103960920715331,-6.315305429077148,5.086780702209472
1789214112308243200,10.8502431640625,-4.141370321655273,-6.185719264221191,5.014505739593505
1789214112318274300,10.8602744140625,-4.268113372039795,-5.6860793052673335,4.9826329299926755
1789214112328306200,10.87030615234375,-5.390545037841797,-4.753388121032715,4.542099824523926
1789214112338338000,10.880338134765625,-5.626373901367187,-3.1364041748046874,3.6127006675720215
1789214112348370400,10.890370361328126,-4.677072943115234,-1.6181810470581053,2.2191256637573242
1789214112358401300,10.9004013671875,-3.72208575592041,-1.2458826889038086,1.408389126586914
1789214112368433200,10.91043310546875,-3.873369373321533,-1.84518129196167,1.808071166229248
1789214112378465300,10.92046533203125,-4.543596200561523,-2.667290287017822,2.4785972686767574
1789214112388496100,10.93049609375,-5.26694437713623,-3.3955765045166015,3.1581016273498532
1789214112398528300,10.9405283203125,-4.97335539855957,-3.8639422042846676,3.969735990142822
1789214112408560400,10.950560302734376,-4.965574243164062,-3.8893805969238278,4.43047017211914
1789214112418591200,10.96059130859375,-4.930708681488037,-3.9188592048645017,4.610783484649658
1789214112428623000,10.970623046875,-4.404133953857421,-4.266018445587158,4.8117467864990235
1789214112438655200,10.9806552734375,-4.173692044067383,-4.157381545257568,4.6636055587768555
1789214112448686300,10.990686279296876,-4.417601338195801,-3.7297172737121578,4.197035510253906
1789214112458718200,11.00071826171875,-4.784213467407226,-3.4765304481506347,4.276792353057861
1789214112468750300,11.010750244140626,-5.054309342193603,-3.6427778259277344,4.767154780578613
1789214112478781200,11.02078125,-5.238812507629394,-3.984849388122558,5.141847340393066
1789214112488813000,11.03081298828125,-5.085284326171875,-4.433462924194336,5.166238269805908
1789214112498845400,11.040845458984375,-4.6633062835693355,-5.016899941253662,5.014655377197266
1789214112508877300,11.050877197265624,-4.202123188781738,-5.613205792236328,4.655375490570068
1789214112518908200,11.060908203125,-3.91362188873291,-6.033687458801269,4.091092086791992
1789214112528940300,11.070940185546876,-3.871872997283935,-6.262782630157471,3.6750995483398436
1789214112538972200,11.08097216796875,-4.050540296173096,-6.339845996093749,3.8744168365478515
1789214112549003000,11.0910029296875,-4.358195209503173,-6.374262644958495,4.669591062927246
1789214112559035400,11.101035400390625,-4.4656350090026855,-6.494571278381347,5.672761558532715
1789214112569067300,11.1110673828125,-4.491671952056884,-6.843077257537842,6.612934622955322
1789214112579098000,11.12109814453125,-4.594173710632324,-7.50791713104248,7.373392925262451
1789214112589130200,11.131130126953124,-4.721066398620605,-8.526201024627685,7.887996644592285
1789214112599162400,11.141162353515625,-4.470124137115478,-9.993547367095946,7.727884408569335
1789214112609193200,11.151193115234374,-4.125359098052979,-11.716175461578368,7.094169156646728
1789214112619225300,11.161225341796875,-4.484638984680175,-12.59020870513916,6.5586161727905266
1789214112629257200,11.17125732421875,-5.040393045043945,-12.483666731262206,5.909039334869385
1789214112639288000,11.1812880859375,-5.060743759155273,-11.75373450012207,5.052064778137207
1789214112649320200,11.1913203125,-4.776881224822998,-10.925939276123046,4.525041137695312
1789214112659352300,11.201352294921875,-4.489876300811767,-9.944466233062743,4.255843088531494
1789214112669383200,11.211383056640624,-4.511274478149414,-8.888174388122557,4.050390658569336
1789214112679415300,11.221415283203125,-4.454412188720703,-8.07579183731079,3.791816879272461
1789214112689447200,11.231447265625,-4.156782994842529,-7.521534152984619,3.5535938140869137
1789214112699478300,11.241478271484375,-4.031087407684326,-7.5911156387329095,3.394977954101562
1789214112709510400,11.251510498046875,-4.394108234405517,-8.026561065673828,3.267037802886963
1789214112719542300,11.261542236328125,-4.649539624023437,-8.655487914276122,3.475632622528076
1789214112729574100,11.27157421875,-4.671985264587402,-9.347711469268798,3.8043864379882812
1789214112739605200,11.281605224609375,-4.50124875869751,-10.096498038482665,4.125359098052979
1789214112749637000,11.29163720703125,-4.391564395141601,-10.663923831939696,4.170998567199707
1789214112759669200,11.301669189453126,-4.2019735511779785,-10.829871934509276,3.941753758239746
1789214112769700400,11.311700439453125,-4.363881438446045,-10.487800372314453,3.679289401245117
1789214112779732200,11.321732177734376,-4.699368946075439,-9.894337635803222,3.2787095359802243
1789214112789764000,11.33176416015625,-4.668992512512207,-9.443180260467528,2.993500263214111
1789214112799795200,11.341795166015626,-4.44348864364624,-9.216329653167724,2.8947394447326658
1789214112809827300,11.351827392578125,-4.48778137435913,-9.192387636566162,3.1118636077880857
1789214112819859200,11.361859130859376,-4.607790732574463,-9.252242678070068,3.649960430908203
1789214112829890300,11.371890380859375,-5.091269830322266,-8.999504765319823,3.843741127777099
1789214112839922200,11.381922119140626,-5.4701522430419915,-8.715492593383788,3.6061166130065914
1789214112849954000,11.3919541015625,-5.571456900787354,-8.723124111175537,3.588609013366699
1789214112859985400,11.4019853515625,-5.900360353851318,-8.941595012664795,3.7574002304077148
1789214112870017300,11.412017333984375,-6.0531403472900385,-9.205256470489502,3.845087866210937
1789214112880049200,11.422049072265626,-5.313780947113036,-9.228151023864745,3.796605282592773
1789214112890080300,11.432080322265625,-3.8690298828125,-8.967781593322753,3.508702532958984
1789214112900112100,11.442112060546876,-2.5981577140808105,-8.49133546295166,3.362656231689453
1789214112910144300,11.452144287109375,-2.7213094619750975,-8.20388162612915,3.406051136779785
1789214112920175400,11.46217529296875,-3.5013702903747554,-8.169764252471923,3.6324528312683104
1789214112930207200,11.472207275390625,-4.370914405822754,-8.291718899536132,3.9242461585998534
1789214112940239000,11.482239013671874,-4.997147777557373,-8.614936123657227,4.409520907592773
1789214112950270200,11.492270263671875,-5.195567240142822,-9.12265651321411,5.097105696868896
1789214112960302300,11.50230224609375,-5.004180744934081,-9.368960009002684,5.764339772033691
1789214112970334200,11.512334228515625,-5.0942625823974605,-9.096918845367432,5.955875904846191
1789214112980365300,11.522365234375,-4.927117378997803,-9.093177905273437,5.828085391235351
1789214112990397200,11.532397216796875,-4.153042054748535,-9.141061938476563,5.673509746551513
1789214113000429000,11.542428955078124,-3.8934208122253415,-8.87336026535034,5.418826544952393
1789214113010460200,11.552460205078125,-3.9441479598999023,-8.405742753601073,5.009118785858154
1789214113020492300,11.5624921875,-3.6146459564208984,-7.804798136901855,4.516960707092285
1789214113030524200,11.572524169921875,-3.4557308212280273,-7.192032149505615,4.340388334655762
1789214113040556300,11.582556396484375,-3.65819049911499,-6.834697551727294,4.235193099212646
1789214113050587100,11.592587158203125,-4.0985739669799806,-6.548141540527343,4.37959338684082
1789214113060618500,11.602618408203124,-4.582501977539062,-6.598270137786865,4.770895720672607
1789214113070650400,11.612650390625,-4.914847095489502,-7.005882970428466,5.2271407745361325
1789214113080681200,11.62268115234375,-5.376030190277099,-7.640645685577392,5.787982513427734
1789214113090713300,11.63271337890625,-5.524620330810547,-8.028207079315186,6.035483110046386
1789214113100745200,11.6427451171875,-5.146336468505859,-8.224830890655516,5.953631340789794
1789214113110776000,11.652776123046875,-4.676773667907715,-8.378807984924316,5.671714095306396
1789214113120808400,11.662808349609374,-4.4008419265747065,-8.47233148727417,5.658845261383056
1789214113130840300,11.67284033203125,-4.46877739868164,-8.332719602966309,5.7703252761840815
1789214113140871200,11.68287109375,-4.364180713653564,-7.977479931640625,6.124667121887207
1789214113150903300,11.6929033203125,-4.781220715332031,-7.869142306518555,6.198588098144531
1789214113160935400,11.702935302734375,-4.853196402740478,-8.031648744201659,6.1565399314880365
1789214113170966300,11.71296630859375,-4.027645742797851,-7.830835079956055,6.3895256805419915
1789214113180998400,11.722998291015625,-4.688894313812256,-6.678775168609619,5.764489409637451
1789214113191030300,11.7330302734375,-5.575347478485107,-4.585345092010498,4.630834923553467
1789214113201061400,11.743061279296874,-4.426280319213867,-2.7979239151000974,3.227832750701904
1789214113211093200,11.75309326171875,-3.229927677154541,-2.278382154846191,2.015468885040283
1789214113221125400,11.76312548828125,-3.9214030441284176,-2.5704747573852536,1.936909143066406
1789214113231156200,11.77315625,-4.45605820236206,-3.0732571060180662,1.9288287124633787
1789214113241188400,11.783188232421875,-4.093187013244629,-3.3412580543518065,1.4688427185058592
1789214113251220200,11.79322021484375,-4.187009790802001,-3.4118870033264157,1.5367781906127929
1789214113261251300,11.803251220703125,-4.55182626876831,-2.9894600479125977,2.6322750877380368
1789214113271283500,11.813283447265626,-4.4650364585876465,-2.6713305023193357,4.001159886932373
1789214113281315300,11.8233154296875,-4.2125978210449215,-2.5659856292724608,4.752191020202637
1789214113291346400,11.833346435546876,-3.744531396484375,-2.2737433891296384,4.61587116317749
1789214113301378300,11.84337841796875,-3.65804086151123,-2.2002713256835937,3.875913212585449
1789214113311410200,11.85341015625,-4.271255761718749,-2.2095488571166992,3.210624426269531
1789214113321441300,11.863441162109375,-4.845265609741211,-2.154482218933105,3.2556653450012205
1789214113331473400,11.873473388671876,-5.246892938232421,-2.3487118286132813,3.775207105255127
1789214113341505300,11.88350537109375,-5.20933389968872,-2.7220576499938964,4.370914405822754
1789214113351536400,11.893536376953126,-5.275324082946777,-3.2046389221191403,5.070919116210937
1789214113361568300,11.903568359375,-5.141548065185547,-3.9290345619201656,5.719149215698242
1789214113371600400,11.913600341796876,-5.08169302368164,-4.919785136413574,5.951835689544677
1789214113381632300,11.92363232421875,-5.227589687347412,-5.945101997375488,5.875370874023437
1789214113391663400,11.933663330078126,-5.287145453643799,-6.934954746246338,5.821052423858642
1789214113401695200,11.9436953125,-4.931756144714355,-7.813926030731201,5.804442649841309
1789214113411727000,11.95372705078125,-4.687697212982178,-8.534880005645752,5.56068299331665
1789214113421758200,11.96375830078125,-4.86471849822998,-9.16156229019165,5.297320810699462
1789214113431790300,11.973790283203124,-4.408473444366455,-9.434052366638182,5.346252307128906
1789214113441822200,11.983822265625,-3.8946179130554195,-9.591770401000977,5.29926609954834
1789214113451853300,11.993853271484374,-3.6923078727722167,-9.484031326293945,5.057302094268799
1789214113461885200,12.00388525390625,-3.3987188941955564,-9.070582627105713,4.656273316192626
1789214113471917300,12.013917236328124,-3.17291575012207,-8.518719144439697,4.3430818115234375
1789214113481948400,12.023948486328125,-3.303848653411865,-7.989301302337646,4.265868807983399
1789214113491980300,12.033980224609374,-3.199700881195068,-7.625532287597656,4.3534068061828615
1789214113502012200,12.04401220703125,-3.092560356903076,-7.376535314941406,4.44977342300415
1789214113512043300,12.054043212890624,-3.197755592346191,-7.3861121215820305,4.243423167419433
1789214113522075100,12.0640751953125,-3.320458427429199,-7.66728117904663,4.040364939117431
1789214113532107300,12.074107177734374,-3.636941959381103,-7.905803519439697,4.02210915145874
1789214113542138400,12.084138427734375,-4.421342278289795,-8.268973983764647,4.173243131256103
1789214113552170200,12.094170166015624,-5.090820917510986,-9.022848231506346,4.663156645965576
1789214113562202000,12.1042021484375,-5.45204609298706,-10.026168364715575,5.221005632781982
1789214113572233200,12.114233154296874,-5.352387448883056,-10.985046129608154,5.578639505767822
1789214113582265300,12.124265380859375,-5.008520235443115,-11.639411370849608,5.737704278564453
1789214113592297200,12.134297119140625,-4.856787705230713,-11.672630918884277,5.589563050842285
1789214113602328300,12.144328369140625,-5.099200623321533,-11.314847408294677,5.10698177871704
1789214113612360200,12.154360107421875,-5.125686479187012,-10.99971061477661,4.521150559997558
1789214113622392000,12.16439208984375,-4.958690913391113,-10.721534309387206,3.9169139160156248
1789214113632423400,12.17442333984375,-4.976198513031005,-10.250774407958984,3.2791584487915038
1789214113642455300,12.184455322265626,-4.88447066192627,-9.523984566497802,2.793584424591064
1789214113652487200,12.194487060546875,-4.840028293609619,-9.121908325195312,2.830694550323486
1789214113662518300,12.204518310546876,-4.887164138793945,-8.8359508644104,3.271078018188476
1789214113672550100,12.214550048828125,-4.697274019622802,-8.662221606445312,3.6284126159667967
1789214113682582300,12.224582275390626,-4.3728596946716305,-8.627505682373046,3.733009300994873
1789214113692613400,12.23461328125,-3.9254432594299313,-8.522011171722411,3.6700118698120114
1789214113702645200,12.244645263671876,-3.6077626266479492,-8.45991156616211,3.594893792724609
1789214113712677000,12.254677001953125,-3.769221601104736,-8.578424548339843,3.71550170135498
1789214113722708200,12.264708251953126,-4.669142150115967,-8.761132062530518,3.818452372741699
1789214113732740400,12.274740234375,-5.478831224060058,-8.867075485992432,3.6158430572509763
1789214113742772200,12.284772216796876,-5.571756175994873,-8.73943460998535,3.4777275489807127
1789214113752803300,12.29480322265625,-5.287444728851318,-8.519916245269775,3.591152852630615
1789214113762835200,12.304835205078126,-4.971260472106933,-8.283039918518066,3.70951619720459
1789214113772867300,12.314867431640625,-4.208258330535888,-8.091803060913085,3.5908535774230956
1789214113782898200,12.324898193359376,-3.0361469802856442,-7.883357878875732,3.567061198425293
1789214113792930300,12.334930419921875,-2.830095999908447,-7.690175732421874,3.829375917816162
1789214113802962200,12.344962158203124,-3.2399533966064453,-7.7227967300415035,4.357895934295654
1789214113812993300,12.3549931640625,-4.069993184661865,-8.034641496276855,4.945971717071533
1789214113823025200,12.365025146484374,-4.86456886062622,-8.350975390624999,5.4236149482727045
1789214113833057300,12.375057373046875,-5.576694216918945,-8.547299926757812,5.714809725189209
1789214113843088400,12.38508837890625,-5.823446625518798,-8.664615808105468,6.002562837219238
1789214113853120300,12.395120361328125,-6.065260993194579,-8.824578406524658,6.490830338287354
1789214113863152400,12.40515234375,-5.7323173248291015,-8.94997471847534,7.032219188690185
1789214113873183200,12.415183349609375,-4.677671493530273,-9.09751739578247,7.244854223632812
1789214113883215000,12.425215087890624,-3.9739258430480953,-8.885929824066162,6.9707181335449215
1789214113893247500,12.43524755859375,-3.5995325584411617,-8.742427362060546,6.535123069000243
1789214113903278300,12.4452783203125,-3.62631768951416,-8.477718441009522,5.95004003829956
1789214113913310200,12.455310302734375,-4.012831620025635,-8.12083275604248,5.037549930572509
1789214113923342300,12.46534228515625,-4.4385506027221675,-7.679401824951172,4.395305335235595
1789214113933373200,12.475373291015625,-4.547486778259277,-7.396886029052734,4.14975002746582
1789214113943405300,12.4854052734375,-4.719420384979248,-7.419630944824219,4.091690637207031
1789214113953437400,12.4954375,-4.5599066993713375,-7.529464945983887,4.2131963714599605
1789214113963468300,12.50546826171875,-4.26467170715332,-7.649623941802978,4.25225178604126
1789214113973500200,12.515500244140625,-3.942352308654785,-7.668478279876709,4.1295489509582515
1789214113983532300,12.5255322265625,-4.021061688232422,-7.519738501739502,4.218134412384033
1789214113993563100,12.535563232421875,-4.316446318054199,-7.136965511322021,4.634575863647461
1789214114003595300,12.54559521484375,-4.735730883789063,-6.886023249816894,5.007173497009277
1789214114013627400,12.55562744140625,-4.465335733795166,-6.564152764129639,5.576843854522704
1789214114023658200,12.565658203125,-4.385279615783691,-6.425139430236816,5.530306559753417
1789214114033690000,12.575690185546875,-4.202721739196777,-6.260837341308593,5.026626385498046
1789214114043722500,12.585722412109375,-4.062212029266357,-5.9114335365295405,4.58399835357666
1789214114053753000,12.595753173828125,-3.535637301635742,-5.514295336151123,4.44378791885376
1789214114063785200,12.60578515625,-3.465457265472412,-5.610063402557373,4.013729445648194
1789214114073817300,12.6158173828125,-3.6929064231872557,-5.510554396057128,4.04126276473999
1789214114083848200,12.62584814453125,-4.456656752777099,-4.945672441864013,4.273949238586425
1789214114093880000,12.635880126953126,-4.664204109191894,-3.885639656829834,3.7366006034851074
1789214114103912400,12.645912353515625,-4.224868104553223,-2.672976515960693,1.9149124153137207
1789214114113943300,12.655943359375,-4.083610206604003,-1.5646107849121094,1.492036547088623
1789214114123975200,12.66597509765625,-4.727051902770996,-1.2987047630310058,2.7693431327819824
1789214114134006300,12.67600634765625,-4.894945294189453,-1.7636287979125975,3.357418915557861
1789214114144038100,12.6860380859375,-4.185962327575683,-2.6836007858276365,2.9240684150695797
1789214114154070000,12.696070068359376,-4.0252515411376955,-3.609558277893066,2.8746880058288573
1789214114164101000,12.70610107421875,-4.519205271148682,-4.028094655609131,3.377919267272949
1789214114174133200,12.71613330078125,-4.838681555175781,-4.183568125915527,4.059368914794922
1789214114184165000,12.7261650390625,-4.598363563537597,-4.504989698791504,4.6865001121521
1789214114194196200,12.7361962890625,-4.383035051727295,-4.511274478149414,4.708047927093506
1789214114204228000,12.74622802734375,-4.486584273529052,-4.482992971038818,4.465186096191406
1789214114214260200,12.75626025390625,-4.789450783538818,-4.56484474029541,4.612579135894775
1789214114224291300,12.766291259765625,-5.1231426399230955,-4.857984806060791,5.046977099609375
1789214114234323200,12.7763232421875,-5.155165087127685,-5.182848043823242,5.2624552490234375
1789214114244355300,12.786355224609375,-5.277867922210693,-5.390245762634277,5.053561154174805
1789214114254386200,12.79638623046875,-5.449651891326904,-5.566518859863281,4.585195454406738
1789214114264418000,12.80641796875,-5.310339282226562,-5.67560467300415,4.0858547706604
1789214114274450200,12.8164501953125,-4.861725746154785,-5.698648863983154,3.733607851409912
1789214114284481300,12.826481201171875,-4.165013063049316,-5.688922419738769,3.789572315216064
1789214114294513200,12.83651318359375,-3.8352117843627926,-5.8226984375,3.990834892272949
1789214114304545300,12.846545166015625,-3.58142640838623,-6.121075819396972,4.114585190582275
1789214114314576100,12.856576171875,-3.381360932159424,-6.5117796028137205,4.252551061248779
1789214114324608300,12.866608154296875,-3.171868286895752,-6.978499288940429,4.537012145996093
