time,seconds_elapsed,z,y,x
1789021725168081200,0.0610810546875,0.3651730363190174,0.06241553964167833,-0.04685770409638062
1789021725178082800,0.071082763671875,0.5302794273674488,0.03525368421077728,0.08507416536919772
1789021725188085000,0.0810849609375,0.5992530103504657,0.10042495230138301,0.28268978249216453
1789021725198087000,0.0910869140625,0.5771534067451953,0.15827274563610552,0.3870158156190067
1789021725208088800,0.1010888671875,0.4977613056004047,0.1523898250773549,0.40869810712765897
1789021725218091000,0.111091064453125,0.3001099047780037,0.14028086961060762,0.4859706588352099
1789021725228093000,0.121093017578125,-0.030784429842233656,0.05779051018953323,0.5577653271209448
1789021725238095000,0.13109521484375,-0.3388742274582386,-0.09342910206466913,0.5157343307949602
1789021725248097000,0.141096923828125,-0.6376964305132627,-0.06129004274308681,0.23507150581944733
1789021725258099200,0.15109912109375,-0.7086983044534921,0.08298340363502502,-0.10596585448943079
1789021725268100900,0.161100830078125,-0.6109580611914396,0.1069306809335947,-0.25606965098883955
1789021725278102800,0.171102783203125,-0.24262626858055591,-0.10725596736520528,-0.21092910780757665
1789021725288105000,0.18110498046875,-0.044827568241953844,-0.10082330396920441,-0.06410827850159258
1789021725298107000,0.19110693359375,0.012722703450918197,-0.021375965505838392,0.03559920971281826
1789021725308109000,0.201109130859375,0.28584523258209227,-0.14889029252380132,0.09912789822816848
1789021725318111000,0.211111083984375,0.401257910656929,0.0024172902747988697,0.09537705779466778
1789021725328113200,0.221113037109375,0.4051227693915367,0.15273644655793905,-0.03610230039674789
1789021725338115000,0.231114990234375,0.5227437711656093,0.05308890836983919,-0.013946454825904219
1789021725348117000,0.241116943359375,0.4059843546569347,0.09167992030978202,0.007867792499344795
1789021725358119000,0.251118896484375,0.11193360378742218,0.1948664462789893,-0.12886967801651916
1789021725368120800,0.261120849609375,-0.2757517085909843,0.451040470957756,-0.3789860192246735
1789021725378123000,0.271123046875,-0.8122469417333602,0.6469158020183443,-0.43898171130828556
1789021725388125000,0.281125,-1.5004127457678318,0.23724895945638416,-0.15543364975266158
1789021725398127000,0.291127197265625,-1.727109623810649,0.04991700033545494,-0.11577680781264789
1789021725408129000,0.30112890625,-1.447166308748722,0.15901625747978687,0.006371763521619141
1789021725418131000,0.311130859375,-0.7185106734156608,0.12479103953391313,0.0655451063716784
1789021725428133000,0.321133056640625,-0.06040040042698383,0.08110591932535172,0.1063082747189328
1789021725438134800,0.331134765625,0.5321826306402683,-0.01830517975836992,0.235928816768527
1789021725448137000,0.341136962890625,1.0075544097781182,-0.18606442340314386,0.39058636758215726
1789021725458139000,0.351138916015625,1.2350175960183143,-0.20771540645807982,0.6314573169279843
1789021725468141000,0.36114111328125,1.0302046330034733,-0.07113865206241607,0.8988320961873978
1789021725478143000,0.37114306640625,0.6614186668843031,-0.0040498599126935,0.9681968704450875
1789021725488145000,0.381144775390625,0.2246621573448181,0.17709318144023417,0.7286236327596008
1789021725498147000,0.39114697265625,-0.1723474482178688,0.4764999063849449,0.10503193464018404
1789021725508149000,0.40114892578125,-0.31714404168725013,0.6553115821808576,-0.4736025775082409
1789021725518151200,0.411151123046875,-0.3099164285212755,0.6002583880007266,-0.6248691707093268
1789021725528152800,0.42115283203125,-0.33293314697146414,0.3943251887843013,-0.43776020668931304
1789021725538155000,0.431155029296875,-0.33658933139145375,0.1714718344271183,-0.14166556543465703
1789021725548157000,0.441156982421875,-0.24178864871263503,0.09369009108841418,0.013919438954815268
1789021725558158800,0.451158935546875,-0.08159633319079876,-0.0026858780831098554,0.16530772230681032
1789021725568161000,0.4611611328125,-0.0946305868089199,-0.18644085550010203,0.30245632177367804
1789021725578163000,0.471162841796875,-0.0010123919129371643,-0.33721915372759104,0.3666590736256912
1789021725588165000,0.4811650390625,0.09608487727046013,-0.3098915863409638,0.3113922001622617
1789021725598167000,0.4911669921875,0.13863339466452598,-0.23285335484594105,0.19104159076120703
1789021725608169000,0.5011689453125,0.06552607287764549,-0.20747049178630111,0.11744935326790436
1789021725618171000,0.5111708984375,-0.08114274420440197,-0.14700842429995536,0.15335487071722745
1789021725628172800,0.5211728515625,-0.2930921349704265,-0.13107435758709907,0.3179723822701722
1789021725638175000,0.531175048828125,-0.4854635495632887,-0.2072813989549875,0.4606395990280434
1789021725648177000,0.541177001953125,-0.5458411536365747,-0.24592443334311245,0.44950007311534135
1789021725658179000,0.551178955078125,-0.4434814338803291,-0.18176205003410575,0.24597346011660992
1789021725668181000,0.561180908203125,-0.29339257922172546,-0.0390977924183011,-0.031972077857377004
1789021725678183200,0.57118310546875,-0.15132628749907015,0.1079500871092081,-0.24105059849536045
1789021725688185000,0.58118505859375,-0.17927403261065483,0.1027215388059616,-0.369959393812716
1789021725698188000,0.59118798828125,-0.252020119869709,0.02971592382788658,-0.3969575100492686
1789021725708190000,0.60118994140625,-0.25667583672106264,-0.0384206238090992,-0.3329658071320504
1789021725718191900,0.61119189453125,-0.18761165284514425,-0.02000701524019241,-0.11558475583926774
1789021725728194000,0.621194091796875,-0.12052666008770466,-0.008814590096473693,0.10251407006774096
1789021725738196200,0.6311962890625,-0.05966799449920654,-0.04968436062335968,0.305338051222451
1789021725748198100,0.6411982421875,-0.002382511222362518,-0.10820961482822894,0.4085642150823027
1789021725758200000,0.651199951171875,-0.024380992540717124,-0.0792635063290596,0.4955846191484481
1789021725768202000,0.661201904296875,-0.01664659889638424,-0.014050152662396431,0.4756995497874915
1789021725778204200,0.6712041015625,0.08268412842750548,0.041129298245906824,0.2862068324360996
1789021725788206000,0.6812060546875,0.1997135940492153,0.06924480113983154,0.0690098781391047
1789021725798208000,0.6912080078125,0.3035369566172361,0.06779518685340881,0.015279365663789212
1789021725808210200,0.701210205078125,0.31921208013296126,0.0009486790269613265,0.23343789500193668
1789021725818212000,0.711212158203125,0.16296820997595787,-0.17710779448747635,0.5874698162393645
1789021725828214300,0.72121435546875,-0.023244097465276718,-0.3162041304886341,0.8335482345677911
1789021725838216200,0.73121630859375,-0.14104980815649032,-0.34023616346120833,0.7235743865460157
1789021725848218000,0.741218017578125,-0.08568681737482547,-0.20506313838362691,0.1883146134827286
1789021725858220000,0.751219970703125,-0.015743512576818466,-0.012072130587697029,-0.40428156932704146
1789021725868222000,0.761221923828125,0.02449789691865444,0.15291092634201048,-0.750576594435796
1789021725878224100,0.77122412109375,0.2390928337574005,0.2884486930787563,-0.7471068724986165
1789021725888226000,0.78122607421875,0.37004093461632726,0.31492168946266175,-0.4339638831462711
1789021725898228200,0.791228271484375,0.2724514980018139,0.12902736192941666,0.06533895280770957
1789021725908230100,0.801230224609375,0.1222667817533016,-0.050283495560288424,0.5816245608098805
1789021725918232300,0.811232421875,-0.022291326785087585,-0.13965864605903625,0.986129709759727
1789021725928234000,0.82123388671875,-0.11511866356432437,-0.2545125212073326,1.1338021509263665
1789021725938236000,0.83123583984375,-0.07406710672974585,-0.3450222286939621,1.0908256904438138
1789021725948238000,0.841238037109375,0.08735036667287349,-0.3718663964778185,1.0369489926971494
1789021725958240000,0.851239990234375,0.22106033346056936,-0.431153867226839,1.064032741390541
1789021725968242200,0.8612421875,0.344140185162425,-0.5639934809207916,1.126379453579709
1789021725978244000,0.871244140625,0.3967436481028795,-0.5534136347174644,1.118494034092128
1789021725988246300,0.881246337890625,0.18426584954857825,-0.5282680875450373,1.134941895546019
1789021725998248200,0.891248291015625,-0.011693944925069808,-0.3973030355513096,0.9798273216798901
1789021726008250000,0.90125,-0.07190145312845707,-0.1634802511513233,0.39952582616731525
1789021726018252000,0.911251953125,-0.03730418699979782,-0.0018517653465270996,-0.11641045694053172
1789021726028254000,0.92125390625,-0.06357844594120979,0.0026589900761842724,-0.2633431856557727
1789021726038256000,0.931256103515625,-0.10453063405454158,0.0011591069072484968,-0.32834523465931414
1789021726048258000,0.941258056640625,-0.1608878965705633,0.001482347512245178,-0.20271686751842496
1789021726058260200,0.95126025390625,-0.27622224871218204,0.056528527429699896,-0.1763257041990757
1789021726068262100,0.96126220703125,-0.3625543782532215,0.09286240809261798,-0.21202201761081813
1789021726078264000,0.97126416015625,-0.6501549300700425,0.41795185582637784,-0.5540725370176136
1789021726088266200,0.981266357421875,-0.9700509008139371,0.5949877541214227,-1.4153537049025295
1789021726098268200,0.99126806640625,-0.8585884216696024,0.4275315850764513,-1.7190693790875373
1789021726108270000,1.00127001953125,-0.6864718595981597,0.8101040844857692,-1.4434208386100829
1789021726118272000,1.01127197265625,-0.8195113797783851,1.0802940672963857,-1.1157860903076826
1789021726128274200,1.021274169921875,-0.9040823448657989,0.4901093295425176,-0.3655778177276254
1789021726138276000,1.031276123046875,-0.8599345755815505,-0.23555998345613477,0.7769926730006933
1789021726148278000,1.041278076171875,-0.8665624692887067,-0.3416787634849548,1.6036127157405018
1789021726158280200,1.0512802734375,-0.6860334681808948,0.06848141555190086,1.6298991035111248
1789021726168282000,1.0612822265625,-0.06664017159938812,-0.0006605097353458404,1.3465797361448406
1789021726178284300,1.0712841796875,-0.1273521221935749,-0.2665425662189722,1.1097637612782418
1789021726188287000,1.081286865234375,-0.6009504619181156,-0.4422013309419155,1.0368579534128308
1789021726198289200,1.0912890625,-0.8782733653485775,-0.48794718307256696,0.8894117222175002
1789021726208291000,1.101291015625,-1.0392062701046467,-0.4252566258817911,0.8073506941244005
1789021726218293200,1.111293212890625,-1.2024901219010353,-0.4011784156799316,1.0136609099596738
1789021726228295200,1.121295166015625,-1.161378359311819,-0.2919616696357727,0.9153399442002177
1789021726238297000,1.131297119140625,-0.9566337853580713,-0.26706746687591076,0.8119985199302434
1789021726248299000,1.141299072265625,-0.8120937969982623,-0.4289993195414543,0.6005129472836852
1789021726258301000,1.151301025390625,-1.0437725551068782,-0.42911856200695037,0.06596241846829652
1789021726268303000,1.16130322265625,-0.6586334200799465,-0.24225392813682556,-0.32712621425837274
1789021726278305000,1.171304931640625,1.1197872887730598,-0.4161421760559082,-0.7471955006301403
1789021726288307200,1.18130712890625,2.3388790013849734,-0.6024556057840585,-0.2123378055617213
1789021726298309000,1.19130908203125,2.7785388311505317,0.15105740742981433,-0.4723951014146208
1789021726308311000,1.20131103515625,3.2970757982760666,0.5569184279680252,-0.01790390548110008
1789021726318313200,1.211313232421875,4.00411230699718,0.03358604325950146,0.7120072828710079
1789021726328315100,1.221315185546875,4.11442795419395,-0.24959610759317874,2.0303753622710703
1789021726338317000,1.231317138671875,3.7294986625254154,-0.40888884392678737,3.368409972910583
1789021726348319000,1.241319091796875,3.220322813463211,-0.9062789781272411,3.8522356921389695
1789021726358321200,1.251321044921875,2.218430082708597,-1.3056412842959164,3.7196097211956975
1789021726368323000,1.261322998046875,0.9198404704898595,-1.4086106603831052,2.883338929796219
1789021726378325000,1.271324951171875,0.11738251684308051,-1.122004380300641,1.9335697695106266
1789021726388327200,1.2813271484375,0.44647477047741413,-0.33875790760219093,1.4998276393562555
1789021726398329000,1.2913291015625,1.1896364855468273,0.4832102176785469,1.6012430639997124
1789021726408331300,1.301331298828125,2.2284961341708898,0.7275169866919518,1.8476953206092117
1789021726418333000,1.3113330078125,3.2099761914938685,0.17021920401751994,0.7508692207068205
1789021726428335000,1.321335205078125,4.048132358248532,-0.23369594314992426,-0.24516017097234724
1789021726438337000,1.3313369140625,4.318915338516235,0.024954408514499662,0.17722820599675176
1789021726448339000,1.3413388671875,-2.3914494388386607,1.3425035727471113,1.774775045827031
1789021726458341000,1.351341064453125,-7.721133180743456,3.8177971237033606,0.8617565303117036
1789021726468343000,1.361343017578125,-6.387760424435139,2.282251105234027,-2.2628736200690267
1789021726478345200,1.37134521484375,-2.3110084131628272,-0.491919593834877,-4.98573966383636
1789021726488347100,1.38134716796875,-1.57909143794626,-1.3831301821678876,-3.2797195898056026
1789021726498349300,1.391349365234375,-2.708237214434147,-0.6570102027922868,-0.266576468488574
1789021726508351000,1.40135107421875,-1.0127575313791632,-0.14076806860566138,1.0037170235723256
1789021726518353000,1.411352783203125,1.7463070762336252,-1.5154875653028488,0.7643699227929115
1789021726528355000,1.42135498046875,2.5648557484596965,-1.3841957655727863,0.6936170551776886
1789021726538357000,1.43135693359375,2.132678967925906,-0.47295010494887824,1.2263240019530057
1789021726548359200,1.441359130859375,1.0019263407632708,-0.6522855123579502,0.7814724487632513
1789021726558361000,1.451361083984375,-0.6307540640294551,-1.431906780296564,0.7388894445776939
1789021726568363300,1.46136328125,-1.1381342618465422,-2.041690537011623,1.5726427001982926
1789021726578365200,1.471365234375,-0.6284066241204739,-2.2261726596593854,2.4927923827677962
1789021726588367000,1.4813671875,0.39621465579271314,-1.7402999447733163,2.995380377872288
1789021726598369000,1.491369140625,1.9249945411279796,-0.7881079412549734,4.390695503352582
1789021726608371000,1.501370849609375,2.1004639207586644,-0.8687211086273193,5.292310289061069
1789021726618373000,1.511373046875,1.2756702166631817,-1.5237065275937318,5.879402321496605
1789021726628376000,1.5213759765625,-0.13255582831650972,-2.014427851554751,6.3431181496322155
1789021726638378200,1.531378173828125,-1.1682324629902838,-2.4033014969348905,6.498579344978928
1789021726648380200,1.541380126953125,-0.7090764901161194,-2.177888813483715,5.738462403455376
1789021726658382000,1.551382080078125,0.9191603792712092,-2.242667867386341,4.302737526175379
1789021726668384000,1.561384033203125,1.8725509449243545,-3.585470130819082,2.01135268189311
1789021726678386200,1.57138623046875,1.7082687297403811,-4.9870823106169695,0.14933189881145953
1789021726688388000,1.58138818359375,0.7350222477555275,-6.391537604886293,-0.7355716983318329
1789021726698390000,1.59139013671875,-0.628083675776422,-7.37173405213952,-1.2517349220633507
1789021726708392200,1.60139208984375,-1.946976655833423,-7.9819526931405065,-1.542674847435951
1789021726718394000,1.61139404296875,-3.103688776899874,-8.61475842900276,-1.8034294779032467
1789021726728396300,1.621396240234375,-3.565479482191801,-9.194843797546625,-1.92149705440104
1789021726738397700,1.631397705078125,-3.644842357242107,-9.558223520708083,-1.7646242386907338
1789021726748399600,1.641399658203125,-3.9488744038999077,-10.294910486805438,-1.1156225703090428
1789021726758401500,1.651401611328125,-4.651307510478794,-10.558259809941053,-0.6944821475744247
1789021726768403500,1.661403564453125,-4.7928275664955375,-9.393352691981196,0.09078501729667186
1789021726778405600,1.671405517578125,-4.933547119784355,-7.673043395835161,0.4133417316824198
1789021726788407600,1.681407470703125,-5.131562093222141,-5.7768567237794395,0.43153731358647346
1789021726798409700,1.69140966796875,-4.579646003586054,-4.352132840724289,-0.07191898878514766
1789021726808411600,1.70141162109375,-3.5758459779053924,-3.460598719525337,-2.350623799714446
1789021726818413800,1.711413818359375,-2.7084832981497047,-2.1784973007708786,-5.91423339638114
1789021726828415700,1.721415771484375,-1.3278262280970812,-0.21599515902549027,-9.02612564574182
1789021726838417400,1.73141748046875,0.2891518729120493,2.2983616975575685,-11.316446660184859
1789021726848419600,1.741419677734375,0.7281640524238348,2.766529536665976,-11.417587651801108
1789021726858421500,1.75142138671875,1.223009178316593,3.166846074819565,-11.512611037319898
1789021726868423700,1.761423583984375,1.759066020041704,3.5035336058884856,-11.607316442930697
1789021726878425600,1.771425537109375,2.321269694936275,3.769181269094348,-11.69860239548683
1789021726888427800,1.781427734375,2.8904186589241028,3.9477462766528126,-11.773835038864611
1789021726898429700,1.7914296875,3.4437188963949676,4.031684789055586,-11.822062770938873
1789021726908431600,1.801431640625,3.958253642141819,4.024555960088968,-11.837338666003943
1789021726918433800,1.811433837890625,7.524331674748659,2.397839724397659,-14.150093046051262
1789021726928435500,1.821435546875,8.330249413460493,1.8584043461501598,-11.021072551757097
1789021726938437600,1.831437744140625,8.855833961009978,2.079278217127919,-7.189677110812068
1789021726948439600,1.841439453125,9.622229836672544,3.248734084433317,-2.744903103530407
1789021726958441700,1.851441650390625,11.607255652654171,4.123161880269646,2.2267776398152113
1789021726968443600,1.861443603515625,13.47610189784169,4.187042524027824,6.928657107406854
1789021726978445600,1.871445556640625,12.860384074902534,4.474172535723447,9.323618646019696
1789021726988447700,1.88144775390625,10.338179135167598,4.968233233240246,9.159825675657391
1789021726998449700,1.89144970703125,8.509860130679607,4.3351153626888985,6.927167745631933
1789021727008451600,1.90145166015625,7.797033348119259,3.1570623474299904,4.579356665250659
1789021727018453500,1.91145361328125,7.079310610210895,2.391827332240343,3.4988860723435877
1789021727028455700,1.92145556640625,6.728127520799636,2.161930196851492,3.5483015528976916
1789021727038457600,1.93145751953125,6.469442682343721,1.5831261002898216,4.469094794067741
1789021727048459500,1.94145947265625,7.228410453832149,2.8975486569344997,6.096283323445916
1789021727058462700,1.951462646484375,5.2577872572124,2.9909798048257827,7.075058797985315
1789021727068464600,1.961464599609375,3.127607120364904,-0.8150392028003931,4.67788309045434
1789021727078466600,1.971466552734375,1.6434440831303596,-0.6611328356802463,3.1277795543223617
1789021727088468500,1.981468505859375,0.12711130830817854,2.7974674035042524,2.594226804372668
1789021727098470700,1.991470703125,-2.090347892674804,1.4203712408035993,-2.1014035396963355
1789021727108472600,2.00147265625,-4.018914154809713,-5.655208950707316,-10.041900186854601
1789021727118474800,2.011474853515625,-3.6845401613801716,-10.502405236250162,-12.549386865407227
1789021727128476700,2.0214765625,-2.480248543015122,-10.11374143422842,-10.746540155827999
1789021727138478800,2.031478759765625,-1.9112649987220762,-7.644847228920459,-6.826097481164336
1789021727148480800,2.041480712890625,-2.4161148012787104,-4.3135383216530085,-2.5538451096236705
1789021727158482400,2.051482421875,-2.571686471262574,-0.42535891721248625,-0.647740854665637
1789021727168484600,2.061484619140625,-2.6323785481125115,1.7520307145774363,-1.503345876610279
1789021727178486500,2.071486572265625,-1.372881175354123,1.601584717044234,-2.3873189149051903
1789021727188488700,2.08148876953125,1.0905033266216515,0.3680746029794216,-2.192657928070426
1789021727198490600,2.09149072265625,3.5205882010638714,-0.5560317082613706,-1.573835709375143
1789021727208492800,2.101492919921875,3.996462084504962,-0.6618266631633043,-1.8399433913081884
1789021727218494700,2.11149462890625,4.282264646989107,-0.04501286168098449,-2.478213822317123
1789021727228496600,2.12149658203125,4.824703298705816,4.130114768147468,-4.492403773462772
1789021727238498600,2.13149853515625,5.626323632484674,5.39659951557517,-2.645191852456331
1789021727248500500,2.14150048828125,3.918399770659208,-5.244592260074615,1.1901461886346338
1789021727258502700,2.151502685546875,0.9997148021936416,-12.083047118508816,1.402971193191409
1789021727268504600,2.161504638671875,-5.087863821271061,-14.200592230188846,-0.6394692854046822
1789021727278506800,2.1715068359375,-12.79578856087327,-12.245596810811758,0.25390871009528637
1789021727288508700,2.1815087890625,-12.153321847218274,-8.643654268619418,3.7630864593505855
1789021727298510600,2.191510498046875,-6.284095467299222,-5.925200196075439,5.262008089777827
1789021727308512800,2.2015126953125,0.2754197732228786,-4.0684728432267905,5.2596793545693155
1789021727318514700,2.2115146484375,5.115336934608221,-2.4985961006104946,4.409718475991487
1789021727328516600,2.2215166015625,8.054747880238294,-0.22108780598938463,3.8448692550241943
1789021727338518500,2.2315185546875,9.021241965353488,2.966211858794093,4.097087527814507
1789021727348520700,2.241520751953125,9.153857122641801,4.700628590747714,4.79349392144978
1789021727358522600,2.251522705078125,8.4994661624372,6.021282150736451,5.334189528891444
1789021727368524500,2.261524658203125,7.202268296837806,7.428595757046342,5.223958052846789
1789021727378526700,2.271526611328125,6.457671580529213,6.743005356457829,5.659373084649443
1789021727388528600,2.281528564453125,5.151386737632751,5.81885637511909,6.087039109760522
1789021727398530800,2.29153076171875,4.066045323818922,5.5130093879938125,5.988068447920679
1789021727408532700,2.30153271484375,4.131135051105916,4.88795733499825,6.061710022714734
1789021727418534700,2.31153466796875,3.3621061965912578,4.974638424107432,6.801179313006997
1789021727428536600,2.32153662109375,3.5222938359379765,5.2626119008898735,7.341442374250293
1789021727438538500,2.33153857421875,3.135269033294916,5.595564921605587,6.710750269541144
1789021727448540700,2.341540771484375,1.8642191699087618,5.993461831396818,5.641674346351623
1789021727458542600,2.35154248046875,0.8380816402137279,5.506605950692296,5.580585963660479
1789021727468544800,2.361544677734375,0.9479548043400049,4.047712379270791,6.090747901150584
1789021727478546700,2.371546630859375,1.9112702594190836,1.1597042886197566,6.377071857160329
1789021727488548900,2.381548828125,-0.7241717679172753,-3.0233804376929996,5.528875650167465
1789021727498550500,2.391550537109375,-4.42189114434421,-5.4769473100095984,4.701718724071979
1789021727508552400,2.401552490234375,-4.997074127799272,-6.530522881728411,3.687749186554551
1789021727518554600,2.4115546875,-4.752368130335212,-7.396047824662923,2.3823165765732526
1789021727528556500,2.421556640625,-4.264312810713053,-7.518066184613108,1.308048345437646
1789021727538558700,2.431558837890625,-2.5630185961604117,-7.3071227560192344,-0.839720931853354
1789021727548560600,2.441560546875,-1.561045785906911,-6.683602150374651,-2.773668010243773
1789021727558562800,2.451562744140625,-0.5269521826408803,-10.124794743162393,-5.848169563364983
1789021727568564700,2.461564697265625,-0.7731096940875053,-13.667463843131065,-9.673022450798749
1789021727578567700,2.471567626953125,-1.610606227889657,-13.820802639496325,-6.458281821382045
1789021727588569600,2.481569580078125,-2.985387683907151,-9.604230069601535,2.826243416133523
1789021727598571500,2.491571533203125,-3.9570699853152034,-7.215459786844253,7.37602327376604
1789021727608573700,2.50157373046875,-2.611569568839669,-6.910473800462484,8.317508005309104
1789021727618575600,2.51157568359375,-0.8401151918679475,-2.1891192325502633,3.204124835117161
1789021727628577800,2.521577880859375,1.0176029255837202,1.6061287902146577,-0.8784498909592628
1789021727638579700,2.531579833984375,1.8024153324246406,2.4651328069478273,-2.1336068964257837
1789021727648581600,2.54158154296875,1.7397557548940181,1.8751953219532966,-3.5902097265616058
1789021727658583600,2.55158349609375,1.4143296225517987,0.6087964992433786,-4.362363142837584
1789021727668585500,2.56158544921875,1.32012573672235,-0.6631283934116363,-3.9550720894962548
1789021727678587600,2.571587646484375,3.2643472486287353,-1.7903741814970968,-2.247327675890922
1789021727688589600,2.581589599609375,13.864776221257447,-4.347638744175434,3.095954090994596
1789021727698591700,2.591591796875,11.845109300005435,-5.044158535057306,3.322221053187549
1789021727708593700,2.60159375,0.6459370201140642,-2.0077713162750004,-0.6572028027549386
1789021727718595800,2.611595947265625,-3.0050474931448696,-0.5988152034550905,-0.9728820325866341
1789021727728597800,2.62159765625,-3.0049849493026732,-0.18458675206601619,-0.6562313273742795
1789021727738600200,2.63160009765625,-3.2530639303311704,0.5271101496815681,-0.5252656908586621
1789021727748602000,2.64160205078125,-2.9550641495749352,0.520562335473299,-0.07889554979950189
1789021727758604300,2.651604248046875,0.15767974817901848,-0.16885843705832956,1.33124158949852
1789021727768606200,2.661606201171875,5.119418066442012,-0.611595190051198,3.770208274054527
1789021727778608400,2.6716083984375,3.5947622752994297,0.6994231111079454,2.7119153184249996
1789021727788610300,2.6816103515625,-0.3079343147933483,2.0978291883409024,-0.39074703803658484
1789021727798612200,2.6916123046875,-0.9061731796652078,2.0217787988394496,-0.9594982348784804
1789021727808614100,2.7016142578125,-0.11223843195289372,0.5591027862697839,-0.7762439004600048
1789021727818616000,2.711615966796875,1.0563846377901733,-0.4566963047623634,-0.517263001666963
1789021727828618200,2.7216181640625,0.9971130952626466,-0.3284773366063833,-0.41748336153179405
1789021727838620200,2.7316201171875,-0.20226912375092504,-0.15634966861903665,-0.13498773163855074
1789021727848622300,2.741622314453125,-0.9095908791542052,-0.4052911116957664,0.2610527366310358
1789021727858624300,2.751624267578125,-0.4529547801464796,-0.7449713948398828,0.5409779315143823
1789021727868626200,2.761626220703125,0.5510999509476124,-0.8170102106124162,0.6179723238676786
1789021727878628400,2.77162841796875,1.0627608948238194,-0.4903729489147663,0.2792126626998186
1789021727888630300,2.78163037109375,0.7054623912721872,0.08508651339411735,-0.21779197931438682
1789021727898632200,2.791632080078125,0.027928455889225004,0.5787240170627832,-0.5800757239326835
1789021727908634000,2.801634033203125,-0.37377617562189697,0.8520908763438463,-0.7458136908829212
1789021727918636300,2.81163623046875,-0.47931730189323424,0.8977455430597067,-0.8242375315174459
1789021727928638200,2.82163818359375,-0.38971360333561894,0.7218851182848215,-0.8166057214647531
1789021727938641400,2.831641357421875,-0.2540069097727537,0.4475327550977468,-0.8494882926300168
1789021727948643300,2.841643310546875,-0.05838745316937565,0.26954233255684373,-0.8507049749433994
1789021727958645000,2.85164501953125,0.08227474390901625,0.08544833244383335,-0.8961346007317305
1789021727968647200,2.861647216796875,0.09099712567739188,-0.06198971544504165,-0.9573951251193881
1789021727978649000,2.871649169921875,0.000027472528815269467,-0.18948679906725882,-0.9888219445183872
1789021727988651300,2.8816513671875,-0.05561959589123726,-0.3205997350990772,-1.0260732322871684
1789021727998653200,2.891653076171875,0.025593802396580576,-0.30992402730584145,-1.0936559454336763
1789021728008655400,2.9016552734375,0.2258684643946588,-0.34054946719408036,-1.1008426420673727
1789021728018657300,2.9116572265625,0.39471185001432896,-0.4258019848048687,-1.076102753086388
1789021728028659200,2.9216591796875,0.3924818990051746,-0.5173141473323106,-1.063687508149445
1789021728038661000,2.9316611328125,0.5635806623362004,-0.6632762774497271,-1.0010872595906257
1789021728048663000,2.9416630859375,0.6798356364540755,-0.7573936540395021,-0.913811711719632
1789021728058665200,2.951665283203125,0.5765975264281035,-0.9740350020140409,-0.7349822080060839
1789021728068667100,2.961667236328125,0.46998292570635675,-1.268946169105172,-0.45129590702354905
1789021728078669300,2.97166943359375,0.48894437741637226,-1.4570616798192262,-0.28663316808938977
1789021728088671200,2.981671142578125,0.5226859034985304,-1.4796978745192289,-0.05370850157290697
1789021728098673200,2.991673095703125,0.379000047750026,-1.6651438737630844,0.4057520072057843
1789021728108675300,3.00167529296875,0.1631514575883746,-1.951936031806469,1.2446291817113757
1789021728118677200,3.01167724609375,0.025438392639160156,-2.18125507504642,1.8209513983294368
1789021728128679200,3.02167919921875,0.24635303401872513,-2.388013326910138,1.7424471859350799
1789021728138681000,3.03168115234375,0.3965791051909327,-2.8397324277818203,1.4178212640598415
1789021728148683300,3.041683349609375,0.3917170521125197,-3.02675546708405,1.1618944921404122
1789021728158685200,3.051685302734375,0.015889058527350425,-2.701343947789073,0.9510404953956604
1789021728168687000,3.06168701171875,-0.32601270005851984,-2.1332477077245713,0.9048647274151443
1789021728178689300,3.071689208984375,-0.6424731433957814,-1.6897352941840886,1.0186012889713048
1789021728188691200,3.081691162109375,-1.2476362545728683,-1.8241776668995617,1.3900024060249327
1789021728198693400,3.091693359375,-1.7842518992245195,-2.2259172235935925,1.8380553856045008
1789021728208695300,3.1016953125,-1.9437498027414082,-2.475853522926569,1.3751725011616944
1789021728218697200,3.111697265625,-1.9570605352133512,-2.376415243574977,0.4464326849013567
1789021728228699100,3.12169921875,-1.243975978499651,-1.9945722274839877,-0.346941506318748
1789021728238702300,3.131702392578125,-0.3756988142475486,-1.448527660229802,-0.9653092592447996
1789021728248704300,3.141704345703125,-0.379288070911169,-0.88522508418262,-0.7302347212180494
1789021728258706400,3.15170654296875,-0.5704226371854544,-0.531868157863617,-0.4097060055285692
1789021728268708400,3.161708251953125,-0.3575684065341949,-0.5191062914460897,-0.36204350612163544
1789021728278710000,3.1717099609375,-0.20608020647168157,-0.5466752663731574,-0.0961252092808485
1789021728288712200,3.181712158203125,-0.38842531709074973,-0.48852293713390826,0.2519944009065628
1789021728298714000,3.191714111328125,-0.38833383941501376,-0.29341420653164385,0.13450491655766963
1789021728308716300,3.20171630859375,0.17817922311127185,0.37080081307291984,0.006208206990361213
1789021728318718200,3.21171826171875,1.0927525668531655,1.6781331191956996,0.2454495093077421
1789021728328720400,3.221720458984375,2.655751532654464,1.9316379246652124,0.2930103019058704
1789021728338722300,3.231722412109375,1.666838110460341,0.4532552243977785,-0.2182797628313303
1789021728348724200,3.24172412109375,-0.43613487050980326,0.1926554922312498,0.03512976557016372
1789021728358726100,3.25172607421875,-0.8412374738961458,0.5347106878131628,0.31479952438771724
1789021728368728000,3.26172802734375,-0.4360840171054005,0.8413368426173925,0.38803602551221844
1789021728378730200,3.271730224609375,-0.2279302192300558,1.0773819792419672,0.2896902175724506
1789021728388732200,3.281732177734375,-0.20588702198714018,1.3296733172684907,-0.1478992356598377
1789021728398734300,3.291734375,-0.09938070394545793,1.6435247471511363,0.4306026630848646
1789021728408736300,3.301736328125,0.5277198060125112,1.814263006606698,-0.22942308813631535
1789021728418738200,3.31173828125,0.6269102480828762,1.69984109313488,-0.5741787748485804
1789021728428740400,3.321740234375,0.7425570271745324,1.8593910190999507,-0.7295978846192359
1789021728438742300,3.3317421875,1.2636112378180027,2.391090834659338,-1.249526013842225
1789021728448744200,3.341744140625,1.5141767749652266,2.805405210766196,-1.377543906468153
1789021728458746000,3.35174609375,1.6144564735770224,3.0218980901807546,-1.4954302811801432
1789021728468748300,3.361748291015625,1.3827519965052604,3.0907348950415847,-1.6529004782617092
1789021728478750200,3.371750244140625,0.8999011136583983,2.854393405818939,-1.6969477097809313
1789021728488753400,3.38175341796875,0.3639613224416971,2.5886025347501036,-1.6714543720841406
1789021728498755300,3.39175537109375,0.18894874666780231,2.5389193431705235,-1.4593909995496273
1789021728508757000,3.401757080078125,0.19317454766929149,2.3172435081601144,-1.0565589714437722
1789021728518759200,3.41175927734375,0.7376864985287189,1.4798422514259815,-0.6025222412794828
1789021728528761000,3.421760986328125,1.48668451853618,0.5201432332783937,-0.36645898447632785
1789021728538763300,3.43176318359375,1.5458010166324674,0.1313613578349352,-0.20239128882586954
1789021728548765200,3.44176513671875,1.0310932524062693,0.23788287344574927,-0.17180501190423964
1789021728558767400,3.451767333984375,0.5428213674239813,0.5640870044231414,-0.11840484562814235
1789021728568769300,3.461769287109375,0.7421189280182122,0.9300479762494563,0.17630933758616446
1789021728578771200,3.471771240234375,1.3031348544329404,0.9264227714896202,0.3599608546286821
1789021728588773400,3.4817734375,0.7709744356244802,0.8068471285164356,0.4846691843152046
1789021728598775000,3.491775146484375,0.04350581811890006,0.5902607255995274,0.23516601570248602
1789021728608777200,3.501777099609375,-0.7604717463105917,0.3262801188230514,-0.05810322940051555
1789021728618779100,3.511779052734375,-0.7190636311233043,-0.1165291148841381,0.4511714038610458
1789021728628781300,3.52178125,-0.4969435594767332,-0.9788584766477346,0.8351461712837219
1789021728638783200,3.531783203125,-0.4685490935109555,-1.5332786580592392,0.5136544557809829
1789021728648785200,3.54178515625,-0.5947032380916177,-0.7571990082502364,0.11172843660414218
1789021728658787300,3.551787353515625,-0.6986350294701754,0.26107553298473357,0.2620113525301218
1789021728668789200,3.561789306640625,-0.3774778066188097,0.11930384029448032,0.6637152533888816
1789021728678791200,3.571791259765625,0.409638712446019,-0.7037801372736692,1.0478490107655525
1789021728688793000,3.58179296875,1.3637024281203747,-1.2964251276612282,0.40246261027157304
1789021728698795300,3.591795166015625,2.621559047934413,-1.6208476359188555,-0.28146774815022946
1789021728708798200,3.601798095703125,2.6221365555614233,-2.0043419263482094,-0.6927168914675712
1789021728718800400,3.61180029296875,0.794948089473322,-1.9114327565044165,-1.1211924793958663
1789021728728802300,3.62180224609375,-0.9099426882665603,-1.008927451696992,-0.816923116850853
1789021728738804000,3.631803955078125,-0.8017015823215246,-0.819711286264658,0.03687923958599567
1789021728748806000,3.641805908203125,-0.7591454661428928,-0.8236568090200423,0.7762631896823644
1789021728758807800,3.651807861328125,-0.653100920394063,-0.6084405254125594,0.9793933141767978
1789021728768809700,3.661809814453125,-0.18644436263144015,-0.07241349430382252,0.8518494688034057
1789021728778812000,3.67181201171875,0.9424702354490756,0.2593207982718944,0.5814344450652599
1789021728788813800,3.681813720703125,2.0173089599490166,0.13998422475159167,0.4328665163636207
1789021728798815700,3.691815673828125,1.9718255581468342,0.0587502951323986,0.16060615701973438
1789021728808818000,3.70181787109375,1.3389748140990734,-0.019935119047760963,-0.20202128646969794
1789021728818819800,3.71181982421875,0.7595511243343352,-0.14934884994626044,-0.319995923987031
1789021728828822000,3.721822021484375,0.7249801616907119,-0.9722948803484439,0.006390577819943428
1789021728838823700,3.73182373046875,0.06607904885159804,-1.7427017452180384,0.29205519313812256
1789021728848825900,3.741825927734375,-1.1338403640449046,-1.1730623673647642,0.039428339546918864
1789021728858827800,3.751827880859375,-0.7918705086588859,-0.07851181117892266,0.1799760434001684
1789021728868829700,3.76182958984375,0.04749945433232933,0.6460737982362509,0.4487088131397962
1789021728878831900,3.771831787109375,0.867285522866249,1.0227776978731156,0.06903028160631657
1789021728888833800,3.781833740234375,1.5054139150559902,0.9991595063984393,-0.26779402758479115
1789021728898836700,3.791836669921875,0.7971592627167702,0.9643728551775217,-0.2152303121328354
1789021728908838700,3.801838623046875,0.6037770636461675,0.3486860118985176,-0.3111690589308739
1789021728918840800,3.8118408203125,1.3226023559689521,-0.5119494054287672,-0.10383388396203518
1789021728928842800,3.8218427734375,1.747480796188116,-0.908506006526947,0.017123568758368492
1789021728938845000,3.831844970703125,2.201416988587379,-0.7065139461517334,-0.7171352934092283
1789021728948846800,3.841846923828125,2.5167852527737615,-0.07182721884846686,-1.107399516364932
1789021728958849000,3.85184912109375,2.1141594147644938,0.40867373987138267,-0.9688187286704778
1789021728968851000,3.861850830078125,2.0661654914461076,0.4355249219179153,-0.6089186643183231
1789021728978852900,3.871852783203125,1.9208653323687612,0.1498205591112375,-0.11369710632860659
1789021728988854800,3.881854736328125,1.6697085513301193,-0.45599312492907046,0.5311754994243383
1789021728998856700,3.891856689453125,1.1573336139656603,-0.8887591035276651,1.037498881664872
1789021729008859000,3.90185888671875,0.3223195446290076,-0.8878034102380276,1.14707160153985
1789021729018860800,3.91186083984375,-0.2530956401467323,-0.7441630010664463,0.6320844358503818
1789021729028863000,3.921863037109375,-0.28361703513860703,-0.9325959071666001,0.27252923941314217
1789021729038865000,3.931864990234375,0.40011809297204015,-1.051785181170702,0.025400983238220213
1789021729048866800,3.94186669921875,1.1549974261030553,-0.8437433192372321,0.13381693429350852
1789021729058869000,3.951868896484375,1.5818784383162856,-0.5554068543612957,0.42578912532329555
1789021729068870700,3.96187060546875,1.5880654563881456,-0.14664017550945282,0.5087853884398937
1789021729078872800,3.971872802734375,1.1700760450303553,0.38697336471676824,0.270215117251873
1789021729088875800,3.981875732421875,1.0473451528966427,0.494454080748558,0.17290625114440916
1789021729098878000,3.9918779296875,1.3407427005544303,-0.0261205296844244,0.17615151667594908
1789021729108880000,4.0018798828125,1.6657950311481953,-0.35264439413547516,0.11829027933776377
1789021729118882000,4.011882080078125,1.8376365756705402,-0.3599012333959341,-0.003069324442744255
1789021729128883700,4.0218837890625,1.8795313053309917,-0.3701385497719049,-0.06549626226127148
1789021729138885600,4.0318857421875,1.798897095170617,-0.4674591063171625,-0.022364976543188093
1789021729148887800,4.0418876953125,1.7053844064757226,-0.5991694237202405,0.0895762260288
1789021729158889700,4.0518896484375,1.6692247133359313,-0.5836971293002367,0.23853695344030856
1789021729168892000,4.061891845703125,1.5819085411936045,-0.5979372515767812,0.351173152539134
1789021729178893800,4.071893798828125,1.3790940585196017,-0.565922987678647,0.38195699785947795
1789021729188896000,4.08189599609375,1.1830088841006159,-0.4814280104368925,0.32542613234221934
1789021729198898000,4.09189794921875,1.0457111219540238,-0.4665905067890882,0.23467209470570086
1789021729208899800,4.10189990234375,0.9802785725787282,-0.4376099114984274,-0.010616671082377432
1789021729218901800,4.11190185546875,0.9391650564238428,-0.41755613450706003,-0.4054074315518141
1789021729228903700,4.121903564453125,1.0382663589060306,-0.2964712560147047,-0.5205886389583348
1789021729238905900,4.13190576171875,1.2891048677757382,-0.159519530826807,-0.2602799986928701
1789021729248908800,4.14190869140625,1.6633903080940247,-0.08117372386455536,0.3491816864609718
1789021729258911000,4.151910888671875,1.8646622375011443,0.00732113666832447,0.819862092912197
1789021729268913000,4.161912841796875,1.8904606956243515,0.2025549549549818,0.9440408457666635
1789021729278914800,4.171914794921875,1.9270193249538539,0.2599894913136959,0.966768810403347
1789021729288916700,4.181916748046875,1.8518658842921256,0.07827449529170989,0.9193559018433094
1789021729298919000,4.1919189453125,1.7281512418180702,-0.1373117906719446,0.7878051589161157
1789021729308920800,4.2019208984375,1.6524688088461756,-0.36006723761260506,0.5318821863889693
1789021729318922800,4.2119228515625,1.4073676745846866,-0.5608253722786903,0.22282266695797442
1789021729328925000,4.221925048828125,1.1075883169353007,-0.8372896130532026,-0.07049801607131957
1789021729338926800,4.2319267578125,1.0309186264917254,-1.134416118106246,-0.40831075177788734
1789021729348929000,4.241928955078125,1.1236334428071975,-1.2795780377566814,-0.7548445540785789
1789021729358931000,4.251930908203125,1.3022536876842379,-1.2915361865758894,-0.9513175587713718
1789021729368932900,4.261932861328125,1.4250278344377874,-1.202352759256959,-1.085799094453454
1789021729378934800,4.271934814453125,1.391790166224539,-0.9301023367851972,-0.9793114811122416
1789021729388936700,4.281936767578125,0.8967720218524337,-0.5067062440782785,-0.673373308572173
1789021729398940000,4.29193994140625,0.6129837218001485,0.11917699904441832,-0.1842342853665352
1789021729408941800,4.30194189453125,0.5456812868997454,0.8567898478150368,0.274657483613491
1789021729418944000,4.311944091796875,0.631584377373755,1.5252414820760487,0.6894967603772878
1789021729428945700,4.321945556640625,0.5990946049183606,1.9316022688299417,1.0237859981328248
1789021729438947800,4.33194775390625,0.4276297847539186,1.9468670579791068,1.1663368585020304
1789021729448949800,4.34194970703125,0.23536884479820727,1.719953322315216,1.1123048240631819
1789021729458952000,4.351951904296875,0.09214344616830349,1.445077812036872,0.8621651111125945
1789021729468953900,4.361953857421875,0.05224632006585598,1.1188146443486213,0.26067864262163637
1789021729478955800,4.371955810546875,0.23539222567379472,0.8555354638397693,-0.26585575299859043
1789021729488958000,4.3819580078125,0.6329466056376696,0.5065291339457034,-0.6993681660503148
1789021729498960000,4.3919599609375,0.8402668752983212,0.019566870257258413,-1.1225476933971046
1789021729508961800,4.4019619140625,0.8966711918264627,-0.5377157148480415,-1.3155766951158643
1789021729518963700,4.411963623046875,0.7498863471493125,-1.1352858866780995,-1.475572026760876
1789021729528966000,4.4219658203125,0.7205465631574391,-1.6983856336295604,-1.9159525720164179
1789021729538967800,4.4319677734375,0.9565563362076878,-1.9316081140488386,-2.5109797813653945
1789021729548971000,4.441970947265625,1.4694967985004186,-1.7110148135781287,-2.5423005100414153
1789021729558973000,4.451972900390625,1.9659820928156375,-1.4875988569021223,-2.0726301574155688
1789021729568974800,4.461974853515625,2.4111931269675493,-1.7698317442059517,-1.1885022208198903
1789021729578976800,4.471976806640625,2.758147785028815,-2.4878689548909665,-0.8657046834155917
1789021729588978700,4.481978759765625,2.4238763751909134,-3.160613317909837,-1.37581489071846
1789021729598980900,4.49198095703125,1.5412702413350343,-3.21924261701107,-1.9977499807372687
1789021729608982800,4.501982666015625,0.923325389996171,-2.757060574313998,-1.8881781376451252
1789021729618985000,4.51198486328125,1.0428303058207034,-2.390610942187905,-1.2707526340052484
1789021729628987000,4.52198681640625,1.4455255558043718,-2.4236434432178733,-0.7168269581124186
1789021729638988800,4.53198876953125,1.4047209594681858,-2.9417274058789014,-0.6782932293176651
1789021729648991000,4.541990966796875,0.8494517600119114,-3.5426673464030025,-0.7679930817261338
1789021729658992600,4.55199267578125,0.20266367602646349,-4.009991428163647,-1.0377253838971257
1789021729668994800,4.561994873046875,-0.11862725620716809,-4.0673815408587455,-0.9023568362474441
1789021729678996700,4.571996826171875,0.10331541304588317,-3.53612596193552,-0.42580227706581353
1789021729689000000,4.582,0.3518219718366861,-2.8398697904258965,-0.027128537683188913
1789021729699001900,4.592001953125,0.5371735707953572,-1.9746949761033057,0.07741466359198093
1789021729709004000,4.602004150390625,0.6193751764029264,-1.0749380932211876,-0.03769435536116361
1789021729719005700,4.612005615234375,0.7806944501280784,-0.4979769941776991,-0.283592777480185
1789021729729007900,4.6220078125,1.2060983755260706,-0.19985972452163694,-0.5574798612430691
1789021729739010000,4.632010009765625,1.614690282332897,0.020073650735616684,-0.3958826473593712
1789021729749012000,4.642011962890625,1.9164441549256443,0.16596213109493255,0.035246377687156195
1789021729759014100,4.65201416015625,1.8305849035933612,0.3119862205326557,0.16675883443057535
1789021729769016000,4.66201611328125,1.3006076740428805,0.3434142089754343,-0.03515840714275837
1789021729779018000,4.67201806640625,0.7517065483137965,0.29183365934193134,-0.39345921960473057
1789021729789020200,4.682020263671875,0.6275488382473587,0.08201192825436592,-0.7969143480449914
1789021729799022000,4.69202197265625,0.706126700399816,-0.0627022476285696,-0.9318079716593026
1789021729809024000,4.70202392578125,0.7694742601945996,0.06630816316604614,-0.860325328464806
1789021729819027000,4.71202685546875,0.9732748312965035,0.4818324995845556,-0.6689584147393703
1789021729829029000,4.722029052734375,1.065134784348309,0.9008476007282733,-0.7673857634827495
1789021729839031000,4.732031005859375,0.9056550010100006,1.228041327264905,-1.0299407213702798
1789021729849033200,4.742033203125,1.0124050646796823,1.3257406539946794,-1.1874071190595625
1789021729859035100,4.75203515625,1.456534148813784,1.3342179749608039,-1.1268345769360661
1789021729869036800,4.762036865234375,1.8626669720306992,1.382683607444167,-0.8886576889798045
1789021729879039000,4.7720390625,1.9946502611562609,1.4950217003792523,-0.5688911898344755
1789021729889041000,4.782041015625,1.5251377294406294,1.5716472594201565,-0.30483342616856096
1789021729899043000,4.79204296875,0.6688755587615073,1.6142004529893397,-0.03749532565772533
1789021729909045000,4.802044921875,0.27705884566679595,1.3625164332062005,0.05445259793847799
1789021729919047200,4.812047119140625,0.3742413089156151,0.7142763968467712,0.25938509567976
1789021729929049000,4.822049072265625,0.7415443430006503,-0.10052549006640911,0.6537643527388572
1789021729939051000,4.832051025390625,0.5391710282228886,-0.8723679406970739,0.9928595294713973
1789021729949054000,4.842053955078125,-0.09814341723546385,-1.3539017495959997,1.217666355983913
1789021729959056000,4.852055908203125,-0.1874444795846939,-1.4158154771953821,0.8516226743102073
1789021729969058000,4.86205810546875,0.22112711508646607,-0.9855576820254325,0.08704378494173289
1789021729979060000,4.87206005859375,0.8121722690619528,-0.22807576518058775,0.09310878406912088
1789021729989062100,4.882062255859375,1.259631666662544,0.4455202462315559,0.530517620037496
1789021729999064000,4.89206396484375,1.317270347291231,0.7376461665183305,0.6445359211444854
1789021730009066000,4.90206591796875,0.9735446612138301,0.6250199042916298,0.4808455343738198
1789021730019068000,4.91206787109375,0.30083821905255315,0.12249532981216907,0.4897843353718519
1789021730029069800,4.92206982421875,-0.46792730835080143,-0.6308546017944813,0.444460800306499
1789021730039072000,4.932072021484375,-0.9543816955823451,-1.5279647695600986,-0.06752396869659423
1789021730049074000,4.942073974609375,-1.0789022476118058,-2.4875644189864397,-0.7415484346538782
1789021730059076000,4.952076171875,-0.7186077040493488,-3.2511890763700007,-1.1589157685905693
1789021730069078000,4.962078125,-0.05589081404805183,-3.361673065871,-1.080265717984736
1789021730079081000,4.9720810546875,0.4509107070982456,-2.6734166609436274,-0.9512560378424822
1789021730089083000,4.982082763671875,0.5876818515548482,-1.4824918891519308,-0.6177762167736888
1789021730099085000,4.9920849609375,0.5006722246110439,-0.28190146339237687,-0.2321082355670631
1789021730109087000,5.0020869140625,0.14133392232749611,0.4799988544166088,-0.04680632096901536
1789021730119089200,5.012089111328125,-0.3272808202981949,0.4568523721069097,0.23586554227396844
1789021730129091000,5.022091064453125,-0.6929284883916378,0.0933843861401081,0.7329666303999721
1789021730139093000,5.032093017578125,-0.8779857805788517,-0.048235330858826635,1.1317327242411672
1789021730149095200,5.04209521484375,-0.8710790699303149,0.3050058601260185,1.4059601458743214
1789021730159096800,5.052096923828125,-0.9000959055781363,1.0479852043658495,1.7570460585214196
1789021730169099000,5.06209912109375,-0.8819301342904567,1.693572680389881,2.062880916817486
1789021730179101000,5.072100830078125,-0.8066460529863834,1.8306664443969725,2.1309137118190526
1789021730189103000,5.08210302734375,-0.3928548605034128,1.5420254436165093,2.1116984314784406
1789021730199106000,5.09210595703125,0.23551786134745925,1.0273007282555102,2.2143043810807166
1789021730209108200,5.102108154296875,0.36056587131712586,0.38255905540585516,2.3322585603319106
1789021730219110000,5.11210986328125,-0.10695113919973373,-0.2888414917886257,2.464380235014856
1789021730229111800,5.12211181640625,-0.63285249761343,-0.7002373501002788,2.292266741683334
1789021730239114000,5.132114013671875,-0.6901590236783027,-0.8527841193050145,1.61951974831596
1789021730249116000,5.142115966796875,-0.4004010015666485,-0.9172095374643802,0.749850837444514
1789021730259118000,5.1521181640625,-0.18110241708159447,-0.9235632904052734,0.5088485168039798
1789021730269120000,5.1621201171875,0.004178162467479705,-0.9188310011863708,0.3730453771293163
1789021730279122200,5.1721220703125,0.29306641600728034,-0.8711305078566074,0.08635770237371325
1789021730289124000,5.1821240234375,0.6837023948848248,-0.8487731300979852,-0.17472411422133444
1789021730299126000,5.1921259765625,1.2782587718516587,-0.9201017517745494,-0.3061034461043775
1789021730309128000,5.2021279296875,1.6873521984398363,-1.0983832662165165,-0.41896410160884257
1789021730319131000,5.212130859375,1.6347013892263174,-1.236217619457841,-0.43009076803997154
1789021730329133000,5.222133056640625,1.5810335119247436,-1.2367255689799785,-0.5966646012924611
1789021730339135000,5.232135009765625,1.4555670573472976,-1.0725742866992949,-0.8629916250646114
1789021730349137200,5.24213720703125,1.0264682960193603,-0.6815314805865288,-0.8282885604739189
1789021730359139000,5.25213916015625,0.8682172507584095,-0.151869308334589,-0.5839192476183176
1789021730369141000,5.26214111328125,1.0689677135746924,0.2572989370554685,-0.2117544527158141
1789021730379143000,5.272142822265625,1.1597481277614832,0.42343233306407924,-0.2770705361045897
1789021730389144800,5.282144775390625,0.9538298338532447,0.5565168614298105,-0.44092005895972247
1789021730399147000,5.29214697265625,0.7934445530425757,0.5839169095307588,-0.4421054693520069
1789021730409149000,5.30214892578125,0.7727783432412892,0.46643619301021094,-0.2684378784462809
1789021730419151000,5.312151123046875,0.8987759820859879,0.3429389926791191,-0.226684018561244
1789021730429153000,5.322153076171875,0.8912035010050982,0.27129297561645505,-0.23472411715388297
1789021730439156000,5.332156005859375,0.776485892522335,0.201142750069499,-0.40928310394138095
1789021730449158000,5.342157958984375,0.7438648218374699,0.06514145747423171,-0.4756348139882087
1789021730459160000,5.35216015625,0.7455044057380408,-0.20410627605020998,-0.3996510599821806
1789021730469162000,5.362161865234375,0.8247854477237909,-0.5998515607655048,-0.23301146801710126
1789021730479164200,5.3721640625,0.8041108354203402,-0.9534814588069915,-0.013431728503108024
1789021730489166000,5.382166015625,0.5182926004430278,-1.073612982097268,0.06834843682199716
1789021730499168000,5.39216796875,0.47747251427676524,-0.7932534874498843,0.5249444960802793
1789021730509170200,5.402170166015625,0.8345914600104093,-0.18157704885601997,0.8234332293972373
1789021730519171800,5.412171875,0.5817694126406684,0.565315084913373,0.5118012291297316
1789021730529174000,5.422174072265625,0.14332184474170206,1.2359025621592998,0.5154252648457884
1789021730539176000,5.432176025390625,0.8310346443116664,1.7146400183379649,1.0858408877685666
1789021730549179100,5.44217919921875,1.3376520410627126,1.6365531545728444,1.3396791629761458
1789021730559181000,5.45218115234375,0.8418973991096019,1.0761574058830738,0.99763828818053
1789021730569183200,5.462183349609375,0.6201631119102239,0.43031507831513877,0.9134475545823574
1789021730579185000,5.472184814453125,1.163321894595027,-0.10237959350049496,1.3515177770689129
1789021730589186800,5.482186767578125,1.6272656862676143,-0.6142541801273822,1.542988443429768
1789021730599189000,5.49218896484375,1.5593927580028772,-1.1123743821680545,1.2422998619809746
1789021730609191000,5.50219091796875,1.4130284768253565,-1.4281056344479321,1.1626388807669281
1789021730619193000,5.512193115234375,1.5437731640666723,-1.5898995399475098,1.0985261818185448
1789021730629195000,5.522195068359375,1.7942051379621027,-1.7211685433238744,0.7553694547355174
1789021730639197200,5.532197265625,1.9571867919415233,-1.758762068659067,0.5140183206573128
1789021730649199000,5.54219921875,1.879789664006233,-1.669791991829872,0.45777737799733875
1789021730659202000,5.5522021484375,1.6731038928568363,-1.275927114033699,0.42362113363444803
1789021730669204000,5.562203857421875,1.590913100904226,-0.6470867746710777,0.14161708665043116
1789021730679206000,5.572205810546875,1.9698083731055258,-0.01547054085433483,0.1496624459400773
1789021730689208000,5.5822080078125,2.159230874764919,0.25567630428969856,0.5491939711958169
1789021730699210000,5.5922099609375,1.9278104753315448,0.10344400786161422,0.9547329201728105
1789021730709212200,5.602212158203125,1.433087514513731,-0.2436848377227783,1.0847142218261956
1789021730719214000,5.612214111328125,0.7634978161334991,-0.5231354008316993,0.9469055875480175
1789021730729216000,5.622216064453125,0.5001602199682965,-0.4380079709053039,1.011491456966102
1789021730739218700,5.63221875,0.7764625116467475,-0.04276128336191177,1.0303680068716405
1789021730749220600,5.642220703125,1.2191548409759998,0.5286088638067246,0.5237789594322443
1789021730759222500,5.652222412109375,1.2227414672911165,0.9479279163330793,-0.28756051206737754
1789021730769225500,5.6622255859375,1.0011561601083725,1.113736902692914,-0.7989432235240935
1789021730779227400,5.672227294921875,0.930438436871767,1.038806457132101,-1.0649074053332208
1789021730789229600,5.6822294921875,0.8014063987672329,1.001351463484764,-1.334484516942501
1789021730799231500,5.6922314453125,0.4150245702028274,1.1313812804549932,-1.7101728097960351
1789021730809233700,5.702233642578125,0.22886823073253035,1.2281868732154368,-1.924675099915266
1789021730819235600,5.712235595703125,0.4911607382915914,1.2403735700935126,-1.6950146958917378
1789021730829237800,5.72223779296875,0.7684628911949694,1.123177515733242,-1.498326879404485
1789021730839239700,5.73223974609375,0.8309588025964796,0.8225713518708944,-1.3650851146504281
1789021730849241600,5.74224169921875,0.7209085283376276,0.4315384826302528,-0.9956690339341759
1789021730859243500,5.752243408203125,0.23342998569011686,0.06538286501467228,-0.4441200240448117
1789021730869245400,5.762245361328125,-0.1589456764616072,-0.22723931435644626,-0.063887658020854
1789021730879248600,5.77224853515625,-0.4593593864917755,-0.47548283829689025,-0.09935323141664266
1789021730889250600,5.78225048828125,-0.5986356091044843,-0.5960451542198658,-0.536386804331839
1789021730899252700,5.792252685546875,-0.06344371364563703,-0.22831308106780052,-1.3052812188118696
1789021730909254700,5.802254638671875,0.47343715781345963,0.7326385674893856,-1.569521937829256
1789021730919256600,5.812256591796875,0.6756883075162768,1.9831302114933729,-0.8198390042975544
1789021730929258500,5.822258544921875,0.6944456149563193,2.7557062370955943,0.27757950854003427
1789021730939260400,5.832260498046875,0.6593266630411148,2.8747604865431784,1.1284978339731693
1789021730949262600,5.8422626953125,0.6801029090881348,2.6790906149268148,1.7826161147162318
1789021730959264500,5.852264404296875,1.0797630291596054,1.727915094974637,2.6824332033529874
1789021730969266700,5.8622666015625,1.8919249229580162,-0.2685971606612205,3.0501380962371822
1789021730979269600,5.87226953125,2.7192633431002498,-2.546412329274416,2.935562453508377
1789021730989271600,5.882271484375,3.5789635254040357,-4.338782068502903,1.378643976664543
1789021730999273500,5.8922734375,2.915830455817282,-3.9301328785508867,-0.8151365256950259
1789021731009275600,5.902275634765625,1.4989935266196728,-1.4360516250163315,-0.7672747043237089
1789021731019277600,5.912277587890625,0.8969710515558719,0.09129238229691981,0.3068725307807326
1789021731029279700,5.92227978515625,0.4708265369236469,-0.4117535857081413,1.0463406520292162
1789021731039281700,5.93228173828125,-0.23184008615016935,-1.4036813872873781,0.8674497735172509
1789021731049283600,5.94228369140625,-0.02719312735199928,-0.5802805988550186,0.3012780717745423
1789021731059285800,5.95228564453125,0.47195174156129355,0.7119920853018761,0.03483750462532043
1789021731069287400,5.962287353515625,0.8447796765476465,0.8067705561488866,0.5727139629930258
1789021731079290600,5.97229052734375,0.7870110859289765,-0.7136895368695259,0.9210901782900095
1789021731089292500,5.98229248046875,0.4936176299244165,-1.6383733557373283,0.7938388861224055
1789021731099294700,5.992294677734375,0.298300225007534,-1.3756810352057218,0.5569631438925862
1789021731109296600,6.002296630859375,0.6630266866028308,-0.7691425440222025,-0.07961363494098186
1789021731119298800,6.012298828125,1.0337439130455255,0.041806759116053575,-0.804854493394494
1789021731129300500,6.022300537109375,1.3644155448257922,0.8330909923195838,-0.8534872991383076
1789021731139302400,6.032302490234375,1.7191618796765804,0.9970224943697452,-0.5973062601968646
1789021731149304600,6.0423046875,1.686299474516511,0.7470406023293733,-0.4229074324071407
1789021731159306500,6.052306396484375,1.5292647462427615,0.5129518604695796,-0.3156599406093359
1789021731169308700,6.06230859375,1.592741193114221,0.5340086770236492,-0.49703679071813817
1789021731179310600,6.072310546875,1.9806337185025213,0.68768357347548,-0.5387316138923168
1789021731189313500,6.0823134765625,2.4223475581884384,0.8252385252535342,-0.42580987585037944
1789021731199315500,6.0923154296875,2.6791788777321575,0.9065297380179166,-0.17472937491834162
1789021731209317600,6.102317626953125,2.624764565977454,0.7006856783896684,0.1709291058525443
1789021731219319600,6.112319580078125,2.5031203000366684,0.5361614711433649,0.3503837557271123
1789021731229321500,6.122321533203125,2.216375488266349,0.40950200738906856,0.5578282362893223
1789021731239323600,6.13232373046875,1.9191671501487493,0.10726444293260573,0.7823910249128937
1789021731249325600,6.14232568359375,1.6762883681118488,-0.2568400873720646,1.0656038631647824
1789021731259327700,6.15232763671875,1.5896645621478556,-0.5262234299749136,1.2842238177359104
1789021731269329700,6.16232958984375,1.392523448935151,-0.607527502220869,0.9122314567908644
1789021731279331600,6.17233154296875,1.0355307964622973,-0.5052759190142154,0.4292296211659908
1789021731289334500,6.18233447265625,0.9027893824458122,-0.3810854757219553,0.17286022004559634
1789021731299336700,6.192336669921875,1.2441764695078135,-0.46872459620833395,0.03390928386449814
1789021731309338600,6.202338623046875,1.6371669025570152,-0.5343360092818736,0.12848024944067002
1789021731319340800,6.2123408203125,1.6936518831059335,-0.7461527135789394,0.05920622220635414
1789021731329342700,6.2223427734375,1.4894114592820404,-1.127027176898718,-0.29497911776080726
1789021731339344400,6.232344482421875,1.181645194531977,-1.1804472169190645,-0.5383391074433922
1789021731349346600,6.2423466796875,1.3413760300219058,-0.8093143954128027,-0.19492168359756468
1789021731359348500,6.252348388671875,1.8113854053437708,-0.4867003978818655,0.18182225578874348
1789021731369350700,6.2623505859375,2.0189245784521104,-0.23932547346949576,0.25675620848089453
1789021731379352600,6.2723525390625,1.7793243796944618,-0.03475333347320556,0.32799890543967486
1789021731389355800,6.282355712890625,1.6436030730843543,-0.1644616634041071,0.4837998541347682
1789021731399357400,6.292357421875,1.4771774161309004,-0.8660819922953844,0.2558336868084967
1789021731409359600,6.302359619140625,0.5407473376289009,-1.865541358423233,-0.31883038733899594
1789021731419361500,6.312361572265625,-0.8660743935108184,-2.60248492963016,-0.41615751975551246
1789021731429363500,6.322363525390625,-1.6162614771723747,-2.9024107100129126,0.03937105640172958
1789021731439365600,6.33236572265625,-1.3897589526578784,-2.7283517817020413,0.49375104704573747
1789021731449367600,6.342367431640625,-0.6532382830381394,-2.10396959079206,0.8341033842325211
1789021731459369700,6.35236962890625,-0.042722704917192454,-1.473061797505617,1.2006234512463212
1789021731469371600,6.36237158203125,0.37613077592402694,-0.9439642733991146,1.4063915230289101
1789021731479374600,6.37237451171875,0.24474925208389758,-0.43368543153107164,1.4232652086794375
1789021731489376500,6.38237646484375,-0.060011985631287096,0.1252513505220413,1.476708045053482
1789021731499378700,6.392378662109375,-0.3378583284139633,0.6881161196738481,1.7473038321860133
1789021731509380600,6.402380615234375,-0.5443582216024399,1.0365729989916086,1.8271553675360976
1789021731519382500,6.412382568359375,-0.6432374057665466,0.8404618133485317,1.6891934423923491
1789021731529384700,6.422384765625,-0.6670879446923732,0.10629296755194663,1.283367347037047
1789021731539386600,6.43238671875,-0.9003449119031429,-0.6529015984296799,0.7355209910579026
1789021731549388500,6.442388427734375,-1.396094147028774,-1.0176420885503292,0.39122590759471054
1789021731559390500,6.452390380859375,-1.6347069421842693,-0.8237497480005025,0.25463322497755286
1789021731569392600,6.462392578125,-1.436589677415788,-0.19805062927305697,0.36400019314736126
1789021731579394600,6.47239453125,-0.9708017191812396,0.7601467521399259,0.27953780300095676
1789021731589397800,6.482397705078125,-0.2966509964957833,1.917522890073061,0.09952069693803786
1789021731599399700,6.492399658203125,0.09526157818883657,2.7889327993929385,0.17458967418670654
1789021731609401600,6.502401611328125,0.10854703008905052,3.049166620856523,0.2698458455480635
1789021731619403500,6.512403564453125,0.022475012788921594,2.6154215680927035,0.7496464009135961
1789021731629405400,6.522405517578125,-0.3187397864460945,1.4339654663920403,1.1189404626853763
1789021731639407600,6.53240771484375,-0.7589223249115049,-0.25845921300649644,1.4789118387080729
1789021731649409500,6.542409423828125,-1.3471196882404386,-1.9911352387726307,1.632305434000492
1789021731659411700,6.55241162109375,-1.9471546427488327,-3.287482040500641,0.8802779831692575
1789021731669413600,6.56241357421875,-1.4387341420985758,-3.7536131130844352,0.7094134669855237
1789021731679416600,6.57241650390625,-0.2807727516233921,-3.3594612350404263,0.7575381770767271
1789021731689418500,6.58241845703125,0.10566066099777817,-2.365242107653618,0.37803997054621574
1789021731699420700,6.592420654296875,-0.0008368892155587673,-1.1973065817832946,0.301830737221241
1789021731709422600,6.602422607421875,0.33004677788019177,-0.16469430311620234,0.7296412853695452
1789021731719424500,6.612424560546875,0.4925602298259735,0.49256432147920126,0.3876052328795194
1789021731729426700,6.6224267578125,0.10609656819701194,1.0675099890470505,-0.10991656487658619
1789021731739427800,6.632427734375,-0.04751330019459128,1.6679466562241314,1.0112439119458199
1789021731749430000,6.642429931640625,0.13783143063187597,1.655782171177864,1.6341520847804842
1789021731759432000,6.652431884765625,0.2096574804365635,1.2244430105119943,1.0162823445044458
1789021731769433900,6.662433837890625,0.5516929484046995,0.5571007987976074,0.635888796569407
1789021731779436800,6.672436767578125,0.4070563678026199,-0.32263562484085556,0.3753917941249907
1789021731789439000,6.68243896484375,-0.2425041035056114,-1.2795271843522786,0.15574001228809356
1789021731799441000,6.69244091796875,-0.5516739514432847,-2.2348867119908333,0.32206820021644234
1789021731809442800,6.70244287109375,0.2903355297386646,-2.8357798907637592,0.5841882738180458
1789021731819445000,6.712445068359375,1.9046086095727979,-2.720897958564758,0.2681656373761594
1789021731829447000,6.722447021484375,1.6655787580490111,-2.2779531157791615,-0.8713450273901223
1789021731839448800,6.73244873046875,0.3018612784899771,-1.3640624936044214,-1.7572186386093496
1789021731849450800,6.74245068359375,-0.06941548153162003,-0.0367822089523077,-0.9946209861859678
1789021731859453000,6.752452880859375,0.5427693449757993,1.0127730212092398,-0.7023094801992178
1789021731869454800,6.762454833984375,1.292187197830528,1.709607869389653,-0.2880462497577071
1789021731879458000,6.7724580078125,1.5433574228726326,1.8247820625334976,0.42183980317562814
1789021731889460000,6.7824599609375,1.102383587899059,1.3155366553664207,0.2652437585800886
1789021731899461600,6.792461669921875,0.3705123515203595,0.41191257566213607,0.07569003175646066
1789021731909463800,6.8024638671875,-0.20146365258693694,-0.5699304697543383,-0.08701894276142119
1789021731919465700,6.8124658203125,0.37545828348994253,-1.3347943135440348,0.2963631194651127
1789021731929468000,6.822468017578125,1.4924400133229792,-2.0032330883234737,0.3219701466694474
1789021731939469800,6.8324697265625,1.219505700240284,-2.3739842170357703,-0.6107113929539919
1789021731949472000,6.842471923828125,-0.4076772761799395,-1.877040657559037,-1.7292264698341488
1789021731959474000,6.852473876953125,-0.8709761940777301,-0.6766904702961445,-1.631173507361114
1789021731969476900,6.862476806640625,-0.2672678117536008,0.34424773719012736,-1.6564397583037613
1789021731979478800,6.872478759765625,0.9292308146476745,0.7174182020038365,-1.0672317566275595
1789021731989480700,6.882480712890625,1.9334430743910371,0.022027122890949248,-0.41244390605986114
1789021731999483000,6.89248291015625,1.3977915985964238,-1.3568547541826963,-0.7565595413029194
1789021732009484800,6.90248486328125,-0.23479645173773167,-2.4157640881448983,-1.1869929853007197
1789021732019487000,6.912487060546875,-1.458527952979505,-2.525746557864547,-1.5576356852024793
1789021732029489000,6.922489013671875,-1.3667923569597302,-1.8987392791479825,-1.9294784085437655
1789021732039490800,6.93249072265625,-0.860866303473711,-1.2237807472109794,-2.226848659224808
1789021732049492700,6.94249267578125,-0.2896595301732421,-0.5503641840189695,-2.1271184111893175
1789021732059494700,6.95249462890625,-0.058238546217978,0.01563186889588833,-1.4970482377707957
1789021732069497900,6.962497802734375,0.2906067478954792,0.41223172461390495,-0.43288142167180776
1789021732079500000,6.9725,0.48495793812870974,0.3742529993534088,0.08646744635850191
1789021732089502000,6.982501953125,-0.09863529240563511,-0.05957739360630512,0.20792788016498087
1789021732099503900,6.99250390625,-1.5207821645796298,-0.4745370818793773,0.23056553616970776
1789021732109505800,7.002505859375,-2.3476842391312123,-0.5168991367906332,-0.23738486079573629
1789021732119507700,7.0125078125,-1.6204343789428473,-0.16726035421192645,-0.43885202051401134
1789021732129510000,7.022510009765625,-0.5986608896762132,0.25306466048657894,-0.28029110558629033
1789021732139511800,7.03251171875,-0.022197511021792887,0.27532851474285125,-0.11816636069715022
1789021732149514000,7.042513916015625,-0.1403252932742238,0.07554068641364574,0.13178250585645437
1789021732159517000,7.052516845703125,-0.5375365588888525,-0.40730771221518514,0.7299383686199784
1789021732169518800,7.062518798828125,-0.39848961498737334,-1.1045873815536498,1.0360077663242817
1789021732179520800,7.072520751953125,0.43868776986300945,-1.0999585527092217,0.12647884649038313
1789021732189522700,7.082522705078125,0.1759463494926691,-0.078091539940238,-0.19353578219711778
1789021732199524900,7.09252490234375,-0.6749772366374731,1.2071721422374249,-0.401776381573081
1789021732209526800,7.10252685546875,-0.5604442640066146,2.4587889908790586,-0.8208373676851392
1789021732219529000,7.112529052734375,0.11926526184976101,3.017639263692498,-0.7452446588233113
1789021732229531000,7.12253076171875,1.2684198071435093,2.961481907662749,-0.5548550656974315
1789021732239533000,7.132532958984375,2.4655270669624207,2.3788678974241018,-0.6571385053470731
1789021732249535700,7.14253564453125,2.403853870120644,0.9773480720847845,-0.7743348519682883
1789021732259538000,7.152537841796875,1.9344711022645233,-0.25313304954767224,-0.7312608493953943
1789021732269539800,7.162539794921875,2.3245760430052873,-0.06744564276337624,-1.1734981284335255
1789021732279541800,7.172541748046875,3.0806293883517384,0.7264911507755517,-1.517152283644676
1789021732289544000,7.1825439453125,2.8092782528072595,0.14587678992152214,-1.8273586350232363
1789021732299545900,7.1925458984375,1.867672817493975,-0.7268512162595987,-1.8286857919737696
1789021732309547800,7.2025478515625,1.19550625436306,-0.4152870205312967,-2.0396455871805546
1789021732319549700,7.2125498046875,0.7808245062485337,0.5414718525111675,-2.1252698607131837
1789021732329552000,7.2225517578125,0.5166162281960248,1.5646464407473801,-2.2884043671667573
1789021732339554800,7.232554931640625,-0.09402794474065303,1.7502479228138923,-2.1386577500745654
1789021732349557000,7.242556884765625,-0.26867753242105247,1.2186053903996943,-1.514992767523229
1789021732359559000,7.252558837890625,0.0823439366877079,0.45402328616082666,-1.075707324028015
1789021732369560800,7.262560791015625,0.6085100835174322,-0.4000988037496805,-0.8032005887076258
1789021732379562800,7.272562744140625,1.4443781393349169,-1.148636366638541,-0.6830857242912054
1789021732389564700,7.282564697265625,1.8195804022371769,-1.328542851933837,-0.7186468670159578
1789021732399566800,7.29256689453125,1.2737716895654796,-0.9348281962633133,-0.8240501922518014
1789021732409568800,7.30256884765625,-0.011599252378940581,0.23284312571287155,-1.293637250508368
1789021732419571000,7.312571044921875,-0.0677107234403491,1.454165958377719,-1.2703329472884535
1789021732429572900,7.32257275390625,1.219348025460541,1.2718459821999073,-0.5118330855727196
1789021732439575800,7.332575927734375,1.8998732516139745,0.4949748897522688,-0.12631021192520855
1789021732449577700,7.34257763671875,1.9172586861789225,-0.41481355780065055,0.1066734913021326
1789021732459580000,7.352579833984375,1.6001128909260034,-1.3168617664903401,0.3320376594364643
1789021732469581800,7.362581787109375,1.020831532241404,-2.200740112239122,0.35717005486637354
1789021732479583700,7.372583740234375,0.869572172498703,-2.691550868049264,-0.5605465553373098
1789021732489586000,7.3825859375,1.200390227012336,-2.464872110185027,-1.4975406974628567
1789021732499587800,7.392587890625,1.7824600473716854,-2.4947487775325774,-1.3949734724357723
1789021732509590000,7.402590087890625,1.4988935733765363,-2.736300694879889,-0.9233283126056194
1789021732519592000,7.412592041015625,0.578148263001442,-2.714144977173209,-0.3783358847528696
1789021732529595000,7.422594970703125,-0.7985372730717063,-2.413045476835966,-1.050378821504116
1789021732539596800,7.4325966796875,-1.538070276249945,-1.9724626870065927,-1.811155688241124
1789021732549599000,7.442598876953125,-1.7619336844325064,-1.4990531478524207,-2.1484318328529595
1789021732559601000,7.452600830078125,-2.0837702678501606,-0.6538274811029434,-1.7361366876140236
1789021732569602800,7.462602783203125,-1.7747440661668776,0.033325931018590924,-0.7945581403076648
1789021732579605000,7.47260498046875,-0.9749100312829017,0.41971243575811384,-0.8035778975874185
1789021732589606700,7.482606689453125,-0.948325683479011,1.0244073449015616,-1.1151660587131977
1789021732599608800,7.49260888671875,-0.9929492535814642,1.5581816286474466,-1.0501280616134405
1789021732609610800,7.50261083984375,-0.9383948027037083,1.8185101426571606,-0.8493611591190099
1789021732619614000,7.512614013671875,-0.5359038431204856,1.962263949075341,-0.47362639677524565
1789021732629615900,7.522615966796875,-0.1592763697206974,2.0734604707598683,-0.2741758375763893
1789021732639617800,7.53261767578125,0.34581469424590466,2.080018221840262,-0.32519057002067564
1789021732649619700,7.54261962890625,0.5499054804660379,1.899997170254588,-0.15523235502690075
1789021732659622000,7.552621826171875,0.20353877836056053,1.8387024513363837,0.023368308366835115
1789021732669623800,7.562623779296875,-0.3885936593949795,1.709145512574911,-0.378641005179286
1789021732679625700,7.572625732421875,-1.418557469379902,1.7734703929692506,-0.6863637230485677
1789021732689628000,7.5826279296875,-2.7332980059325696,1.8674013070762157,-0.5808572296991944
1789021732699629800,7.5926298828125,-3.483208026218414,2.0033195975631473,-0.6530874763906002
1789021732709632800,7.6026328125,-3.5240824729204174,2.0053601634800433,-0.9610366964921355
1789021732719634700,7.612634765625,-2.5894237880051136,1.5463351235091685,-1.0447621506661176
1789021732729636900,7.622636962890625,-0.021254384952783582,-0.8676227919965982,-1.7802701361119746
1789021732739638800,7.632638671875,1.7488345488846302,-4.896537531816959,-2.8253990742638706
1789021732749640700,7.642640625,-1.766499969434738,-8.394023089712858,-0.9789157597929239
1789021732759643000,7.652642822265625,-4.286989921945334,-10.307177263182401,1.4749936423510313
1789021732769644800,7.662644775390625,-1.211759470027685,-10.634297924482821,1.0811775721326469
1789021732779646700,7.672646728515625,3.4554274543672796,-9.970482133328915,-0.13053162901252507
1789021732789649000,7.68264892578125,3.3504636895924804,-8.191064814653993,-1.4458300917088984
1789021732799651600,7.692651611328125,-1.1328338173508643,-5.1430894494086505,-0.8726111018031835
1789021732809653800,7.70265380859375,-2.3686487012267112,-2.4908973628014324,0.11386515637189148
1789021732819655700,7.71265576171875,-1.2477473137319086,-1.2842588890492916,0.4319482324749231
1789021732829657900,7.722657958984375,-0.5142511795651167,-1.2468074025332927,0.8422825990349054
1789021732839659800,7.73265966796875,-0.5174317092973738,-1.8812609056025742,0.36179946823269127
1789021732849662000,7.742661865234375,-0.5973779371935873,-1.8918366601526737,-0.19640140076130627
1789021732859663600,7.75266357421875,-0.804091692328453,-0.9863584770143031,-0.26670506330430505
1789021732869665500,7.76266552734375,-0.9146224435806274,0.3771814540207386,-0.01953822868466377
1789021732879667700,7.772667724609375,-0.9231221225090325,1.5550187807023523,0.5574865832448005
1789021732889669600,7.782669677734375,-0.7313662094660103,2.3122259722590446,0.845968594071269
1789021732899672800,7.7926728515625,-0.6521038721807301,2.784507968688011,0.18860592457950115
1789021732909674800,7.8026748046875,-1.006771150445938,3.315529154333472,-0.9303627412870525
1789021732919676700,7.8126767578125,-1.3675139492325483,3.9743776784688234,-1.319450613939762
1789021732929678600,7.8226787109375,-1.4600702139854431,4.242672641313076,-1.1700871509462594
1789021732939680800,7.8326806640625,-1.1985289631851017,3.9171529854685065,-0.818213448922336
1789021732949682700,7.8426826171875,-1.0324755005449056,2.8315836081176995,-0.9824673147946595
1789021732959684600,7.8526845703125,-0.6804226425617933,1.1283610558509827,-1.3984127992346882
1789021732969686800,7.862686767578125,-0.07187924129664898,-0.8137474094241857,-2.0673849502384662
1789021732979688700,7.872688720703125,1.0297906453751027,-2.851144633156061,-2.269954810501635
1789021732989691600,7.882691650390625,1.771581364352256,-4.389494018608332,-1.7320009029835461
1789021732999693600,7.892693603515625,1.471805513834208,-5.140894569712877,-0.9716396313101052
1789021733009695700,7.90269580078125,1.0140257977493106,-5.072337166315317,-0.21781097627580165
1789021733019697700,7.91269775390625,1.3773100977122783,-4.512603096404671,-0.03482873679697513
1789021733029699800,7.922699951171875,0.7739397151708602,-4.106832092237473,-1.056574169012904
1789021733039701800,7.93270166015625,0.18220131823420524,-3.790703365072608,-1.4204144954234361
1789021733049704000,7.942703857421875,0.0644615123860538,-3.6220460035443303,-0.7131234274193644
1789021733059705900,7.952705810546875,0.16115896859690546,-3.6964088783502578,-0.3310547858789563
1789021733069708800,7.962708740234375,0.6671446433156728,-3.7287931446045635,-0.25293168175667524
1789021733079710700,7.972710693359375,0.6161041919082403,-3.526481935277581,-0.12149316703230142
1789021733089712600,7.982712646484375,-0.563190274779126,-3.048471624329686,-0.041215515224635596
1789021733099714800,7.99271484375,-1.1224603804398328,-2.1785124983400106,-0.0433636331692338
1789021733109716700,8.002716796875,-0.8582184193134307,-1.1812047572880984,-0.15419745902121065
1789021733119719000,8.012718994140625,0.12994798390567303,-0.1403191557943821,0.40331922710090873
1789021733129720600,8.022720458984375,1.1730915934592485,0.7775514759272336,1.4015215789049864
1789021733139722800,8.03272265625,0.6171914026230574,1.1343898146212101,1.193775485047698
1789021733149724700,8.042724609375,-1.1074112068027258,1.5804150877654553,0.18276041342169044
1789021733159726600,8.0527265625,-2.089507934719324,2.129282895746827,-0.8325903493210672
1789021733169729800,8.062729736328125,-2.118980697441101,2.6300427986413237,-1.2791639039978384
1789021733179731700,8.072731689453125,-1.3127718668282031,3.042542818802595,-1.4101783480912446
1789021733189733600,8.082733642578125,-0.5340718784529715,3.1873838359355924,-1.4028048967137932
1789021733199735600,8.092735595703125,-0.6511573120456189,3.098097532764077,-1.7468237935841082
1789021733209737700,8.10273779296875,-1.659209807538986,2.9645418797552585,-2.302448674610257
1789021733219739600,8.11273974609375,-2.087415346354246,3.0977661088526247,-2.50603618748337
1789021733229741800,8.122741943359374,-1.4527625213205813,3.3754157600194215,-2.5260022861912845
1789021733239743700,8.13274365234375,-0.47195700225830073,3.3778117152452465,-2.6434432552233336
1789021733249745700,8.14274560546875,0.31766280486434695,2.963314968308806,-2.3101360142424703
1789021733259748600,8.15274853515625,1.0463511734232307,2.4044448217511176,-1.9685741551354525
1789021733269750800,8.162750732421875,1.6231404230311512,2.304665766137838,-1.6477651611998676
1789021733279752700,8.172752685546875,2.2663582473143933,2.307599481502175,-2.0895739856928586
1789021733289754600,8.182754638671875,4.999542563739419,2.3082401174932716,-2.750443786522746
1789021733299756800,8.1927568359375,9.430880750864743,1.387357444474101,-2.385430032418668
1789021733309758700,8.2027587890625,5.604996766817569,-1.5621470251470804,0.393309289740026
1789021733319761000,8.212760986328124,-0.34517420438528057,-5.126356341272592,0.4519239757940173
1789021733329762800,8.2227626953125,-2.726485111047327,-4.118951569098234,-1.0389531721264122
1789021733339764700,8.2327646484375,-2.46267576918453,0.06394026499092578,0.9211422007381915
1789021733349767700,8.242767578125,-0.07502689167261123,0.12202888134419917,2.6599001767665147
1789021733359769900,8.252769775390625,-0.5169727865487337,-3.6096640763550996,2.8756615270361303
1789021733369771800,8.262771728515625,-2.01093387195915,-6.943086614775657,1.2864926394507288
1789021733379773700,8.272773681640626,-3.5348768386572598,-3.2232728954404593,-1.049584456256032
1789021733389776000,8.28277587890625,-2.1601737085729837,-0.3269832986563444,0.349934842915833
1789021733399777500,8.292777587890624,-0.42219022404849527,-1.9100293194472788,0.9946490432366728
1789021733409779700,8.30277978515625,-1.0272948830366133,-2.4298686013430357,-0.20264321776032446
1789021733419781600,8.31278173828125,-0.13767887041866778,-1.168633445006609,-1.0060799533113836
1789021733429783800,8.32278369140625,0.9314914530560374,1.0532131681472063,-1.8590037733480334
1789021733439786800,8.332786865234375,1.468322786284983,2.4422189643502232,-1.2275415610492229
1789021733449789000,8.342788818359375,2.0141849827095863,2.492582539409399,-0.5016296714663505
1789021733459790600,8.35279052734375,2.276361462673545,1.9308213475853204,-0.47617783482372755
1789021733469792500,8.36279248046875,2.5545292924955487,1.735658256447315,-0.9465379232794046
1789021733479794700,8.372794677734374,2.7025445557504892,2.1065590227633715,-1.4201380165696142
1789021733489796600,8.382796630859374,2.749903103774786,2.5267040047198535,-1.4902420648872852
1789021733499798800,8.392798828125,2.8228575730875134,2.7109265996485945,-1.0576219245001672
1789021733509800700,8.40280078125,2.8507971348926424,2.467059975618124,-0.624370500472188
1789021733519803000,8.412802978515625,2.970109743015468,1.9524106635808944,-0.2569564072281122
1789021733529805600,8.4228056640625,2.949394871766865,1.448318985915184,-0.5814785764679312
1789021733539807700,8.432807861328126,2.3444088707223534,1.4960551350802183,-1.506837225857377
1789021733549809700,8.4428095703125,0.7018754726961255,2.2105086420595645,-2.218885425260663
1789021733559811800,8.452811767578124,1.2324933382377028,2.325406940871477,-1.2300792628332973
1789021733569813800,8.462813720703124,3.219861917953193,1.3294745798259973,-0.23828151737451553
1789021733579815700,8.472815673828125,3.361787632161379,-0.12559329582750797,-0.1756122952327132
1789021733589817900,8.48281787109375,0.9970549353346227,-1.3342296653985977,-0.6873503959983587
1789021733599819800,8.49281982421875,-1.5290959655471146,-1.7064385917037725,-0.4270484777346253
1789021733609822700,8.50282275390625,-1.872379972271621,-2.2658120116084812,-0.5792404421523213
1789021733619824600,8.51282470703125,-1.1253118974134326,-2.9288866290062665,-0.8544494221687317
1789021733629826800,8.522826904296876,-0.137988082498312,-2.990353197360039,-0.231115279006958
1789021733639828700,8.532828857421874,-0.2938249792896211,-2.2912241007626055,0.2563075879305601
1789021733649831000,8.542830810546874,-0.48892801080346104,-1.5101877053290604,0.94597765904814
1789021733659832800,8.552832763671875,-0.3674212536372244,-1.0350462278157473,1.3953595491439104
1789021733669834500,8.56283447265625,-0.04179916033148765,-0.5903209313541651,1.821459932373464
1789021733679836700,8.572836669921875,0.16004910765886307,-0.32865269317328927,2.064642811923474
1789021733689838600,8.582838623046875,-0.08056121798940002,-0.7143804417431354,1.9867168378084896
1789021733699840800,8.5928408203125,-0.9469827444374561,-1.3722376167535781,2.1781801976457236
1789021733709843700,8.60284375,-1.5196166279315948,-1.9324381351321935,2.402302402894944
1789021733719846000,8.612845947265624,-1.658432393425703,-2.387037759876251,2.0958673867486417
1789021733729847600,8.62284765625,-1.988508397400379,-2.743987157729268,1.2351703023619949
1789021733739849700,8.632849609375,-1.9266683195590972,-3.2563071500360965,0.15639730715304612
1789021733749852400,8.642852294921875,-1.9580290879845619,-3.3629911627322433,-0.8915776680797338
1789021733759854600,8.6528544921875,-1.7004010651051997,-2.540432670342922,-1.872088880370557
1789021733769856500,8.6628564453125,-1.1429108285985887,-0.8020166396200656,-2.42038648724854
1789021733779858700,8.672858642578126,-0.7798702742636203,0.9480407290577888,-2.482880060562491
1789021733789860600,8.682860595703126,-0.4092576772391796,1.9669781181156634,-2.299082413047552
1789021733799863600,8.692863525390624,0.17749482104368508,2.1863252179175614,-1.8075740303620695
1789021733809865500,8.702865478515625,0.7541583253800869,1.9156436521977185,-0.8068275470331311
1789021733819867600,8.71286767578125,0.5467899057287723,1.2254366977244615,-0.002568681444227695
1789021733829869600,8.72286962890625,-0.21122275699190793,0.37700960458517074,-0.5938946981877088
1789021733839871500,8.73287158203125,-0.8627858733594417,-0.4026075717002153,-1.2986609238892792
1789021733849873700,8.742873779296875,-0.6926140886802226,-1.1502338649630546,-0.81776775098145
1789021733859875300,8.752875244140625,-0.40214061177559196,-1.5614748249739407,0.06579436842501163
1789021733869877500,8.76287744140625,-0.7837421472609043,-1.8397294562965631,0.10771306348294019
1789021733879879400,8.77287939453125,-1.0353156924068927,-2.0340192717313763,0.44526042625159024
1789021733889882600,8.782882568359375,-1.083159978121519,-1.5876520532816647,1.9604694668740033
1789021733899884500,8.792884521484375,-1.680433797353506,-1.1603566150486468,2.3365935207962987
1789021733909886700,8.80288671875,-1.9873674106717107,-1.1043886441111563,1.965360161525011
1789021733919888400,8.812888427734375,-1.9530255806088446,-0.9339753788262605,1.170934707686305
1789021733929890300,8.822890380859375,-1.6064952854394912,-0.33118075034618377,1.204999182112515
1789021733939892500,8.832892578125,-0.641705666154623,0.28882512517571446,1.28965168800354
1789021733949894400,8.842894287109376,0.7864052289903164,0.29206045383512974,0.8867439643129705
1789021733959896600,8.852896484375,0.7729846064031124,-0.06583703852295875,0.3075032298997044
1789021733969898500,8.8628984375,-0.04877838822696358,-0.12631751844882963,0.07602116340696811
1789021733979901400,8.8729013671875,0.1988309477294795,-0.12035714873969554,0.2694081847831607
1789021733989903400,8.8829033203125,0.8877531413555144,-0.30635493664741514,0.3285650148898363
1789021733999905500,8.892905517578125,0.39164953983426093,-0.5319722027599811,-0.5593471164196729
1789021734009907500,8.902907470703125,0.6277578048229218,-0.4066740904867649,-0.09083236356973648
1789021734019909600,8.91290966796875,1.1366939999103545,-0.45126083571016784,0.2978051349669695
1789021734029911600,8.92291162109375,1.7374644290864467,-0.8813771765828132,0.1484384571030736
1789021734039913500,8.93291357421875,1.2890052067935467,-1.4648738148748874,-0.4707514258608222
1789021734049915600,8.94291552734375,0.2306055759191513,-1.7352625351279973,-0.9207210527166724
1789021734059917600,8.95291748046875,-0.20594225930571555,-1.6042448761641979,-1.2540189413473009
1789021734069920500,8.96292041015625,-0.14050386471152304,-1.285798519706726,-1.7104457815185188
1789021734079922400,8.97292236328125,0.5811036056756973,-0.7320552146434783,-1.3520572907730937
1789021734089924600,8.982924560546875,1.2421452559411525,-0.26498481538295743,0.024551672932505608
1789021734099926500,8.992926513671875,1.7919477144241331,-0.3589917173355818,1.6493337256908416
1789021734109928700,9.0029287109375,1.4818892470836638,-1.0296657038211823,1.6632374556198715
1789021734119930600,9.0129306640625,-0.2742098129112273,-1.5728648185163736,0.23279607170075176
1789021734129932300,9.022932373046874,-1.4342904605627058,-1.2291186011075972,-0.22045243069529533
1789021734139934500,9.0329345703125,-1.2041980948626994,-0.3480348545134067,-0.20187194112688303
1789021734149936400,9.042936279296875,-0.45956974130682643,0.5194061511754989,-0.45073681183606384
1789021734159939600,9.052939697265625,0.725258467175439,0.862196090772748,-0.36379970213919877
1789021734169941500,9.06294140625,1.2132301271021366,0.3029278848081827,0.0013026070311665534
1789021734179943700,9.072943603515625,0.1404840640325099,-0.8687287074118852,-0.2636176186829805
1789021734189945300,9.0829453125,-1.3637141185581683,-1.8272405616015195,-0.4069719043895602
1789021734199947500,9.092947509765626,-2.2716017009258267,-2.0851965012609956,-0.8911080047413706
1789021734209949400,9.102949462890624,-2.5729016922712327,-1.2636504007846117,-0.9389338780164718
1789021734219951600,9.11295166015625,-0.9906757556915282,0.11602233440577983,-0.47093759608268737
1789021734229953500,9.12295361328125,1.0719546934962272,0.9442068499833345,-0.698405750758946
1789021734239955500,9.13295556640625,1.3413655086278915,1.3910568835139274,-1.0010349448814988
1789021734249957600,9.14295751953125,0.40719782209992406,1.76666422008574,-1.4690414559483527
1789021734259960300,9.152960205078125,0.420230614413321,1.9736662175774573,-1.7185037080287933
1789021734269962500,9.16296240234375,1.4975861440397797,1.8382927014917134,-1.7167577411442994
1789021734279964400,9.17296435546875,2.4977871223151684,1.389088213789463,-1.7018915959239005
1789021734289966600,9.182966552734374,3.2208114737629887,1.315111123430729,-2.0572645382404326
1789021734299968500,9.192968505859374,3.683959438882768,1.753556901231408,-1.4477756728187203
1789021734309970700,9.202970703125,2.82024329893589,1.707690637591481,-0.06036299102604389
1789021734319972600,9.21297265625,1.222640345004201,0.41637773837745184,1.0345116825476288
1789021734329974500,9.222974609375,-0.4422784878313541,-0.7378069100379944,0.3264107594653964
1789021734339976400,9.2329765625,-2.1019871848031877,0.48332069231569763,-0.5089496390908956
1789021734349979400,9.2429794921875,-0.8939248157277703,2.09339500528574,0.18284400005191564
1789021734359981600,9.252981689453126,1.2782274999305605,1.627085069003701,1.6846031919926403
1789021734369983500,9.2629833984375,2.2830647597044704,-1.3975924227625132,1.8895716378301382
1789021734379985700,9.272985595703124,2.1906959803476926,-3.507463931074738,0.32744068703502416
1789021734389987600,9.282987548828125,1.3767393120869993,-2.7500620937287805,-0.965916285227239
1789021734399989500,9.292989501953125,0.1629427832737565,-0.8309095566272735,-1.4101713338285684
1789021734409991400,9.302991455078125,0.3100242728099227,-0.6016986499369144,-0.4808253683686256
1789021734419993300,9.312993408203125,0.5006462133869528,-1.2986240990102291,-0.19872896692603825
1789021734429995500,9.32299560546875,-0.9301786168918013,0.02227846730351448,-0.9161576903238892
1789021734439998700,9.332998779296876,-0.35646132207512854,2.071868817654252,-0.6402139662921428
1789021734450000600,9.343000732421874,1.35593413220644,2.451317047563195,-0.11124620604515074
1789021734460002300,9.353002197265624,2.4024925186395643,1.8851321940779684,0.07171002220958471
1789021734470004500,9.36300439453125,2.769631009812653,1.2838427094638347,0.029099545495212077
1789021734480006400,9.37300634765625,2.616701963292062,1.2178215465456246,-0.8368708031192421
1789021734490008600,9.383008544921875,2.0262249645933506,1.5224778625816107,-1.4919856936842202
1789021734500010500,9.393010498046875,2.3360133828207847,1.3730261367827654,-0.8045482039242983
1789021734510012700,9.4030126953125,2.953294801814854,0.6541939763277769,0.09136603205502032
1789021734520014600,9.4130146484375,2.359672783088684,0.29579379514455795,0.29839784016311166
1789021734530017500,9.423017578125,0.22987024738192557,0.8860995289295911,-1.2297902167588473
1789021734540019500,9.43301953125,-0.8595638425730169,1.900474724638462,-2.7268898924559353
1789021734550021400,9.443021484375,-0.09971826533675193,2.7969734825074672,-2.448564826245606
1789021734560023600,9.4530234375,1.4830771416939794,3.458088198009133,-0.5517196902811526
1789021734570025500,9.463025390625,2.3693995195940136,3.570680557966232,0.19109569556862116
1789021734580027600,9.473027587890625,1.8868366599082946,3.49022754959166,0.17361761428415776
1789021734590029600,9.483029541015625,0.49473582029938695,3.2492180685579775,-0.12125029818713665
1789021734600031500,9.493031494140626,-0.9984032812036573,2.7397932131707665,-0.6451970154017209
1789021734610033400,9.503033447265626,-1.2298562677323817,1.74545893497169,-0.1290750004634261
1789021734620036600,9.51303662109375,-0.6818739373486489,0.31982582811713217,0.8847340857952832
1789021734630038500,9.52303857421875,-0.3272176919341087,-1.7153718397438524,1.268776365496218
1789021734640040400,9.53304052734375,-0.35276955488510425,-3.727968968740105,0.6515000610686839
1789021734650042600,9.543042724609375,-0.6593219868659973,-5.390782353729009,0.49057913901135325
1789021734660044500,9.55304443359375,-1.1804688442289828,-6.564017739573121,0.5160974650189281
1789021734670046500,9.56304638671875,-1.2010381695270538,-6.9267404601305715,0.8112105844229459
1789021734680048400,9.57304833984375,-0.717320586848259,-6.348304612359404,1.757766335619986
1789021734690050600,9.583050537109376,-1.0771744739711284,-5.42729860522151,1.7772803066462277
1789021734700052500,9.593052490234374,-1.481122354364395,-3.6121535550832746,0.3872835997097194
1789021734710054400,9.603054443359374,-2.025008282279968,-1.306330435603857,-1.5392726377770303
1789021734720057600,9.6130576171875,-2.636920867717266,-0.30815351050198075,-2.707289119929075
1789021734730059500,9.6230595703125,-2.506843704473972,-0.5752087024182081,-2.8285394181162116
1789021734740061400,9.6330615234375,-1.4271838434278965,-1.3312030110538005,-2.1695858261711893
1789021734750063600,9.643063720703125,-0.22268767893407493,-1.9623866986721752,-0.8674002352871
1789021734760065800,9.653065673828126,0.37185879769325253,-2.2562211764425038,0.33305326621979475
1789021734770067700,9.663067626953126,0.38366730890870093,-1.8447908313393593,0.7606095473460852
1789021734780070000,9.67306982421875,0.16482582054138184,-0.6350654974877834,0.5946205282442272
1789021734790071800,9.68307177734375,-0.24416999089121816,0.8092641265302896,0.5470679189525545
1789021734800073700,9.69307373046875,-0.9697405196905136,1.7823744149148464,0.44888431583717464
1789021734810076700,9.70307666015625,-1.6314800890922545,2.0411486852198837,0.1492012581691146
1789021734820078600,9.71307861328125,-1.4591618669688702,2.0614064603507516,0.15692016198337078
1789021734830080800,9.723080810546875,-0.7662075865488499,2.177405413880944,0.6310398952335119
1789021734840082700,9.733082763671876,-0.4160252716779709,2.164754022100568,0.7802011136531829
1789021734850084900,9.7430849609375,-0.632783524030447,1.5200789847463367,0.05021744458675384
1789021734860086800,9.753086669921874,-0.5761386767446994,0.22486089478731153,-1.024330188012123
1789021734870088700,9.763088623046874,0.16987492062449455,-0.5674515124201774,-0.392697587582469
1789021734880090600,9.773090576171874,0.39523850423693657,-0.9422112922519444,0.5268079518646002
1789021734890092500,9.783092529296875,-0.48094110370278353,-1.6253490389913319,0.8803542632758616
1789021734900095700,9.793095703125,-1.768915213882923,-2.500258480864763,0.8220236548602581
1789021734910098000,9.803097900390625,-2.139531318038702,-2.7346482514977453,0.060331426844000814
1789021734920099800,9.813099853515626,-0.95564769693017,-2.1410124965071677,0.8853528022155165
1789021734930101800,9.823101806640626,0.30459552575945853,-1.588227807343006,1.0546455390378833
1789021734940103700,9.833103759765624,0.047582401641737666,-1.3425368904948234,0.3702823421567678
1789021734950105600,9.843105712890624,-0.07510757395969703,-0.963034884572029,0.23027239844202993
1789021734960107800,9.853107666015624,0.6901274594962596,-0.5728156698018312,0.8259986959710717
1789021734970109700,9.863109619140625,1.5170353792667388,-0.4740530977547168,1.1822694639101623
1789021734980112000,9.87311181640625,1.0917711546003819,-0.5154805021643638,0.8900438826411962
1789021734990113800,9.88311376953125,-0.6077928751587868,-0.4927957921475172,-0.01525572905987501
1789021735000116700,9.89311669921875,-1.5585083763837813,-0.11295593257248401,-0.7702601498752832
1789021735010118700,9.90311865234375,-0.6789888103663921,0.4391711694657802,-0.9683566641166805
1789021735020120600,9.91312060546875,1.6143664572060108,0.7991840465426444,0.04214548955112696
1789021735030122800,9.923122802734374,2.7527660919904706,0.31669395983219145,0.9366448902964591
1789021735040124700,9.933124755859374,2.2068682397305963,-0.7080360411524772,1.2732836137875914
1789021735050126800,9.943126953125,0.646715018749237,-1.704693793863058,0.14212123678028582
1789021735060128800,9.953128662109375,-1.4362778349876404,-2.1848428704053164,-1.5463880227401852
1789021735070131000,9.963130859375,-1.9239339261591433,-1.8622732965379953,-1.6927105106025933
1789021735080132600,9.973132568359375,-0.9792343242228031,-1.1784236021369694,-0.9859686009138822
1789021735090135800,9.9831357421875,0.7566577409803867,-0.43459027141630646,-0.07467880888730287
1789021735100137700,9.9931376953125,1.501967573994398,-0.2291243974506855,0.03293839300572872
1789021735110139600,10.0031396484375,-0.44172436107993124,-0.38489597392082214,-1.4492650345936418
1789021735120141800,10.013141845703124,-1.4902560934126377,-0.24510171878337858,-1.5236156344398855
1789021735130143700,10.023143798828125,-1.515143866431713,-0.008761398604512215,-0.7430757903516292
1789021735140145700,10.033145751953125,-1.7682617184102534,-0.08747779244482516,-0.40724779872149225
1789021735150147600,10.043147705078125,-1.4848703087210655,-0.5974474222332239,-0.2815586413040757
1789021735160149800,10.053149658203125,-0.6404666258789599,-1.3893003952354193,-0.7101783138781785
1789021735170151700,10.063151611328125,0.5474291534803808,-1.514369959449768,-0.1272805182620883
1789021735180153600,10.073153564453126,0.6654957070648669,-1.4448264676243066,0.5660150498762726
1789021735190156800,10.08315673828125,-0.2689559109710157,-1.283323654025793,0.38565117620229716
1789021735200158700,10.09315869140625,-0.9873919117152691,-0.48102352128922937,-0.06859481279850006
1789021735210160600,10.10316064453125,-1.0429685452476143,0.8465665599644183,-0.8094581877976655
1789021735220162600,10.11316259765625,-0.5724642260156572,2.1940444139927626,-0.942447146834433
1789021735230164700,10.123164794921875,0.6516694262862205,2.9371967767119407,-0.20873627393841743
1789021735240166700,10.133166748046875,2.1544702362343666,2.8510692298322913,0.766101568891108
1789021735250168800,10.1431689453125,4.50083725528717,2.403182838991284,1.4434835285827516
1789021735260170800,10.153170654296876,4.57094305717051,2.465764675110578,0.8602066705211997
1789021735270173000,10.1631728515625,-0.3650777592509985,3.1231641694813965,-0.4115869969695806
1789021735280175600,10.173175537109374,-0.31289982824623586,3.396137061008811,0.7411889536917209
1789021735290177800,10.183177734375,2.644766320520639,1.9695517679959536,2.4664938661679625
1789021735300179700,10.1931796875,3.6317537430882454,-1.2910153775721787,1.8887591524034737
1789021735310181600,10.203181640625,1.2136214645072818,-2.561502346378565,0.46920390415787694
1789021735320183800,10.213183837890625,-1.2691586428120731,-0.12379822910428047,-0.2884291115954518
1789021735330185700,10.223185791015625,-0.03521452124416828,3.1227965052127837,-0.7207140286788344
1789021735340188000,10.23318798828125,1.9142974982857703,3.5447459062427282,-0.38343934537172314
1789021735350189600,10.243189453125,2.4850249636366963,1.9933897397011517,-0.30395225941985843
1789021735360191700,10.253191650390624,2.3623624605640767,1.0658470242708922,-0.3563274665623903
1789021735370193700,10.263193603515624,1.6425193695008753,1.0102788663059472,-0.17672580943256616
1789021735380196900,10.27319677734375,1.427680394773185,1.0744564471840858,-0.11880787347108125
1789021735390198800,10.28319873046875,1.8056211427286266,0.9785568633526563,-0.3522472115114331
1789021735400200700,10.29320068359375,2.1406290501475334,0.8594850782483816,-0.20461977853029964
1789021735410202600,10.30320263671875,2.2888459734544155,0.9165928668707609,0.14084142610281705
1789021735420204500,10.31320458984375,2.3447353261977435,0.808286221408844,0.3484329139202833
1789021735430206700,10.323206787109376,2.3461190356411037,0.6310346345365047,0.352372299195826
1789021735440208600,10.333208740234374,2.225295000042021,0.3689157299786806,0.1537818639576435
1789021735450210800,10.3432109375,1.58328289828673,0.26603169408738614,0.44616409709304566
1789021735460212700,10.353212646484375,0.7769958878710865,0.5930594164073467,0.7549795786350965
1789021735470215700,10.363215576171875,-0.17952654606699942,1.234775603955984,0.15066811585128306
1789021735480217600,10.373217529296875,-0.03446355674639344,1.766872894400358,-0.3541849015757441
1789021735490219800,10.3832197265625,0.43746202746033663,2.1085767923265695,-0.3844669348537922
1789021735500221700,10.3932216796875,0.617790537559986,2.3016052095234394,0.058170741678774354
1789021735510223600,10.4032236328125,-0.2045066735446453,2.4957985788464545,0.12589374007880688
1789021735520225800,10.413225830078124,-0.8401929332792758,2.5789947484493254,0.18758681066483257
1789021735530227700,10.423227783203124,-0.7571580917179584,2.257244674271345,0.669570701418817
1789021735540230000,10.43322998046875,-0.08640753286480903,1.365894969728589,1.5958125633835791
1789021735550231800,10.443231689453125,0.22536942883133887,-0.01646130545735359,2.4690040954232213
1789021735560233700,10.453233642578125,-0.2282446920067072,-1.4103946211904286,2.1806099090106783
1789021735570236700,10.463236572265625,-0.23216159145580603,-2.49472539665699,1.4416349781066178
1789021735580238800,10.47323876953125,-0.23648352804183959,-3.5742473105370998,1.5675389473184942
1789021735590240800,10.48324072265625,-0.5757260408231988,-4.488019859290123,1.8451603953041136
1789021735600242700,10.49324267578125,-0.9152853644687682,-4.876217212843895,2.4661335084229705
1789021735610244900,10.503244873046874,-1.328289169433713,-4.883108725923299,2.3533150846250352
1789021735620246500,10.51324658203125,-1.5992413687884806,-4.267126114568114,1.088831301756203
1789021735630248700,10.523248779296875,-1.2142932993542401,-2.876746691924333,-0.8443186349071562
1789021735640250600,10.533250732421875,-0.638244127523899,-1.6408312702834604,-2.379289045445621
1789021735650252800,10.543252685546875,-0.1416594644874334,-1.0472802709668874,-2.4609476302176714
1789021735660255700,10.553255859375,0.568213802029565,-0.6314905616104602,-1.4863827591106296
1789021735670258000,10.5632578125,1.0026637151271105,-0.44835167026519773,-0.45980245408415793
1789021735680259600,10.573259521484376,0.8884563942540437,-0.7809270898401737,-0.10195040830299258
1789021735690261500,10.583261474609374,0.542563739401102,-1.263651569828391,-0.01134162435606122
1789021735700263700,10.593263671875,-0.2933855649590492,-1.297544487079978,-0.023052228154987097
1789021735710265600,10.603265625,-0.8950877220273017,-0.7272603815823793,0.035032442675530906
1789021735720267800,10.613267822265625,-1.1711784533143044,0.07598141591846942,0.4812599603936076
1789021735730269700,10.623269775390625,-1.3336656017750501,0.6522995408833027,0.8102297566920519
1789021735740271900,10.63327197265625,-1.218480887237191,0.8905874879986048,1.111070752223581
1789021735750273500,10.6432734375,-1.144552312195301,1.0018827938824892,1.2892450068987906
1789021735760276500,10.6532763671875,-1.0294418319374323,0.8364426408350467,1.2220793501205742
1789021735770278400,10.6632783203125,-0.7236627224165946,0.6078811379641295,1.0744362811788917
1789021735780280300,10.6732802734375,-0.21547880700118838,0.6336579687774181,1.067551782362163
1789021735790282500,10.683282470703125,0.10160795154087245,0.5463660542935133,1.307809275984764
1789021735800284400,10.693284423828125,0.2138519364517182,0.2601473122239113,1.4853744588509201
1789021735810286600,10.70328662109375,0.056846434272453186,-0.19945815798342226,1.278444942073524
1789021735820288500,10.71328857421875,-0.43944399505779147,-0.8740805898338556,1.1209814669936895
1789021735830290400,10.72329052734375,-1.4051556976236401,-1.288355802974105,1.2060568744719027
1789021735840292400,10.733292236328126,-2.068396173107624,-0.9128232852041721,1.187022211395204
1789021735850294300,10.743294189453126,-2.086894537350535,-0.2666325825899839,0.9370631157085298
1789021735860297500,10.75329736328125,-1.4372031331390143,-0.02609831785261631,0.3678673899695277
1789021735870299600,10.763299560546875,0.1593142905782908,-0.32316987784802914,0.278704713177681
1789021735880301600,10.773301513671875,1.1718452466599643,-0.8194330538451671,0.36323680755943055
1789021735890303500,10.783303466796875,0.26941081513166426,-1.3041250345140696,-0.05535714556276798
1789021735900305400,10.793305419921875,-0.8033353940684348,-1.3760171352922916,-0.2517845575481653
1789021735910307300,10.803307373046875,-0.18283150589652358,-0.7824813335448503,0.4745391277059912
1789021735920309500,10.8133095703125,1.2402191101841629,-0.09220014479160309,1.071740758484602
1789021735930311400,10.8233115234375,1.7622060716331005,0.3247825737416744,0.7245514148846268
1789021735940313600,10.833313720703124,0.9616244332522154,0.5750310077637434,-0.036605975602567196
1789021735950316500,10.843316650390625,0.05840966500118375,0.7343249131411314,-0.4138113950207829
1789021735960318500,10.853318359375,0.46477278984263537,0.7497551219850778,-0.2716696999743581
1789021735970320400,10.8633203125,1.1856225737303494,0.30648937668204307,0.11277999148368835
1789021735980322300,10.873322265625,1.349068922612071,-0.7622843486905098,0.20880174039006233
1789021735990324500,10.883324462890625,1.1635539497852325,-1.931700468507409,0.5844280739232898
1789021736000326400,10.893326416015626,0.8085900266610085,-2.5197598846703766,0.9232073165744542
1789021736010328600,10.90332861328125,-0.14008885416984557,-2.531516373437643,0.07360650348067284
1789021736020330500,10.91333056640625,-0.7139416119344532,-2.454443070629239,-0.6503799709975719
1789021736030332700,10.923332763671874,-0.10358736185505986,-2.609336110699177,-0.4731953118816018
1789021736040334300,10.933334228515625,0.25139599662199613,-3.1035242339879274,-0.15644114629477263
1789021736050337500,10.943337646484375,-0.2891504116073251,-3.4331314514070748,0.2379977319970727
1789021736060339500,10.95333935546875,-1.2247982536904514,-3.1708354367166756,0.283439925006032
1789021736070341600,10.963341552734375,-2.4333650651566683,-2.361412904754281,-0.2875678185909986
1789021736080343600,10.973343505859376,-3.611617548510432,-1.1295704316407442,-1.517042393529415
1789021736090345500,10.983345458984376,-2.528144266656041,0.5585778856128454,-1.715452796025574
1789021736100347400,10.993347412109374,-0.9003799101512878,2.234346613764763,-1.2820149095147848
1789021736110349300,11.003349365234374,0.26466804105136543,3.290526815024018,-0.7713836009472608
1789021736120351500,11.0133515625,1.3014321421682833,3.6923920439243316,-0.17654168503731488
1789021736130353400,11.023353515625,1.7500421711087226,3.6211990313261744,-0.07210983518213034
1789021736140355600,11.03335546875,1.6683832940757273,3.749546009775996,-1.0780737608984112
1789021736150358500,11.043358642578125,1.9220552728056906,4.48925553856492,-1.9576237220540642
1789021736160360400,11.0533603515625,4.51974887650609,5.114394685322046,-1.2019693128973246
1789021736170362400,11.0633623046875,7.45114602702856,4.274086016708612,0.7250868369355797
1789021736180364300,11.0733642578125,5.255328758144378,1.1921540213257074,1.716751311403513
1789021736190366500,11.083366455078124,1.3913888919472694,-1.941939538449049,2.3496268976315853
1789021736200368400,11.093368408203125,-0.7338849142886698,-2.5700615004092455,1.390291159838438
1789021736210370600,11.10337060546875,-2.143781961220503,-0.944877296590805,0.4332064158424735
1789021736220372500,11.11337255859375,-1.3757342266976833,-0.0493260487049818,0.9100599579706787
1789021736230374700,11.123374755859375,0.4896645083844661,-0.16600538571476936,1.4992238282442092
1789021736240376600,11.13337646484375,1.4133961410939693,-0.08125555692911147,0.9380185167372226
1789021736250379500,11.143379638671876,1.568801806861162,0.1979360629826784,0.15514935291856527
1789021736260381400,11.15338134765625,0.47972529817223547,0.5591822812467813,-0.0870318022429943
1789021736270383400,11.16338330078125,0.5511947896242141,0.4738946923226118,0.7631427190855145
1789021736280385500,11.173385498046875,1.4232359825849532,0.5827893668055534,0.4211263942092657
1789021736290387500,11.183387451171875,1.632041376236826,1.2414853307276963,-0.0851867588981986
1789021736300389600,11.1933896484375,1.6469233035482465,2.111902721878886,-0.4051709924474358
1789021736310391600,11.2033916015625,1.8107146664753555,2.9737492685616016,-0.528462441073358
1789021736320393500,11.2133935546875,2.1693993636883793,3.5045758084177967,-0.46803018420338627
1789021736330395400,11.2233955078125,2.5537328814208506,3.4965322026938197,-0.1525166663274169
1789021736340397300,11.233397216796876,2.5573709456622598,3.194759333139658,0.27310616251826286
1789021736350400500,11.243400390625,2.115750629478693,2.8602520687192676,0.4631061718046665
1789021736360402700,11.253402587890625,1.1466238577723502,2.667698867818713,0.03169774529486894
1789021736370404600,11.263404541015625,0.3823953162115067,2.475650109308958,-0.8376546469733118
1789021736380406300,11.27340625,0.35270047170426694,2.365377716732025,-0.9716931150630116
1789021736390408400,11.283408447265625,0.5180278485596179,2.37064659704566,-0.6927519627809524
1789021736400410400,11.293410400390625,0.1900456019937992,2.5430261939674614,-0.4404439658805728
1789021736410412500,11.30341259765625,-0.09671090021431446,2.442549803739786,0.1199754559457302
1789021736420414500,11.31341455078125,-0.6773059718459844,1.8024486501723527,0.5253805494099855
1789021736430416600,11.323416748046874,-1.5278572175323961,0.957988122576475,0.2512362760156393
1789021736440418600,11.33341845703125,-1.8122247787773609,0.08898644344210624,0.23103519950807094
1789021736450421500,11.34342138671875,-0.9238836084008216,-1.0801824236154556,0.5987590893536806
1789021736460423400,11.35342333984375,0.3789753517001867,-2.6678713017761706,1.435922153417766
1789021736470425300,11.36342529296875,1.2178443428993224,-4.597776703560352,1.9021154775828122
1789021736480427500,11.373427490234375,1.2078086865752935,-6.486701860180497,1.7725494787320493
1789021736490429400,11.383429443359375,0.879003433188796,-7.455888253119587,1.2382274979755281
1789021736500431600,11.393431640625,0.275948107945919,-7.277092359414696,1.1256076654896139
1789021736510433500,11.40343359375,-0.23425766868591308,-6.281015036940574,1.170362168495357
1789021736520435500,11.413435546875,-0.4711895250171423,-5.003966225400567,0.9018883419528603
1789021736530437400,11.423437255859374,-0.3334697380661964,-3.5187726760745046,0.5289388264134526
1789021736540439300,11.433439208984375,-0.46773500064909457,-2.260657697585225,-0.12209084066450596
1789021736550442500,11.4434423828125,-1.1458546269655228,-1.5005144525766372,-0.8403678514547646
1789021736560444400,11.4534443359375,-1.8387768317468463,-0.782021314817667,-1.2841434459760783
1789021736570446600,11.463446533203125,-2.3019424786537885,0.1561257967352867,-1.3241684362418948
1789021736580448500,11.473448486328126,-2.2342244486898184,1.0187380670934916,-0.6047863868191838
1789021736590450400,11.483450439453126,-1.9226982468843459,1.576748966473341,0.20229908049777148
1789021736600452400,11.493452392578124,-1.4962322452127932,2.0131629461854694,0.42042920572534204
1789021736610454500,11.50345458984375,-0.9286164090763777,2.341201891374588,0.3932788946017623
1789021736620456400,11.51345654296875,-0.5079074365615844,2.3712924937337636,0.1705348458379507
1789021736630458400,11.523458251953125,-0.7128461448479443,2.2921879773586986,0.29707243677824735
1789021736640460500,11.53346044921875,-0.7741958088237791,2.500084877863526,0.4763669276550412
1789021736650463500,11.54346337890625,-0.374458239601925,2.610157948476076,0.6631307314991951
1789021736660465400,11.55346533203125,-0.04220481852293014,2.2512439725518227,0.40213673931807276
1789021736670467300,11.56346728515625,0.05177059231288731,1.7946996434807776,0.017511983554065226
1789021736680469500,11.573469482421874,-0.050588031464815136,1.3664181168198584,-0.14813655154705047
1789021736690471400,11.583471435546874,-0.12141096864156424,0.7042769808799028,-0.17254618566036223
1789021736700473600,11.5934736328125,-0.3932067792136222,-0.35392508159577846,-0.5390162760525942
1789021736710475500,11.6034755859375,-0.9288502908974885,-1.2011106502413749,-0.31355683085024355
1789021736720477700,11.613477783203125,-1.3520591904692352,-1.6641642150759697,0.09642185413986444
1789021736730479400,11.623479248046875,-1.0226076020032167,-2.5409295139491554,0.5768748820647597
1789021736740481300,11.633481201171875,-0.2850033749304712,-3.691515845611691,0.4602706561177969
1789021736750483000,11.64348291015625,0.4474813171714544,-4.078946890968084,1.274487144358456
1789021736760486100,11.653486083984374,1.4318810613334179,-3.7247792327880855,2.5807901074334976
1789021736770488000,11.663488037109374,2.0375247956342992,-3.254251386550069,2.6404665775001046
1789021736780490000,11.673489990234375,1.0359019678622483,-2.848150712037086,1.2806228706344962
1789021736790492200,11.6834921875,-1.0948369719117879,-2.3007658360898495,-0.37818332453966136
1789021736800494000,11.693494140625,-0.918607859954983,-1.4515385324835777,-0.3217629336595535
1789021736810496000,11.70349609375,0.3528649050183594,-0.9183312349706888,-0.5816662079945206
1789021736820498000,11.713497802734375,0.5478671065062284,-0.6339227571934462,-0.7461062440887093
1789021736830500000,11.7235,0.5796108828999101,-0.4260720339179039,0.22457067966908215
1789021736840502000,11.733501953125,1.1720995136819778,-0.39903380486667156,0.9869920987427234
1789021736850504000,11.74350390625,0.5348353371061384,-0.5847586210519075,-0.0021337971583008765
1789021736860507100,11.753507080078125,-1.1048106689155102,-0.5606278038799762,-1.2447577765271067
1789021736870508800,11.7635087890625,-1.6093823851831257,-0.2745633755892515,-1.601109500747919
1789021736880511000,11.773510986328125,-0.2967547491312027,-0.06500526387393474,-0.909777926158905
1789021736890513000,11.783512939453125,0.6133386727176606,-0.23571663532257078,-1.0280763888031244
1789021736900515000,11.79351513671875,0.07772548310682177,-0.2982096241146326,-1.2780638338014483
1789021736910517000,11.80351708984375,-0.8160966028988361,0.05873217495381832,-0.9795376910835504
1789021736920519200,11.813519287109376,-1.3912896693564951,0.5775573113709688,-0.83013272703588
1789021736930521000,11.82352099609375,-2.131467692440003,0.8619652046263218,-1.3763374532878399
1789021736940523000,11.83352294921875,-1.6965151635825633,0.9368056338161229,-1.091181372013688
1789021736950525000,11.84352490234375,-0.130240829372406,0.7622989617377519,-0.18993103570342063
1789021736960526800,11.85352685546875,0.44461949799954886,0.568927430191636,-0.4534887408927083
1789021736970530000,11.863530029296875,-1.2491712090551852,0.8141092284739017,-1.6140122369408607
1789021736980532000,11.873531982421875,-2.0482833594053984,1.2418506569087504,-0.9003609862551093
1789021736990534100,11.8835341796875,0.5445896922707557,1.2558499561667442,0.7079714514836668
1789021737000536000,11.8935361328125,3.0194308232843876,0.44059097313582896,1.2769140792444347
1789021737010538000,11.9035380859375,3.474435521697998,-0.7086644021838903,1.4942226589560508
1789021737020540000,11.913539794921874,2.4552666619718075,-1.5857377440929412,1.725604479944706
1789021737030541800,11.923541748046874,0.09840075299739837,-1.9103332708299159,0.779108057719469
1789021737040544000,11.9335439453125,-2.9261411296904085,-0.2795575306147337,-0.5378381721839308
1789021737050546000,11.9435458984375,-2.240549560058117,2.237982924440503,0.22679157058894633
1789021737060548000,11.953548095703125,1.9893140146948396,3.575697509345412,2.047090350228548
1789021737070551000,11.963551025390625,5.3379287154197685,2.894858687198162,2.9121801166161894
1789021737080553000,11.973552978515626,4.466448663473129,0.30835517055392264,2.2704294422760603
1789021737090555000,11.983554931640626,-0.23696868121027945,-1.5215496418207883,0.5399927198693156
1789021737100557000,11.99355712890625,-0.2877250549793243,-0.5839005429178477,-0.2552887662768364
1789021737110559000,12.00355908203125,0.15780249777585267,1.205123977535963,-1.706439176225662
1789021737120561200,12.01356103515625,0.07095058214440941,2.8989450797289606,-2.0107360112994908
1789021737130563000,12.02356298828125,1.360278445021063,3.3225258813530205,-0.10337649558335542
1789021737140565000,12.03356494140625,2.4187936650991437,2.3673791196823117,0.9467062655836344
1789021737150567200,12.043567138671875,2.4443209050655366,1.697533985236287,0.7683481787741184
1789021737160568800,12.05356884765625,1.9657726878486572,1.7720751392185687,0.14582827460467815
1789021737170572000,12.063572021484376,1.6374737765491008,2.3169489091277122,-0.20466244862824678
1789021737180574000,12.073573974609374,1.5783074479617178,2.794180052396655,-0.6140759009510278
1789021737190576000,12.083576171875,1.7226656500138342,3.1150229486018417,-0.37703678485304115
1789021737200578000,12.093578125,1.8379507561862467,3.056719812715053,0.11008534557223319
1789021737210580200,12.103580322265625,1.8260463833808898,2.7296681249976156,0.28540888699144124
1789021737220582000,12.113581787109375,1.0796937633156776,2.5122832651793954,0.12049217329621315
1789021737230583800,12.123583740234375,0.17267830587374045,2.5564333725512025,-0.22837562490999697
1789021737240586000,12.1335859375,0.5593710818171501,2.463907649067044,0.13621610438972712
1789021737250588000,12.143587890625,1.0685311487883329,2.0951094079881907,0.5462821754023433
1789021737260590000,12.153590087890626,0.5579682292819023,1.5778262403160332,0.43697979690134525
1789021737270592000,12.163592041015624,-0.5935901622831821,0.9090291536182165,0.29767946276068685
1789021737280595000,12.173594970703125,-1.4252736258924006,0.15990239266455172,0.6232306827872991
1789021737290596900,12.183596923828125,-2.206847196942568,-0.5609118815183639,0.8139698200032115
1789021737300599000,12.19359912109375,-2.5703023234277964,-0.9573235211879014,0.777455614337325
1789021737310601000,12.20360107421875,-1.8294295960783957,-1.2345324428498745,0.9292351985618471
1789021737320603000,12.213602783203125,-0.2554337277054787,-1.8340929117143152,1.4364467618137597
1789021737330605000,12.22360498046875,0.7614417603865266,-2.776057535728812,2.139903658482432
1789021737340607000,12.23360693359375,0.991503292556852,-4.100088463196158,2.592235338294506
1789021737350609200,12.243609130859374,0.9599994623988867,-5.329974541544914,2.72281519036293
1789021737360611000,12.253611083984374,1.009095209479332,-5.766956092011928,2.5327561443656683
1789021737370613000,12.263613037109375,0.980899919347465,-5.350410011330246,2.048030699818581
1789021737380615000,12.273614990234375,0.5207504053913057,-4.3849446847409,1.8625518212184309
1789021737390618000,12.2836181640625,-0.05885463228970766,-3.277190363588929,1.4076158041268587
1789021737400620000,12.2936201171875,-0.6813032247886062,-2.1505209140866994,0.6414918772734701
1789021737410622200,12.303622314453126,-0.8977138327471912,-1.3190209903508423,-0.0826234842814505
1789021737420624100,12.3136240234375,-1.025572297027707,-1.0196335546284914,-0.5968669919967651
1789021737430625800,12.323625732421876,-1.1026247031785548,-1.1216922456115483,-0.8486414665423333
1789021737440628000,12.3336279296875,-1.0641152320422231,-1.4753805958420037,-0.6345455652669072
1789021737450630000,12.3436298828125,-0.7239074178926647,-1.5458312656402586,0.09743731479272245
1789021737460632000,12.353632080078125,-0.5737620107412338,-1.0507038156747817,0.5139725818194448
1789021737470634000,12.363634033203125,-0.8546095811665058,-0.01715805554986,0.22788272682651875
1789021737480636200,12.37363623046875,-1.1789864967167376,1.3891034113585947,0.3379134196020663
1789021737490638000,12.38363818359375,-0.9568717588324099,2.3827701655596494,0.7965726950004697
1789021737500641000,12.39364111328125,-0.38175299971997734,2.8537118532955645,0.9961182390064001
1789021737510643000,12.403642822265626,-0.027066286101937294,2.9080320570260283,0.6491024984076619
1789021737520644900,12.413644775390624,0.13708265809118747,2.6931699936836955,0.2717927418321371
1789021737530647000,12.42364697265625,0.0899853182863444,2.252393727108836,0.19013225736394523
1789021737540649000,12.43364892578125,-0.42215581032224,2.1534452771008015,0.22602190139070152
1789021737550651100,12.443651123046875,-0.9233879338383674,2.4040882633984086,0.427037956340611
1789021737560653000,12.453653076171875,-1.2575376169927417,2.4064503163546322,0.07136851529553533
1789021737570655200,12.4636552734375,-1.5007511839419603,1.879604955089092,-0.8267031909786164
1789021737580657000,12.473656982421875,-1.597652784422785,0.8393769407212733,-0.5639198311626911
1789021737590658800,12.483658935546876,-1.140475272014737,-0.6843260797411203,1.423027308270335
1789021737600661000,12.493660888671876,0.6101748018592595,-2.684754632037878,2.8357930425062774
1789021737610664200,12.503664306640625,1.7939964636474848,-4.4973751321345565,2.2505448843717573
1789021737620666000,12.513666015625,1.3526429817065595,-5.3463370628029105,1.7061498378902673
1789021737630668000,12.52366796875,-0.3640221127182245,-5.566510676556826,1.0318962393522262
1789021737640670000,12.533669921875,-0.6597288141012191,-5.226891183689236,1.0015914097204803
1789021737650671900,12.543671875,0.14368702479228376,-4.437824626535177,0.4748676290079951
1789021737660674000,12.553674072265625,1.7456687783300875,-2.803711266329884,-0.06531213786602019
1789021737670676000,12.563676025390626,2.290445517605543,-1.0793787060171365,0.29951281566768884
1789021737680678100,12.57367822265625,1.6685837850838898,0.13521043447852135,0.24550036271214484
1789021737690680000,12.58368017578125,0.47671296461373563,0.8056412598580122,-0.352851607145369
1789021737700682000,12.593681884765624,-0.45736207519471644,1.4658961436599491,-0.23403847297728061
