time,seconds_elapsed,z,y,x
1789322875496089600,0.210089599609375,10.646565437316895,4.390829563140869,-0.6894320249557495
1789322875514939600,0.228939697265625,10.160523414611816,3.6436707973480225,0.9074779748916626
1789322875533789700,0.247789794921875,9.61226749420166,2.9949166774749756,1.714158296585083
1789322875552639700,0.2666396484375,8.82233715057373,3.4785659313201904,1.572981834411621
1789322875571489800,0.28548974609375,9.346664428710938,3.411566972732544,1.5538392066955566
1789322875590339800,0.30433984375,9.214759826660156,2.3222343921661377,1.7428722381591797
1789322875609190000,0.32318994140625,9.8207426071167,1.501197099685669,0.6320042610168457
1789322875628040000,0.3420400390625,8.15683364868164,1.872084617614746,-0.5841478109359741
1789322875646890000,0.360889892578125,6.763313293457031,2.403590440750122,-0.9026923179626465
1789322875675165200,0.389165283203125,9.083154678344727,2.872882604598999,-0.5602195858955383
1789322875712865300,0.426865234375,8.467900276184082,2.95902419090271,-0.24406790733337402
1789322875731715300,0.44571533203125,7.445566654205322,3.4259238243103027,0.9266205430030823
1789322875750565400,0.4645654296875,8.082356452941895,4.730610370635986,2.1092731952667236
1789322875769415400,0.48341552734375,7.639684677124023,5.453841209411621,2.5953152179718018
1789322875788265700,0.502265625,7.847859859466553,5.2477593421936035,2.1547367572784424
1789322875807115800,0.52111572265625,8.259724617004395,5.403591632843018,1.896012783050537
1789322875825965800,0.5399658203125,8.82951545715332,5.199902534484863,1.537089467048645
1789322875854240800,0.56824072265625,8.65932559967041,4.919942378997803,1.2041879892349243
1789322875873090800,0.5870908203125,11.108678817749023,4.443471431732178,0.5937191247940063
1789322875891940900,0.60594091796875,11.225927352905273,3.64127779006958,1.2185449600219727
1789322875910791000,0.624791015625,10.361519813537598,4.29033088684082,2.580958366394043
1789322875929641000,0.643640869140625,7.9316086769104,3.6583266258239746,2.4131617546081543
1789322875948491300,0.6624912109375,5.863013744354248,4.271188259124756,1.252044439315796
1789322875967341300,0.68134130859375,5.913562297821045,4.898406982421875,2.4299113750457764
1789322875995616300,0.7096162109375,8.733802795410156,3.88803768157959,2.2576282024383545
1789322876014466300,0.72846630859375,10.323235511779785,2.1475582122802734,0.9864411354064941
1789322876033316400,0.74731640625,9.72951602935791,2.197807550430298,-0.27038896083831787
1789322876052166700,0.766166748046875,9.815657615661621,2.535494804382324,-0.43579283356666565
1789322876071016700,0.7850166015625,5.070690155029297,1.532303810119629,-0.7492526173591614
1789322876089866800,0.80386669921875,3.098107099533081,3.1387851238250732,0.6846463680267334
1789322876108716800,0.822716796875,2.104487419128418,3.4331023693084717,1.678265929222107
1789322876127566800,0.84156689453125,10.071989059448242,0.8811569213867188,4.261617183685303
1789322876146417000,0.8604169921875,9.758230209350586,-0.7396813035011292,4.737788677215576
1789322876165267000,0.879266845703125,1.3860424757003784,-0.9553344249725342,4.065106391906738
1789322876184117000,0.898116943359375,3.0355947017669678,-1.350150227546692,1.709372639656067
1789322876202967000,0.916967041015625,4.817050933837891,2.652743101119995,-2.200200319290161
1789322876221817000,0.935817138671875,2.643171787261963,-5.762515068054199,0.8114659786224365
1789322876240667400,0.95466748046875,8.604290962219238,-9.483055114746094,1.1132607460021973
1789322876259517400,0.973517333984375,11.793325424194336,-7.354639530181885,1.3932210206985474
1789322876278367500,0.992367431640625,8.587541580200195,-7.562815189361572,1.9486548900604248
1789322876297217500,1.011217529296875,6.054738521575928,-6.806384086608887,0.14356936514377594
1789322876316067600,1.030067626953125,4.141676902770996,-6.679564476013184,-1.2855439186096191
1789322876334917600,1.048917724609375,6.725028038024902,-8.369794845581055,-0.11485548317432404
1789322876353767700,1.067767578125,5.84865665435791,-9.763015747070312,-0.8979067206382751
1789322876372617700,1.08661767578125,7.249355316162109,-13.629517555236816,-1.446162223815918
1789322876391467800,1.1054677734375,11.001002311706543,-14.35274887084961,-2.520838737487793
1789322876410317800,1.12431787109375,11.474781036376953,-10.361519813537598,-6.9930243492126465
1789322876429168000,1.143168212890625,12.497114181518555,-12.092727661132812,-5.923133373260498
1789322876448018200,1.16201806640625,27.215965270996094,-7.694719314575195,-7.8382887840271
1789322876466868200,1.1808681640625,9.710372924804688,-13.646267890930176,-8.726624488830566
1789322876495143200,1.20914306640625,6.198307991027832,-11.139785766601562,-13.976776123046875
1789322876513993200,1.2279931640625,5.860620975494385,-10.095916748046875,-12.803694725036621
1789322876532843500,1.246843505859375,6.2653069496154785,-11.245070457458496,-10.3016996383667
1789322876551693600,1.265693603515625,14.625530242919922,-6.835097789764404,-11.783754348754883
1789322876570543600,1.284543701171875,4.1057844161987305,-6.792026996612549,-16.1219425201416
1789322876598818800,1.31281884765625,4.575077056884766,-4.488935470581055,-18.221343994140625
1789322876617668900,1.3316689453125,6.799205780029297,-1.2616157531738281,-4.668396949768066
1789322876636519000,1.350518798828125,5.551946640014648,-1.4724832773208618,-1.7979071140289307
1789322876674219000,1.388218994140625,4.266402721405029,-2.966202735900879,-2.4538395404815674
1789322876693069000,1.407069091796875,0.5458626747131348,-5.286044120788574,0
1789322876711919000,1.425919189453125,2.942274570465088,-5.0826544761657715,0.0526420995593071
1789322876730769400,1.444769287109375,3.9885363578796387,-5.231009483337402,-2.8202404975891113
1789322876749619500,1.463619384765625,3.57906436920166,-4.891228675842285,-7.120142936706543
1789322876768469500,1.482469482421875,5.604588985443115,-9.432806015014648,-12.616755485534668
1789322876787319600,1.501319580078125,7.031608581542969,-9.044869422912598,-12.889836311340332
1789322876806169600,1.520169677734375,1.8457635641098022,-12.451650619506836,-15.738790512084961
1789322876825019600,1.53901953125,1.347757339477539,-12.779767036437988,-14.733206748962402
1789322876843870000,1.557869873046875,6.502495765686035,-6.224628925323486,-10.115059852600098
1789322876862720000,1.576719970703125,-0.22971096634864807,-2.3533411026000977,-7.450352191925049
1789322876881570000,1.595570068359375,1.628016710281372,-6.238986015319824,-2.6072793006896973
1789322876900420000,1.614420166015625,2.683849811553955,-7.737790107727051,-7.483851909637451
1789322876919270100,1.633270263671875,3.7731821537017822,-11.058429718017578,-11.556435585021973
1789322876938120200,1.6521201171875,3.770789384841919,-8.087141990661621,-6.4594244956970215
1789322876956970200,1.67097021484375,2.7963123321533203,-4.156033992767334,-0.25363919138908386
1789322876975820500,1.689820556640625,3.6487553119659424,-0.14835500717163086,1.0821540355682373
1789322876994670600,1.708670654296875,4.982155799865723,0.5003990530967712,-0.12203395366668701
1789322877013520600,1.727520751953125,5.030012130737305,0.02153540402650833,-1.0965110063552856
1789322877032370700,1.74637060546875,4.223331928253174,-1.9199410676956177,-4.201497554779053
1789322877051220700,1.765220703125,4.493721008300781,-3.5814573764801025,-5.104189872741699
1789322877079496000,1.793495849609375,3.006880760192871,-4.060320854187012,-4.266402721405029
1789322877098346000,1.812345947265625,6.803991317749023,-3.7683966159820557,-2.6168506145477295
1789322877117196000,1.831196044921875,6.775277137756348,-2.245664119720459,-2.3126630783081055
1789322877136046000,1.850046142578125,4.661218643188477,-2.999702215194702,-4.809872627258301
1789322877154896400,1.868896484375,5.027619361877441,-8.257331848144531,-11.843574523925781
1789322877173746400,1.887746337890625,5.472983360290527,-7.115357398986816,-10.940882682800293
1789322877192596500,1.906596435546875,9.243474006652832,-4.386044025421143,-7.938787460327148
1789322877211446500,1.925446533203125,8.755337715148926,-0.11485548317432404,-2.880061149597168
1789322877230296600,1.944296630859375,5.700301647186279,-1.0558329820632935,-1.1252248287200928
1789322877249147000,1.96314697265625,9.693623542785645,-4.242474555969238,-2.9015965461730957
1789322877267997000,1.981996826171875,3.390031576156616,-4.905585289001465,-3.8688950538635254
1789322877286847000,2.000846923828125,-0.09092725813388824,-9.564411163330078,-9.89013385772705
1789322877305697000,2.019697021484375,5.6859450340271,-8.475078582763672,-10.768599510192871
1789322877333972200,2.04797216796875,6.662814617156982,-8.973084449768066,-5.602196216583252
1789322877352822300,2.066822265625,7.237390995025635,-12.178869247436523,-2.3533411026000977
1789322877371672300,2.08567236328125,3.1172497272491455,-13.167404174804688,-4.776372909545898
1789322877390522400,2.1045224609375,3.184248685836792,-12.770195007324219,-7.144071102142334
1789322877418797600,2.132797607421875,5.4658050537109375,-14.127524375915527,-9.849455833435059
1789322877437647600,2.151647705078125,2.8848466873168945,-8.374580383300781,-11.747861862182617
1789322877456497700,2.17049755859375,5.563910961151123,-12.983156204223633,-5.796014785766602
1789322877475347700,2.18934765625,10.526924133300781,-6.983452796936035,-2.9327032566070557
1789322877494198000,2.208197998046875,11.402996063232422,-12.830016136169434,-5.398806095123291
1789322877513048000,2.227048095703125,0.02392822690308094,-19.186250686645508,1.1060823202133179
1789322877531898000,2.245898193359375,0.44775694608688354,-8.982656478881836,2.817847728729248
1789322877550748200,2.264748046875,1.0199406147003174,-7.012166976928711,5.309972763061523
1789322877569598200,2.28359814453125,4.110570430755615,-4.091427803039551,0.4692923426628113
1789322877588448300,2.3024482421875,3.0116662979125977,-4.625326156616211,-1.7907286882400513
1789322877607298300,2.32129833984375,1.3357932567596436,-3.6511483192443848,-1.8553348779678345
1789322877626148600,2.340148681640625,5.652445316314697,-2.042274236679077,-2.635993242263794
1789322877644998700,2.35899853515625,6.681957244873047,-2.11405873298645,-3.2105698585510254
1789322877663848700,2.3778486328125,4.079463481903076,-3.6269209384918213,-3.1339993476867676
1789322877682698800,2.39669873046875,5.166403293609619,-6.854240417480469,-4.275974273681641
1789322877701548800,2.415548828125,20.364116668701172,-10.210772514343262,-2.0542383193969727
1789322877720399000,2.434399169921875,11.752647399902344,-14.26870059967041,-1.074975609779358
1789322877739249200,2.453249267578125,5.7649078369140625,-11.635398864746094,-0.3640081584453583
1789322877758099200,2.47209912109375,9.614660263061523,-8.089534759521484,0.9649057388305664
1789322877776949200,2.49094921875,4.903192520141602,-8.13260555267334,5.5758748054504395
1789322877795799300,2.50979931640625,7.785646915435791,-8.724231719970703,8.587541580200195
1789322877814649300,2.5286494140625,9.557232856750488,-10.05284595489502,8.561220169067383
1789322877833499600,2.547499755859375,6.181558132171631,-8.791230201721191,6.215057849884033
1789322877852349700,2.566349609375,4.905585289001465,-7.340282440185547,3.6125640869140625
1789322877871199700,2.58519970703125,5.578267574310303,-5.31475830078125,4.244867324829102
1789322877890049800,2.6040498046875,7.275676250457764,-5.257330417633057,6.617351055145264
1789322877908899800,2.62289990234375,5.547161102294922,1.067797064781189,3.1746773719787598
1789322877927750100,2.641750244140625,2.396411895751953,7.368996620178223,-1.4676976203918457
1789322877946600200,2.66060009765625,6.418447494506836,0.9720842242240906,0.9672985672950745
1789322877965450200,2.6794501953125,7.069893836975098,-2.669492721557617,0.8500502705574036
1789322877984300300,2.69830029296875,7.0097737312316895,-3.64127779006958,-0.3616153299808502
1789322878003150300,2.717150390625,7.471887588500977,-2.700599431991577,2.3820550441741943
1789322878022000600,2.736000732421875,6.99541711807251,-1.1611171960830688,1.1228320598602295
1789322878040850700,2.7548505859375,6.396912097930908,-0.8353942036628723,1.6495521068572998
1789322878059700700,2.77370068359375,7.050751209259033,-1.7644076347351074,1.9968105554580688
1789322878078550800,2.79255078125,7.785646915435791,-2.848954439163208,2.0781664848327637
1789322878097400800,2.81140087890625,6.495316982269287,-2.628814697265625,2.801098108291626
1789322878116251100,2.830251220703125,6.581458568572998,-2.9805595874786377,0.8476574420928955
1789322878135101200,2.84910107421875,6.3825554847717285,-2.0063817501068115,2.3533411026000977
1789322878163376400,2.87737646484375,7.771289825439453,-2.863311290740967,0.9696913957595825
1789322878182226400,2.896226318359375,4.718646049499512,-4.062713623046875,1.0055837631225586
1789322878201076500,2.915076416015625,6.526423931121826,-5.403591632843018,0.3400799036026001
1789322878219926500,2.933926513671875,8.884550094604492,-6.7106709480285645,1.3334003686904907
1789322878238776600,2.952776611328125,7.569993495941162,-9.226723670959473,0.9170492887496948
1789322878257627000,2.971626953125,6.310770511627197,-10.4790678024292,2.094916343688965
1789322878276477000,2.990476806640625,8.463114738464355,-9.952347755432129,3.708575963973999
1789322878295327000,3.009326904296875,8.276473999023438,-9.806086540222168,3.3708889484405518
1789322878314177000,3.028177001953125,6.698707103729248,-10.220343589782715,3.303889751434326
1789322878333027000,3.047027099609375,8.005785942077637,-10.14616584777832,3.7372899055480957
1789322878351877400,3.06587744140625,8.477471351623535,-10.239486694335938,4.096213340759277
1789322878370727400,3.0847275390625,6.593422889709473,-11.44845962524414,5.50648307800293
1789322878389577500,3.103577392578125,6.370591163635254,-11.398210525512695,4.189533233642578
1789322878408427500,3.122427490234375,6.3514485359191895,-11.561222076416016,3.586242914199829
1789322878427277600,3.141277587890625,4.196712017059326,-9.866206169128418,4.881657123565674
1789322878446127900,3.1601279296875,4.390829563140869,-7.455138206481934,3.6655051708221436
1789322878464978000,3.17897802734375,4.6995038986206055,-6.7896342277526855,3.421138286590576
1789322878483828000,3.197827880859375,4.951049327850342,-7.682755470275879,3.248854875564575
1789322878502678000,3.216677978515625,4.247260093688965,-8.012965202331543,2.245664119720459
1789322878521528300,3.2355283203125,4.567898273468018,-7.373782157897949,2.073380708694458
1789322878540378400,3.25437841796875,6.1002020835876465,-7.802396297454834,1.4653047323226929
1789322878559228400,3.273228515625,5.930311679840088,-7.76889705657959,3.4737801551818848
1789322878578078500,3.292078369140625,7.136892795562744,-9.107083320617676,3.2368907928466797
1789322878596928500,3.310928466796875,8.489435195922852,-9.083154678344727,3.780360698699951
1789322878615778800,3.32977880859375,9.114261627197266,-10.174880027770996,2.33180570602417
1789322878634628900,3.34862890625,9.279664993286133,-10.517353057861328,2.5546371936798096
1789322878662904000,3.376904052734375,8.798408508300781,-8.982656478881836,1.7261223793029785
1789322878681754000,3.395754150390625,8.29561710357666,-8.436793327331543,1.2759727239608765
1789322878700604200,3.414604248046875,6.8518476486206055,-7.888537883758545,0.9529415965080261
1789322878719454200,3.4334541015625,6.401698112487793,-6.713063716888428,0.7037889361381531
1789322878738304500,3.452304443359375,6.457031726837158,-5.640480995178223,1.6710875034332275
1789322878757154600,3.471154541015625,7.498208999633789,-2.36291241645813,2.286342144012451
1789322878776004600,3.490004638671875,9.078369140625,-0.6535396575927734,2.533101797103882
1789322878794854700,3.508854736328125,8.863015174865723,-2.738884687423706,3.5431721210479736
1789322878813705000,3.527705078125,8.925228118896484,-5.097011566162109,2.918346405029297
1789322878832555000,3.546554931640625,7.618149280548096,-4.450650215148926,1.8601205348968506
1789322878851405000,3.565405029296875,4.479363918304443,-4.321437835693359,0.7612167000770569
1789322878870255000,3.584255126953125,3.809074640274048,-0.7995018362998962,0.8620143532752991
1789322878889105400,3.60310546875,6.744170665740967,1.6256239414215088,2.3294129371643066
1789322878907955500,3.62195556640625,4.541577339172363,-1.1563315391540527,1.438983678817749
1789322878926805500,3.640805419921875,4.096213340759277,-0.3496512174606323,1.9247267246246338
1789322878945655600,3.659655517578125,6.713063716888428,-0.4405784606933594,1.5897315740585327
1789322878964505900,3.678505859375,5.920740604400635,-1.1682956218719482,2.5307090282440186
1789322878983356000,3.69735595703125,5.709873199462891,-0.646361231803894,1.1324033737182617
1789322879002206000,3.7162060546875,6.686742782592773,-0.8114659786224365,0.8811569213867188
1789322879021056000,3.735055908203125,5.6931233406066895,-2.2480568885803223,1.1682956218719482
1789322879039906300,3.75390625,7.9866437911987305,-0.27756741642951965,1.7165511846542358
1789322879058756400,3.77275634765625,11.163714408874512,-1.2305090427398682,1.0845468044281006
1789322879077606400,3.7916064453125,7.297211647033691,-4.117748737335205,0.368793785572052
1789322879096456400,3.81045654296875,5.07308292388916,-4.4721856117248535,0.7588238716125488
1789322879115306500,3.829306396484375,7.536494255065918,-4.939085006713867,1.2089736461639404
1789322879134156800,3.84815673828125,8.508578300476074,-5.50648307800293,2.7364916801452637
1789322879162432000,3.876431884765625,4.687539577484131,-9.847063064575195,1.9319051504135132
1789322879181282000,3.895281982421875,3.7755749225616455,-10.28016471862793,1.9800606966018677
1789322879200132000,3.914132080078125,6.272485256195068,-9.358628273010254,2.8441689014434814
1789322879218982100,3.932982177734375,9.243474006652832,-8.2788667678833,4.048357009887695
1789322879237832400,3.95183251953125,10.670493125915527,-10.629815101623535,5.159224510192871
1789322879256682500,3.9706826171875,9.451948165893555,-14.625530242919922,5.511268615722656
1789322879284957700,3.998957763671875,5.618945598602295,-11.673684120178223,4.829015254974365
1789322879303807700,4.017807861328125,5.544768333435059,-8.012965202331543,5.420341491699219
1789322879322657800,4.03665771484375,6.255735874176025,-8.597112655639648,5.544768333435059
1789322879341507800,4.0555078125,5.384449005126953,-8.587541580200195,4.974977493286133
1789322879360358100,4.074358154296875,5.726622581481934,-8.43440055847168,4.505684852600098
1789322879379208200,4.093208251953125,6.064310073852539,-7.615756034851074,4.036392688751221
1789322879398058200,4.112058349609375,5.762515068054199,-7.780860900878906,3.8545382022857666
1789322879416908500,4.130908447265625,7.108178615570068,-9.059226989746094,3.6487553119659424
1789322879435758600,4.149758544921875,7.464709281921387,-11.877074241638184,4.694717884063721
1789322879454608600,4.168608642578125,5.793622016906738,-12.485150337219238,4.960620403289795
1789322879473458700,4.187458740234375,5.025226593017578,-10.644172668457031,3.969393730163574
1789322879492308700,4.206308837890625,5.807978630065918,-8.709874153137207,1.3286148309707642
1789322879511159000,4.225158935546875,5.947061538696289,-6.535995006561279,1.4222339391708374
1789322879530009000,4.244009033203125,7.412067413330078,-4.2209391593933105,1.1371889114379883
1789322879548859100,4.262859130859375,7.878966808319092,-4.304687976837158,0.02871387079358101
1789322879567709200,4.281709228515625,7.953144073486328,-6.191129684448242,1.3334003686904907
1789322879586559500,4.3005595703125,9.945169448852539,-7.2349982261657715,2.564208507537842
1789322879605409500,4.319409423828125,9.645767211914062,-10.136594772338867,3.699004650115967
1789322879624259600,4.338259521484375,8.283653259277344,-10.055238723754883,2.2576282024383545
1789322879643110000,4.35710986328125,8.898907661437988,-3.873680830001831,1.9824535846710205
1789322879671384800,4.385384765625,11.64975643157959,-0.4405784606933594,2.6407787799835205
1789322879690235100,4.404235107421875,8.951549530029297,-7.153642177581787,3.5575289726257324
1789322879709085200,4.423085205078125,4.433900356292725,-16.56252098083496,11.187642097473145
1789322879727935200,4.441935302734375,13.136297225952148,1.9414764642715454,-1.1754741668701172
1789322879746785500,4.46078564453125,7.596613883972168,0.6296114325523376,2.128415822982788
1789322879765635600,4.479635498046875,3.2416765689849854,-2.4059832096099854,3.521636724472046
1789322879784485600,4.498485595703125,0.8835497498512268,-2.0685951709747314,3.2440693378448486
1789322879803335700,4.517335693359375,8.575576782226562,2.018345832824707,1.7309080362319946
1789322879822186000,4.53618603515625,5.384449005126953,-1.194616675376892,2.451446771621704
1789322879841036000,4.5550361328125,1.7189439535140991,-2.451446771621704,0.32572299242019653
1789322879859886000,4.573885986328125,3.7277185916900635,-0.8353942036628723,1.5155540704727173
1789322879878736400,4.592736328125,6.365805625915527,0.4262215197086334,2.2600209712982178
1789322879897586400,4.61158642578125,5.853442192077637,0.05503492057323456,1.6854444742202759
1789322879916436500,4.6304365234375,3.569493293762207,-0.3640081584453583,0.7755736112594604
1789322879935286500,4.64928662109375,7.752147197723389,-2.887239694595337,1.434198021888733
1789322879954136800,4.66813671875,8.324331283569336,-5.063511848449707,1.9151554107666016
1789322879972987000,4.68698681640625,7.471887588500977,-5.039583683013916,1.5705889463424683
1789322879991837000,4.7058369140625,8.594719886779785,-2.8034908771514893,0.12203395366668701
1789322880010687200,4.724687255859375,6.128916263580322,-4.139284133911133,1.7476578950881958
1789322880029537300,4.743537353515625,7.95553731918335,-7.4479594230651855,1.4054841995239258
1789322880048387300,4.76238720703125,8.798408508300781,-9.707980155944824,2.7101707458496094
1789322880067237400,4.7812373046875,8.451150894165039,-7.536494255065918,3.9622151851654053
1789322880086087700,4.800087646484375,6.686742782592773,-7.596613883972168,6.825526714324951
1789322880104937700,4.818937744140625,4.529613494873047,-13.038191795349121,2.628814697265625
1789322880123787800,4.837787841796875,6.868597507476807,-11.855539321899414,2.410768747329712
1789322880142637800,4.856637939453125,7.9627156257629395,-11.027322769165039,0.5985047817230225
1789322880161488100,4.875488037109375,7.2589263916015625,-13.057333946228027,0.040677983313798904
1789322880180338200,4.894338134765625,7.5412797927856445,-15.259927749633789,1.7691932916641235
1789322880199188500,4.9131884765625,7.699504852294922,-10.977073669433594,2.4227328300476074
1789322880218038500,4.93203857421875,4.924727916717529,-9.669695854187012,1.2329018115997314
1789322880236888600,4.950888671875,2.99013090133667,-8.772088050842285,-0.1459621787071228
1789322880255738600,4.969738525390625,2.025524377822876,-8.460721969604492,0.9960124492645264
1789322880274589000,4.9885888671875,4.510470867156982,-7.0097737312316895,0.2105683982372284
1789322880293439000,5.00743896484375,7.017251491546631,-7.723433494567871,2.255235433578491
1789322880312289000,5.0262890625,7.8693952560424805,-9.042476654052734,0.5626124143600464
1789322880331139300,5.045139404296875,9.200403213500977,-9.803693771362305,0.43579283356666565
1789322880349989400,5.0639892578125,7.318747043609619,-10.615458488464355,-0.06939185410737991
1789322880368839400,5.08283935546875,7.668398380279541,-11.051251411437988,-0.0933200865983963
1789322880387689700,5.101689697265625,7.5412797927856445,-10.359127044677734,-0.43100717663764954
1789322880406539800,5.120539794921875,7.349853992462158,-9.993025779724121,-0.11485548317432404
1789322880425389800,5.139389892578125,8.546863555908203,-8.85344409942627,1.3645070791244507
1789322880444240100,5.158240234375,9.633803367614746,-8.755337715148926,2.3030917644500732
1789322880463090200,5.177090087890625,9.315557479858398,-10.43360424041748,-1.2233306169509888
1789322880481940200,5.195940185546875,9.025727272033691,-8.717052459716797,-1.450947880744934
1789322880500790300,5.214790283203125,8.577970504760742,-7.167999267578125,0.14356936514377594
1789322880519640600,5.233640625,7.4001030921936035,-6.28205680847168,0.3807578980922699
1789322880538490600,5.25249072265625,5.906383514404297,-6.2892351150512695,-1.8242281675338745
1789322880557341000,5.2713408203125,4.893621444702148,-8.594719886779785,-1.8696918487548828
1789322880576191000,5.29019091796875,3.6053855419158936,-2.8920252323150635,-1.438983678817749
1789322880595041000,5.309041015625,3.828217029571533,-0.8186444640159607,1.1730812788009644
1789322880613891000,5.32789111328125,7.689933776855469,-1.596909999847412,2.317448616027832
1789322880632741400,5.346741455078125,8.216653823852539,-4.115355968475342,2.0446670055389404
1789322880661016600,5.3750166015625,3.6487553119659424,-0.8835497498512268,0.8979067206382751
1789322880679866600,5.39386669921875,5.192724227905273,-0.15074782073497772,2.26959228515625
1789322880698717000,5.412717041015625,8.079963684082031,-2.049452543258667,2.7125635147094727
1789322880717567000,5.43156689453125,4.5200419425964355,-1.812264084815979,-0.016749758273363113
1789322880736417000,5.4504169921875,6.727420806884766,-1.7955143451690674,0.20338992774486542
1789322880755267300,5.469267333984375,8.027321815490723,-3.1483564376831055,1.319043517112732
1789322880774117400,5.488117431640625,5.3748779296875,-2.997309446334839,1.012762188911438
1789322880792967400,5.506967529296875,5.714658737182617,-1.2592228651046753,0.5626124143600464
1789322880811817700,5.525817626953125,7.548458099365234,-1.55623197555542,0.36640095710754395
1789322880830667800,5.544667724609375,6.002096652984619,-2.746062994003296,0.035892341285943985
1789322880849517800,5.563517822265625,6.21266508102417,-3.0116662979125977,-0.732502818107605
1789322880868368100,5.5823681640625,6.531209468841553,-3.303889751434326,-0.4334000051021576
1789322880887218200,5.60121826171875,7.773682594299316,-3.13639235496521,-0.5267201066017151
1789322880906068200,5.620068115234375,5.896812438964844,-5.4418768882751465,-1.8864415884017944
1789322880924918500,5.63891845703125,6.588637351989746,-8.913264274597168,-0.01196411345154047
1789322880943768600,5.6577685546875,8.240582466125488,-10.99860954284668,0.35443684458732605
1789322880962618600,5.67661865234375,6.643671989440918,-13.866705894470215,-0.6152545213699341
1789322880981469000,5.695468994140625,6.904489517211914,-14.022239685058594,2.231307029724121
1789322881000319000,5.714319091796875,9.140582084655762,-13.5242338180542,3.801896095275879
1789322881019169000,5.7331689453125,7.984251022338867,-12.32961654663086,4.60139799118042
1789322881038019300,5.752019287109375,7.237390995025635,-11.948859214782715,2.942274570465088
1789322881056869400,5.770869384765625,6.6245293617248535,-10.519745826721191,2.286342144012451
1789322881075719400,5.789719482421875,5.511268615722656,-9.341878890991211,1.745265007019043
1789322881094569700,5.80856982421875,5.733801364898682,-8.937192916870117,0.981655478477478
1789322881113419800,5.827419677734375,6.1002020835876465,-9.59073257446289,0.22492532432079315
1789322881132269800,5.846269775390625,5.501697540283203,-8.55164909362793,1.7835501432418823
1789322881160545000,5.874544921875,7.139285564422607,-8.472685813903809,2.659921407699585
1789322881179395300,5.893395263671875,6.519245147705078,-8.898907661437988,1.8768702745437622
1789322881198245400,5.912245361328125,4.35254430770874,-7.972286701202393,2.762812852859497
1789322881217095700,5.931095703125,5.32911491394043,-6.973881721496582,0.6583253145217896
1789322881235945700,5.94994580078125,5.877370834350586,-7.546065330505371,0.6655037999153137
1789322881254795800,5.968795654296875,8.599505424499512,-8.889336585998535,2.087737798690796
1789322881273646000,5.98764599609375,12.178869247436523,-12.578470230102539,1.721336841583252
1789322881292496100,6.00649609375,10.802098274230957,-15.092430114746094,0.6583253145217896
1789322881311346200,6.02534619140625,9.547661781311035,-13.835599899291992,0.5889334678649902
1789322881330196500,6.044196533203125,6.921239376068115,-10.871490478515625,0.9361918568611145
1789322881349046500,6.063046630859375,5.283651351928711,-7.730611801147461,0.41186460852622986
1789322881367896600,6.081896484375,5.3318071365356445,-6.171987056732178,0.6008976101875305
1789322881386747000,6.100746826171875,6.327520370483398,-4.285545349121094,0.6535396575927734
1789322881405597000,6.119596923828125,7.275676250457764,-3.770789384841919,1.9438693523406982
1789322881424447200,6.138447265625,6.909275531768799,-4.860121726989746,2.1475582122802734
1789322881443297300,6.15729736328125,4.713860511779785,-5.053940296173096,1.7596219778060913
1789322881462147300,6.176147216796875,5.187938690185547,-0.09092725813388824,-0.4334000051021576
1789322881480997600,6.19499755859375,5.827121257781982,0.05742774158716202,0.3735794425010681
1789322881499847700,6.21384765625,4.264009952545166,-1.628016710281372,0.1579262912273407
1789322881518697700,6.23269775390625,5.0826544761657715,-2.372483730316162,1.8026927709579468
1789322881537548000,6.251548095703125,6.368198394775391,-0.981655478477478,4.321437835693359
1789322881556398000,6.270398193359375,5.611767292022705,-0.7181459069252014,3.0714869499206543
1789322881575248400,6.289248291015625,4.510470867156982,-1.2424731254577637,1.134796142578125
1789322881594098400,6.308098388671875,5.326722145080566,-0.6655037999153137,1.1252248287200928
1789322881612948700,6.32694873046875,9.969097137451172,0.49322056770324707,1.0893324613571167
1789322881631798800,6.345798828125,9.796515464782715,-1.3094722032546997,0.8787640929222107
1789322881650648800,6.36464892578125,7.364210605621338,-2.942274570465088,0.524327278137207
1789322881669499100,6.3834990234375,7.038786888122559,-4.634897232055664,-1.1515458822250366
1789322881688349200,6.40234912109375,4.388436794281006,-6.401698112487793,0.6607181429862976
1789322881707199200,6.42119921875,8.874979019165039,-5.903990745544434,1.750050663948059
1789322881726049500,6.440049560546875,7.72104024887085,-4.206283092498779,1.958226203918457
1789322881744899600,6.458899658203125,6.15045166015625,-3.3684961795806885,0.9074779748916626
1789322881763750000,6.47775,6.4304118156433105,-3.9885363578796387,0.27038896083831787
1789322881782600000,6.496599853515625,5.9183478355407715,-4.881657123565674,-0.39511483907699585
1789322881801450000,6.515449951171875,4.627718925476074,-6.971488952636719,-0.019142581149935722
1789322881820300300,6.53430029296875,4.900799751281738,-8.934800148010254,0.24646073579788208
1789322881839150300,6.553150390625,6.162415504455566,-10.26341438293457,1.197009563446045
1789322881858000600,6.572000732421875,7.692326545715332,-10.337592124938965,2.231307029724121
1789322881876850700,6.5908505859375,8.067999839782715,-13.074084281921387,2.9327032566070557
1789322881895701000,6.609700927734375,8.764909744262695,-14.484354019165039,2.379662036895752
1789322881914551000,6.628551025390625,8.341080665588379,-16.040586471557617,2.4634108543395996
1789322881933401000,6.647401123046875,6.945167541503906,-14.752349853515625,3.880859136581421
1789322881952251400,6.66625146484375,7.034001350402832,-12.092727661132812,4.287938117980957
1789322881971101400,6.685101318359375,6.272485256195068,-9.437591552734375,2.6192433834075928
1789322881989951500,6.703951416015625,6.191129684448242,-8.187939643859863,1.7165511846542358
1789322882008801800,6.7228017578125,5.987739562988281,-8.01057243347168,1.036690354347229
1789322882027651800,6.74165185546875,5.413163185119629,-8.027321815490723,0.5195416212081909
1789322882046502100,6.760502197265625,4.122534275054932,-7.263712406158447,1.165902853012085
1789322882065352200,6.779352294921875,3.76361083984375,-7.014858722686768,1.5203397274017334
1789322882084202500,6.798202392578125,5.092225551605225,-6.301199436187744,2.573779821395874
1789322882103052500,6.817052490234375,7.4862446784973145,-6.562315940856934,2.39401912689209
1789322882121902600,6.835902587890625,6.305984973907471,-9.200403213500977,3.2919256687164307
1789322882140753000,6.8547529296875,7.878966808319092,-10.54845905303955,1.0319048166275024
1789322882169028000,6.883028076171875,11.414960861206055,-8.85344409942627,1.1611171960830688
1789322882187878100,6.901878173828125,10.888240814208984,-10.720743179321289,2.5953152179718018
1789322882206728400,6.920728515625,9.221938133239746,-12.068799018859863,0.07178468257188797
1789322882225578500,6.93957861328125,7.139285564422607,-9.260522842407227,-0.5841478109359741
1789322882244428800,6.9584287109375,6.9690961837768555,-5.492125988006592,0.9122636318206787
1789322882263278800,6.97727880859375,9.056833267211914,-3.1172497272491455,0.5075774788856506
1789322882282129000,6.99612890625,8.360222816467285,-3.2512478828430176,2.2193429470062256
1789322882300979200,7.014979248046875,8.52772045135498,-5.24536657333374,1.0031908750534058
1789322882319829200,7.033829345703125,7.115357398986816,-5.49930477142334,0.5410770177841187
1789322882338679600,7.052679443359375,4.3310089111328125,-4.749752998352051,1.592124342918396
1789322882357529600,7.071529541015625,2.073380708694458,-1.9127626419067383,1.3334003686904907
1789322882376380000,7.0903798828125,2.573779821395874,0.4094717800617218,2.059023857116699
1789322882395230000,7.10922998046875,2.080559253692627,1.319043517112732,2.6623141765594482
1789322882414080300,7.128080322265625,3.9813578128814697,2.7364916801452637,2.9566314220428467
1789322882432930300,7.146930419921875,6.9690961837768555,0.6870391964912415,2.6647071838378906
1789322882451780400,7.1657802734375,4.244867324829102,-2.513660192489624,0.6583253145217896
1789322882470630700,7.184630615234375,3.9813578128814697,-0.9625129103660583,0.8186444640159607
1789322882489480700,7.203480712890625,10.095916748046875,-0.10289137065410614,2.5689942836761475
1789322882508331000,7.2223310546875,9.978668212890625,-2.1714866161346436,1.5658032894134521
1789322882527181000,7.24118115234375,4.7835516929626465,-3.4953157901763916,0.20338992774486542
1789322882546031000,7.260031005859375,6.6006011962890625,-3.3589248657226562,-1.5538392066955566
1789322882564881400,7.27888134765625,8.214261054992676,-4.314259052276611,-0.21774685382843018
1789322882583731700,7.297731689453125,7.7832536697387695,-5.815157413482666,0.9002995491027832
1789322882602581800,7.316581787109375,8.266902923583984,-6.112166404724121,1.695015788078308
1789322882621431800,7.335431884765625,6.6006011962890625,-6.669992923736572,1.9872392416000366
1789322882640282000,7.3542822265625,5.611767292022705,-9.107083320617676,2.0614166259765625
1789322882668557300,7.382557373046875,9.047262191772461,-10.385747909545898,2.097309112548828
1789322882687407400,7.401407470703125,8.695218086242676,-11.391032218933105,2.4011974334716797
1789322882706257700,7.420257568359375,8.640183448791504,-12.214761734008789,1.5179468393325806
1789322882725107700,7.439107666015625,8.300402641296387,-13.308879852294922,1.1491531133651733
1789322882743958000,7.4579580078125,5.939883232116699,-11.379068374633789,2.880061149597168
1789322882762808000,7.47680810546875,5.520840167999268,-9.36341381072998,4.393222332000732
1789322882781658400,7.495658447265625,5.975775241851807,-8.623434066772461,4.682754039764404
1789322882800508400,7.51450830078125,6.689135551452637,-9.042476654052734,2.7364916801452637
1789322882819358500,7.5333583984375,7.2732834815979,-10.735099792480469,2.4945175647735596
1789322882838208800,7.552208740234375,8.65932559967041,-11.91296672821045,2.183450698852539
1789322882857058800,7.571058837890625,8.228617668151855,-11.412567138671875,1.934298038482666
1789322882875909000,7.5899091796875,6.81595516204834,-9.993025779724121,1.812264084815979
1789322882894759200,7.60875927734375,5.84865665435791,-9.121439933776855,1.3094722032546997
1789322882913609500,7.627609375,4.668396949768066,-7.888537883758545,2.0614166259765625
1789322882932459500,7.64645947265625,4.919942378997803,-8.065607070922852,2.056631088256836
1789322882951309800,7.665309814453125,4.912764072418213,-8.348258972167969,2.386840581893921
1789322882970159900,7.684159912109375,6.035595893859863,-8.060821533203125,2.604886531829834
1789322882989010000,7.703010009765625,7.392924785614014,-8.331509590148926,1.7476578950881958
1789322883007860200,7.721860107421875,7.627720355987549,-8.417651176452637,2.0614166259765625
1789322883026710300,7.740710205078125,7.8454670906066895,-8.29561710357666,1.695015788078308
1789322883045560600,7.759560546875,9.451948165893555,-6.713063716888428,1.1084750890731812
1789322883064410600,7.77841064453125,9.983454704284668,-7.323532581329346,1.6686947345733643
1789322883083261000,7.797260986328125,8.997013092041016,-8.058428764343262,0.37118661403656006
1789322883102111000,7.816111083984375,7.6253275871276855,-5.927918910980225,0.13878370821475983
1789322883120961300,7.834961181640625,8.656932830810547,-2.604886531829834,1.350150227546692
1789322883139811300,7.853811279296875,8.400900840759277,-3.7516467571258545,1.2185449600219727
1789322883168086500,7.88208642578125,6.404090881347656,-3.9263229370117188,0.28983065485954285
1789322883186936800,7.900936767578125,5.085047245025635,-2.880061149597168,1.287936806678772
1789322883205787000,7.919786865234375,3.0427730083465576,-2.3150558471679688,2.760420083999634
1789322883224637200,7.93863720703125,3.7348971366882324,-1.1826525926589966,3.3924243450164795
1789322883243487200,7.9574873046875,4.752145767211914,-0.4214358925819397,2.968595504760742
1789322883262337500,7.976337646484375,3.6340994834899902,0.8715856671333313,2.4011974334716797
1789322883281187600,7.9951875,6.140880107879639,0.5482555031776428,2.063809633255005
1789322883300038000,8.014037841796876,6.081059455871582,-1.4365909099578857,0.5195416212081909
1789322883318888000,8.032887939453126,3.842574119567871,-0.8162516355514526,0.7205387353897095
1789322883337738000,8.051738037109375,5.621338367462158,-0.6008976101875305,-0.064606212079525
1789322883356588300,8.07058837890625,5.707480430603027,-1.843370795249939,1.5275181531906128
1789322883375438600,8.0894384765625,5.563910961151123,-1.7045869827270508,1.6734803915023804
1789322883394288600,8.10828857421875,6.736992359161377,-1.8457635641098022,0.37836506962776184
1789322883413138700,8.127138671875,8.372187614440918,-3.1076784133911133,-0.05742774158716202
1789322883431989000,8.145989013671874,9.265308380126953,-4.5583271980285645,1.048654556274414
1789322883450839000,8.164839111328124,8.855836868286133,-5.896812438964844,0.09571290761232376
1789322883469689300,8.183689453125,7.606184959411621,-10.182058334350586,0.04785645380616188
1789322883488539400,8.202539306640626,6.195915222167969,-13.8882417678833,0.8979067206382751
1789322883507389700,8.2213896484375,6.894918441772461,-14.278271675109863,2.604886531829834
1789322883526239700,8.24023974609375,8.702695846557617,-11.802896499633789,4.264009952545166
1789322883545090000,8.259090087890625,9.109476089477539,-10.201201438903809,3.8210387229919434
1789322883573365200,8.287365234375,7.45992374420166,-8.700303077697754,3.3517463207244873
1789322883592215300,8.30621533203125,8.123034477233887,-8.886942863464355,2.6790640354156494
1789322883611065600,8.325065673828124,6.408876419067383,-9.818050384521484,4.002892971038818
1789322883629915600,8.34391552734375,5.544768333435059,-11.22353458404541,3.3852458000183105
1789322883648766000,8.362765869140626,4.60139799118042,-10.529316902160645,3.239283561706543
1789322883667616000,8.381615966796875,5.123332500457764,-8.66889762878418,3.308675527572632
1789322883686466300,8.40046630859375,6.4666032791137695,-8.580363273620605,2.420340061187744
1789322883705316400,8.41931640625,6.15762996673584,-8.01775074005127,2.5184457302093506
1789322883724166700,8.438166748046875,5.434698581695557,-7.974679470062256,2.324627161026001
1789322883743016700,8.4570166015625,5.300401210784912,-7.747361660003662,2.307877540588379
1789322883761866800,8.47586669921875,6.198307991027832,-8.324331283569336,2.2432711124420166
1789322883780717000,8.494717041015624,7.58943510055542,-8.82951545715332,3.528815269470215
1789322883799567000,8.513567138671876,9.154939651489258,-10.27777099609375,2.8298118114471436
1789322883818417400,8.53241748046875,8.8438720703125,-11.568400382995605,2.338984251022339
1789322883837267500,8.551267333984375,10.581958770751953,-10.859526634216309,2.111665964126587
1789322883865543000,8.57954296875,8.499007225036621,-9.993025779724121,1.407876968383789
1789322883884393000,8.59839306640625,7.388139247894287,-8.63779067993164,1.012762188911438
1789322883903243000,8.617242919921875,6.332305908203125,-7.263712406158447,0.7157530784606934
1789322883922093300,8.63609326171875,6.557530403137207,-4.419543266296387,1.323829174041748
1789322883940943400,8.654943359375,7.562815189361572,-2.1930220127105713,1.695015788078308
1789322883959793700,8.673793701171874,9.126225471496582,-1.9103697538375854,2.2719850540161133
1789322883978643700,8.692643798828126,8.379365921020508,-3.524029493331909,2.001596212387085
1789322883997494000,8.711493896484376,8.137690544128418,-4.381258487701416,1.280758261680603
1789322884016344000,8.730343994140625,4.953442096710205,-5.614160060882568,0.5458626747131348
1789322884035194400,8.7491943359375,4.639683246612549,-2.4394826889038086,1.5275181531906128
1789322884054044400,8.76804443359375,4.417150497436523,-0.6966105103492737,1.9390836954116821
1789322884072894700,8.786894775390625,3.08345103263855,-0.3209373354911804,2.691028118133545
1789322884091744800,8.805744873046875,1.9606190919876099,-0.5315057039260864,1.0151549577713013
1789322884110594800,8.8245947265625,1.5275181531906128,-0.4453641176223755,1.2089736461639404
1789322884129445000,8.843445068359374,5.695516109466553,1.4653047323226929,3.061915636062622
1789322884148295200,8.862295166015626,6.1313090324401855,-0.7420741319656372,0.2560320198535919
1789322884167145500,8.8811455078125,5.784050464630127,-0.8066803216934204,2.5283162593841553
1789322884185995500,8.89999560546875,9.576375007629395,-1.2711870670318604,2.1332013607025146
1789322884204845800,8.918845703125,8.594719886779785,-2.173879384994507,0.8330013751983643
1789322884223696000,8.93769580078125,7.833503246307373,-2.4227328300476074,0.2946162819862366
1789322884242546200,8.956546142578125,7.656434059143066,-4.960620403289795,-0.9912267923355103
1789322884261396200,8.975396240234375,7.141678333282471,-7.3043904304504395,1.3668999671936035
1789322884280246500,8.99424658203125,5.78644323348999,-8.628219604492188,1.5897315740585327
1789322884299096600,9.0130966796875,5.2166523933410645,-9.782157897949219,1.7668004035949707
1789322884317947000,9.03194677734375,6.066702842712402,-9.746265411376953,3.586242914199829
1789322884336797000,9.050796875,7.905287742614746,-8.702695846557617,4.132105827331543
1789322884365072100,9.079072021484375,9.497411727905273,-11.135000228881836,2.2169501781463623
1789322884383922400,9.09792236328125,8.393722534179688,-12.272189140319824,1.474876046180725
1789322884402772500,9.1167724609375,7.747361660003662,-12.1597261428833,1.745265007019043
1789322884421622800,9.135622802734375,7.1799635887146,-10.361519813537598,3.315854072570801
1789322884440472800,9.154472900390624,5.219045162200928,-9.904491424560547,5.537590026855469
1789322884459323100,9.1733232421875,4.491328239440918,-9.28445053100586,5.824728488922119
1789322884478173200,9.192173095703126,4.953442096710205,-8.099106788635254,4.922335147857666
1789322884497023500,9.2110234375,6.413661956787109,-8.238189697265625,3.0188448429107666
1789322884515873500,9.22987353515625,6.7178497314453125,-7.989036560058594,2.6264219284057617
1789322884534723600,9.2487236328125,8.496614456176758,-9.406484603881836,2.580958366394043
1789322884562999000,9.2769990234375,9.4088773727417,-14.105988502502441,3.468994617462158
1789322884581849000,9.29584912109375,6.2653069496154785,-11.044073104858398,2.6096723079681396
1789322884600699100,9.31469921875,6.255735874176025,-8.63061237335205,1.0965110063552856
1789322884619549400,9.333549560546874,7.435995578765869,-7.2661051750183105,1.6710875034332275
1789322884638399500,9.3523994140625,7.383353233337402,-8.331509590148926,2.190629243850708
1789322884657249800,9.371249755859376,9.648159980773926,-9.564411163330078,1.347757339477539
1789322884676099800,9.390099853515625,10.03848934173584,-11.072786331176758,2.5618157386779785
1789322884694950100,9.4089501953125,8.525327682495117,-12.202796936035156,2.0829520225524902
1789322884713800200,9.42780029296875,6.416054725646973,-11.060822486877441,1.3142578601837158
1789322884732650500,9.446650390625,4.977370262145996,-6.521637916564941,1.896012783050537
1789322884751500500,9.46550048828125,5.556732177734375,-3.6197423934936523,0.6990033388137817
1789322884770350800,9.484350830078125,5.006083965301514,-3.0260233879089355,0.6894320249557495
1789322884789201000,9.503200927734374,5.022833824157715,-0.5482555031776428,1.1108678579330444
1789322884808051200,9.52205126953125,5.461019515991211,-0.3640081584453583,1.4844473600387573
1789322884826901200,9.5409013671875,7.622934818267822,-2.801098108291626,0.8234301209449768
1789322884845751300,9.559751220703125,10.328021049499512,-3.411566972732544,2.0279171466827393
1789322884864601600,9.5786015625,5.353342533111572,-4.66361141204834,3.1387851238250732
1789322884883451600,9.59745166015625,5.8582282066345215,-1.079761266708374,2.573779821395874
1789322884902302000,9.616302001953125,7.58943510055542,-0.09571290761232376,2.410768747329712
1789322884921152000,9.635152099609375,6.67717170715332,-2.087737798690796,1.8792630434036255
1789322884940002300,9.654002197265624,6.1073808670043945,-1.7476578950881958,-0.14356936514377594
1789322884977702700,9.69170263671875,4.54636287689209,-0.9433703422546387,0.6655037999153137
1789322884996552700,9.710552734375,2.513660192489624,-0.9840483069419861,1.6974085569381714
1789322885015403000,9.729403076171875,4.417150497436523,-0.35443684458732605,1.9079769849777222
1789322885034253000,9.748253173828125,6.579065799713135,-0.579362154006958,1.55623197555542
1789322885053103000,9.76710302734375,6.401698112487793,-1.3334003686904907,1.9007984399795532
1789322885071953400,9.785953369140625,9.418449401855469,-1.9848463535308838,0.5769693851470947
1789322885090803500,9.804803466796875,5.2956156730651855,-3.849752426147461,0.3089732229709625
1789322885109653800,9.82365380859375,5.532804012298584,-5.317151069641113,1.342971682548523
1789322885128503800,9.84250390625,5.994917869567871,-8.496614456176758,1.9800606966018677
1789322885147354000,9.86135400390625,6.959524631500244,-11.498709678649902,3.6436707973480225
1789322885166204200,9.8802041015625,8.312366485595703,-13.586446762084961,4.445864677429199
1789322885185054500,9.899054443359375,7.373782157897949,-14.280664443969727,2.9470601081848145
1789322885203904500,9.917904541015625,8.28843879699707,-12.389437675476074,2.4227328300476074
1789322885222754600,9.936754638671875,10.414461135864258,-9.430413246154785,2.722134828567505
1789322885241604900,9.95560498046875,9.808479309082031,-8.56600570678711,2.588136672973633
1789322885260455000,9.974454833984375,8.20229721069336,-9.978668212890625,3.3684961795806885
1789322885279305200,9.99330517578125,7.392924785614014,-12.092727661132812,4.302295207977295
1789322885298155300,10.0121552734375,6.885347366333008,-11.975179672241211,3.85693097114563
1789322885317005600,10.031005615234376,5.815157413482666,-8.901300430297852,3.4235310554504395
1789322885335855600,10.049855712890626,5.760122299194336,-8.338687896728516,1.9366908073425293
1789322885354705700,10.06870556640625,5.290830135345459,-8.307580947875977,3.1483564376831055
1789322885373556000,10.087555908203125,6.859025955200195,-8.858229637145996,2.379662036895752
1789322885392406000,10.106406005859375,6.138487339019775,-8.80798053741455,2.746062994003296
1789322885411256300,10.12525634765625,5.843871116638184,-8.372187614440918,2.1260228157043457
1789322885430106400,10.1441064453125,5.2477593421936035,-7.981858253479004,2.8465616703033447
1789322885448956400,10.162956298828124,5.798407554626465,-7.807182312011719,3.2751760482788086
1789322885467806700,10.181806640625,7.6875410079956055,-8.070392608642578,2.841775894165039
1789322885486656800,10.20065673828125,8.353044509887695,-9.361021041870117,3.8832521438598633
1789322885505507000,10.219507080078126,8.992227554321289,-10.684850692749023,2.848954439163208
1789322885524357000,10.238357177734375,8.515756607055664,-11.101500511169434,1.6615161895751953
1789322885590332700,10.304332763671875,8.31715202331543,-4.850550651550293,0.37597227096557617
1789322885609182700,10.3231826171875,7.012166976928711,-6.449554443359375,1.903191328048706
1789322885628033000,10.342032958984374,4.9654059410095215,-4.041178226470947,0.9074779748916626
1789322885646883000,10.360883056640626,4.939085006713867,-1.6064813137054443,3.3613176345825195
1789322885665733400,10.3797333984375,7.950751304626465,-0.47647079825401306,2.0470597743988037
1789322885684583400,10.39858349609375,7.498208999633789,-4.072285175323486,2.042274236679077
1789322885703433700,10.417433837890625,6.322734832763672,-2.872882604598999,1.5251253843307495
1789322885722283800,10.43628369140625,6.346662998199463,-2.3461625576019287,1.0869396924972534
1789322885741133800,10.4551337890625,5.053940296173096,-1.7691932916641235,2.5546371936798096
1789322885759984000,10.473984130859375,4.4721856117248535,-1.3812568187713623,1.5538392066955566
1789322885778834200,10.492834228515624,6.835097789764404,-0.7803592681884766,1.6064813137054443
1789322885797684500,10.5116845703125,2.386840581893921,-1.1826525926589966,1.0510473251342773
1789322885816534500,10.530534423828126,2.975774049758911,-0.6990033388137817,0.9433703422546387
1789322885835384800,10.549384765625,4.0435709953308105,0.6487540602684021,1.9896320104599
1789322885854235000,10.56823486328125,8.975478172302246,1.1850453615188599,1.6208382844924927
1789322885873085000,10.5870849609375,8.68325424194336,-1.628016710281372,1.9824535846710205
1789322885891935200,10.605935302734375,3.7277185916900635,-3.2201411724090576,0.42382872104644775
1789322885910785300,10.624785400390625,6.258128643035889,-2.98295259475708,0.46450668573379517
1789322885929635600,10.643635498046875,5.262115955352783,-5.051547527313232,-0.2225325107574463
1789322885948485600,10.662485595703124,5.819942951202393,-6.4304118156433105,2.731706142425537
1789322885967335700,10.681335693359374,7.091429233551025,-7.502994537353516,2.918346405029297
1789322885986186000,10.70018603515625,7.6875410079956055,-8.609076499938965,2.683849811553955
1789322886005036000,10.7190361328125,8.063214302062988,-11.34796142578125,1.2592228651046753
1789322886023886300,10.73788623046875,7.945965766906738,-13.26102352142334,1.3453645706176758
1789322886042736400,10.756736328125,8.360222816467285,-13.452448844909668,1.5801602602005005
1789322886061586400,10.77558642578125,7.871788501739502,-12.722338676452637,3.4235310554504395
1789322886080436700,10.794436767578125,8.664112091064453,-10.79731273651123,4.4243292808532715
1789322886099286800,10.813286865234375,7.965108394622803,-10.483853340148926,5.080261707305908
1789322886118136800,10.83213671875,7.402495861053467,-11.891430854797363,6.238986015319824
1789322886136987100,10.850987060546874,5.992525100708008,-11.01296615600586,5.13529634475708
1789322886155837200,10.869837158203126,4.398007869720459,-6.973881721496582,3.78753924369812
1789322886174687500,10.8886875,10.344770431518555,-8.63061237335205,0.5530411601066589
1789322886193537500,10.90753759765625,9.856635093688965,-14.484354019165039,3.859323740005493
1789322886212387800,10.926387939453125,8.10389232635498,-15.719648361206055,4.335794448852539
1789322886231238000,10.94523779296875,6.588637351989746,-9.564411163330078,2.5785655975341797
1789322886250088000,10.964087890625,3.4402806758880615,-6.267699718475342,1.623231053352356
1789322886268938200,10.982938232421875,2.659921407699585,-5.242973327636719,2.863311290740967
1789322886287788300,11.001788330078124,6.653243541717529,-5.7792649269104,1.4724832773208618
1789322886306638600,11.020638671875,6.6149582862854,-8.506185531616211,1.9848463535308838
1789322886325488600,11.039488525390626,9.595518112182617,-9.535696983337402,1.7356936931610107
1789322886344338700,11.058338623046875,11.304890632629395,-10.543673515319824,1.6064813137054443
1789322886363189000,11.07718896484375,7.878966808319092,-12.078370094299316,3.3278181552886963
1789322886382039000,11.0960390625,5.324329376220703,-11.405388832092285,2.8130621910095215
1789322886400889300,11.114889404296875,3.976572036743164,-5.429912567138672,1.1276177167892456
1789322886419739400,11.133739501953125,7.543672561645508,0.41904306411743164,0.37597227096557617
1789322886438589400,11.15258935546875,12.971192359924316,-4.874478816986084,2.801098108291626
1789322886457439700,11.171439697265624,12.250653266906738,-8.067999839782715,4.2281174659729
1789322886476289800,11.190289794921876,7.8526458740234375,-8.044071197509766,3.2823543548583984
1789322886495140000,11.20914013671875,7.182356357574463,-5.697908878326416,2.801098108291626
1789322886513990100,11.227990234375,6.574280261993408,-2.2193429470062256,1.7333009243011475
1789322886532840200,11.246840087890625,4.266402721405029,-1.5945172309875488,-0.4262215197086334
1789322886551690500,11.2656904296875,1.8242281675338745,-1.5083755254745483,-0.20338992774486542
1789322886570540500,11.28454052734375,3.6583266258239746,0.6224330067634583,1.5801602602005005
1789322886589390800,11.303390869140625,3.6822550296783447,2.056631088256836,2.2911276817321777
1789322886608241000,11.322240966796874,3.521636724472046,0.7205387353897095,2.2576282024383545
1789322886627091200,11.34109130859375,3.6822550296783447,-0.7444669604301453,0.26560330390930176
1789322886645941200,11.359941162109376,3.459423303604126,-1.3094722032546997,1.2376874685287476
1789322886664791300,11.378791259765626,2.6814568042755127,-0.7444669604301453,1.2448660135269165
1789322886683641600,11.3976416015625,7.395317554473877,0.24885354936122894,0.5865406394004822
1789322886702491600,11.41649169921875,7.167999267578125,-1.3262219429016113,0.5985047817230225
1789322886721342000,11.435342041015625,7.368996620178223,-2.3198416233062744,0.6200401782989502
1789322886740192000,11.45419189453125,7.361817836761475,-2.557030200958252,0.9433703422546387
1789322886759042000,11.4730419921875,6.4375901222229,-4.488935470581055,0.8428717851638794
1789322886777892400,11.491892333984374,5.3940205574035645,-5.726622581481934,0.6702894568443298
1789322886796742400,11.510742431640624,6.509674072265625,-7.318747043609619,3.0957143306732178
1789322886815592700,11.5295927734375,9.459127426147461,-10.076774597167969,4.467400074005127
1789322886834442800,11.54844287109375,8.872586250305176,-13.921741485595703,3.311068296432495
1789322886853293000,11.56729296875,6.291627883911133,-13.907383918762207,3.1004998683929443
1789322886872143000,11.58614306640625,5.501697540283203,-11.276176452636719,2.355733871459961
1789322886890993200,11.6049931640625,6.806384086608887,-8.238189697265625,3.4091739654541016
1789322886909843500,11.623843505859375,9.942776679992676,-8.611469268798828,3.4474592208862305
1789322886928693500,11.642693603515625,6.949953556060791,-11.151749610900879,3.490530014038086
1789322886947543800,11.661543701171874,5.585446357727051,-9.798908233642578,0.21296121180057526
1789322886966393900,11.680393798828124,4.864907741546631,-7.599006652832031,0.859621524810791
1789322886985244200,11.699244140625,6.492924213409424,-8.362615585327148,2.997309446334839
1789322887004094200,11.71809423828125,6.191129684448242,-10.90738296508789,4.666004180908203
1789322887022944300,11.7369443359375,6.617351055145264,-10.861919403076172,3.6583266258239746
1789322887041794600,11.755794677734375,5.807978630065918,-9.049654960632324,4.045963764190674
1789322887060644600,11.77464453125,5.046761989593506,-7.680362701416016,2.4562325477600098
1789322887079495000,11.793494873046875,5.164010524749756,-6.8997039794921875,2.334198474884033
1789322887098345000,11.812344970703125,8.324331283569336,-8.147261619567871,1.3932210206985474
1789322887117195300,11.8311953125,7.036394119262695,-9.904491424560547,1.9680966138839722
1789322887136045300,11.85004541015625,6.897311210632324,-10.129416465759277,2.8202404975891113
1789322887154895400,11.868895263671876,6.485745906829834,-9.578767776489258,2.667099952697754
1789322887173745700,11.88774560546875,4.551148891448975,-8.075178146362305,2.8202404975891113
1789322887192595700,11.906595703125,7.084250450134277,-6.768098831176758,2.181057929992676
1789322887211446000,11.925446044921875,9.808479309082031,-8.17119026184082,3.545564889907837
1789322887230296000,11.944296142578125,7.888537883758545,-11.338390350341797,3.1794631481170654
1789322887249146000,11.96314599609375,8.214261054992676,-12.334402084350586,1.1491531133651733
1789322887267996400,11.981996337890624,9.533304214477539,-10.347163200378418,2.2241287231445312
1789322887286846500,12.000846435546874,8.472685813903809,-10.215558052062988,3.507279872894287
1789322887305696800,12.01969677734375,8.611469268798828,-9.75105094909668,1.7380865812301636
1789322887324546800,12.038546875,7.208677291870117,-5.978168487548828,1.2664014101028442
1789322887343397000,12.057397216796875,5.96381139755249,-3.500101327896118,0.14117653667926788
1789322887362247200,12.0762470703125,5.480162143707275,-0.2799602448940277,1.4964114427566528
1789322887381097200,12.09509716796875,6.143272876739502,-0.5171487927436829,1.8194425106048584
1789322887399947500,12.113947509765625,5.458626747131348,-2.674278497695923,0.9888339638710022
1789322887418797600,12.132797607421875,3.7971103191375732,-3.11246395111084,1.5251253843307495
1789322887437648000,12.15164794921875,5.077868938446045,0.2994019389152527,2.221735715866089
1789322887456498000,12.170497802734374,3.5671002864837646,1.532303810119629,3.1028928756713867
1789322887475348200,12.18934814453125,3.81864595413208,1.0773683786392212,-0.13639089465141296
1789322887494198300,12.2081982421875,4.802694320678711,0.16031911969184875,0.40229329466819763
1789322887513048600,12.227048583984375,5.4514479637146,-0.8258228898048401,-0.6391827464103699
1789322887531898600,12.245898681640625,7.079464912414551,-1.098903775215149,0.275174617767334
1789322887550748700,12.264748779296875,9.93559741973877,-2.2241287231445312,1.695015788078308
1789322887569599000,12.283598876953125,5.719444274902344,-4.565505504608154,1.6064813137054443
1789322887588449000,12.302448974609375,6.303592205047607,-4.398007869720459,2.520838737487793
1789322887607299300,12.32129931640625,5.892026424407959,-4.570291042327881,1.4246268272399902
1789322887626149400,12.3401494140625,4.390829563140869,-4.53200626373291,1.4003994464874268
1789322887644999700,12.358999755859376,6.028417587280273,-3.9071803092956543,0.4740779995918274
1789322887663849700,12.377849609375,8.044071197509766,-3.0714869499206543,0.46450668573379517
1789322887692125000,12.406125,6.059524059295654,-6.21266508102417,1.5777673721313477
1789322887710975200,12.424975341796875,4.776372909545898,-10.531709671020508,2.2193429470062256
1789322887729825300,12.4438251953125,6.643671989440918,-11.98475170135498,3.5024940967559814
1789322887748675300,12.46267529296875,7.895716667175293,-14.434103965759277,3.895216226577759
1789322887767525600,12.481525634765624,8.357830047607422,-14.932110786437988,3.8617167472839355
1789322887786375700,12.500375732421874,8.17119026184082,-12.008679389953613,2.403590440750122
1789322887805226000,12.51922607421875,9.533304214477539,-10.02413272857666,2.7364916801452637
1789322887824076000,12.538075927734376,7.785646915435791,-11.661720275878906,5.616552829742432
1789322887842926300,12.55692626953125,5.899205207824707,-10.289735794067383,5.446662425994873
1789322887861776400,12.5757763671875,6.047560214996338,-7.160820960998535,4.560719966888428
1789322887880626400,12.59462646484375,6.480959892272949,-6.689135551452637,3.390031576156616
1789322887899476700,12.613476806640625,7.388139247894287,-9.878170013427734,2.707777976989746
1789322887918326800,12.632326904296875,8.020143508911133,-12.109477043151855,2.5016961097717285
1789322887937177000,12.651177001953124,7.45992374420166,-11.498709678649902,1.654337763786316
1789322887956027100,12.670027099609374,5.97098970413208,-8.975478172302246,1.3022937774658203
1789322887974877400,12.68887744140625,5.743372440338135,-7.701898097991943,1.2448660135269165
1789322887993727500,12.7077275390625,5.1209397315979,-7.474280834197998,2.643171787261963
1789322888012577500,12.72657763671875,5.276473045349121,-8.161619186401367,2.7269206047058105
1789322888031427800,12.745427734375,5.343770980834961,-8.231010437011719,1.8026927709579468
1789322888050278000,12.76427783203125,6.277271270751953,-8.087141990661621,1.3884353637695312
1789322888069128200,12.783128173828125,6.389733791351318,-8.494221687316895,2.286342144012451
1789322888087978200,12.801978271484375,8.515756607055664,-9.322735786437988,4.182354927062988
1789322888106828500,12.82082861328125,11.103893280029297,-9.624231338500977,4.362115859985352
1789322888125678600,12.8396787109375,10.648958206176758,-10.692028999328613,3.4809587001800537
1789322888144529000,12.85852880859375,9.205188751220703,-10.143773078918457,1.6040884256362915
1789322888163379000,12.87737890625,6.949953556060791,-6.777669906616211,1.3668999671936035
1789322888182229000,12.89622900390625,5.676373481750488,-2.6623141765594482,0.1339980661869049
1789322888201079300,12.915079345703125,5.745765209197998,-0.45972105860710144,1.7069798707962036
1789322888219929300,12.933929443359375,7.65164852142334,-1.1252248287200928,1.3597214221954346
1789322888238779600,12.952779541015625,6.727420806884766,-3.88803768157959,0.9481559991836548
1789322888257629700,12.971629638671875,5.2477593421936035,-2.3461625576019287,1.537089467048645
1789322888276480000,12.99047998046875,4.218546390533447,-0.5745765566825867,2.6312077045440674
1789322888295330000,13.009330078125,3.4618160724639893,0.97926265001297,2.786741018295288
1789322888314180000,13.02818017578125,5.1305108070373535,-0.39511483907699585,-0.11246266216039658
1789322888333030400,13.047030517578126,4.07467794418335,-2.1092731952667236,1.6304094791412354
1789322888351880400,13.06588037109375,5.061119079589844,-0.48843491077423096,1.596909999847412
1789322888370730800,13.084730712890625,6.5766730308532715,-1.7428722381591797,1.776371717453003
1789322888389580800,13.103580810546875,6.780063152313232,-2.746062994003296,2.204986095428467
1789322888408431000,13.12243115234375,5.089832782745361,-2.7340989112854004,1.9199410676956177
1789322888427281200,13.14128125,5.030012130737305,-1.5586248636245728,1.0558329820632935
1789322888446131500,13.16013134765625,7.3043904304504395,-1.0654042959213257,1.9752750396728516
1789322888464981500,13.1789814453125,6.432804584503174,-2.3916261196136475,0.49322056770324707
1789322888483831600,13.19783154296875,7.007380962371826,-3.1866414546966553,-0.7540382146835327
1789322888502681900,13.216681884765626,7.538887023925781,-4.156033992767334,-0.05024927482008934
1789322888521532000,13.235531982421875,8.563612937927246,-6.985845565795898,0.3520440459251404
1789322888540382200,13.25438232421875,6.9068827629089355,-12.44686508178711,-0.14117653667926788
1789322888559232300,13.273232177734375,4.359723091125488,-12.887443542480469,2.3126630783081055
1789322888578082600,13.29208251953125,7.919644832611084,-12.825230598449707,2.042274236679077
1789322888596932600,13.3109326171875,10.29452133178711,-13.576875686645508,5.087440013885498
1789322888615783000,13.329782958984374,9.08554744720459,-15.054144859313965,5.736194133758545
1789322888634633000,13.348633056640624,6.428019046783447,-13.304094314575195,3.7253258228302
1789322888653483000,13.36748291015625,7.969893932342529,-8.894122123718262,4.8792643547058105
1789322888672333300,13.386333251953126,7.792825222015381,-8.510971069335938,6.4666032791137695
1789322888691183400,13.405183349609375,5.405984401702881,-7.313961505889893,3.88803768157959
1789322888710033700,13.42403369140625,4.240081787109375,-5.906383514404297,2.9614171981811523
1789322888728883700,13.4428837890625,6.229414463043213,-6.9236321449279785,1.709372639656067
1789322888747733800,13.461733642578125,6.0523457527160645,-8.841479301452637,1.9151554107666016
1789322888766584000,13.480583984375,5.549553871154785,-8.592327117919922,2.358126640319824
1789322888785434400,13.499434326171874,7.103393077850342,-9.207581520080566,1.7572290897369385
1789322888804284400,13.518284423828124,6.62213659286499,-9.282057762145996,2.808276414871216
1789322888823134500,13.537134521484376,8.97787094116211,-10.284950256347656,3.70139741897583
1789322888841984800,13.55598486328125,8.168797492980957,-12.236296653747559,3.945465326309204
1789322888860834800,13.574834716796875,7.457530975341797,-12.095120429992676,2.9159533977508545
1789322888879685000,13.59368505859375,6.949953556060791,-10.59631633758545,1.2376874685287476
1789322888898535200,13.61253515625,6.023632049560547,-8.379365921020508,1.4988043308258057
1789322888917385500,13.631385498046875,4.893621444702148,-7.438388347625732,1.8337994813919067
1789322888936235500,13.650235595703125,5.937490463256836,-6.1313090324401855,0.8042874932289124
1789322888955085800,13.6690859375,6.6149582862854,-5.817550182342529,1.7859430313110352
1789322888973935900,13.687935791015626,8.515756607055664,-5.525625705718994,2.231307029724121
1789322888992786200,13.7067861328125,9.245866775512695,-6.191129684448242,2.6024937629699707
1789322889011636200,13.72563623046875,9.456734657287598,-5.628517150878906,2.0997018814086914
1789322889030486300,13.744486328125,9.451948165893555,-3.9957146644592285,1.8529419898986816
1789322889049336600,13.763336669921875,8.015357971191406,-4.4961137771606445,2.0303099155426025
1789322889068186600,13.7821865234375,7.1488566398620605,-4.048357009887695,2.2193429470062256
1789322889087037000,13.801036865234375,6.720242500305176,-4.057928085327148,0.24885354936122894
1789322889105887000,13.819886962890624,5.920740604400635,-2.918346405029297,0.6583253145217896
1789322889124737300,13.8387373046875,5.307579517364502,-0.038285162299871445,2.533101797103882
1789322889143587300,13.85758740234375,5.326722145080566,-0.27756741642951965,1.3645070791244507
1789322889162437600,13.876437744140626,0.9984052777290344,-0.37597227096557617,1.7644076347351074
1789322889181287700,13.89528759765625,4.175176620483398,2.386840581893921,0.8330013751983643
1789322889200138000,13.914137939453125,5.075475692749023,0.40707895159721375,0.7396813035011292
1789322889218988000,13.932988037109375,4.431507587432861,-2.2337000370025635,1.3070793151855469
1789322889237838300,13.95183837890625,7.471887588500977,-1.6112669706344604,0.9577272534370422
1789322889256688400,13.9706884765625,6.7417778968811035,-3.8138601779937744,0.038285162299871445
1789322889275538700,13.98953857421875,6.567101955413818,-3.6364922523498535,1.6926229000091553
1789322889294388700,14.008388671875,10.227521896362305,-2.1068804264068604,0.8715856671333313
1789322889313239000,14.027239013671876,8.755337715148926,-3.311068296432495,2.0231316089630127
1789322889332089000,14.046089111328126,7.507780075073242,-4.838586330413818,0.8620143532752991
1789322889350939400,14.064939453125,5.84865665435791,-8.609076499938965,1.1539387702941895
1789322889369789400,14.08378955078125,4.194318771362305,-12.046964645385742,1.6758731603622437
1789322889388639700,14.1026396484375,3.514458179473877,-10.989038467407227,4.2281174659729
1789322889407489800,14.12148974609375,5.2645087242126465,-7.278069019317627,3.7540395259857178
1789322889426340000,14.140340087890625,7.206284523010254,-6.1002020835876465,2.121237277984619
1789322889445190100,14.159190185546874,8.362615585327148,-5.697908878326416,1.6064813137054443
1789322889464040400,14.17804052734375,12.798909187316895,-9.48784065246582,0.03349951654672623
1789322889482890500,14.196890380859376,8.41286563873291,-17.754743576049805,2.7580273151397705
1789322889501740800,14.21574072265625,4.599005222320557,-20.60130500793457,4.60857629776001
1789322889520590800,14.2345908203125,3.524029493331909,-9.897313117980957,7.416852951049805
1789322889539441200,14.253441162109375,5.302793979644775,-4.127319812774658,6.181558132171631
1789322889558291200,14.272291259765625,6.646064758300781,-6.665207386016846,4.773980140686035
1789322889577141500,14.2911416015625,5.800800323486328,-9.971489906311035,3.7851462364196777
1789322889595991600,14.309991455078125,6.394519329071045,-8.934800148010254,2.7173492908477783
1789322889614841900,14.328841796875,8.130212783813477,-8.101499557495117,0.8401798605918884
1789322889633692000,14.34769189453125,7.797610759735107,-8.709874153137207,1.0055837631225586
1789322889652542200,14.366542236328126,5.022833824157715,-8.254939079284668,2.365305185317993
1789322889671392300,14.385392333984376,6.140880107879639,-7.960322856903076,1.3453645706176758
1789322889690242600,14.40424267578125,6.7896342277526855,-8.214261054992676,3.088535785675049
1789322889709092900,14.4230927734375,7.680362701416016,-9.961918830871582,3.514458179473877
1789322889727943000,14.44194287109375,6.607779502868652,-10.622636795043945,2.1164517402648926
1789322889746793000,14.46079296875,7.024429798126221,-9.492626190185547,0.9960124492645264
1789322889765643300,14.479643310546875,5.4418768882751465,-8.353044509887695,1.7668004035949707
1789322889784493600,14.49849365234375,6.104988098144531,-6.698707103729248,2.1164517402648926
1789322889803343600,14.517343505859374,9.483055114746094,-4.625326156616211,3.0260233879089355
1789322889822194000,14.53619384765625,10.675278663635254,-7.139285564422607,2.307877540588379
1789322889841044000,14.5550439453125,8.585148811340332,-10.636994361877441,1.7955143451690674
1789322889859894300,14.573894287109376,7.007380962371826,-7.771289825439453,0.6056832075119019
1789322889878744300,14.592744384765625,6.780063152313232,-2.36291241645813,1.501197099685669
1789322889897594600,14.6115947265625,5.836692810058594,-0.5745765566825867,0.5913262963294983
1789322889916444700,14.630444580078125,6.686742782592773,-1.165902853012085,0.9553344249725342
1789322889935295000,14.649294921875,7.500601768493652,-4.951049327850342,2.0374884605407715
1789322889954145000,14.66814501953125,6.0762739181518555,-5.06590461730957,2.887239694595337
1789322889972995300,14.686995361328124,7.060322284698486,-1.4796617031097412,3.3756744861602783
1789322889991845400,14.705845458984374,4.493721008300781,-1.7715860605239868,1.831406593322754
1789322890010695700,14.72469580078125,3.160320520401001,1.012762188911438,2.98295259475708
1789322890029546000,14.7435458984375,6.674778938293457,1.415055513381958,-0.3640081584453583
1789322890048396000,14.76239599609375,3.500101327896118,-0.6056832075119019,1.9606190919876099
1789322890067246300,14.781246337890625,5.84147834777832,-0.3640081584453583,-0.3161516785621643
1789322890086096400,14.800096435546875,3.8066816329956055,-0.9266205430030823,1.1012966632843018
1789322890104946700,14.81894677734375,4.874478816986084,-0.7372884750366211,0.7707880139350891
1789322890123796700,14.837796630859375,6.28205680847168,-0.41904306411743164,0.6320042610168457
1789322890142647000,14.85664697265625,8.252546310424805,-0.9649057388305664,-0.41186460852622986
1789322890161497300,14.875497314453124,7.502994537353516,-1.9968105554580688,0.059820566326379776
1789322890180347400,14.894347412109376,7.086643218994141,-3.9622151851654053,-0.11006984114646912
1789322890199197700,14.91319775390625,6.4375901222229,-9.538089752197266,1.7835501432418823
1789322890218047700,14.9320478515625,5.283651351928711,-15.717255592346191,3.9717864990234375
1789322890236898000,14.95089794921875,4.756931304931641,-16.16740608215332,6.837490558624268
1789322890255748000,14.969748046875,6.3993048667907715,-13.821242332458496,5.822335720062256
1789322890274598400,14.988598388671875,8.084749221801758,-10.569994926452637,4.450650215148926
1789322890293448400,15.007448486328125,9.523733139038086,-8.678468704223633,1.55623197555542
1789322890312298800,15.026298828125,8.886942863464355,-7.77607536315918,0.4381856322288513
1789322890331149000,15.045149169921874,7.52931547164917,-7.481459140777588,1.0534402132034302
1789322890349999000,15.0639990234375,6.73938512802124,-7.287640571594238,2.480160713195801
1789322890368849400,15.082849365234376,5.104189872741699,-8.336295127868652,3.842574119567871
1789322890387699500,15.101699462890625,4.433900356292725,-8.298009872436523,3.811467409133911
1789322890406549800,15.1205498046875,5.616552829742432,-8.436793327331543,4.3788652420043945
1789322890425400000,15.139400146484375,7.694719314575195,-12.147762298583984,5.595017433166504
1789322890444250000,15.15825,8.776873588562012,-14.479568481445312,6.136094570159912
1789322890463100400,15.177100341796875,8.989834785461426,-13.540983200073242,4.903192520141602
1789322890481950500,15.195950439453124,7.790432453155518,-10.79731273651123,1.7668004035949707
1789322890500800800,15.21480078125,6.557530403137207,-9.166903495788574,0.5315057039260864
1789322890519651000,15.233651123046876,6.081059455871582,-8.254939079284668,1.572981834411621
1789322890538501000,15.252501220703126,6.353841304779053,-8.805587768554688,2.2025933265686035
1789322890557351400,15.271351318359375,6.203093528747559,-8.855836868286133,1.9752750396728516
1789322890576201500,15.290201416015625,6.619743824005127,-8.616254806518555,1.7356936931610107
1789322890595051000,15.309051025390625,6.186343669891357,-8.570791244506836,1.7668004035949707
1789322890613901300,15.3279013671875,5.669195175170898,-8.510971069335938,1.9414764642715454
1789322890632751600,15.346751708984375,6.492924213409424,-7.112964630126953,2.2815563678741455
1789322890661026800,15.37502685546875,7.912466049194336,-6.512066841125488,2.338984251022339
1789322890679877000,15.393877197265626,10.189236640930176,-6.842276573181152,2.4705893993377686
1789322890698727200,15.41272705078125,8.671290397644043,-8.048856735229492,2.9925239086151123
1789322890717577500,15.431577392578125,7.39053201675415,-5.422734260559082,3.4737801551818848
1789322890736427800,15.450427734375,7.718647480010986,-2.2671995162963867,2.0398812294006348
1789322890755277800,15.46927783203125,6.756134510040283,-3.576671600341797,0.9720842242240906
1789322890774128000,15.488128173828125,5.2405805587768555,-2.30069899559021,0.8162516355514526
1789322890792978200,15.506978271484375,6.210271835327148,0.9026923179626465,1.446162223815918
1789322890811828500,15.525828369140624,6.619743824005127,0.8234301209449768,2.542673110961914
1789322890830678800,15.5446787109375,4.67078971862793,-1.714158296585083,1.1276177167892456
1789322890849528800,15.56352880859375,3.2416765689849854,-1.5418751239776611,0.3927220106124878
1789322890868379100,15.582379150390626,5.370092391967773,-0.521934449672699,0.7492526173591614
1789322890887229400,15.6012294921875,5.046761989593506,-0.36640095710754395,0.7588238716125488
1789322890906079500,15.62007958984375,5.015655517578125,-1.4820544719696045,0.6511468887329102
1789322890924929800,15.6389296875,4.261617183685303,-1.1132607460021973,0.9553344249725342
1789322890943779800,15.65777978515625,7.725826263427734,-0.0526420995593071,0.6631109714508057
1789322890962630100,15.676630126953125,8.15683364868164,-1.2975081205368042,0.890728235244751
1789322890981480400,15.69548046875,6.602993965148926,-2.535494804382324,1.4820544719696045
1789322891000330500,15.71433056640625,5.791228771209717,-2.944667339324951,0.6080760359764099
1789322891019180800,15.733180908203124,5.25972318649292,-5.56151819229126,1.6256239414215088
1789322891038031000,15.752031005859376,6.581458568572998,-9.72233772277832,2.4538395404815674
1789322891056881200,15.770881103515626,6.392126560211182,-12.114262580871582,3.232105255126953
1789322891075731500,15.7897314453125,6.270092487335205,-11.592328071594238,3.5096726417541504
1789322891094581800,15.808581787109375,6.650850772857666,-10.371091842651367,2.722134828567505
1789322891113431800,15.827431884765625,7.666005611419678,-9.940383911132812,2.5929224491119385
1789322891132282000,15.8462822265625,9.844670295715332,-10.12463092803955,3.085843801498413
1789322891151132400,15.86513232421875,9.013762474060059,-10.332806587219238,3.2105698585510254
1789322891169982500,15.883982421875,6.9475603103637695,-10.194023132324219,3.418745279312134
1789322891188832800,15.902832763671874,6.112166404724121,-9.38016414642334,4.086641788482666
1789322891207682800,15.921682861328126,7.440781116485596,-9.296415328979492,4.285545349121094
1789322891226533000,15.940533203125,6.902096748352051,-11.994322776794434,4.661218643188477
1789322891245383400,15.959383544921875,5.470590591430664,-11.700005531311035,4.53200626373291
1789322891264233500,15.9782333984375,5.446662425994873,-8.424829483032227,3.435495138168335
1789322891283083800,15.997083740234375,5.78644323348999,-7.232605457305908,2.5689942836761475
1789322891301934000,16.01593408203125,6.439982891082764,-8.197511672973633,2.3365912437438965
1789322891320784100,16.0347841796875,7.091429233551025,-9.63619613647461,1.9992033243179321
1789322891339634400,16.053634521484376,6.1935224533081055,-9.4088773727417,2.2432711124420166
1789322891358484700,16.072484619140624,5.8944196701049805,-8.66171932220459,2.7675983905792236
1789322891377334800,16.091334716796876,6.488138675689697,-8.851051330566406,2.118844509124756
1789322891396185000,16.11018505859375,6.689135551452637,-8.944371223449707,2.1403799057006836
1789322891415035400,16.129035400390624,7.850253105163574,-8.283653259277344,2.152343988418579
1789322891433885400,16.147885498046875,8.587541580200195,-8.896514892578125,1.0271191596984863
1789322891452735700,16.16673583984375,8.175975799560547,-9.432806015014648,2.262413740158081
1789322891471586000,16.1855859375,9.741479873657227,-8.714659690856934,2.5283162593841553
1789322891490436000,16.20443603515625,9.310771942138672,-9.839884757995605,3.1387851238250732
1789322891509286400,16.223286376953126,9.859027862548828,-8.697610855102539,2.7987051010131836
1789322891528136700,16.24213671875,7.481459140777588,-7.110571384429932,2.5546371936798096
1789322891546986800,16.26098681640625,7.108178615570068,-3.366103172302246,1.994417667388916
1789322891565837000,16.279837158203126,6.756134510040283,-0.5171487927436829,1.0271191596984863
1789322891584687400,16.298687255859374,6.555137634277344,-1.415055513381958,1.012762188911438
1789322891603537400,16.317537353515625,5.470590591430664,-2.1930220127105713,0.6080760359764099
1789322891622387700,16.3363876953125,4.639683246612549,-1.7907286882400513,1.410269856452942
1789322891641238000,16.355238037109373,5.542375564575195,-1.2113664150238037,3.6053855419158936
1789322891660088300,16.37408837890625,4.869693279266357,-2.0279171466827393,1.9103697538375854
1789322891678938400,16.3929384765625,4.7931227684021,-0.7995018362998962,1.6016956567764282
1789322891697788700,16.41178857421875,1.8601205348968506,-1.8529419898986816,0.7253243923187256
1789322891716639000,16.430638916015624,3.7971103191375732,0.7037889361381531,1.831406593322754
1789322891735489000,16.449489013671876,6.569494724273682,-0.26081767678260803,1.4724832773208618
1789322891754339300,16.46833935546875,4.963013172149658,-1.474876046180725,0.8330013751983643
1789322891773189600,16.487189697265624,5.202295303344727,-0.9505487680435181,1.1204391717910767
1789322891792040000,16.5060400390625,5.798407554626465,-1.8768702745437622,0.7540382146835327
1789322891810890000,16.524889892578123,4.867300510406494,-2.722134828567505,1.079761266708374
1789322891829740300,16.543740234375,7.364210605621338,-2.848954439163208,1.2496516704559326
1789322891848590600,16.562590576171875,6.949953556060791,-3.64127779006958,1.2496516704559326
1789322891867440600,16.581440673828126,7.455138206481934,-7.246962547302246,0.6391827464103699
1789322891886291000,16.600291015625,7.694719314575195,-10.227521896362305,1.2855439186096191
1789322891905141200,16.619141357421874,5.97098970413208,-13.904991149902344,1.0845468044281006
1789322891923991600,16.637991455078126,4.886443138122559,-14.580066680908203,1.9728822708129883
1789322891942841600,16.656841552734374,8.66889762878418,-12.461221694946289,5.094618320465088
1789322891961692000,16.67569189453125,11.515758514404297,-11.49392318725586,6.825526714324951
1789322891980542200,16.694542236328125,9.353842735290527,-12.011072158813477,4.625326156616211
1789322891999392500,16.713392578125,8.350651741027832,-11.685648918151855,3.208176851272583
1789322892018242600,16.73224267578125,7.495816230773926,-11.024930000305176,4.591826438903809
1789322892037092900,16.7510927734375,6.959524631500244,-9.863813400268555,4.6061835289001465
1789322892055943200,16.769943115234376,5.650052547454834,-8.898907661437988,3.1507492065429688
1789322892074793200,16.788793212890624,5.07308292388916,-7.596613883972168,2.729313373565674
1789322892093643500,16.8076435546875,4.974977493286133,-6.777669906616211,3.1411778926849365
1789322892112493800,16.826493896484376,6.363412857055664,-7.333104133605957,2.3365912437438965
1789322892131344100,16.84534423828125,5.525625705718994,-7.725826263427734,2.722134828567505
1789322892150194400,16.8641943359375,4.924727916717529,-7.682755470275879,1.800299882888794
1789322892169044500,16.88304443359375,4.158426761627197,-6.928418159484863,2.4945175647735596
1789322892187894800,16.901894775390623,5.415555953979492,-6.882954120635986,2.214557409286499
1789322892206745000,16.9207451171875,6.27487850189209,-7.431210041046143,3.1076784133911133
1789322892225595400,16.939595458984375,8.386544227600098,-8.7505521774292,2.7963123321533203
1789322892244445400,16.958445556640626,9.59073257446289,-10.06002426147461,2.693420886993408
1789322892263295700,16.977295654296874,8.992227554321289,-11.489137649536133,2.152343988418579
1789322892282146000,16.99614599609375,9.080761909484863,-11.190034866333008,1.9510477781295776
1789322892300996400,17.014996337890626,9.454340934753418,-9.042476654052734,3.028416156768799
1789322892319846400,17.033846435546874,9.38734245300293,-8.640183448791504,2.8202404975891113
1789322892338696700,17.05269677734375,10.201201438903809,-8.963513374328613,2.918346405029297
1789322892357547000,17.071547119140625,8.01057243347168,-8.022536277770996,2.5016961097717285
1789322892376397300,17.090397216796877,7.287640571594238,-5.257330417633057,1.800299882888794
1789322892395247600,17.10924755859375,7.618149280548096,-0.2560320198535919,0.8859425783157349
1789322892414097700,17.12809765625,5.609374523162842,-2.5522444248199463,0.7277171611785889
1789322892432948000,17.146947998046876,3.617349624633789,-4.017250061035156,0.8452646136283875
1789322892451798300,17.16579833984375,3.2440693378448486,-0.3496512174606323,1.3860424757003784
1789322892470648600,17.184648681640624,3.691826343536377,1.2233306169509888,2.7963123321533203
1789322892489499000,17.203498779296876,1.4844473600387573,-0.6774678826332092,2.4921247959136963
1789322892508349000,17.222348876953124,4.453042984008789,1.7309080362319946,3.342175006866455
1789322892527199200,17.24119921875,8.72183895111084,-0.5530411601066589,2.0853450298309326
1789322892546049500,17.260049560546875,7.438388347625732,-3.5168511867523193,0.2105683982372284
1789322892564899800,17.27889990234375,3.607778310775757,-2.8274190425872803,0.8018946647644043
1789322892583750100,17.297750244140627,3.624528169631958,-2.1954147815704346,-0.3975076675415039
1789322892602600400,17.316600341796875,4.781158924102783,-0.8306085467338562,-0.07417750358581543
1789322892621450500,17.335450439453126,7.895716667175293,-0.1986042857170105,1.5227324962615967
1789322892640300800,17.35430078125,7.7593255043029785,-1.628016710281372,1.2855439186096191
1789322892659151000,17.373151123046874,6.3993048667907715,-3.2057840824127197,1.474876046180725
1789322892678001400,17.39200146484375,6.4905314445495605,-6.183950901031494,0.2392822653055191
1789322892696851700,17.410851806640625,5.480162143707275,-9.873384475708008,1.201795220375061
1789322892715701800,17.42970166015625,7.479066371917725,-11.017751693725586,2.5953152179718018
1789322892734552000,17.448552001953125,8.633005142211914,-12.595220565795898,3.373281717300415
1789322892753402400,17.46740234375,8.29561710357666,-14.692529678344727,3.4857444763183594
1789322892772252700,17.486252685546877,7.079464912414551,-14.46042537689209,3.215355396270752
1789322892791103000,17.50510302734375,7.268497943878174,-10.747063636779785,4.323830604553223
1789322892809953300,17.523953369140624,8.477471351623535,-7.560422420501709,4.366901397705078
1789322892828803300,17.54280322265625,8.812766075134277,-7.945965766906738,3.7348971366882324
1789322892847653600,17.561653564453124,8.233403205871582,-9.478269577026367,3.5120654106140137
1789322892866504000,17.58050390625,7.689933776855469,-12.145369529724121,3.8856449127197266
1789322892885354200,17.599354248046875,6.557530403137207,-13.304094314575195,4.677968502044678
1789322892904204500,17.61820458984375,4.768895626068115,-8.443971633911133,4.565505504608154
1789322892923054800,17.637054931640623,5.8749775886535645,-7.060322284698486,2.3150558471679688
1789322892941905200,17.6559052734375,6.310770511627197,-7.364210605621338,2.087737798690796
1789322892960755200,17.674755126953126,6.483353137969971,-8.003393173217773,2.3748764991760254
1789322892979605500,17.69360546875,7.108178615570068,-9.329915046691895,1.7907286882400513
1789322892998455800,17.712455810546874,6.451947212219238,-8.695218086242676,2.3222343921661377
1789322893017306000,17.73130615234375,6.27487850189209,-8.793622970581055,2.118844509124756
1789322893036156400,17.750156494140626,5.370092391967773,-9.06401252746582,2.475374937057495
1789322893055006700,17.7690068359375,4.386044025421143,-8.85344409942627,1.721336841583252
1789322893073857000,17.78785693359375,6.004489421844482,-7.613363265991211,1.2975081205368042
1789322893092707000,17.80670703125,9.037691116333008,-7.022037029266357,2.0709879398345947
1789322893111557600,17.8255576171875,9.48066234588623,-9.746265411376953,3.122035264968872
1789322893130407700,17.84440771484375,9.35623550415039,-11.221141815185547,2.2480568885803223
1789322893149258000,17.863258056640625,7.313961505889893,-10.747063636779785,1.1084750890731812
1789322893168108300,17.8821083984375,6.909275531768799,-7.402495861053467,3.3852458000183105
1789322893186958600,17.90095849609375,9.241081237792969,-2.1332013607025146,2.580958366394043
1789322893205809000,17.919808837890624,7.788039684295654,-1.903191328048706,1.8337994813919067
1789322893224659200,17.9386591796875,5.391627788543701,-3.308675527572632,0.5913262963294983
1789322893243509500,17.957509521484376,4.977370262145996,-3.3589248657226562,-0.2994019389152527
1789322893262359800,17.97635986328125,7.316354274749756,-0.7707880139350891,0.6655037999153137
1789322893281210000,17.995210205078124,6.557530403137207,-1.2137593030929565,2.2025933265686035
1789322893300060400,18.014060302734375,4.232903480529785,-3.576671600341797,2.396411895751953
1789322893318910500,18.032910400390627,4.771587371826172,-2.0303099155426025,0.6176473498344421
1789322893337760800,18.0517607421875,4.304687976837158,-0.4334000051021576,2.6096723079681396
1789322893356611300,18.070611328125,2.6264219284057617,-0.9984052777290344,2.379662036895752
1789322893375461400,18.08946142578125,6.495316982269287,1.3405789136886597,2.8609185218811035
1789322893394311700,18.108311767578126,7.9005022048950195,-0.9170492887496948,2.011167526245117
1789322893413162000,18.127161865234374,6.018846035003662,-3.1579277515411377,1.1635099649429321
1789322893432012300,18.14601220703125,4.874478816986084,-2.9231319427490234,1.4054841995239258
1789322893450862600,18.164862548828125,4.100998878479004,-2.5307090282440186,0.37836506962776184
1789322893469713000,18.183712890625,4.565505504608154,-2.540280342102051,0.7899305820465088
1789322893488563200,18.202563232421873,5.819942951202393,-1.477268934249878,1.6471593379974365
1789322893507413500,18.22141357421875,7.134500026702881,-1.651944875717163,0.9266205430030823
1789322893526263800,18.240263916015625,6.736992359161377,-2.944667339324951,0.6320042610168457
1789322893545114000,18.259114013671876,7.548458099365234,-7.366603374481201,-0.4573282301425934
1789322893563964400,18.27796435546875,6.849454879760742,-11.652149200439453,0.7181459069252014
1789322893582814700,18.296814697265624,7.536494255065918,-15.21207046508789,1.8505492210388184
1789322893601665000,18.3156650390625,10.584351539611816,-18.439390182495117,4.42193603515625
1789322893620515300,18.334515380859376,11.261819839477539,-18.96371841430664,8.051250457763672
1789322893639365600,18.35336572265625,9.798908233642578,-14.05813217163086,5.695516109466553
1789322893658216000,18.3722158203125,7.287640571594238,-9.3490571975708,4.07467794418335
1789322893677066200,18.391066162109375,6.902096748352051,-8.329116821289062,4.338187217712402
1789322893695916500,18.40991650390625,6.473781585693359,-7.562815189361572,4.273581027984619
1789322893714766800,18.428766845703127,7.05553674697876,-7.934001445770264,3.5024940967559814
1789322893733617200,18.4476171875,6.62213659286499,-9.107083320617676,2.3748764991760254
1789322893752467500,18.466467529296875,5.472983360290527,-7.819146156311035,1.9728822708129883
1789322893771317800,18.48531787109375,5.231009483337402,-6.703492641448975,1.6040884256362915
1789322893790168000,18.50416796875,5.140082359313965,-6.207879066467285,1.812264084815979
1789322893809018400,18.523018310546874,5.274080276489258,-6.368198394775391,2.214557409286499
1789322893827868700,18.54186865234375,4.680361270904541,-6.449554443359375,2.604886531829834
1789322893846719000,18.560718994140625,5.700301647186279,-7.041179656982422,2.6001009941101074
1789322893865569300,18.5795693359375,6.832705020904541,-8.149654388427734,2.9303104877471924
1789322893884419600,18.598419677734373,9.059226989746094,-9.157332420349121,2.6551358699798584
1789322893903270000,18.617269775390625,11.62582778930664,-11.338390350341797,2.0518453121185303
1789322893922120200,18.6361201171875,10.818848609924316,-12.940085411071777,3.2297122478485107
1789322893940970500,18.654970458984376,8.15683364868164,-12.956835746765137,3.2368907928466797
1789322893959820800,18.67382080078125,6.583851337432861,-10.510174751281738,2.8202404975891113
1789322893978671000,18.692671142578124,6.859025955200195,-6.547959327697754,1.1611171960830688
1789322893997521400,18.711521484375,6.818347930908203,-6.181558132171631,2.389233350753784
1789322894016371700,18.730371826171876,7.203891754150391,-4.867300510406494,1.446162223815918
1789322894035222300,18.74922216796875,5.283651351928711,-2.3270199298858643,1.1419745683670044
1789322894054072600,18.768072509765624,6.176772594451904,-2.557030200958252,0.6176473498344421
1789322894072923000,18.7869228515625,5.97098970413208,-4.060320854187012,0.7731808423995972
1789322894091773200,18.805773193359375,6.0834527015686035,-3.069094181060791,2.7436702251434326
1789322894110623500,18.82462353515625,7.103393077850342,-2.8824539184570312,2.3222343921661377
1789322894129473800,18.843473876953126,5.7170515060424805,-2.801098108291626,3.030808925628662
1789322894148324000,18.862323974609374,5.798407554626465,-0.12442677468061447,2.8130621910095215
1789322894167174400,18.88117431640625,5.504090309143066,-0.031106693670153618,0.2826521694660187
1789322894186024700,18.900024658203126,4.134498596191406,0.43579283356666565,-0.04307080805301666
1789322894204875300,18.918875244140626,1.470090389251709,-0.19621145725250244,1.3334003686904907
1789322894223725600,18.9377255859375,6.914061069488525,1.1874382495880127,0.6272186636924744
1789322894242576000,18.956575927734374,5.022833824157715,-0.8859425783157349,0.6774678826332092
1789322894261426200,18.97542626953125,8.338687896728516,0.2826521694660187,0.34247273206710815
1789322894280276500,18.9942763671875,8.5133638381958,-1.922333836555481,0.16749759018421173
1789322894299126800,19.013126708984377,6.631708145141602,-2.841775894165039,0.7229315638542175
1789322894317977000,19.03197705078125,8.755337715148926,-2.8848466873168945,0.6918248534202576
1789322894336827400,19.050827392578125,6.770491600036621,-5.511268615722656,-0.2922234535217285
1789322894355677700,19.069677734375,6.439982891082764,-9.573982238769531,2.338984251022339
1789322894374528300,19.0885283203125,6.638886451721191,-10.44796085357666,3.4737801551818848
1789322894393378600,19.107378662109376,5.578267574310303,-11.453245162963867,3.6726837158203125
1789322894412228900,19.126228759765624,4.814658164978027,-10.629815101623535,3.02123761177063
1789322894431079200,19.1450791015625,5.266901969909668,-8.228617668151855,2.614457845687866
1789322894449929500,19.163929443359375,9.815657615661621,-6.3825554847717285,1.4605190753936768
1789322894468779800,19.18277978515625,10.198808670043945,-7.019644260406494,2.573779821395874
1789322894487630300,19.20163037109375,7.4479594230651855,-11.747861862182617,3.193819999694824
1789322894506480600,19.220480712890627,5.949454307556152,-13.359128952026367,2.1619153022766113
1789322894525331000,19.2393310546875,5.84865665435791,-10.555638313293457,4.819443702697754
1789322894544181200,19.25818115234375,5.707480430603027,-9.478269577026367,6.387341022491455
1789322894563031600,19.277031494140626,4.951049327850342,-8.700303077697754,3.7660038471221924
1789322894581881900,19.2958818359375,6.447161674499512,-7.771289825439453,3.184248685836792
1789322894600732400,19.314732421875,8.058428764343262,-9.51894760131836,2.6886353492736816
1789322894619582700,19.333582763671874,7.2182488441467285,-9.92841911315918,4.000500202178955
1789322894638433000,19.35243310546875,6.7178497314453125,-9.116654396057129,2.863311290740967
1789322894657283300,19.371283447265625,5.609374523162842,-8.183154106140137,2.389233350753784
1789322894676133600,19.390133544921873,5.175974369049072,-7.421638488769531,3.1268210411071777
1789322894694984000,19.40898388671875,7.58943510055542,-8.499007225036621,2.8226335048675537
1789322894713834500,19.42783447265625,8.719446182250977,-10.739885330200195,2.949453115463257
1789322894732684800,19.446684814453125,9.087940216064453,-10.567602157592773,1.4868401288986206
1789322894751535000,19.46553515625,8.757730484008789,-10.27777099609375,0.9649057388305664
1789322894770385400,19.484385498046876,7.471887588500977,-10.009775161743164,1.6040884256362915
1789322894789236000,19.503236083984376,7.129714012145996,-8.824729919433594,2.5450658798217773
1789322894808086300,19.522086181640624,7.167999267578125,-7.072286605834961,2.480160713195801
1789322894826936600,19.5409365234375,7.562815189361572,-7.9316086769104,2.6575286388397217
1789322894845787000,19.559786865234376,9.38734245300293,-6.512066841125488,2.7436702251434326
1789322894864637200,19.57863720703125,8.55164909362793,-5.731408596038818,2.9566314220428467
1789322894883487500,19.597487548828123,5.855835437774658,-4.802694320678711,1.7979071140289307
1789322894902338000,19.616338134765623,7.050751209259033,1.6328023672103882,-0.26081767678260803
1789322894921188400,19.635188232421875,6.973881721496582,-1.3956137895584106,0.4405784606933594
1789322894940038700,19.65403857421875,3.85693097114563,-3.64127779006958,1.4605190753936768
1789322894958889200,19.67288916015625,5.494519233703613,-1.5825530290603638,1.4916257858276367
1789322894977739500,19.691739501953126,3.569493293762207,-1.1276177167892456,2.11405873298645
1789322894996589800,19.71058984375,5.544768333435059,0.3448655605316162,3.028416156768799
1789322895015440100,19.729440185546874,6.770491600036621,0.41186460852622986,1.7356936931610107
1789322895034290700,19.748290771484374,7.596613883972168,-1.0630114078521729,1.7668004035949707
1789322895053141000,19.76714111328125,5.4897332191467285,-2.9470601081848145,0.09810572862625122
1789322895071991300,19.7859912109375,5.784050464630127,-1.4557334184646606,1.072582721710205
1789322895090841900,19.804841796875,7.40488862991333,-1.2281162738800049,1.623231053352356
1789322895109692200,19.823692138671873,6.104988098144531,-2.262413740158081,1.434198021888733
1789322895128542500,19.84254248046875,3.459423303604126,-3.270390272140503,0.8811569213867188
1789322895147392800,19.861392822265625,5.549553871154785,-2.999702215194702,0.766002357006073
1789322895166243000,19.8802431640625,6.796812534332275,-2.389233350753784,1.0390832424163818
1789322895185093600,19.89909375,7.716254711151123,-2.683849811553955,1.2041879892349243
1789322895203944000,19.91794384765625,6.468996047973633,-4.994120121002197,0.8835497498512268
1789322895222794200,19.936794189453124,5.1305108070373535,-7.502994537353516,1.4964114427566528
1789322895241644800,19.955644775390624,6.916453838348389,-9.59791088104248,1.1300104856491089
1789322895260495000,19.9744951171875,6.404090881347656,-12.71037483215332,1.7668004035949707
1789322895279345400,19.993345458984376,6.713063716888428,-13.859527587890625,2.643171787261963
1789322895298196000,20.012196044921875,7.883752346038818,-13.174582481384277,3.809074640274048
1789322895317046300,20.03104638671875,9.09272575378418,-11.558829307556152,5.422734260559082
1789322895335896600,20.049896484375,7.8765740394592285,-10.615458488464355,5.628517150878906
1789322895354747000,20.068746826171875,6.94038200378418,-8.86780071258545,3.746861219406128
1789322895373597400,20.087597412109375,8.405686378479004,-8.274081230163574,3.090928554534912
1789322895392447700,20.10644775390625,6.7657060623168945,-9.662516593933105,4.591826438903809
1789322895411298000,20.125298095703126,5.831906795501709,-9.710372924804688,4.371686935424805
1789322895430148600,20.144148681640626,6.1935224533081055,-8.348258972167969,3.0092735290527344
1789322895448999000,20.1629990234375,5.425127029418945,-6.976274490356445,2.9805595874786377
1789322895467849200,20.18184912109375,5.748157978057861,-7.9005022048950195,1.7691932916641235
1789322895486699800,20.20069970703125,5.66201639175415,-8.0081787109375,1.781157374382019
1789322895505550000,20.219550048828125,6.478567123413086,-8.187939643859863,1.9558334350585938
1789322895524400400,20.238400390625,7.634898662567139,-9.131011009216309,2.1260228157043457
1789322895543251000,20.2572509765625,8.355437278747559,-10.730314254760742,3.5264222621917725
1789322895562101200,20.276101318359373,8.173583030700684,-11.841181755065918,3.1435706615448
1789322895580951600,20.29495166015625,7.476673603057861,-10.912168502807617,2.8513472080230713
1789322895609227300,20.323227294921875,8.891729354858398,-8.17119026184082,1.7117655277252197
1789322895628077600,20.34207763671875,9.028120040893555,-8.656932830810547,2.3772692680358887
1789322895646928100,20.36092822265625,8.216653823852539,-10.311270713806152,1.048654556274414
1789322895665778400,20.3797783203125,7.599006652832031,-8.465507507324219,0.8715856671333313
1789322895684629000,20.39862890625,8.874979019165039,-5.180759906768799,2.0374884605407715
1789322895703479300,20.417479248046874,7.548458099365234,-4.884049892425537,3.1316065788269043
1789322895722329600,20.43632958984375,5.3557353019714355,-2.999702215194702,1.1850453615188599
1789322895741180200,20.45518017578125,3.828217029571533,0.05503492057323456,0.09571290761232376
1789322895760030500,20.474030517578125,5.760122299194336,-2.197807550430298,1.1778669357299805
1789322895778880800,20.492880859375,5.604588985443115,-3.4402806758880615,1.4126626253128052
1789322895797731300,20.5117314453125,6.006882190704346,-1.5466607809066772,2.911167860031128
1789322895816581600,20.53058154296875,5.432305812835693,-1.6663018465042114,2.011167526245117
1789322895835432200,20.54943212890625,3.1890344619750977,-0.643968403339386,1.165902853012085
1789322895854282500,20.568282470703124,4.235296249389648,-0.5147559642791748,1.3860424757003784
1789322895873132800,20.5871328125,5.401198863983154,-0.7061817646026611,1.7189439535140991
1789322895891983400,20.6059833984375,6.160022735595703,-1.5490535497665405,1.134796142578125
1789322895910833700,20.624833740234376,4.809872627258301,-1.036690354347229,1.0414760112762451
1789322895929684200,20.643684326171876,6.976274490356445,-0.8644071817398071,1.2855439186096191
1789322895948534500,20.662534423828124,5.309972763061523,-1.9079769849777222,0.7301099896430969
1789322895967384800,20.681384765625,7.232605457305908,-0.5937191247940063,0.29700911045074463
1789322895986235400,20.7002353515625,8.731410026550293,-1.1228320598602295,-0.6870391964912415
1789322896005085700,20.719085693359375,5.671587944030762,-3.435495138168335,0.5769693851470947
1789322896023936300,20.737936279296875,5.769693374633789,-4.646861553192139,1.0079765319824219
1789322896042786600,20.75678662109375,7.036394119262695,-8.353044509887695,1.6806588172912598
1789322896061637000,20.77563720703125,6.028417587280273,-11.527722358703613,3.8377883434295654
1789322896080487400,20.7944873046875,5.161617755889893,-12.40857982635498,4.419543266296387
1789322896099338000,20.813337890625,6.794419765472412,-12.29133129119873,3.253640651702881
1789322896118188300,20.832188232421874,9.626625061035156,-11.469995498657227,2.731706142425537
1789322896137038600,20.85103857421875,9.779765129089355,-11.039287567138672,2.0135602951049805
1789322896165314300,20.879314208984376,8.424829483032227,-11.170892715454102,2.927917718887329
1789322896184164900,20.898164794921875,6.68435001373291,-10.268199920654297,5.25972318649292
1789322896203015200,20.91701513671875,5.492125988006592,-8.453543663024902,6.10259485244751
1789322896221865500,20.935865478515623,5.633302688598633,-7.725826263427734,3.7899320125579834
1789322896240716000,20.954716064453127,7.022037029266357,-9.176474571228027,2.7652056217193604
1789322896259566600,20.973566650390627,5.683551788330078,-10.390533447265625,3.2057840824127197
1789322896278417000,20.9924169921875,7.905287742614746,-9.547661781311035,2.152343988418579
1789322896297267200,21.01126708984375,8.166404724121094,-9.384949684143066,2.9709885120391846
1789322896316117800,21.03011767578125,7.340282440185547,-9.806086540222168,3.404388427734375
1789322896344393200,21.058393310546876,5.403591632843018,-8.633005142211914,2.8202404975891113
1789322896363243800,21.077243896484376,5.4897332191467285,-7.850253105163574,2.059023857116699
1789322896382094300,21.09609423828125,6.186343669891357,-7.610970497131348,2.540280342102051
1789322896400944600,21.114944580078124,8.149654388427734,-9.351449966430664,2.0518453121185303
1789322896419795000,21.133794921875,8.963513374328613,-11.326425552368164,2.1308085918426514
1789322896438645500,21.1526455078125,8.5731840133667,-11.604292869567871,2.018345832824707
1789322896457496000,21.17149609375,7.754539966583252,-10.115059852600098,2.7747769355773926
1789322896476346400,21.190346435546875,8.185546875,-8.463114738464355,2.5016961097717285
1789322896495197000,21.209197021484375,8.274081230163574,-7.134500026702881,2.3054845333099365
1789322896514047200,21.228047119140626,8.66889762878418,-6.49770975112915,1.92951238155365
1789322896532897800,21.246897705078126,7.960322856903076,-5.2956156730651855,1.745265007019043
1789322896551748000,21.265748046875,9.22433090209961,-2.7723841667175293,1.6615161895751953
1789322896570598700,21.2845986328125,6.9475603103637695,-3.974179267883301,1.0606186389923096
1789322896589449000,21.303448974609374,4.433900356292725,-4.235296249389648,1.0630114078521729
1789322896608299500,21.322299560546874,4.534399032592773,-0.4788636267185211,1.8098711967468262
1789322896627149800,21.34114990234375,4.069892406463623,-0.675075113773346,2.204986095428467
1789322896646000400,21.36000048828125,3.3373894691467285,-0.5650052428245544,1.8864415884017944
1789322896664850700,21.3788505859375,4.862514495849609,0.18424734473228455,3.2608189582824707
1789322896683701200,21.397701171875,6.069095611572266,-0.6535396575927734,1.415055513381958
1789322896702551600,21.416551513671877,3.8832521438598633,-1.6686947345733643,1.4437693357467651
1789322896721402000,21.435402099609377,7.584649562835693,-1.8696918487548828,1.0342975854873657
1789322896740252700,21.454252685546876,5.863013744354248,-2.2265214920043945,0.5769693851470947
1789322896759103000,21.47310302734375,4.41475772857666,-1.2951152324676514,0.3329014480113983
1789322896777953500,21.49195361328125,6.99541711807251,0.4788636267185211,0.4956133961677551
1789322896796803800,21.510803955078124,5.563910961151123,-1.537089467048645,0.06939185410737991
1789322896815654400,21.529654296875,4.656432628631592,-2.444268226623535,-0.20099709928035736
1789322896834504700,21.548504638671876,5.370092391967773,-1.5107684135437012,0.4573282301425934
1789322896853355300,21.567355224609376,7.1249284744262695,-1.8146568536758423,1.5490535497665405
1789322896872205600,21.58620556640625,6.674778938293457,-4.438685894012451,1.9319051504135132
1789322896891056000,21.60505615234375,7.120142936706543,-10.105487823486328,2.6024937629699707
1789322896909906700,21.62390673828125,8.786444664001465,-12.116655349731445,2.6024937629699707
1789322896928757000,21.642757080078123,7.8526458740234375,-14.302200317382812,2.2360928058624268
1789322896947607600,21.661607666015627,8.362615585327148,-15.293426513671875,2.2576282024383545
1789322896966457900,21.680457763671875,9.483055114746094,-14.398212432861328,4.802694320678711
1789322896985308400,21.699308349609375,7.926823139190674,-10.785348892211914,5.973382472991943
1789322897004158700,21.71815869140625,7.39053201675415,-9.090332984924316,4.951049327850342
1789322897023009300,21.73700927734375,7.766504287719727,-8.180761337280273,4.67078971862793
1789322897041859600,21.755859619140626,6.86381196975708,-7.934001445770264,3.5886356830596924
1789322897060710100,21.774710205078126,6.061916828155518,-7.675576686859131,2.3988046646118164
1789322897079560700,21.793560791015626,5.930311679840088,-7.835896015167236,0.8018946647644043
1789322897098411000,21.812410888671874,6.272485256195068,-7.747361660003662,1.0031908750534058
1789322897117261600,21.831261474609374,6.432804584503174,-8.238189697265625,2.2791635990142822
1789322897136111900,21.85011181640625,6.339484691619873,-8.13260555267334,2.887239694595337
1789322897164387600,21.8783876953125,7.409674644470215,-7.802396297454834,3.476173162460327
1789322897183238100,21.897238037109375,6.916453838348389,-7.89332389831543,4.3788652420043945
1789322897202088700,21.916088623046875,8.80798053741455,-9.786943435668945,3.098107099533081
1789322897220939000,21.93493896484375,9.080761909484863,-11.877074241638184,2.6647071838378906
1789322897239789600,21.95378955078125,8.319544792175293,-14.13709545135498,4.065106391906738
1789322897258640000,21.972639892578126,8.503792762756348,-13.10519027709961,2.3294129371643066
1789322897277490400,21.991490478515626,7.146463871002197,-10.486246109008789,2.379662036895752
1789322897296341000,22.010341064453126,7.9316086769104,-7.910073280334473,1.1132607460021973
1789322897315191300,22.02919140625,7.45992374420166,-6.396912097930908,0.007178467698395252
1789322897343467000,22.057467041015624,7.407281398773193,-5.700301647186279,1.5945172309875488
1789322897362317600,22.076317626953124,5.863013744354248,-4.73300313949585,1.1515458822250366
1789322897381167900,22.09516796875,4.2281174659729,-4.615755081176758,0.9409775137901306
1789322897400018400,22.114018310546875,4.319045066833496,-1.311864972114563,1.0821540355682373
1789322897418869000,22.132868896484375,5.530411243438721,-2.3437697887420654,1.7524434328079224
1789322897437719300,22.15171923828125,5.726622581481934,-1.6208382844924927,3.699004650115967
1789322897456569900,22.17056982421875,9.291629791259766,0.5027918815612793,2.872882604598999
1789322897475420200,22.189420166015626,8.17119026184082,-1.7117655277252197,2.2887349128723145
1789322897494270700,22.208270751953126,4.8314080238342285,-2.3437697887420654,1.6567305326461792
1789322897513121300,22.227121337890626,6.009274959564209,-1.3262219429016113,0.20099709928035736
1789322897531971800,22.245971923828126,3.4785659313201904,-1.994417667388916,-0.3161516785621643
1789322897550822100,22.264822265625,5.4418768882751465,-0.21296121180057526,1.378864049911499
1789322897569672700,22.283672607421874,5.496912002563477,-0.33529427647590637,-0.35443684458732605
1789322897588523000,22.30252294921875,7.807182312011719,1.2233306169509888,0.9098708033561707
1789322897607373600,22.32137353515625,9.303593635559082,-0.768395185470581,1.1060823202133179
1789322897626224000,22.34022412109375,5.9422760009765625,-4.170390605926514,1.7883358001708984
1789322897645074400,22.359074462890625,5.317151069641113,-3.943072557449341,0.4812564551830292
1789322897663925000,22.377925048828125,4.735395908355713,-5.532804012298584,0.857228696346283
1789322897682775600,22.396775634765625,5.075475692749023,-5.695516109466553,2.3988046646118164
1789322897701625900,22.4156259765625,5.556732177734375,-6.619743824005127,2.0781664848327637
1789322897720476400,22.434476318359376,5.714658737182617,-6.856633186340332,2.200200319290161
1789322897739327000,22.453326904296876,7.555636405944824,-5.767300605773926,1.1754741668701172
1789322897758177300,22.47217724609375,6.507281303405762,-6.799205780029297,1.1395817995071411
1789322897777027800,22.49102783203125,5.678766250610352,-8.702695846557617,1.8409779071807861
1789322897795878400,22.50987841796875,8.130212783813477,-13.483555793762207,3.224926710128784
1789322897814728700,22.528728759765624,7.699504852294922,-17.462520599365234,6.167201042175293
1789322897833579300,22.547579345703124,7.6875410079956055,-14.551352500915527,5.525625705718994
1789322897852429800,22.566429931640624,7.373782157897949,-10.16291618347168,3.507279872894287
1789322897871280000,22.585280029296875,6.21984338760376,-8.671290397644043,4.666004180908203
1789322897890130700,22.604130615234375,7.091429233551025,-8.286046028137207,3.677469253540039
1789322897908981200,22.622981201171875,6.866204738616943,-10.036096572875977,3.315854072570801
1789322897927831600,22.64183154296875,6.973881721496582,-12.269796371459961,3.9813578128814697
1789322897946682000,22.66068212890625,7.167999267578125,-10.392926216125488,2.8776683807373047
1789322897965532700,22.67953271484375,6.569494724273682,-6.9690961837768555,0.9433703422546387
1789322897984383000,22.698383056640626,5.714658737182617,-6.3442702293396,1.1371889114379883
1789322898003233500,22.717233642578126,5.2166523933410645,-7.957930088043213,1.86729896068573
1789322898022084000,22.736083984375,4.824229717254639,-8.056035995483398,2.0446670055389404
1789322898040934400,22.754934326171874,4.0818562507629395,-8.044071197509766,3.0236306190490723
1789322898059785000,22.773784912109374,4.431507587432861,-7.345067977905273,3.7348971366882324
1789322898078635500,22.792635498046874,5.556732177734375,-8.554041862487793,3.5024940967559814
1789322898097485800,22.81148583984375,11.417353630065918,-16.660625457763672,-7.323532581329346
1789322898116336400,22.83033642578125,12.4540433883667,-8.247760772705078,7.165606498718262
1789322898135187000,22.84918701171875,9.255437850952148,-7.4862446784973145,5.068297386169434
1789322898163462700,22.877462646484375,11.666505813598633,-6.73938512802124,4.194318771362305
1789322898182313000,22.89631298828125,9.698409080505371,-8.259724617004395,8.060821533203125
1789322898201163500,22.91516357421875,7.007380962371826,-6.521637916564941,7.4862446784973145
1789322898220014000,22.93401416015625,6.476174354553223,-5.276473045349121,5.757729530334473
1789322898238864600,22.95286474609375,6.250949859619141,-1.7691932916641235,5.839085578918457
1789322898257715000,22.97171484375,0.6774678826332092,-2.42512583732605,5.068297386169434
1789322898276565500,22.9905654296875,12.911372184753418,-1.690230131149292,0.04546362906694412
1789322898295416000,23.009416015625,-2.588136672973633,-4.450650215148926,-6.2174506187438965
1789322898314266600,23.0282666015625,3.373281717300415,2.9614171981811523,1.5538392066955566
1789322898333117000,23.047116943359374,7.63729190826416,-0.5913262963294983,7.146463871002197
1789322898351967500,23.065967529296874,5.614160060882568,-4.381258487701416,3.045166015625
1789322898370818000,23.084818115234373,5.3318071365356445,1.2352946996688843,1.292722463607788
1789322898389668600,23.103668701171873,5.870192050933838,2.283949136734009,0.4501497745513916
1789322898408519000,23.122518798828125,5.386841773986816,1.2281162738800049,0.6080760359764099
1789322898427369500,23.141369384765625,12.135798454284668,1.017547845840454,1.7979071140289307
1789322898446220000,23.160219970703125,5.915955066680908,-0.8620143532752991,2.410768747329712
1789322898465070300,23.1790703125,1.7883358001708984,-2.7987051010131836,1.970489501953125
1789322898483921000,23.1979208984375,2.9638099670410156,-5.161617755889893,3.006880760192871
1789322898502771500,23.216771484375,5.461019515991211,-5.949454307556152,4.1608195304870605
1789322898521621800,23.235621826171876,5.635695457458496,-7.498208999633789,3.308675527572632
1789322898540472300,23.254472412109376,3.583850145339966,-8.235795974731445,0.7516453862190247
1789322898559323000,23.273322998046876,5.5998029708862305,-11.491530418395996,-2.5689942836761475
1789322898578173400,23.29217333984375,4.35254430770874,-12.343974113464355,-3.054737091064453
1789322898597023700,23.311023681640624,5.092225551605225,-10.715956687927246,-1.9103697538375854
1789322898615874300,23.329874267578123,4.40757942199707,-10.191629409790039,-3.490530014038086
1789322898634724900,23.348724853515623,6.516852378845215,-12.784552574157715,-6.512066841125488
1789322898653575400,23.367575439453127,6.016453266143799,-13.619946479797363,-5.573482036590576
1789322898672425700,23.38642578125,1.0055837631225586,-14.046168327331543,-5.836692810058594
1789322898691276300,23.4052763671875,4.426722049713135,-11.044073104858398,-8.731410026550293
1789322898710126800,23.424126953125,8.082356452941895,-14.654244422912598,-6.533602237701416
1789322898728977400,23.442977294921874,9.06401252746582,-10.098309516906738,-0.7301099896430969
1789322898747827700,23.46182763671875,5.463412284851074,-8.80798053741455,-3.2129626274108887
1789322898766678300,23.48067822265625,3.3373894691467285,-8.175975799560547,-7.316354274749756
1789322898785528800,23.49952880859375,3.6487553119659424,-8.305188179016113,-7.0097737312316895
1789322898804379400,23.51837939453125,4.850550651550293,-8.329116821289062,-1.6064813137054443
1789322898832655000,23.546655029296875,4.35254430770874,-10.378270149230957,-0.6056832075119019
1789322898851505700,23.565505615234375,6.3514485359191895,-5.886941909790039,-4.1368913650512695
1789322898879781400,23.593781494140625,6.1935224533081055,-6.894918441772461,-7.129714012145996
1789322898917482200,23.631482177734377,-1.3668999671936035,-9.827920913696289,-7.52931547164917
1789322898964608500,23.6786083984375,9.878170013427734,-3.897608995437622,-6.267699718475342
1789322898983459000,23.697458984375,2.9614171981811523,-12.097513198852539,-7.603792190551758
1789322899002309600,23.7163095703125,1.8481563329696655,-12.85633659362793,-8.870193481445312
1789322899021160000,23.735159912109374,2.080559253692627,-10.196415901184082,-9.593125343322754
1789322899040010500,23.754010498046874,1.7356936931610107,-8.424829483032227,-6.732206344604492
1789322899058861000,23.772861083984374,-0.39032918214797974,-11.506186485290527,-5.657230854034424
1789322899077711600,23.791711669921874,2.6479573249816895,-9.660123825073242,-2.612065076828003
1789322899096562000,23.81056201171875,4.060320854187012,-8.922835350036621,-3.6631124019622803
1789322899115412500,23.82941259765625,1.374078392982483,-11.920145034790039,-4.896014213562012
1789322899134263000,23.848262939453125,0.5985047817230225,-10.845169067382812,-6.181558132171631
1789322899162538800,23.876538818359375,8.93240737915039,-8.276473999023438,-2.8992037773132324
1789322899181389300,23.895389404296875,3.959822416305542,-5.25972318649292,-5.843871116638184
1789322899200239900,23.914239990234375,5.1065826416015625,-1.3812568187713623,-7.661220073699951
1789322899219090400,23.93309033203125,6.016453266143799,-3.0092735290527344,-3.5359935760498047
1789322899237940700,23.951940673828126,7.488637447357178,0.8500502705574036,-5.769693374633789
1789322899256791300,23.970791259765626,10.098309516906738,-0.4046861231327057,-6.179165363311768
1789322899275641900,23.989641845703126,10.720743179321289,-0.1698904037475586,-8.53729248046875
1789322899294492400,24.008492431640626,9.9140625,-2.832204818725586,-10.768599510192871
1789322899313343000,24.027343017578126,8.647361755371094,-2.080559253692627,-10.840383529663086
1789322899332193300,24.046193359375,7.99382209777832,-3.059522867202759,-11.65693473815918
1789322899351043800,24.0650439453125,5.870192050933838,-4.189533233642578,-10.210772514343262
1789322899369894400,24.083894287109374,5.987739562988281,-3.7181472778320312,-7.361817836761475
1789322899388745000,24.102744873046873,6.74656343460083,-2.6790640354156494,-5.877370834350586
1789322899407595300,24.12159521484375,8.140083312988281,-2.128415822982788,-6.681957244873047
1789322899426445800,24.14044580078125,8.937192916870117,-2.080559253692627,-8.15683364868164
1789322899445296400,24.15929638671875,11.599507331848145,-3.1100711822509766,-6.914061069488525
1789322899473572000,24.187572021484375,8.549256324768066,-7.778468132019043,-2.389233350753784
1789322899511273200,24.225273193359374,4.955834865570068,-3.9071803092956543,-7.024429798126221
1789322899548974000,24.26297412109375,3.9574296474456787,-4.9654059410095215,-5.508875846862793
1789322899567824600,24.28182470703125,4.48414945602417,-1.6639090776443481,-5.221437931060791
1789322899586675200,24.30067529296875,9.042476654052734,-1.7380865812301636,-7.70668363571167
1789322899605525800,24.31952587890625,11.575578689575195,-2.183450698852539,-5.973382472991943
1789322899624376300,24.338376220703125,13.081262588500977,-2.7795627117156982,-6.4375901222229
1789322899643226600,24.3572265625,9.48066234588623,-0.11964113265275955,-5.867799282073975
1789322899662077200,24.3760771484375,2.810669183731079,-2.228914260864258,-3.404388427734375
1789322899680927700,24.394927734375,2.1954147815704346,1.2831511497497559,-4.036392688751221
1789322899699778300,24.4137783203125,1.0103694200515747,3.583850145339966,-2.98295259475708
1789322899718628900,24.43262890625,3.0403802394866943,3.8760735988616943,-1.7572290897369385
1789322899737479200,24.451479248046876,7.656434059143066,3.1483564376831055,-3.5958142280578613
1789322899756329700,24.470329833984376,11.872288703918457,2.693420886993408,-3.308675527572632
1789322899775180300,24.48918017578125,12.08315658569336,1.7787644863128662,-1.1132607460021973
1789322899794030800,24.50803076171875,10.675278663635254,0.6702894568443298,-0.9337990283966064
1789322899812881400,24.52688134765625,9.847063064575195,-0.6894320249557495,0.8042874932289124
1789322899831732000,24.54573193359375,6.112166404724121,1.5634105205535889,-0.9744769930839539
1789322899850582300,24.564582275390624,5.9183478355407715,3.8856449127197266,-2.6862425804138184
1789322899869432800,24.583432861328124,8.329116821289062,4.805087089538574,-1.9390836954116821
1789322899888283400,24.602283447265624,12.250653266906738,2.097309112548828,-0.7875377535820007
1789322899907134000,24.621134033203123,12.719945907592773,1.158724308013916,0.5458626747131348
1789322899935409700,24.64940966796875,8.611469268798828,-1.596909999847412,1.378864049911499
1789322899954260200,24.66826025390625,8.072785377502441,-0.890728235244751,-0.064606212079525
1789322899991961300,24.70596142578125,6.093023777008057,4.771587371826172,-4.304687976837158
1789322900029662200,24.743662109375,12.255439758300781,1.079761266708374,-0.4956133961677551
1789322900048512800,24.7625126953125,10.29452133178711,2.566601276397705,-0.9481559991836548
1789322900067363300,24.78136328125,8.293224334716797,3.085843801498413,-0.6200401782989502
1789322900086214000,24.8002138671875,6.543173313140869,3.366103172302246,-0.0526420995593071
1789322900105064400,24.819064453125,5.798407554626465,4.086641788482666,0.02153540402650833
1789322900142765300,24.856765380859375,8.611469268798828,3.5671002864837646,-0.9194421172142029
