time,seconds_elapsed,z,y,x
1789323720584949500,0.239949462890625,0.7140804529190063,-0.19424942135810852,0.06291726976633072
1789323720603799600,0.258799560546875,0.6493306159973145,0.3500154912471771,0.41476529836654663
1789323720622649600,0.277649658203125,0.6933116316795349,0.6035171151161194,0.5607577562332153
1789323720641499600,0.296499755859375,0.781884491443634,0.3817795515060425,0.3970507085323334
1789323720660349700,0.315349609375,0.6090146899223328,-0.2516690790653229,0.2376195788383484
1789323720679200000,0.334199951171875,0.30481278896331787,-0.8160919547080994,0.27121618390083313
1789323720707475200,0.36247509765625,0.10628741979598999,-0.9058864712715149,0.26877278089523315
1789323720726325200,0.3813251953125,0.07635590434074402,-0.18081079423427582,0.23823043704032898
1789323720745175300,0.40017529296875,0.2883199155330658,0.28282228112220764,0.3298575282096863
1789323720764025300,0.419025390625,0.5619794726371765,0.037261683493852615,0.41293275356292725
1789323720782875600,0.437875732421875,0.5705313682556152,-0.6810947060585022,0.4721849262714386
1789323720801725700,0.4567255859375,0.5344913601875305,-0.7379034757614136,0.5882459282875061
1789323720820575700,0.47557568359375,0.46546560525894165,-0.0525328628718853,0.38727715611457825
1789323720839426000,0.494426025390625,0.29381752014160156,0.12766708433628082,-0.0794101431965828
1789323720858276000,0.513276123046875,0.29259583353996277,-0.2510582208633423,-0.2999260127544403
1789323720877126100,0.532126220703125,0.11545012891292572,-0.6627692580223083,-0.18691925704479218
1789323720895976200,0.55097607421875,0.11606097966432571,-1.0958600044250488,-0.012827792204916477
1789323720914826500,0.569826416015625,0.10750912129878998,-1.0787562131881714,0.1429382562637329
1789323720933676500,0.588676513671875,0.0397050715982914,-0.6743753552436829,0.24617144465446472
1789323720952526600,0.607526611328125,-0.0006108472589403391,-0.08612946420907974,0.21562908589839935
1789323720971377000,0.626376953125,-0.11972606182098389,-0.09529217332601547,0.06291726976633072
1789323720990227000,0.64522705078125,-0.18019993603229523,-0.6218425035476685,0.08246438205242157
1789323721009077000,0.664076904296875,-0.15943112969398499,-1.243685007095337,0.39949411153793335
1789323721027927000,0.682927001953125,-0.2107423096895218,-0.8533536195755005,0.6145123243331909
1789323721046777300,0.70177734375,-0.16859383881092072,0.1966928243637085,0.45508119463920593
1789323721065627400,0.72062744140625,0.2217375487089157,0.7110261917114258,0.09956810623407364
1789323721084477700,0.739477783203125,0.261442631483078,0.7275190949440002,0.17531315982341766
1789323721103327700,0.75832763671875,0.23090025782585144,0.9932376146316528,0.6768187880516052
1789323721122177800,0.777177734375,0.5644228458404541,2.3457298278808594,0.9174925684928894
1789323721141027800,0.79602783203125,1.0750911235809326,3.304759979248047,0.23151111602783203
1789323721159878100,0.814878173828125,1.5107016563415527,4.029911994934082,-0.6749862432479858
1789323721188153300,0.8431533203125,1.412966012954712,4.254703998565674,-1.455114483833313
1789323721207003400,0.86200341796875,1.5705646276474,2.7330069541931152,-1.2552911043167114
1789323721235278600,0.890278564453125,1.7171679735183716,1.7220547199249268,-0.6493306159973145
1789323721254129000,0.90912890625,1.6279842853546143,1.014006495475769,-0.5002838969230652
1789323721272979000,0.92797900390625,1.295607089996338,0.8386932611465454,-1.2027583122253418
1789323721291829000,0.9468291015625,0.6340594291687012,0.9681929349899292,-2.798978567123413
1789323721310679300,0.96567919921875,-0.25289076566696167,1.9437923431396484,-3.969972610473633
1789323721329529300,0.984529296875,-0.9932376146316528,1.3781477212905884,-3.94126296043396
1789323721348379400,1.00337939453125,-1.4160202741622925,0.6316160559654236,-2.7366721630096436
1789323721367229700,1.022229736328125,-1.595609426498413,0.28098973631858826,-1.7232764959335327
1789323721386079700,1.041079833984375,-1.568121314048767,0.3799470067024231,-1.501538872718811
1789323721404929800,1.0599296875,-1.3390535116195679,-0.3665083646774292,-1.7416019439697266
1789323721423780000,1.078780029296875,-1.090362310409546,-0.7330167293548584,-2.246161699295044
1789323721442630100,1.097630126953125,-0.8545753359794617,-0.8002098798751831,-2.915039539337158
1789323721461480400,1.11648046875,-0.786771297454834,0.04031591862440109,-3.5081722736358643
1789323721480330500,1.13533056640625,-0.975523054599762,0.8857285380363464,-3.620568037033081
1789323721499180500,1.1541806640625,-1.266897201538086,1.0494356155395508,-3.4861817359924316
1789323721518030800,1.17303076171875,-1.7776418924331665,0.6927008032798767,-3.3145334720611572
1789323721536881000,1.191880859375,-1.8625496625900269,1.7715333700180054,-3.4568610191345215
1789323721555731200,1.210731201171875,-1.6059937477111816,2.8203580379486084,-3.577197790145874
1789323721574581200,1.229581298828125,-1.0805888175964355,3.4024956226348877,-3.687150478363037
1789323721602856400,1.2578564453125,-0.05986303091049194,3.9870765209198,-4.377484321594238
1789323721621706800,1.276706787109375,0.6511631608009338,3.4886250495910645,-4.142307758331299
1789323721640556800,1.295556884765625,1.294385313987732,2.995060443878174,-3.6187355518341064
1789323721659406800,1.31440673828125,1.663413405418396,2.5638022422790527,-3.463580369949341
1789323721678257200,1.333257080078125,0.9938485026359558,3.032932996749878,-2.3029704093933105
1789323721697107200,1.352107177734375,0.09773556143045425,3.3670663833618164,-1.041494607925415
1789323721715957500,1.37095751953125,0.3243598937988281,3.6272873878479004,-0.7226322889328003
1789323721734807600,1.3898076171875,1.2070342302322388,1.9523441791534424,-0.2767138183116913
1789323721753657900,1.408657958984375,2.0109856128692627,-0.4563029110431671,-0.23028941452503204
1789323721772508000,1.4275078125,1.8576629161834717,-2.388489246368408,-0.3805578351020813
1789323721791358200,1.446358154296875,1.0708152055740356,-1.9731130599975586,-0.1459924876689911
1789323721810208300,1.465208251953125,0.4330907166004181,-0.9315420985221863,-0.11117420345544815
1789323721829058300,1.484058349609375,0.2498365342617035,-0.6719319820404053,-0.046424392610788345
1789323721847908600,1.50290869140625,0.15271180868148804,0.13560809195041656,-0.22723518311977386
1789323721866758700,1.521758544921875,0.7562289237976074,1.3163758516311646,-0.17286977171897888
1789323721885609000,1.54060888671875,1.3390535116195679,1.1630531549453735,-0.02993151545524597
1789323721913884200,1.56888427734375,1.1911520957946777,-0.5045598149299622,0.014049487188458443
1789323721932734500,1.587734375,0.6511631608009338,-0.6297835111618042,-0.261442631483078
1789323721951584500,1.60658447265625,-0.18569757044315338,-0.08002099394798279,-0.45324867963790894
1789323721970434800,1.625434814453125,-1.045770525932312,0.1698155403137207,-0.1973036676645279
1789323721989284900,1.644284912109375,-2.2223386764526367,-0.6200099587440491,0.17225892841815948
1789323722008135200,1.66313525390625,-4.023192882537842,-1.5131449699401855,0.70797199010849
1789323722026985200,1.681985107421875,-5.385382175445557,-2.095893383026123,0.6914790868759155
1789323722045835300,1.700835205078125,-5.357283115386963,-1.608437180519104,0.4220954477787018
1789323722064685600,1.719685546875,-4.110543727874756,-1.0317209959030151,0.2858765125274658
1789323722083536000,1.738535888671875,0.3390202224254608,-1.4031925201416016,-0.446529358625412
1789323722102386000,1.757385986328125,2.066572666168213,-1.3586006164550781,-0.6175665855407715
1789323722121236200,1.776236328125,0.9370396733283997,-0.29442837834358215,-0.6927008032798767
1789323722140086300,1.795086181640625,0.1435490995645523,0.6377245187759399,-0.6920899152755737
1789323722158936300,1.813936279296875,-0.0012216945178806782,0.8814526200294495,-0.6285618543624878
1789323722177786600,1.83278662109375,0.051922015845775604,1.01706063747406,-0.8081509470939636
1789323722196636700,1.85163671875,0.02748812735080719,1.334777593612671,-0.9553651213645935
1789323722215487000,1.870487060546875,-0.23884128034114838,1.6542507410049438,-0.6340594291687012
1789323722234337300,1.889337158203125,-0.6401679515838623,1.2833900451660156,-0.7476770281791687
1789323722253187300,1.908187255859375,-0.6945333480834961,0.6401679515838623,-0.7501204609870911
1789323722272037600,1.92703759765625,-0.07146912813186646,0.4312581717967987,-1.3976948261260986
1789323722290887700,1.9458876953125,0.3836120665073395,1.090362310409546,-1.014006495475769
1789323722309738000,1.964738037109375,0.6700994372367859,2.156978130340576,-0.8942803740501404
1789323722328588000,1.983588134765625,1.0164498090744019,2.2418859004974365,-0.9932376146316528
1789323722347438300,2.002438232421875,1.2479609251022339,1.2644537687301636,-0.7653915882110596
1789323722366288400,2.021288330078125,0.7824953198432922,1.8649930953979492,-0.129499614238739
1789323722385138700,2.040138671875,1.0164498090744019,0.4471401870250702,-0.5418215394020081
1789323722403988700,2.05898876953125,1.829563856124878,-2.0109856128692627,-0.2651077210903168
1789323722422839000,2.077839111328125,0.47829338908195496,-1.5180318355560303,1.4514493942260742
1789323722441689000,2.096689208984375,1.1636639833450317,-0.6664343476295471,1.6310385465621948
1789323722460539400,2.115539306640625,2.3866565227508545,-0.9590302109718323,1.7800853252410889
1789323722479389400,2.134389404296875,2.593122959136963,-1.1709941625595093,2.0445821285247803
1789323722498239700,2.15323974609375,3.255281448364258,-1.133732557296753,2.2162301540374756
1789323722517089800,2.17208984375,3.2424535751342773,-1.6163781881332397,2.3115224838256836
1789323722535940000,2.190940185546875,1.7525970935821533,-3.42143177986145,2.682917594909668
1789323722554790400,2.209790283203125,0.6865923404693604,-5.010322093963623,2.5595264434814453
1789323722573640400,2.228640380859375,-0.7110261917114258,-4.920527458190918,2.326793670654297
1789323722592490800,2.24749072265625,-0.7941014170646667,-2.251659393310547,2.2815909385681152
1789323722611340800,2.2663408203125,-0.9168817400932312,-2.6933019161224365,2.8319642543792725
1789323722630191000,2.285191162109375,-0.25289076566696167,-1.5455199480056763,2.5943446159362793
1789323722649041200,2.304041259765625,0.1575985997915268,-0.05375456064939499,1.5088690519332886
1789323722667891500,2.322891357421875,0.6646018028259277,0.5998520255088806,1.0476030111312866
1789323722686741800,2.34174169921875,0.573585569858551,0.8814526200294495,0.9779664874076843
1789323722705591800,2.360591796875,0.4813476502895355,0.6743753552436829,0.6529957056045532
1789323722724442000,2.379442138671875,0.08857285231351852,0.34757208824157715,0.3396310806274414
1789323722743292200,2.398292236328125,-0.32374903559684753,0.07574506103992462,-0.004886778071522713
1789323722762142500,2.417142578125,-0.30847787857055664,0.031153209507465363,-0.3268032968044281
1789323722780992500,2.435992431640625,-0.0012216945178806782,0.20157960057258606,-0.6804838180541992
1789323722799842800,2.4548427734375,0.517998456954956,-0.23212195932865143,-1.2693406343460083
1789323722818692900,2.47369287109375,0.8680139780044556,0.32313820719718933,-1.760538101196289
1789323722837543200,2.492543212890625,0.7140804529190063,0.46729815006256104,-1.8100167512893677
1789323722856393500,2.5113935546875,0.9932376146316528,0.38483378291130066,-1.6035504341125488
1789323722875243500,2.530243408203125,1.007897973060608,0.29503923654556274,-1.5131449699401855
1789323722894093800,2.54909375,0.5381564497947693,0.9071081876754761,-1.6304277181625366
1789323722912943900,2.56794384765625,0.05864133685827255,1.3108782768249512,-1.3793694972991943
1789323722931794200,2.586794189453125,0.06291726976633072,1.192984700202942,-1.5076473951339722
1789323722950644200,2.605644287109375,0.24311721324920654,1.087918996810913,-1.715335488319397
1789323722969494500,2.62449462890625,0.19241689145565033,1.0793671607971191,-1.654861569404602
1789323722988344800,2.6433447265625,-0.16798299551010132,1.8191795349121094,-1.5907225608825684
1789323723007195000,2.66219482421875,-0.6279509663581848,2.4434654712677,-1.6121022701263428
1789323723026045200,2.681045166015625,-0.7195780873298645,2.998725652694702,-1.7898588180541992
1789323723044895200,2.699895263671875,-0.5247178077697754,4.0427398681640625,-2.1465935707092285
1789323723063745500,2.71874560546875,-1.0757020711898804,3.7903835773468018,-1.7464886903762817
1789323723082595800,2.737595947265625,-1.4728291034698486,2.995060443878174,-1.0237799882888794
1789323723101446000,2.75644580078125,-1.1318999528884888,0.8380824327468872,-0.2999260127544403
1789323723120296200,2.775296142578125,-0.9877400398254395,-0.9126058220863342,0.5583143830299377
1789323723139146200,2.794146240234375,-1.271173119544983,-2.185076951980591,1.8521652221679688
1789323723157996500,2.81299658203125,-1.7672574520111084,-1.4343457221984863,2.4440762996673584
1789323723176846800,2.831846923828125,-2.497830867767334,0.3261924386024475,2.052523136138916
1789323723195697000,2.85069677734375,-3.3328590393066406,0.08796200156211853,1.7898588180541992
1789323723214547200,2.869547119140625,-3.6278982162475586,-0.2626643180847168,1.258345365524292
1789323723233397200,2.888397216796875,-3.111732244491577,-0.07574506103992462,-0.4355340898036957
1789323723252247600,2.90724755859375,-2.226003885269165,-1.235133171081543,-0.43858832120895386
1789323723271097900,2.926097900390625,0.05619794875383377,-1.1404517889022827,-0.6401679515838623
1789323723289948000,2.944947998046875,0.34818294644355774,-0.061084724962711334,-0.22723518311977386
1789323723308798200,2.963798095703125,0.31092125177383423,-0.07330167293548584,0.08979454636573792
1789323723327648300,2.982648193359375,0.20035789906978607,-0.3946073353290558,-0.11667182296514511
1789323723346498600,3.00149853515625,0.1588202863931656,-0.9510892033576965,-0.4434750974178314
1789323723365348900,3.020348876953125,0.130721315741539,-3.200916051864624,-1.02683424949646
1789323723384199000,3.039198974609375,-1.0958600044250488,-4.750101089477539,-0.4367557764053345
1789323723403049200,3.05804931640625,-1.8002432584762573,-4.467889785766602,1.0066763162612915
1789323723421899500,3.0768994140625,-2.3048031330108643,-3.033543825149536,1.5381897687911987
1789323723440749600,3.09574951171875,-1.9462357759475708,-0.45202696323394775,1.1496145725250244
1789323723459600000,3.114599853515625,-0.8203678727149963,1.180156946182251,0.9895725846290588
1789323723478450000,3.133449951171875,0.33230090141296387,0.9633061289787292,1.4685531854629517
1789323723497300200,3.15230029296875,0.13744063675403595,0.23823043704032898,1.2326897382736206
1789323723516150500,3.171150634765625,0.25594499707221985,1.115407109260559,1.456336259841919
1789323723535000600,3.19000048828125,0.6175665855407715,2.818525552749634,2.6236653327941895
1789323723553851000,3.208850830078125,1.3842562437057495,4.958399772644043,2.6389365196228027
1789323723572701000,3.227700927734375,1.4532819986343384,1.6175998449325562,1.7984106540679932
1789323723591551200,3.24655126953125,0.8777875304222107,-1.9474574327468872,0.7928797602653503
1789323723610401500,3.265401611328125,-0.11178504675626755,-1.0873081684112549,-0.16798299551010132
1789323723629251600,3.28425146484375,-0.33474430441856384,-0.5393781065940857,0.21379654109477997
1789323723648102000,3.303101806640625,-0.7531746625900269,-1.3708176612854004,1.1722159385681152
1789323723666952000,3.321951904296875,-0.5216635465621948,-1.123958945274353,1.385477900505066
1789323723685802200,3.34080224609375,-1.294385313987732,-1.4587795734405518,1.3096565008163452
1789323723704652500,3.359652587890625,-1.91386079788208,-2.28342342376709,1.7434344291687012
1789323723723502600,3.378502685546875,-2.1429286003112793,-1.9205801486968994,2.0769569873809814
1789323723742353000,3.397352783203125,-2.0677943229675293,0.41232189536094666,0.45324867963790894
1789323723761203200,3.416203125,-2.4642341136932373,0.420873761177063,0.7806627750396729
1789323723780053200,3.43505322265625,-3.0078883171081543,-0.6707102656364441,2.688415050506592
1789323723798903600,3.453903564453125,-2.934586524963379,-2.4068145751953125,4.0140299797058105
1789323723817753600,3.472753662109375,-2.972459077835083,-2.582127809524536,4.045183181762695
1789323723836604000,3.49160400390625,-3.988298177719116,-3.048204183578491,3.0524802207946777
1789323723855454200,3.5104541015625,-2.1313223838806152,-0.043981000781059265,2.400095224380493
1789323723883729400,3.5387294921875,0.7238540053367615,1.4728291034698486,1.1123528480529785
1789323723902579700,3.557579833984375,-0.04947862774133682,1.0738694667816162,0.22540263831615448
1789323723921429800,3.5764296875,-0.37200596928596497,0.6218425035476685,0.028098974376916885
1789323723940280000,3.595280029296875,-0.1313321590423584,0.7708892226219177,-0.01710372418165207
1789323723959130400,3.61413037109375,-0.15271180868148804,0.6505523324012756,-0.04947862774133682
1789323723977980400,3.63298046875,-0.314586341381073,0.1698155403137207,-0.24311721324920654
1789323723996830700,3.651830810546875,-0.3249707520008087,0.02076880633831024,-0.44103172421455383
1789323724015681000,3.670680908203125,-0.2993151545524597,0.018936265259981155,-0.5919110178947449
1789323724034531000,3.689531005859375,-0.37200596928596497,0.12705622613430023,-0.6322268843650818
1789323724053381400,3.70838134765625,-0.4446968138217926,0.19974705576896667,-0.8002098798751831
1789323724072231700,3.727231689453125,-0.41354358196258545,0.16492876410484314,-1.2339115142822266
1789323724091081700,3.746081787109375,-0.5332696437835693,0.2761029601097107,-1.673187017440796
1789323724109932000,3.76493212890625,-0.6432221531867981,0.37689274549484253,-2.0561883449554443
1789323724128782300,3.7837822265625,-0.6591041684150696,0.23090025782585144,-2.211954355239868
1789323724147632400,3.80263232421875,-0.5723638534545898,0.22845686972141266,-2.1001691818237305
1789323724166482700,3.821482666015625,-0.5332696437835693,-0.24250635504722595,-2.0042662620544434
1789323724185332700,3.840332763671875,-0.4856235682964325,-1.1044118404388428,-2.1441502571105957
1789323724204183000,3.85918310546875,-0.2638860046863556,-1.4325132369995117,-2.271817207336426
1789323724223033300,3.878033447265625,0.0030542362947016954,-1.5546826124191284,-2.023813247680664
1789323724241883400,3.89688330078125,-0.05375456064939499,-1.5907225608825684,-1.81246018409729
1789323724260733700,3.915733642578125,-0.2724378705024719,-1.469774842262268,-1.9169150590896606
1789323724279583700,3.934583740234375,-0.45263782143592834,-1.2571237087249756,-2.116051197052002
1789323724298434000,3.95343408203125,-0.3787252902984619,-1.4722182750701904,-2.196683168411255
1789323724317284400,3.972284423828125,-0.1569877415895462,-1.6395903825759888,-2.2156193256378174
1789323724336134400,3.991134521484375,0.14171656966209412,-1.543687343597412,-2.0506906509399414
1789323724354984700,4.009984619140625,0.5210527181625366,-1.0286667346954346,-1.7593164443969727
1789323724373834800,4.028834716796875,0.5070032477378845,-0.41171106696128845,-1.5516283512115479
1789323724392685000,4.04768505859375,0.3384093940258026,-0.45202696323394775,-1.1862653493881226
1789323724411535400,4.066535400390625,0.2339545041322708,-0.5332696437835693,-0.8289197087287903
1789323724430385400,4.085385498046875,0.2486148327589035,-0.29626092314720154,-0.7055285573005676
1789323724449235700,4.104235595703125,0.284654825925827,-0.21807247400283813,-0.5803049206733704
1789323724468086000,4.1230859375,0.29748260974884033,0.16553960740566254,-0.2754921019077301
1789323724486936000,4.14193603515625,0.24556060135364532,0.12522368133068085,0.0659715011715889
1789323724505786400,4.160786376953125,0.20219044387340546,0.03237490355968475,0.35856732726097107
1789323724524636400,4.179636474609375,0.2339545041322708,0.06902574002742767,0.577861487865448
1789323724543486700,4.19848681640625,0.2754921019077301,0.20341213047504425,0.7525638341903687
1789323724562337000,4.2173369140625,0.3011476993560791,0.4056025743484497,0.8527427911758423
1789323724581187000,4.23618701171875,0.3127537965774536,0.569309651851654,0.9926267862319946
1789323724600037400,4.255037353515625,0.2761029601097107,0.767224133014679,1.1099094152450562
1789323724618887700,4.2738876953125,0.1844758689403534,0.6450546979904175,1.1587772369384766
1789323724637737700,4.29273779296875,0.06780404597520828,0.418430358171463,1.136786699295044
1789323724656588000,4.311588134765625,-0.02748812735080719,0.3689517378807068,1.0763128995895386
1789323724675438000,4.33043798828125,-0.01588202826678753,0.3689517378807068,1.0476030111312866
1789323724694288400,4.349288330078125,0.02504473738372326,0.578472375869751,1.086086392402649
1789323724713138700,4.368138671875,0.042759306728839874,0.6988092660903931,1.1453386545181274
1789323724731988700,4.38698876953125,0.018936265259981155,0.577861487865448,1.1575555801391602
1789323724750839000,4.405839111328125,0.033596597611904144,0.3915531039237976,1.159998893737793
1789323724769689300,4.424689453125,0.11483928561210632,0.33291175961494446,1.226581335067749
1789323724788539400,4.443539306640625,0.2363978922367096,0.38544461131095886,1.3334795236587524
1789323724807389700,4.4623896484375,0.4416425824165344,0.3573456406593323,1.4080792665481567
1789323724826239700,4.48123974609375,0.49295374751091003,0.14904673397541046,1.4966521263122559
1789323724845090000,4.500090087890625,0.41476529836654663,-0.08918370306491852,1.621264934539795
1789323724863940400,4.5189404296875,0.2754921019077301,-0.04031591862440109,1.7244981527328491
1789323724882790400,4.537790283203125,0.11911521852016449,0.05925218388438225,1.8112385272979736
1789323724901640700,4.556640625,0.05131116881966591,0.19058434665203094,1.784972071647644
1789323724920491000,4.575490966796875,-0.04825693368911743,0.39949411153793335,1.825287938117981
1789323724939341000,4.594341064453125,-0.08490777015686035,0.2602209448814392,2.054966449737549
1789323724958191400,4.61319140625,-0.1569877415895462,-0.15026842057704926,2.1722493171691895
1789323724977041400,4.63204150390625,-0.13621893525123596,-0.3567348122596741,1.9480682611465454
1789323724995891700,4.6508916015625,-0.05375456064939499,-0.0024433890357613564,1.7226656675338745
1789323725014742000,4.669741943359375,-0.08612946420907974,0.2644968628883362,1.5296379327774048
1789323725033592300,4.68859228515625,-0.15026842057704926,0.29381752014160156,1.436178207397461
1789323725052442400,4.7074423828125,-0.10323318839073181,0.3176405727863312,1.1923738718032837
1789323725071292700,4.726292724609375,0.030542362481355667,0.40987852215766907,0.8594620823860168
1789323725090142700,4.745142822265625,0.0024433890357613564,0.45019441843032837,0.5632011890411377
1789323725108993000,4.763992919921875,-0.09345962852239609,0.46363306045532227,0.38727715611457825
1789323725127843300,4.78284326171875,-0.16065283119678497,0.5057815313339233,0.061084724962711334
1789323725146693400,4.801693359375,-0.12827792763710022,0.5247178077697754,-0.2241809368133545
1789323725165543700,4.820543701171875,-0.18019993603229523,0.41415444016456604,-0.4367557764053345
1789323725184394000,4.83939404296875,-0.23212195932865143,0.3665083646774292,-0.739736020565033
1789323725203244000,4.858244140625,-0.20524467527866364,0.34451785683631897,-1.012784719467163
1789323725222094300,4.87709423828125,-0.30786702036857605,0.29442837834358215,-1.266897201538086
1789323725240944400,4.8959443359375,-0.4318690001964569,0.0794101431965828,-1.5797274112701416
1789323725259794700,4.914794677734375,-0.4752391576766968,0.04337015375494957,-1.8423917293548584
1789323725278645000,4.93364501953125,-0.5137225389480591,0.017714571207761765,-2.1343767642974854
1789323725297495000,4.9524951171875,-0.49173203110694885,-0.0922379344701767,-2.3237392902374268
1789323725316345300,4.971345458984375,-0.49051034450531006,-0.19241689145565033,-2.2767040729522705
1789323725335195600,4.990195556640625,-0.6511631608009338,-0.4428642690181732,-2.014650583267212
1789323725354045700,5.009045654296875,-0.7403468489646912,-0.80937260389328,-1.8185685873031616
1789323725372896000,5.02789599609375,-0.7458444833755493,-1.1740484237670898,-1.7171679735183716
1789323725391746000,5.04674609375,-0.7507312893867493,-1.159998893737793,-1.598052740097046
1789323725410596400,5.065596435546875,-0.6774296164512634,-1.1496145725250244,-1.6163781881332397
1789323725429446700,5.08444677734375,-0.49356457591056824,-1.300493836402893,-1.7361042499542236
1789323725448296700,5.103296630859375,-0.2779355049133301,-1.221083641052246,-1.92363440990448
1789323725467147000,5.12214697265625,-0.08002099394798279,-1.1068552732467651,-1.9499008655548096
1789323725485997000,5.1409970703125,0.12216944992542267,-1.3059914112091064,-1.8955353498458862
1789323725504847400,5.159847412109375,0.265718549489975,-1.4575579166412354,-1.8979787826538086
1789323725523697700,5.17869775390625,0.2980934679508209,-1.216196894645691,-1.858884572982788
1789323725542547700,5.197547607421875,0.2877090573310852,-0.8386932611465454,-1.6249300241470337
1789323725570823200,5.2258232421875,0.43797749280929565,-0.38666632771492004,-1.1447277069091797
1789323725589673200,5.244673095703125,0.5870242118835449,-0.06413896381855011,-0.8863393664360046
1789323725608523500,5.2635234375,0.675597071647644,0.045202698558568954,-0.5882459282875061
1789323725627373800,5.282373779296875,0.6120689511299133,0.09529217332601547,-0.18691925704479218
1789323725646224000,5.301223876953125,0.3897205591201782,0.13377554714679718,0.23028941452503204
1789323725665074200,5.32007421875,0.25350162386894226,0.09468132257461548,0.5833591222763062
1789323725683924200,5.33892431640625,0.27121618390083313,0.18569757044315338,0.7965448498725891
1789323725702774500,5.3577744140625,0.30603447556495667,0.39888325333595276,0.8490777015686035
1789323725721624800,5.376624755859375,0.29442837834358215,0.6927008032798767,0.8857285380363464
1789323725740475000,5.395474853515625,0.12827792763710022,0.8955020904541016,0.9565867781639099
1789323725759325200,5.4143251953125,-0.09712471067905426,0.6041279435157776,1.0256125926971436
1789323725778175200,5.43317529296875,-0.26816195249557495,0.1973036676645279,1.0323318243026733
1789323725797025500,5.452025634765625,-0.3115321099758148,0.10628741979598999,0.9938485026359558
1789323725815875800,5.470875732421875,-0.182643324136734,0.4752391576766968,0.9535325765609741
1789323725834726000,5.489725830078125,-0.04031591862440109,0.7769976854324341,0.9358180165290833
1789323725853576200,5.508576171875,-0.011606098152697086,0.7849387526512146,0.9290986657142639
1789323725872426500,5.527426513671875,-0.04214845970273018,0.7183563709259033,0.9730796813964844
1789323725891276500,5.546276611328125,-0.08002099394798279,0.5876350402832031,1.12823486328125
1789323725910126800,5.565126953125,0.04031591862440109,0.2980934679508209,1.323706030845642
1789323725928977000,5.583976806640625,0.1844758689403534,0.261442631483078,1.450838565826416
1789323725947827200,5.6028271484375,0.2504473626613617,0.23212195932865143,1.4923762083053589
1789323725966677500,5.621677490234375,0.2211267054080963,0.16859383881092072,1.6322602033615112
1789323725985527600,5.640527587890625,0.13560809195041656,0.12644538283348083,1.780696153640747
1789323726004377900,5.6593779296875,0.1044548824429512,0.2638860046863556,1.8582737445831299
1789323726023228200,5.678228271484375,0.08063183724880219,0.42759308218955994,2.0341978073120117
1789323726042078200,5.697078125,0.03420744836330414,0.5161659121513367,2.0946714878082275
1789323726060928500,5.715928466796875,-0.053143709897994995,0.5577035546302795,2.148426055908203
1789323726079778600,5.734778564453125,-0.22967857122421265,0.0787992998957634,2.220506191253662
1789323726098628900,5.75362890625,-0.3005368411540985,-0.29748260974884033,1.9853299856185913
1789323726117479200,5.772479248046875,-0.20707722008228302,-0.21196399629116058,1.7031185626983643
1789323726136329200,5.7913291015625,-0.004886778071522713,0.13499724864959717,1.7403801679611206
1789323726155179500,5.810179443359375,0.1056765764951706,-0.08429691940546036,1.7183897495269775
1789323726174029600,5.829029541015625,0.19241689145565033,0.047646086663007736,1.4948196411132812
1789323726192879900,5.8478798828125,0.19241689145565033,0.2376195788383484,1.3427186012268066
1789323726211730200,5.866730224609375,0.04214845970273018,0.24617144465446472,1.02683424949646
1789323726230580200,5.885580322265625,-0.17714570462703705,0.265718549489975,0.6737645268440247
1789323726249430500,5.904430419921875,-0.17958909273147583,0.45019441843032837,0.22479179501533508
1789323726268280600,5.923280517578125,0.021379653364419937,0.4990622103214264,-0.45141613483428955
1789323726287131000,5.942130859375,0.10934165865182877,0.5277720093727112,-0.8985562920570374
1789323726305981200,5.960981201171875,0.1563768982887268,0.32252734899520874,-1.077534556388855
1789323726324831200,5.979831298828125,0.12155860662460327,0.11300674080848694,-1.2888877391815186
1789323726343681500,5.998681640625,0.08796200156211853,-0.04886778071522713,-1.3976948261260986
1789323726362531800,6.01753173828125,-0.03420744836330414,-0.2492256760597229,-1.5485742092132568
1789323726381382000,6.0363818359375,-0.1582094430923462,-0.45141613483428955,-1.7507646083831787
1789323726400232200,6.055232177734375,-0.28404396772384644,-0.2724378705024719,-1.9395164251327515
1789323726419082200,6.074082275390625,-0.39643988013267517,-0.04886778071522713,-2.249216079711914
1789323726437932500,6.0929326171875,-0.4477510452270508,0.11483928561210632,-2.480116128921509
1789323726456782800,6.111782958984375,-0.4715740978717804,0.05619794875383377,-2.437356948852539
1789323726475633000,6.1306328125,-0.43858832120895386,-0.08368607610464096,-2.2528810501098633
1789323726494483200,6.149483154296875,-0.3390202224254608,-0.7598940134048462,-2.1557562351226807
1789323726513333500,6.16833349609375,-0.5302154421806335,-1.1306782960891724,-2.086730480194092
1789323726532183600,6.18718359375,-0.7721109390258789,-1.553460955619812,-1.9065306186676025
1789323726551033900,6.206033935546875,-0.8557969927787781,-1.6011070013046265,-1.8637713193893433
1789323726569884200,6.22488427734375,-0.6383354067802429,-1.4679423570632935,-1.8472784757614136
1789323726588734200,6.243734130859375,-0.2883199155330658,-1.2632321119308472,-1.896146297454834
1789323726607584500,6.26258447265625,-0.004275931045413017,-0.9266552925109863,-1.9749455451965332
1789323726626434600,6.2814345703125,0.05008947476744652,-0.6975875496864319,-1.9395164251327515
1789323726645284900,6.300284912109375,0.1435490995645523,-0.8448017835617065,-1.738547682762146
1789323726664135200,6.31913525390625,0.3390202224254608,-0.8276980519294739,-1.359822392463684
1789323726682985200,6.337985107421875,0.5601469278335571,-0.6322268843650818,-1.0231691598892212
1789323726701835500,6.35683544921875,0.6584933400154114,-0.5522059202194214,-0.6542174220085144
1789323726720685800,6.375685791015625,0.648108959197998,-0.2993151545524597,-0.2620534598827362
1789323726739536000,6.394535888671875,0.3970507085323334,-0.05131116881966591,0.03787253051996231
1789323726758386200,6.41338623046875,0.129499614238739,0.09895725548267365,0.34451785683631897
1789323726777236200,6.432236328125,0.1319430023431778,0.3970507085323334,0.5821374654769897
1789323726796086500,6.45108642578125,0.15210096538066864,0.5619794726371765,0.6994200944900513
1789323726814936600,6.4699365234375,0.19180603325366974,0.6267293095588684,0.7501204609870911
1789323726833787000,6.488786865234375,0.22723518311977386,0.6884248852729797,0.767224133014679
1789323726862062300,6.517062255859375,0.13866232335567474,0.569309651851654,0.8710681796073914
1789323726880912400,6.535912353515625,0.0659715011715889,0.2498365342617035,1.0201148986816406
1789323726899762700,6.5547626953125,0.014660334214568138,0.055587101727724075,1.1147962808609009
1789323726918612700,6.57361279296875,-0.05803048983216286,0.20096874237060547,1.2088667154312134
1789323726937463000,6.592463134765625,-0.08246438205242157,0.5558710098266602,1.2387982606887817
1789323726956313300,6.611313232421875,-0.047646086663007736,0.8509102463722229,1.1856545209884644
1789323726975163400,6.630163330078125,-0.04581354558467865,0.9223793745040894,1.1593880653381348
1789323726994013700,6.649013671875,-0.028098974376916885,0.6829272508621216,1.2705622911453247
1789323727012863700,6.66786376953125,0.1459924876689911,0.49356457591056824,1.4355673789978027
1789323727031714000,6.686714111328125,0.3549022674560547,0.5509842038154602,1.5381897687911987
1789323727050564400,6.705564453125,0.43614494800567627,0.5509842038154602,1.5815598964691162
1789323727069414400,6.724414306640625,0.38605546951293945,0.3970507085323334,1.5778948068618774
1789323727088264700,6.7432646484375,0.33535513281822205,0.17409147322177887,1.5833925008773804
1789323727107114800,6.76211474609375,0.3274141252040863,0.12339114397764206,1.6713544130325317
1789323727125965000,6.780965087890625,0.3286358118057251,0.11117420345544815,1.7391585111618042
1789323727144815400,6.7998154296875,0.28343313932418823,0.2211267054080963,1.8649930953979492
1789323727163665400,6.81866552734375,0.04214845970273018,0.007941014133393764,1.9969360828399658
1789323727182515700,6.837515625,-0.18814095854759216,-0.40010493993759155,2.072070360183716
1789323727201365800,6.85636572265625,-0.2217375487089157,-0.23273280262947083,1.8851510286331177
1789323727220216000,6.875216064453125,-0.14171656966209412,0.26938363909721375,1.664635181427002
1789323727248491300,6.9034912109375,-0.12155860662460327,0.45385950803756714,1.5223077535629272
1789323727267341600,6.922341552734375,-0.03237490355968475,0.4282039403915405,1.2607887983322144
1789323727286191900,6.94119189453125,0.037261683493852615,0.43858832120895386,0.9046648144721985
1789323727305042000,6.9600419921875,-0.023823043331503868,0.4862344264984131,0.5277720093727112
1789323727323892200,6.978892333984375,-0.16309621930122375,0.45202696323394775,0.2644968628883362
1789323727342742300,6.9977421875,-0.22723518311977386,0.3787252902984619,0.1325538605451584
1789323727361592600,7.016592529296875,-0.054365407675504684,0.23823043704032898,0.01832541823387146
1789323727380443000,7.03544287109375,0.09468132257461548,0.20646637678146362,-0.26755109429359436
1789323727399293000,7.05429296875,-0.01710372418165207,0.15149012207984924,-0.4593571424484253
1789323727418143200,7.073143310546875,-0.2089097648859024,0.02504473738372326,-0.6737645268440247
1789323727436993500,7.09199365234375,-0.27060532569885254,0.09895725548267365,-1.0250016450881958
1789323727455843600,7.110843505859375,-0.3390202224254608,0.23090025782585144,-1.460612177848816
1789323727474694000,7.12969384765625,-0.41354358196258545,0.28404396772384644,-1.8118493556976318
1789323727493544000,7.1485439453125,-0.3958290219306946,0.09773556143045425,-2.038473606109619
1789323727512394200,7.167394287109375,-0.33413344621658325,0.07269082218408585,-2.220506191253662
1789323727531244300,7.186244384765625,-0.37567105889320374,-0.042759306728839874,-2.260211229324341
1789323727550094600,7.205094482421875,-0.4679090082645416,-0.35795649886131287,-2.197293996810913
1789323727568944600,7.223944580078125,-0.6621584296226501,-0.6939224600791931,-2.040917158126831
1789323727587795000,7.242794921875,-0.8154810667037964,-0.9504783153533936,-1.9963252544403076
1789323727606645200,7.261645263671875,-0.7647807598114014,-0.9449806809425354,-2.046414613723755
1789323727625495300,7.280495361328125,-0.5900784730911255,-1.0476030111312866,-2.09039568901062
1789323727653770800,7.308770751953125,-0.32252734899520874,-1.0622633695602417,-2.2223386764526367
1789323727672620800,7.327620849609375,-0.13988402485847473,-0.943759024143219,-2.2736499309539795
1789323727691471000,7.34647119140625,0.10078980028629303,-1.1728267669677734,-2.2009589672088623
1789323727710321200,7.365321044921875,0.24067382514476776,-1.438010811805725,-2.078789472579956
1789323727729171500,7.38417138671875,0.17958909273147583,-1.266897201538086,-1.8332289457321167
1789323727748021800,7.403021728515625,0.01038440316915512,-1.0237799882888794,-1.4777158498764038
1789323727766871800,7.421871826171875,-0.04947862774133682,-1.2821683883666992,-0.7061394453048706
1789323727785722000,7.44072216796875,-0.04153761267662048,-1.9865516424179077,0.19058434665203094
1789323727804572200,7.459572265625,-0.1319430023431778,-0.9101623892784119,-0.29748260974884033
1789323727823422500,7.47842236328125,0.16676130890846252,-0.32130566239356995,-0.5436540842056274
1789323727842272500,7.4972724609375,0.23334364593029022,-0.6181774139404297,-0.007330167107284069
1789323727861122800,7.516122802734375,0.2229592502117157,-0.6902574300765991,0.4434750974178314
1789323727879972900,7.534972900390625,0.6835380792617798,0.09895725548267365,0.2357870489358902
1789323727898823200,7.5538232421875,1.2430741786956787,0.45447036623954773,0.2736595869064331
1789323727917673500,7.572673583984375,1.2516260147094727,0.12155860662460327,0.6517740488052368
1789323727936523500,7.5915234375,0.3695625960826874,0.7806627750396729,0.5473191738128662
1789323727955373800,7.610373779296875,-0.13621893525123596,1.3023263216018677,0.36162158846855164
1789323727974224000,7.629223876953125,-0.24433889985084534,1.2644537687301636,0.4178195297718048
1789323727993074200,7.64807421875,-0.23334364593029022,1.0146173238754272,0.6529957056045532
1789323728011924200,7.66692431640625,0.2858765125274658,-0.1716480851173401,1.3053805828094482
1789323728030774500,7.6857744140625,2.298694610595703,-0.9822424054145813,1.8307856321334839
1789323728049624800,7.704624755859375,4.188121318817139,-1.757483959197998,1.7800853252410889
1789323728068475000,7.723474853515625,3.3933329582214355,-0.5662553906440735,1.1490037441253662
1789323728087325200,7.7423251953125,3.267498254776001,0.8863393664360046,1.0995250940322876
1789323728106175200,7.76117529296875,3.046982526779175,2.0855088233947754,1.359822392463684
1789323728125025500,7.780025634765625,2.2559351921081543,2.8631174564361572,1.4813809394836426
1789323728143875600,7.79887548828125,2.0739028453826904,2.743391513824463,1.5943876504898071
1789323728162726000,7.817725830078125,1.012784719467163,1.4636664390563965,1.8387266397476196
1789323728181576000,7.836575927734375,0.13621893525123596,-0.15210096538066864,2.469120979309082
1789323728200426200,7.85542626953125,0.29320669174194336,-0.20768806338310242,2.521043062210083
1789323728219276500,7.874276611328125,0.6407787799835205,-0.17958909273147583,2.3658878803253174
1789323728238126600,7.893126708984375,0.5216635465621948,-0.8533536195755005,2.1374309062957764
1789323728256977000,7.911976806640625,0.2498365342617035,-1.6487531661987305,1.9676153659820557
1789323728275827000,7.930826904296875,-0.06902574002742767,-2.246772527694702,1.9272994995117188
1789323728294677200,7.94967724609375,0.16248537600040436,-1.5442981719970703,1.6670784950256348
1789323728313527300,7.96852734375,0.29565006494522095,-0.8790091872215271,1.3714284896850586
1789323728332377600,7.987377685546875,0.30481278896331787,-0.3567348122596741,1.0805888175964355
1789323728351227600,8.0062275390625,-0.014660334214568138,-0.12705622613430023,0.8521319031715393
1789323728370078000,8.025077880859374,-0.265718549489975,0.028098974376916885,0.9370396733283997
1789323728388928000,8.043927978515624,-0.18997350335121155,0.2718270421028137,0.786160409450531
1789323728407778300,8.0627783203125,0.1447708010673523,0.9523108601570129,0.4159869849681854
1789323728426628600,8.081628662109376,0.7647807598114014,1.853997826576233,0.10811996459960938
1789323728445478700,8.100478759765625,1.1270132064819336,1.7727551460266113,-0.10078980028629303
1789323728464329000,8.119328857421875,1.248571753501892,1.0665392875671387,-0.3561239540576935
1789323728483179000,8.138178955078125,1.326149344444275,0.5155550837516785,-0.5149442553520203
1789323728502029300,8.157029296875,1.549185037612915,-0.36284327507019043,-0.7751652002334595
1789323728520879400,8.17587939453125,1.544909119606018,-0.8356390595436096,-0.809983491897583
1789323728539729700,8.194729736328124,1.664635181427002,-1.166107416152954,-0.7696675658226013
1789323728558579700,8.213579833984374,1.3145432472229004,-1.0048437118530273,-0.8044858574867249
1789323728577430000,8.232429931640626,0.8515210747718811,-0.23945212364196777,-1.1056334972381592
1789323728596280000,8.251280029296876,0.08857285231351852,0.3939964771270752,-1.4545036554336548
1789323728615130400,8.27013037109375,-0.5216635465621948,0.8612946271896362,-1.5876684188842773
1789323728633980400,8.28898046875,-0.9223793745040894,1.4215179681777954,-1.8362832069396973
1789323728652830700,8.307830810546875,-0.990183413028717,2.1673624515533447,-2.1575889587402344
1789323728671681000,8.326680908203125,-1.3127107620239258,1.9529550075531006,-2.1472043991088867
1789323728690531000,8.345531005859375,-1.5174208879470825,0.8252546191215515,-2.026256799697876
1789323728709381000,8.364381103515624,-1.5656778812408447,0.3793361485004425,-2.2327229976654053
1789323728728231400,8.3832314453125,-1.3787586688995361,0.6071822047233582,-2.561969757080078
1789323728747081500,8.40208154296875,-1.437399983406067,0.5870242118835449,-2.6700897216796875
1789323728765931800,8.420931884765626,-1.521696925163269,0.40071579813957214,-2.5460877418518066
1789323728784781800,8.43978173828125,-1.4997063875198364,0.33352261781692505,-2.460569143295288
1789323728803632000,8.458632080078125,-1.5082582235336304,0.9645278453826904,-2.4569039344787598
1789323728822482400,8.477482421875,-0.9639169573783875,0.9199360013008118,-2.228447198867798
1789323728841332500,8.49633251953125,-0.4300364851951599,0.34818294644355774,-1.9016438722610474
1789323728860182500,8.5151826171875,-0.13744063675403595,0.17653486132621765,-1.5748405456542969
1789323728879032800,8.53403271484375,0.14660334587097168,0.17531315982341766,-1.1685508489608765
1789323728897883000,8.5528828125,0.11117420345544815,0.1832541823387146,-0.6560499668121338
1789323728916733200,8.571733154296876,0.07452336698770523,0.17714570462703705,-0.1710372269153595
1789323728935583200,8.590583251953126,0.1459924876689911,0.3261924386024475,0.15943112969398499
1789323728954433500,8.60943359375,0.1423274129629135,0.21440738439559937,0.49173203110694885
1789323728973283600,8.62828369140625,0.10017894953489304,0.2626643180847168,0.7519529461860657
1789323728992134000,8.6471337890625,0.054365407675504684,0.2345653474330902,0.943759024143219
1789323729010984000,8.66598388671875,-0.03176405653357506,0.17348061501979828,1.1563338041305542
1789323729029834200,8.684834228515625,-0.08918370306491852,-0.08307522535324097,1.3298144340515137
1789323729048684300,8.703684326171874,-0.09773556143045425,-0.2736595869064331,1.3249276876449585
1789323729067534600,8.72253466796875,-0.10628741979598999,-0.22051586210727692,1.1422843933105469
1789323729086384600,8.741384521484376,-0.09956810623407364,0.03237490355968475,1.0146173238754272
1789323729105235000,8.76023486328125,-0.061084724962711334,0.12888877093791962,0.9883508682250977
1789323729124085000,8.7790849609375,0.11117420345544815,0.3261924386024475,1.077534556388855
1789323729142935300,8.797935302734375,0.19241689145565033,0.28343313932418823,1.2125318050384521
1789323729161785300,8.816785400390625,0.3133646547794342,-0.18081079423427582,1.3702067136764526
1789323729180635600,8.8356357421875,0.34696123003959656,-0.2980934679508209,1.5284161567687988
1789323729199485700,8.854485595703125,0.29687178134918213,-0.07024743407964706,1.6200432777404785
1789323729218335700,8.873335693359374,0.4679090082645416,-0.18569757044315338,1.5687321424484253
1789323729237186000,8.89218603515625,0.5632011890411377,-0.3793361485004425,1.5840033292770386
1789323729256036000,8.9110361328125,0.3665083646774292,-0.41048935055732727,1.644477128982544
1789323729274886400,8.929886474609376,0.21929416060447693,-0.7317950129508972,1.6817388534545898
1789323729293736400,8.948736328125,0.16615045070648193,-0.8112051486968994,1.7721441984176636
1789323729312586800,8.967586669921875,0.20157960057258606,-0.7183563709259033,1.770311713218689
1789323729331436800,8.986436767578125,0.26694026589393616,-0.7036960124969482,1.7208330631256104
1789323729350287000,9.005287109375,0.29565006494522095,-0.9822424054145813,1.715335488319397
1789323729369137200,9.02413720703125,0.1954711228609085,-1.4306806325912476,1.7043402194976807
1789323729387987200,9.0429873046875,0.17653486132621765,-1.376926064491272,1.7183897495269775
1789323729406837500,9.06183740234375,0.2357870489358902,-0.9455915689468384,1.8350615501403809
1789323729425687600,9.0806875,0.2211267054080963,-0.5118899941444397,1.886372685432434
1789323729444537900,9.099537841796876,0.28282228112220764,-0.6077930331230164,1.520475149154663
1789323729463388000,9.118387939453125,0.3365768492221832,-0.37200596928596497,0.860683798789978
1789323729482238200,9.13723828125,0.367730051279068,0.2877090573310852,0.5112791657447815
1789323729501088300,9.156088134765625,0.3158080279827118,0.4569137394428253,0.4691306948661804
1789323729519938600,9.1749384765625,0.49112120270729065,0.11178504675626755,0.43797749280929565
1789323729538788600,9.19378857421875,0.6908682584762573,-0.23212195932865143,0.06780404597520828
1789323729557638700,9.212638671875,0.38727715611457825,0.15149012207984924,-0.07757759839296341
1789323729576489000,9.231489013671874,-0.20402298867702484,0.43919917941093445,-0.265718549489975
1789323729595339000,9.250339111328126,-0.3927747905254364,0.9700254201889038,-0.47707170248031616
1789323729614189300,9.269189208984375,-0.17714570462703705,1.2968287467956543,-1.0072871446609497
1789323729633039400,9.288039306640625,-0.02076880633831024,1.5296379327774048,-1.254069447517395
1789323729651889700,9.3068896484375,-0.09773556143045425,1.3885321617126465,-1.3586006164550781
1789323729670739700,9.32573974609375,-0.34512871503829956,1.1563338041305542,-1.6976208686828613
1789323729689589800,9.34458984375,-0.5405998229980469,1.0427162647247314,-1.9248560667037964
1789323729708440000,9.363440185546875,-0.6817055344581604,0.9168817400932312,-2.0830655097961426
1789323729727290000,9.3822900390625,-0.8643488883972168,0.6029062271118164,-2.121548891067505
1789323729746140400,9.401140380859376,-1.050046443939209,0.48989951610565186,-2.1636972427368164
1789323729764990500,9.419990478515626,-1.0439379215240479,0.39827242493629456,-2.2883102893829346
1789323729783840800,9.4388408203125,-0.9969027042388916,0.4159869849681854,-2.2736499309539795
1789323729802690800,9.45769091796875,-1.0072871446609497,0.33596599102020264,-2.1606431007385254
1789323729821540900,9.476540771484375,-0.9578084945678711,-0.014660334214568138,-2.093449831008911
1789323729840391200,9.49539111328125,-0.8814526200294495,-0.129499614238739,-2.173470973968506
1789323729859241200,9.5142412109375,-0.8191461563110352,-0.3280249834060669,-2.2681522369384766
1789323729878091300,9.53309130859375,-0.7061394453048706,-0.4367557764053345,-2.318852663040161
1789323729896941600,9.551941650390624,-0.4556920528411865,-0.25289076566696167,-2.3280153274536133
1789323729915791600,9.57079150390625,-0.12766708433628082,-0.22906772792339325,-2.238220691680908
1789323729934642000,9.589641845703126,0.17225892841815948,0.06291726976633072,-2.020148277282715
1789323729953492000,9.608491943359375,0.37567105889320374,0.24189551174640656,-1.5119233131408691
1789323729972342000,9.627342041015625,0.18142163753509521,0.15943112969398499,-0.7531746625900269
1789323729991192300,9.6461923828125,0.15332266688346863,0.3292466700077057,-0.208298921585083
1789323730010042400,9.66504248046875,0.25289076566696167,0.469741553068161,0.08246438205242157
1789323730028892400,9.683892333984375,0.45019441843032837,0.367730051279068,0.1960819661617279
1789323730047742700,9.70274267578125,0.6603258848190308,-0.0922379344701767,0.3011476993560791
1789323730066593000,9.721593017578124,0.43736663460731506,-0.13927318155765533,0.4434750974178314
1789323730085443000,9.740443115234376,0.30847787857055664,-0.1301104724407196,0.5363239049911499
1789323730104293000,9.759293212890626,0.2748812735080719,-0.17775654792785645,0.6597150564193726
1789323730123143400,9.778143310546875,0.12522368133068085,-0.11361759155988693,0.781884491443634
1789323730141993500,9.796993408203125,-0.015271181240677834,-0.12094775587320328,0.7550072073936462
1789323730160843500,9.815843505859375,-0.11117420345544815,-0.15943112969398499,0.7348492741584778
1789323730179693800,9.83469384765625,-0.06658235192298889,-0.11300674080848694,0.7085828185081482
1789323730198544000,9.8535439453125,0.1178935244679451,0.02748812735080719,0.7036960124969482
1789323730217394200,9.872394287109374,0.24617144465446472,0.022601349279284477,0.9339854717254639
1789323730236244200,9.891244140625,0.37383851408958435,0.0030542362947016954,1.3848670721054077
1789323730255094300,9.91009423828125,0.37383851408958435,0.17470231652259827,1.5693429708480835
1789323730273944600,9.928944580078126,0.25594499707221985,0.18997350335121155,1.4483952522277832
1789323730292794600,9.947794677734375,0.2742704153060913,-0.2522799074649811,1.376926064491272
1789323730311644700,9.966644775390625,0.25411245226860046,-0.24067382514476776,1.6090480089187622
1789323730330495000,9.985494873046875,0.37689274549484253,-0.5870242118835449,1.806962490081787
1789323730349345000,10.004344970703125,0.53143709897995,-0.5528167486190796,2.009152889251709
1789323730368195000,10.023195068359374,0.5613686442375183,-0.06841489672660828,2.1985156536102295
1789323730387045400,10.04204541015625,0.38788801431655884,-0.13682979345321655,2.2015697956085205
1789323730405895400,10.0608955078125,0.3970507085323334,-0.30847787857055664,2.3426756858825684
1789323730424745500,10.079745361328126,0.6413896083831787,-0.34635040163993835,2.388489246368408
1789323730443595800,10.098595703125,0.6462764143943787,-0.5448757410049438,2.3548924922943115
1789323730462445800,10.11744580078125,0.3274141252040863,-1.0396620035171509,2.0042662620544434
1789323730481296000,10.1362958984375,0.1044548824429512,-0.7824953198432922,1.5730080604553223
1789323730500146000,10.15514599609375,0.15332266688346863,-0.18081079423427582,1.5223077535629272
1789323730518996200,10.173996337890625,0.2907632887363434,-0.390942245721817,1.455114483833313
1789323730537846300,10.19284619140625,0.36162158846855164,-0.6597150564193726,1.041494607925415
1789323730556696600,10.211696533203124,0.3304683566093445,-0.5564818382263184,0.6927008032798767
1789323730575546600,10.230546630859376,0.1582094430923462,-0.3561239540576935,0.39949411153793335
1789323730594396700,10.249396728515626,-0.02626643143594265,-0.237008735537529,0.09956810623407364
1789323730613246700,10.268246826171875,-0.12644538283348083,-0.016492875292897224,-0.09590301662683487
1789323730632097000,10.287096923828125,-0.10811996459960938,0.2113531529903412,-0.2510582208633423
1789323730650947000,10.305947021484375,-0.12400199472904205,0.5277720093727112,-0.393385648727417
1789323730669797000,10.324797119140625,-0.17409147322177887,0.6591041684150696,-0.5344913601875305
1789323730688647400,10.3436474609375,-0.17409147322177887,0.6444438695907593,-0.7898254990577698
1789323730707497500,10.36249755859375,-0.20402298867702484,0.6994200944900513,-1.0720369815826416
1789323730726347500,10.381347412109376,-0.30481278896331787,0.7812736630439758,-1.2565127611160278
1789323730745197800,10.40019775390625,-0.4569137394428253,1.1441168785095215,-1.4874894618988037
1789323730764048000,10.4190478515625,-0.5998520255088806,1.2705622911453247,-1.6799063682556152
1789323730782898000,10.43789794921875,-0.6658235192298889,1.4068576097488403,-1.835672378540039
1789323730801748000,10.456748046875,-0.8289197087287903,0.8997780084609985,-2.0225915908813477
1789323730820598300,10.475598388671875,-1.018282413482666,0.6029062271118164,-2.2021806240081787
1789323730839448300,10.4944482421875,-1.175881028175354,0.5723638534545898,-2.3090789318084717
1789323730858298400,10.51329833984375,-1.2113101482391357,0.4850127100944519,-2.1862986087799072
1789323730877148400,10.5321484375,-1.1392301321029663,0.2761029601097107,-2.130711555480957
1789323730895998700,10.550998779296876,-1.0396620035171509,0.04092676565051079,-2.1661407947540283
1789323730914848800,10.569848876953126,-0.8234221339225769,-0.2473931461572647,-2.34206485748291
1789323730933698800,10.58869873046875,-0.5051707029342651,-0.4618005156517029,-2.4990525245666504
1789323730952549000,10.607549072265625,-0.26755109429359436,-0.4031592011451721,-2.4850029945373535
1789323730971399200,10.626399169921875,-0.19424942135810852,-0.3958290219306946,-2.26693058013916
1789323730990249200,10.645249267578125,-0.11178504675626755,-0.23273280262947083,-1.8381158113479614
1789323731009099300,10.664099365234375,-0.0012216945178806782,0.004886778071522713,-1.4453409910202026
1789323731027949300,10.68294921875,0.05925218388438225,0.2724378705024719,-1.1031901836395264
1789323731046799600,10.701799560546876,0.07757759839296341,0.34818294644355774,-0.5864133834838867
1789323731065649700,10.720649658203126,0.22540263831615448,0.3836120665073395,-0.17714570462703705
1789323731084499700,10.739499755859375,0.3005368411540985,0.24433889985084534,0.01710372418165207
1789323731103350000,10.75835009765625,0.31825143098831177,0.08307522535324097,0.2651077210903168
1789323731122200000,10.777199951171875,0.22479179501533508,0.08735115826129913,0.550373375415802
1789323731141050000,10.796050048828125,0.08490777015686035,-0.018936265259981155,0.7513421177864075
1789323731159900200,10.814900146484375,-0.034818295389413834,-0.16798299551010132,0.8753440976142883
1789323731178750200,10.833750244140624,-0.1185043677687645,-0.2999260127544403,0.9816315174102783
1789323731197600500,10.8526005859375,-0.1044548824429512,-0.2498365342617035,1.037218689918518
1789323731216450600,10.871450439453126,-0.051922015845775604,-0.16065283119678497,1.0103414058685303
1789323731235300600,10.890300537109376,0.05741964280605316,-0.12033691257238388,1.0451596975326538
1789323731254150700,10.909150634765625,0.16492876410484314,-0.18569757044315338,1.1166287660598755
1789323731282425900,10.93742578125,0.3139754831790924,-0.09407047927379608,1.3114891052246094
1789323731301276000,10.95627587890625,0.5326588153839111,-0.21746163070201874,1.4526711702346802
1789323731320126200,10.975126220703125,0.6181774139404297,-0.11667182296514511,1.64569890499115
1789323731338976300,10.993976318359374,0.5705313682556152,-0.2516690790653229,1.7904696464538574
1789323731357826300,11.012826416015624,0.5131117105484009,-0.2351761907339096,1.8045191764831543
1789323731376676400,11.03167626953125,0.4312581717967987,-0.28221142292022705,1.8026865720748901
1789323731395526400,11.0505263671875,0.3830012381076813,-0.5033381581306458,1.8240662813186646
1789323731414376700,11.069376708984375,0.4172086715698242,-0.6951441764831543,1.8979787826538086
1789323731433226800,11.088226806640625,0.5613686442375183,-0.6487197875976562,1.9584527015686035
1789323731452076800,11.107076904296875,0.7324058413505554,-0.7611156702041626,2.0794005393981934
1789323731470926800,11.1259267578125,0.7372926473617554,-1.1038010120391846,2.1527020931243896
1789323731489777000,11.14477685546875,0.4966188073158264,-1.6059937477111816,1.9334079027175903
1789323731508627200,11.163627197265624,0.3897205591201782,-1.225359559059143,1.5931659936904907
1789323731527477200,11.182477294921876,0.3762819170951843,-0.7824953198432922,1.6365361213684082
1789323731546327300,11.201327392578126,0.4049917459487915,-0.6401679515838623,1.7049510478973389
1789323731565177300,11.22017724609375,0.3701734244823456,-0.5198310017585754,1.4025816917419434
1789323731584027400,11.23902734375,0.258999228477478,-0.15454435348510742,1.0592091083526611
1789323731602877700,11.257877685546875,0.21440738439559937,0.32252734899520874,0.7556180357933044
1789323731621727700,11.276727783203125,0.16431790590286255,0.6224533319473267,0.37689274549484253
1789323731640577800,11.295577880859375,0.09040539711713791,0.5686988234519958,0.053143709897994995
1789323731659427800,11.314427734375,0.0781884491443634,0.37444937229156494,-0.17836740612983704
1789323731678278000,11.33327783203125,0.10811996459960938,0.17775654792785645,-0.4080459773540497
1789323731706553000,11.361552978515626,-0.05008947476744652,0.40071579813957214,-0.6780404448509216
1789323731725403100,11.380403076171875,-0.1569877415895462,0.49295374751091003,-0.9767447710037231
1789323731744253200,11.399253173828125,-0.2351761907339096,0.624896764755249,-1.2870551347732544
1789323731763103500,11.418103515625,-0.3151971995830536,0.7690566778182983,-1.5100908279418945
1789323731781953500,11.43695361328125,-0.44103172421455383,0.9950701594352722,-1.6267626285552979
1789323731800803600,11.455803466796874,-0.5809157490730286,1.1740484237670898,-1.7232764959335327
1789323731819653600,11.474653564453124,-0.7207997441291809,1.1880979537963867,-1.8307856321334839
1789323731838503700,11.493503662109376,-0.888171911239624,1.111131191253662,-1.890648603439331
1789323731857353700,11.512353759765626,-0.9907942414283752,0.8179244995117188,-1.9834973812103271
1789323731876204000,11.5312041015625,-1.0017894506454468,0.5265503525733948,-2.2137868404388428
1789323731895054000,11.55005419921875,-1.1575555801391602,0.48989951610565186,-2.185687780380249
1789323731913904000,11.568904052734375,-1.2607887983322144,0.33474430441856384,-2.23760986328125
1789323731932754200,11.587754150390625,-1.2357439994812012,0.3432961702346802,-2.4159772396087646
1789323731951604200,11.606604248046875,-1.0897514820098877,0.2229592502117157,-2.5045502185821533
1789323731970454300,11.625454345703124,-0.7947123050689697,0.09529217332601547,-2.500885009765625
1789323731989304300,11.64430419921875,-0.5766398310661316,0.07696675509214401,-2.353670835494995
1789323732008154400,11.663154296875,-0.37689274549484253,0.061084724962711334,-2.1808011531829834
1789323732027004700,11.682004638671875,-0.19424942135810852,0.16004198789596558,-1.9150824546813965
1789323732045854700,11.700854736328125,-0.11361759155988693,0.01588202826678753,-1.4703856706619263
1789323732064704800,11.719704833984375,0.004275931045413017,-0.12094775587320328,-1.0103414058685303
1789323732083554800,11.738554931640625,0.15087927877902985,-0.07146912813186646,-0.5308262705802917
1789323732102404900,11.75740478515625,0.18875180184841156,0.033596597611904144,-0.09590301662683487
1789323732121255000,11.7762548828125,0.17470231652259827,-0.09468132257461548,0.14721418917179108
1789323732140105000,11.79510498046875,0.20280128717422485,-0.07330167293548584,0.2510582208633423
1789323732158955000,11.813955078125,0.28404396772384644,0.06352811306715012,0.45447036623954773
1789323732177805300,11.832805419921876,0.32252734899520874,0.12705622613430023,0.7085828185081482
1789323732196655400,11.8516552734375,0.3042019307613373,-0.11117420345544815,0.9321529269218445
1789323732215505400,11.87050537109375,0.3286358118057251,-0.30969956517219543,1.1740484237670898
1789323732234355500,11.88935546875,0.395218163728714,-0.17592400312423706,1.2375766038894653
1789323732253205500,11.90820556640625,0.3139754831790924,-0.16126367449760437,1.0934165716171265
1789323732272055600,11.9270556640625,0.09407047927379608,-0.05803048983216286,1.0427162647247314
1789323732290905600,11.945905517578124,-0.047646086663007736,-0.32008397579193115,1.110520362854004
1789323732309755600,11.964755615234376,-0.004275931045413017,-0.3897205591201782,1.2644537687301636
1789323732328605700,11.983605712890625,0.24617144465446472,-0.3567348122596741,1.4025816917419434
1789323732347455700,12.002455810546875,0.44958359003067017,-0.23884128034114838,1.572397232055664
1789323732366306000,12.02130615234375,0.5845808386802673,-0.25289076566696167,1.715335488319397
1789323732385156000,12.040156005859375,0.6554391384124756,-0.25472331047058105,1.825287938117981
1789323732404006100,12.059006103515625,0.7024743556976318,-0.284654825925827,1.872934103012085
1789323732422856200,12.077856201171874,0.8026533126831055,-0.30969956517219543,1.8894269466400146
1789323732441706200,12.096706298828124,0.8423583507537842,-0.4220954477787018,1.9859408140182495
1789323732460556300,12.115556396484376,0.7427902817726135,-0.6731536984443665,2.1148295402526855
1789323732479406300,12.13440625,0.5998520255088806,-0.8582404255867004,2.125213861465454
1789323732498256400,12.15325634765625,0.45080527663230896,-0.9248227477073669,1.9578418731689453
1789323732517106400,12.1721064453125,0.24189551174640656,-1.2467392683029175,1.8026865720748901
1789323732535956500,12.19095654296875,0.12522368133068085,-1.2003148794174194,1.6121022701263428
1789323732554806500,12.209806640625,0.3365768492221832,-1.009730577468872,1.4618338346481323
1789323732573656600,12.228656494140624,0.5772506594657898,-0.883895993232727,1.296217918395996
1789323732592506600,12.247506591796874,0.39949411153793335,-1.1318999528884888,1.1221264600753784
1789323732611356700,12.266356689453126,0.18875180184841156,-0.6322268843650818,0.8637380003929138
1789323732630207000,12.28520703125,0.01588202826678753,-0.3426853120326996,0.6981984376907349
1789323732649057000,12.30405712890625,-0.007330167107284069,0.07696675509214401,0.624896764755249
1789323732667907000,12.322906982421875,0.03176405653357506,0.19913621246814728,0.5082249045372009
1789323732686757000,12.341757080078125,0.006719320081174374,0.3683409094810486,0.28037887811660767
1789323732705607200,12.360607177734375,0.0018325417768210173,0.41110020875930786,-0.130721315741539
1789323732733882000,12.388882080078124,0.05925218388438225,1.0188932418823242,-0.6823163628578186
1789323732752732200,12.407732177734376,-0.05925218388438225,0.9443698525428772,-0.9009997248649597
1789323732771582200,12.426582275390626,-0.14904673397541046,0.9187142848968506,-1.183211088180542
1789323732790432300,12.445432373046875,-0.25716668367385864,1.2058124542236328,-1.4905437231063843
1789323732809282600,12.464282470703125,-0.4337015450000763,1.2143644094467163,-1.6004961729049683
1789323732828132600,12.483132568359375,-0.5570927262306213,1.0787562131881714,-1.6683002710342407
1789323732846982700,12.501982666015625,-0.7134696245193481,1.0695935487747192,-1.8765991926193237
1789323732865832700,12.520832763671875,-0.9236010313034058,1.0524898767471313,-2.1056668758392334
1789323732884682800,12.539682861328124,-1.0237799882888794,0.8338065147399902,-2.4074254035949707
1789323732903532800,12.55853271484375,-1.1184613704681396,0.578472375869751,-2.4410219192504883
1789323732922382800,12.5773828125,-1.0799779891967773,0.30481278896331787,-2.420253276824951
1789323732950657800,12.60565771484375,-0.8985562920570374,0.3243598937988281,-2.497830867767334
1789323732969507800,12.6245078125,-0.7879929542541504,0.10384403169155121,-2.4911115169525146
1789323732988358000,12.64335791015625,-0.656660795211792,-0.19363857805728912,-2.4935548305511475
1789323733007208000,12.6622080078125,-0.4868452548980713,-0.43858832120895386,-2.3866565227508545
1789323733026058000,12.68105810546875,-0.337798535823822,-0.2919849753379822,-2.269984722137451
1789323733044908000,12.699907958984374,-0.1692046970129013,-0.11911521852016449,-2.0922281742095947
1789323733073183200,12.728183349609376,-0.04031591862440109,0.1698155403137207,-1.456336259841919
1789323733092033300,12.747033203125,0.02993151545524597,0.1313321590423584,-1.0250016450881958
1789323733110883300,12.76588330078125,0.26755109429359436,0.21807247400283813,-0.5931326746940613
1789323733129733400,12.7847333984375,0.4990622103214264,0.40132665634155273,-0.22601348161697388
1789323733158008300,12.81300830078125,0.3970507085323334,0.34940463304519653,0.1966928243637085
1789323733176858400,12.8318583984375,0.22906772792339325,0.1301104724407196,0.474017471075058
1789323733195708400,12.85070849609375,0.13988402485847473,0.2858765125274658,0.7647807598114014
1789323733214558500,12.869558349609376,0.11545012891292572,0.006108472589403391,1.0109522342681885
1789323733233408500,12.888408447265626,0.028098974376916885,-0.06291726976633072,1.1764918565750122
1789323733252258600,12.907258544921875,0.024433890357613564,-0.1832541823387146,1.26872980594635
1789323733271108600,12.926108642578125,0.04214845970273018,-0.08246438205242157,1.2363548278808594
1789323733289958700,12.944958740234375,0.09468132257461548,0.0018325417768210173,1.1966497898101807
1789323733308808700,12.96380859375,0.12705622613430023,0.0397050715982914,1.2259705066680908
1789323733327658800,12.98265869140625,0.20585553348064423,-0.37322768568992615,1.4264047145843506
1789323733346508800,13.0015087890625,0.5021164417266846,-0.25777754187583923,1.5180318355560303
1789323733365358800,13.02035888671875,0.5070032477378845,0.0018325417768210173,1.4477843046188354
1789323733384209000,13.039208984375,0.3799470067024231,-0.06780404597520828,1.5003172159194946
1789323733403059000,13.058058837890625,0.3298575282096863,-0.130721315741539,1.7819178104400635
1789323733421909000,13.076908935546875,0.4844018816947937,-0.3775036036968231,2.0622966289520264
1789323733440758800,13.0957587890625,0.7165238261222839,-0.46729815006256104,2.1624755859375
1789323733459608800,13.11460888671875,0.7519529461860657,-0.24006296694278717,2.087341547012329
1789323733478459000,13.133458984375,0.6737645268440247,-0.1710372269153595,1.978610634803772
1789323733497309000,13.152308837890626,0.5387672781944275,-0.4196520745754242,2.0341978073120117
1789323733516159000,13.171158935546876,0.4312581717967987,-1.2559019327163696,1.8417809009552002
1789323733535009000,13.190009033203125,0.4862344264984131,-1.5461307764053345,1.4160202741622925
1789323733553859000,13.208859130859375,0.3255815804004669,-1.2052016258239746,1.1648857593536377
1789323733572709000,13.227709228515625,0.4416425824165344,-1.2937744855880737,1.3781477212905884
1789323733591559200,13.24655908203125,0.3946073353290558,-1.6744086742401123,1.6597483158111572
1789323733610409200,13.2654091796875,0.11667182296514511,-0.8600729703903198,1.5039823055267334
1789323733629259300,13.28425927734375,0.0012216945178806782,-0.291374146938324,1.1129636764526367
1789323733648109300,13.303109375,0.005497625097632408,0.2651077210903168,0.7690566778182983
1789323733666959400,13.32195947265625,0.1844758689403534,0.3836120665073395,0.45202696323394775
1789323733695234300,13.350234375,0.2858765125274658,0.4990622103214264,0.21501824259757996
1789323733714084400,13.36908447265625,0.1716480851173401,0.3500154912471771,-0.14782503247261047
1789323733732934400,13.387934326171875,0.04581354558467865,-0.026877280324697495,-0.29381752014160156
1789323733751784400,13.406784423828125,0.04092676565051079,-0.44958359003067017,-0.5338805317878723
1789323733770634500,13.425634521484374,-0.34696123003959656,0.4202629029750824,-0.9034430980682373
1789323733789484500,13.444484619140624,-0.6768187880516052,1.4031925201416016,-0.7922688722610474
1789323733808334600,13.46333447265625,-0.7299624681472778,1.8045191764831543,-0.8796200752258301
1789323733827184600,13.4821845703125,-0.5650337338447571,1.482602596282959,-1.4270155429840088
1789323733846034400,13.501034423828125,-0.4196520745754242,1.1581664085388184,-1.9584527015686035
1789323733864884500,13.519884521484375,-0.7360709309577942,1.1966497898101807,-2.211954355239868
1789323733883734500,13.538734619140625,-1.2198619842529297,0.7330167293548584,-2.1869094371795654
1789323733902584600,13.55758447265625,-1.553460955619812,0.3023693859577179,-2.1899638175964355
1789323733921434600,13.5764345703125,-1.4679423570632935,0.17286977171897888,-2.1062777042388916
1789323733940284700,13.59528466796875,-1.277281641960144,0.10750912129878998,-2.1691949367523193
1789323733959134700,13.614134765625,-1.1038010120391846,0.2492256760597229,-2.41109037399292
1789323733987409700,13.64240966796875,-0.8942803740501404,0.04153761267662048,-2.506993532180786
1789323734006259700,13.661259765625,-0.7348492741584778,-0.23212195932865143,-2.5076043605804443
1789323734025109800,13.68010986328125,-0.4856235682964325,-0.33230090141296387,-2.48927903175354
1789323734043959800,13.698959716796875,-0.16676130890846252,0.03665083646774292,-2.3573360443115234
1789323734062809900,13.717809814453124,0.06291726976633072,0.3261924386024475,-2.1960723400115967
1789323734081659600,13.73665966796875,0.18569757044315338,0.04337015375494957,-1.9187475442886353
1789323734100509700,13.755509765625,0.19424942135810852,-0.21196399629116058,-1.4141877889633179
1789323734119359700,13.77435986328125,0.11606097966432571,-0.12339114397764206,-0.809983491897583
1789323734138209800,13.793209716796875,0.09590301662683487,0.1172826737165451,-0.31886225938796997
1789323734157059800,13.812059814453125,0.15026842057704926,0.3005368411540985,0.011606098152697086
1789323734175910000,13.830909912109375,0.26632940769195557,0.07330167293548584,0.24372805655002594
1789323734194759700,13.849759765625,0.3787252902984619,-0.02993151545524597,0.48928865790367126
1789323734213609700,13.868609619140624,0.4813476502895355,-0.20341213047504425,0.7837170362472534
1789323734232459800,13.887459716796876,0.5167768001556396,-0.20280128717422485,0.9889616966247559
1789323734251309800,13.906309814453126,0.444085955619812,-0.610236406326294,1.1209046840667725
1789323734270160000,13.925159912109375,0.3793361485004425,-0.5680879354476929,1.1777135133743286
1789323734289010000,13.944010009765625,0.33535513281822205,-0.26877278089523315,1.1648857593536377
1789323734307860000,13.96285986328125,0.3023693859577179,-0.24128466844558716,1.1935955286026
1789323734326709800,13.981709716796875,0.1820324808359146,0.13866232335567474,1.3059914112091064
1789323734345559800,14.000559814453124,0.017714571207761765,0.12278030067682266,1.474050760269165
1789323734364409900,14.019409912109374,0.14782503247261047,-0.20341213047504425,1.7397693395614624
1789323734383260000,14.038260009765626,0.5387672781944275,-0.22723518311977386,1.987162470817566
1789323734402110000,14.05710986328125,0.7733326554298401,-0.1325538605451584,2.0946714878082275
1789323734420959700,14.075959716796875,0.7959339618682861,0.2107423096895218,2.020148277282715
1789323734439809800,14.094809814453125,0.7501204609870911,0.04886778071522713,1.904698133468628
1789323734458659800,14.113659912109375,0.6615476012229919,-0.25777754187583923,1.8607170581817627
1789323734477510000,14.132510009765625,0.554649293422699,-0.45508119463920593,1.9187475442886353
1789323734496360000,14.15135986328125,0.518609344959259,-0.45263782143592834,1.941348910331726
1789323734515209700,14.170209716796874,0.5259394645690918,-0.6890357136726379,1.9462357759475708
1789323734534059800,14.189059814453126,0.4581354558467865,-1.3983057737350464,2.000601053237915
1789323734552909800,14.207909912109375,0.40010493993759155,-2.1123862266540527,1.880264163017273
1789323734571759900,14.226759765625,0.39827242493629456,-1.6163781881332397,1.5137559175491333
1789323734590610000,14.24560986328125,0.24678228795528412,-1.0445488691329956,1.1722159385681152
1789323734609460000,14.2644599609375,0.2089097648859024,-0.47829338908195496,1.2168077230453491
1789323734628309800,14.283309814453125,0.16248537600040436,-0.4300364851951599,1.1447277069091797
1789323734647159800,14.302159912109374,0.24494975805282593,-0.20707722008228302,0.8533536195755005
1789323734675434800,14.330434814453126,0.03237490355968475,0.2644968628883362,0.3402419090270996
1789323734703709700,14.358709716796875,-0.09590301662683487,0.35978904366493225,-0.012216945178806782
1789323734722559700,14.377559814453125,-0.14965757727622986,0.40987852215766907,-0.35978904366493225
1789323734741409800,14.396409912109375,-0.20035789906978607,0.9804098606109619,-0.8997780084609985
1789323734760259800,14.415259765625,-0.34451785683631897,1.2620104551315308,-1.2241379022598267
1789323734779110000,14.43410986328125,-0.2993151545524597,1.1264023780822754,-1.4459518194198608
1789323734797959700,14.452959716796874,-0.3005368411540985,1.0488247871398926,-1.6383687257766724
1789323734816809700,14.471809814453126,-0.42698222398757935,0.8759549856185913,-1.8075734376907349
1789323734835659800,14.49065966796875,-0.6835380792617798,1.014006495475769,-1.9670045375823975
1789323734854509800,14.509509765625,-0.8667922616004944,0.9645278453826904,-2.070237636566162
1789323734873359600,14.528359619140625,-1.0017894506454468,0.9242119193077087,-2.2125651836395264
1789323734892209700,14.547209716796875,-1.0738694667816162,0.813648521900177,-2.474618673324585
1789323734911059700,14.566059814453125,-1.109298586845398,0.601073682308197,-2.4795053005218506
1789323734929909800,14.58490966796875,-1.0750911235809326,0.4703523814678192,-2.570521593093872
1789323734948759600,14.603759521484376,-0.9889616966247559,0.33596599102020264,-2.6670355796813965
1789323734967609600,14.622609619140626,-0.8283088803291321,0.0006108472589403391,-2.6523752212524414
1789323734986459600,14.641459716796875,-0.5448757410049438,-0.15271180868148804,-2.6749765872955322
1789323735005309700,14.660309814453125,-0.2504473626613617,-0.12339114397764206,-2.550363779067993
1789323735024159500,14.679159423828125,-0.10201149433851242,0.12155860662460327,-2.176525115966797
1789323735043009500,14.698009521484375,-0.07452336698770523,0.38727715611457825,-1.6927341222763062
1789323735061859600,14.716859619140624,-0.08490777015686035,0.5283828973770142,-1.2638429403305054
1789323735080709600,14.735709716796874,-0.053143709897994995,0.27060532569885254,-0.8961129188537598
1789323735099559400,14.754559326171876,0.20402298867702484,0.2736595869064331,-0.4459185004234314
1789323735118409500,14.773409423828125,0.3830012381076813,0.4850127100944519,0.00916270911693573
1789323735137259500,14.792259521484375,0.36039987206459045,0.5082249045372009,0.2742704153060913
1789323735156109300,14.811109375,0.2351761907339096,0.26632940769195557,0.5216635465621948
1789323735174959400,14.82995947265625,0.16492876410484314,0.10750912129878998,0.8722898960113525
1789323735193809400,14.848809326171875,0.17897824943065643,0.13499724864959717,1.0915840864181519
1789323735212659500,14.867659423828124,0.1973036676645279,-0.0659715011715889,1.188708782196045
1789323735231509200,14.88650927734375,0.2376195788383484,-0.1185043677687645,1.2613996267318726
1789323735250359300,14.905359375,0.208298921585083,0.03420744836330414,1.400138258934021
1789323735269209300,14.924209228515625,0.18691925704479218,0.012216945178806782,1.5009280443191528
1789323735288059100,14.94305908203125,0.08551861345767975,0.04703523963689804,1.6151565313339233
1789323735306909200,14.9619091796875,0.012216945178806782,-0.1704263836145401,1.8698798418045044
1789323735325759200,14.98075927734375,0.1985253542661667,-0.27854636311531067,2.0604641437530518
1789323735344609300,14.999609375,0.5436540842056274,-0.0397050715982914,2.003044605255127
1789323735363459000,15.018458984375,0.7470661997795105,0.043981000781059265,1.8582737445831299
1789323735382309000,15.03730908203125,0.7018635272979736,-0.0922379344701767,1.91386079788208
1789323735401159200,15.0561591796875,0.48806697130203247,-0.5375455617904663,2.098336696624756
1789323735420009000,15.075009033203125,0.3286358118057251,-0.8173136115074158,2.2101216316223145
1789323735438859000,15.09385888671875,0.3530697226524353,-0.8747332692146301,2.2076783180236816
1789323735457709000,15.112708984375,0.47890424728393555,-0.9058864712715149,2.130100727081299
1789323735476558800,15.131558837890625,0.4984513521194458,-1.0524898767471313,2.1386525630950928
1789323735495409000,15.150408935546874,0.25411245226860046,-1.383034586906433,1.9590635299682617
1789323735533108700,15.188108642578126,0.35856732726097107,-0.7757760286331177,1.5265836715698242
1789323735551958800,15.206958740234375,0.5564818382263184,-0.6029062271118164,1.3695958852767944
1789323735570808800,15.225808837890625,0.48073679208755493,-0.6438329815864563,1.0378295183181763
1789323735589658600,15.24465869140625,0.3133646547794342,-0.6096255779266357,0.6505523324012756
1789323735608508700,15.2635087890625,0.09040539711713791,-0.37506023049354553,0.2993151545524597
1789323735627358700,15.282358642578124,-0.10140064358711243,-0.1044548824429512,-0.08063183724880219
1789323735646208500,15.30120849609375,-0.21868331730365753,0.25472331047058105,-0.314586341381073
1789323735665058600,15.32005859375,-0.3011476993560791,0.6016845703125,-0.5485408306121826
1789323735683908600,15.33890869140625,-0.3567348122596741,0.9743013978004456,-0.8741224408149719
1789323735702758400,15.35775830078125,-0.34635040163993835,1.2058124542236328,-1.1606098413467407
1789323735721608400,15.3766083984375,-0.3524588644504547,1.041494607925415,-1.3402752876281738
1789323735740458500,15.39545849609375,-0.4459185004234314,0.9077190160751343,-1.5986636877059937
1789323735759308300,15.414308349609374,-0.6157340407371521,0.786771297454834,-1.926688551902771
1789323735778158300,15.433158447265624,-0.9602518677711487,0.6713211536407471,-2.139263391494751
1789323735797008100,15.452008056640626,-1.2070342302322388,0.5949652194976807,-2.1789684295654297
1789323735815858200,15.470858154296875,-1.299272060394287,0.517998456954956,-2.2076783180236816
1789323735834708200,15.489708251953125,-1.2840009927749634,0.446529358625412,-2.2241711616516113
1789323735853558000,15.50855810546875,-1.12823486328125,0.4056025743484497,-2.303581476211548
1789323735872408000,15.527407958984375,-0.8777875304222107,0.1985253542661667,-2.4446871280670166
1789323735891258000,15.546258056640625,-0.7696675658226013,0.10628741979598999,-2.5192103385925293
1789323735910108000,15.56510791015625,-0.6707102656364441,-0.20524467527866364,-2.564413070678711
1789323735928958000,15.5839580078125,-0.45508119463920593,-0.25533416867256165,-2.5021066665649414
1789323735947807700,15.602807861328126,-0.17653486132621765,-0.012827792204916477,-2.2272255420684814
1789323735966657800,15.62165771484375,0.1056765764951706,0.22784602642059326,-1.7721441984176636
1789323735985507800,15.6405078125,0.24006296694278717,0.35917818546295166,-1.2693406343460083
1789323736004357600,15.659357666015625,0.3280249834060669,0.26877278089523315,-0.8423583507537842
1789323736023207700,15.678207763671875,0.29748260974884033,0.13744063675403595,-0.5045598149299622
1789323736042057700,15.6970576171875,0.30481278896331787,0.29442837834358215,-0.24617144465446472
1789323736060907500,15.715907470703126,0.39888325333595276,0.5033381581306458,-0.054365407675504684
1789323736079757600,15.734757568359376,0.3280249834060669,0.24678228795528412,0.34879377484321594
1789323736098607400,15.753607421875,0.18691925704479218,-0.17409147322177887,0.7556180357933044
1789323736117457400,15.77245751953125,0.14171656966209412,-0.4214846193790436,0.938872218132019
1789323736136307200,15.79130712890625,0.17531315982341766,-0.5436540842056274,0.9822424054145813
1789323736155157200,15.8101572265625,0.19058434665203094,-0.38483378291130066,1.060430884361267
1789323736174007300,15.82900732421875,0.19913621246814728,-0.2919849753379822,1.3182083368301392
1789323736192857000,15.847857177734374,0.2608317732810974,-0.1973036676645279,1.595609426498413
1789323736211707100,15.86670703125,0.3042019307613373,-0.21318569779396057,1.6695219278335571
1789323736230557000,15.885556884765625,0.39766156673431396,-0.2596100866794586,1.6896798610687256
1789323736249407000,15.904406982421875,0.5686988234519958,-0.38910970091819763,1.829563856124878
1789323736268256800,15.9232568359375,0.7220214605331421,-0.4563029110431671,1.9938818216323853
1789323736287106800,15.94210693359375,0.7873821258544922,-0.4428642690181732,2.0622966289520264
1789323736305956600,15.96095654296875,0.8283088803291321,-0.5632011890411377,2.232112169265747
1789323736324806700,15.979806640625,0.7837170362472534,-0.6432221531867981,2.4880571365356445
1789323736343656700,15.99865673828125,0.6872031688690186,-0.648108959197998,2.5228755474090576
1789323736362506500,16.017506591796874,0.6994200944900513,-0.767224133014679,2.3811590671539307
1789323736381356500,16.0363564453125,0.7385143637657166,-0.6395570635795593,2.0922281742095947
1789323736400206300,16.055206298828125,0.5137225389480591,-0.8130376935005188,1.8668255805969238
1789323736419056400,16.074056396484377,0.37689274549484253,-1.1129636764526367,1.8197903633117676
1789323736437906200,16.09290625,0.4953971207141876,-1.0054545402526855,1.6542507410049438
1789323736456756200,16.111756103515624,0.5344913601875305,-0.5070032477378845,1.3334795236587524
1789323736475606300,16.130606201171876,0.49173203110694885,-0.5509842038154602,0.9565867781639099
1789323736494456000,16.1494560546875,0.4056025743484497,-0.6303943991661072,0.624285876750946
1789323736513306000,16.16830615234375,0.2742704153060913,-0.7128587365150452,0.16798299551010132
1789323736532156000,16.187156005859375,0.11606097966432571,-0.31031039357185364,-0.2339545041322708
1789323736551006000,16.206005859375,-0.0647498071193695,0.12705622613430023,-0.5204418897628784
1789323736569855700,16.224855712890626,-0.1582094430923462,0.46485477685928345,-0.6700994372367859
1789323736588705800,16.243705810546874,-0.23334364593029022,0.7824953198432922,-0.7684458494186401
1789323736607555600,16.2625556640625,-0.29320669174194336,0.9462023973464966,-1.0188932418823242
1789323736626405600,16.281405517578126,-0.393385648727417,1.3066022396087646,-1.2620104551315308
1789323736645255400,16.30025537109375,-0.4966188073158264,1.419074535369873,-1.4868786334991455
1789323736664105500,16.31910546875,-0.5479300022125244,1.5595693588256836,-1.7049510478973389
1789323736682955300,16.337955322265625,-0.7476770281791687,1.4447301626205444,-2.012207269668579
1789323736701805300,16.356805419921876,-1.0274450778961182,1.2180293798446655,-2.3347346782684326
1789323736720655000,16.375655029296876,-1.2870551347732544,1.2131426334381104,-2.766603708267212
1789323736739505200,16.394505126953124,-1.5559042692184448,0.48989951610565186,-2.7940917015075684
1789323736758355000,16.41335498046875,-1.3469945192337036,0.13805148005485535,-2.818525552749634
1789323736777205000,16.432205078125,-1.081810474395752,0.20585553348064423,-2.7513325214385986
1789323736796054800,16.4510546875,-0.6743753552436829,0.33596599102020264,-2.596177101135254
1789323736814904800,16.46990478515625,-0.5369347333908081,0.5277720093727112,-2.4770619869232178
1789323736833754600,16.488754638671875,-0.48012593388557434,0.4422534108161926,-2.2394423484802246
1789323736852604700,16.507604736328126,-0.05803048983216286,0.41354358196258545,-2.006709575653076
1789323736871454500,16.526454345703126,0.3029802441596985,0.03420744836330414,-1.3634874820709229
1789323736890304300,16.54530419921875,0.22479179501533508,0.26632940769195557,-0.7458444833755493
1789323736909154300,16.564154296875,0.014660334214568138,0.24189551174640656,-0.5002838969230652
1789323736928004000,16.583004150390625,-0.16187451779842377,0.129499614238739,-0.6071822047233582
1789323736946854100,16.601854248046877,-0.10201149433851242,0.2626643180847168,-0.6279509663581848
1789323736965704000,16.620703857421876,0.06413896381855011,0.08551861345767975,-0.05375456064939499
1789323736984554000,16.639553955078124,0.1985253542661667,-0.062306419014930725,0.6322268843650818
1789323737003403800,16.65840380859375,0.09345962852239609,-0.4092676639556885,0.8197570443153381
1789323737022253800,16.67725390625,-0.04886778071522713,-0.26632940769195557,0.8044858574867249
1789323737041103600,16.696103515625,-0.13316470384597778,0.018936265259981155,0.8301414251327515
1789323737059953700,16.71495361328125,-0.2632751762866974,0.1569877415895462,1.0915840864181519
1789323737078803500,16.733803466796875,-0.2101314514875412,0.12216944992542267,1.3359229564666748
1789323737097653500,16.752653564453126,0.03787253051996231,0.007330167107284069,1.544909119606018
1789323737116503300,16.77150341796875,0.4471401870250702,-0.04825693368911743,1.6854039430618286
1789323737135353000,16.79035302734375,0.9071081876754761,-0.10140064358711243,1.8216228485107422
1789323737154203100,16.809203125,1.1972606182098389,-0.4049917459487915,2.130711555480957
1789323737173053000,16.828052978515625,1.0793671607971191,-0.5045598149299622,2.2528810501098633
1789323737191903000,16.846903076171873,0.8448017835617065,-0.499673068523407,2.127657413482666
1789323737210752800,16.865752685546877,0.6572716236114502,-0.5974085927009583,2.246772527694702
1789323737229602800,16.884602783203125,0.5632011890411377,-0.7690566778182983,2.4966092109680176
1789323737248452600,16.90345263671875,0.6621584296226501,-0.6853706240653992,2.532649040222168
1789323737267302400,16.922302490234376,0.7226322889328003,-0.5656445622444153,2.324350118637085
1789323737286152400,16.94115234375,0.6383354067802429,-0.781884491443634,2.21806263923645
1789323737305002200,16.960002197265624,0.43981003761291504,-1.199093222618103,2.1343767642974854
1789323737323852300,16.978852294921875,0.46546560525894165,-1.1435060501098633,1.7086161375045776
1789323737342702000,16.9977021484375,0.6432221531867981,-0.8160919547080994,1.2381874322891235
1789323737361552000,17.0165517578125,0.5607577562332153,-0.8539644479751587,0.8863393664360046
1789323737380402000,17.03540185546875,0.3695625960826874,-0.9975135922431946,0.5265503525733948
1789323737399251700,17.054251708984374,0.1313321590423584,-0.8283088803291321,0.22723518311977386
1789323737418101800,17.073101806640626,-0.13927318155765533,-0.2993151545524597,0.10017894953489304
1789323737436951600,17.09195166015625,-0.31031039357185364,0.07635590434074402,-0.07391251623630524
1789323737455801300,17.11080126953125,-0.27854636311531067,0.4953971207141876,-0.3567348122596741
1789323737474651400,17.1296513671875,-0.20768806338310242,0.8521319031715393,-0.7647807598114014
1789323737493501200,17.148501220703125,-0.21196399629116058,1.1422843933105469,-1.2424633502960205
1789323737512351000,17.16735107421875,-0.3261924386024475,1.2247487306594849,-1.6854039430618286
1789323737531201000,17.186200927734376,-0.5955760478973389,1.2259705066680908,-1.8784316778182983
1789323737550050800,17.20505078125,-0.9174925684928894,0.7476770281791687,-1.9315754175186157
1789323737568900900,17.22390087890625,-1.2369656562805176,0.8729007244110107,-1.9621177911758423
1789323737587750700,17.242750732421875,-1.3677634000778198,0.8063184022903442,-2.0806221961975098
1789323737606600400,17.261600341796875,-1.0482138395309448,0.6603258848190308,-2.3402321338653564
1789323737625450500,17.280450439453126,-0.9498674869537354,0.7941014170646667,-2.4269726276397705
1789323737644300300,17.29930029296875,-0.948034942150116,0.36101073026657104,-2.5570828914642334
1789323737663150000,17.318150146484374,-1.0091196298599243,0.15943112969398499,-2.97001576423645
1789323737682000100,17.337000244140626,-0.8167027831077576,-0.1044548824429512,-3.166708469390869
1789323737700850000,17.355849853515625,-0.34818294644355774,0.028098974376916885,-2.8258557319641113
1789323737719700000,17.374699951171873,-0.054365407675504684,0.2510582208633423,-2.0653510093688965
1789323737738549800,17.3935498046875,0.12278030067682266,0.5961869359016418,-1.5986636877059937
1789323737757399600,17.412399658203125,0.11361759155988693,0.4049917459487915,-1.483824372291565
1789323737776249600,17.43124951171875,0.15149012207984924,0.1948602795600891,-1.225359559059143
1789323737795099400,17.450099365234376,0.23273280262947083,0.3506263196468353,-0.7415685653686523
1789323737813949200,17.46894921875,0.3939964771270752,0.6193991303443909,-0.12216944992542267
1789323737832799200,17.48779931640625,0.45263782143592834,0.7660024762153625,0.2638860046863556
1789323737851649000,17.50664892578125,0.610236406326294,0.6731536984443665,0.5522059202194214
1789323737870498800,17.525498779296875,0.546097457408905,-0.04214845970273018,0.9284878373146057
1789323737889348600,17.5443486328125,0.49112120270729065,-0.5265503525733948,1.2766708135604858
1789323737908198700,17.56319873046875,0.45324867963790894,-0.32313820719718933,1.174659252166748
1789323737927048400,17.58204833984375,0.3255815804004669,-0.393385648727417,1.0103414058685303
1789323737945898200,17.600898193359374,0.09407047927379608,-0.09407047927379608,1.2058124542236328
1789323737964748300,17.619748291015625,-0.17775654792785645,-0.2516690790653229,1.4294589757919312
1789323737983598000,17.63859814453125,-0.291374146938324,-0.5906893014907837,1.4868786334991455
1789323738002448000,17.65744775390625,-0.14721418917179108,-0.4092676639556885,1.4453409910202026
1789323738021298000,17.6762978515625,0.19119518995285034,-0.25777754187583923,1.4526711702346802
1789323738040147700,17.695147705078124,0.499673068523407,-0.24433889985084534,1.5840033292770386
1789323738058997500,17.71399755859375,0.7146912813186646,-0.5876350402832031,1.808184266090393
1789323738077847300,17.732847412109376,0.9364288449287415,-1.2174185514450073,2.0659618377685547
1789323738096697300,17.751697265625,1.0671501159667969,-1.3586006164550781,2.2962512969970703
1789323738115547100,17.770547119140623,0.8875610828399658,-0.9791881442070007,2.2938077449798584
1789323738134397000,17.78939697265625,0.6682668924331665,-0.4190412163734436,1.9584527015686035
1789323738153247000,17.8082470703125,0.33596599102020264,-0.522885262966156,1.8533869981765747
1789323738172096800,17.8270966796875,0.237008735537529,-0.6462764143943787,2.399484395980835
1789323738190946600,17.845946533203126,0.5253286361694336,-0.8783983588218689,2.715292453765869
1789323738209796400,17.86479638671875,0.7446228265762329,-0.7299624681472778,2.3781046867370605
1789323738228646400,17.883646484375,0.8551861643791199,-0.26632940769195557,1.7587056159973145
1789323738247496200,17.90249609375,0.6865923404693604,0.02076880633831024,1.1856545209884644
1789323738266346000,17.921345947265625,0.4202629029750824,-0.04214845970273018,0.8240329623222351
1789323738285195800,17.94019580078125,0.2761029601097107,-0.3946073353290558,0.37200596928596497
1789323738304045800,17.9590458984375,0.2089097648859024,-0.10078980028629303,-0.1301104724407196
1789323738322895600,17.9778955078125,-0.17470231652259827,0.3817795515060425,-0.6560499668121338
1789323738341745400,17.996745361328124,-0.22601348161697388,0.7989882230758667,-0.8350282311439514
1789323738360595200,18.01559521484375,-0.37444937229156494,1.38731050491333,-0.9504783153533936
1789323738379445200,18.0344453125,-0.3536805510520935,1.5253620147705078,-1.2094775438308716
1789323738398295000,18.053294921875,-0.46424391865730286,1.2723948955535889,-1.6377578973770142
1789323738417144800,18.072144775390626,-0.6548282504081726,1.2155860662460327,-2.2534918785095215
1789323738435994600,18.09099462890625,-1.0726478099822998,0.897334635257721,-2.8325750827789307
1789323738454844700,18.1098447265625,-1.572397232055664,0.6853706240653992,-2.995671272277832
1789323738473694500,18.128694580078125,-1.7904696464538574,0.6175665855407715,-3.013385772705078
1789323738492544300,18.147544189453125,-1.8411699533462524,0.3817795515060425,-2.821579933166504
1789323738511394000,18.16639404296875,-1.6017178297042847,-0.030542362481355667,-2.8118062019348145
1789323738530243800,18.185243896484376,-1.3793694972991943,-0.09040539711713791,-2.6187784671783447
1789323738549094000,18.204093994140624,-1.1728267669677734,0.6823163628578186,-2.3518383502960205
1789323738567943700,18.222943603515624,-0.9168817400932312,0.6432221531867981,-2.3958191871643066
1789323738586793500,18.24179345703125,-0.8588512539863586,0.8118160367012024,-2.1203272342681885
1789323738605643300,18.260643310546875,-0.420873761177063,0.7898254990577698,-1.5815598964691162
1789323738624493000,18.2794931640625,0.5259394645690918,0.5338805317878723,-1.4239612817764282
1789323738643343000,18.298343017578127,1.1013575792312622,0.2620534598827362,-1.222305417060852
1789323738662193000,18.31719287109375,0.6029062271118164,0.2345653474330902,-0.846023440361023
1789323738681042700,18.336042724609374,-0.06352811306715012,0.03420744836330414,-0.5155550837516785
1789323738699892500,18.354892578125,-0.21257483959197998,0.3658975064754486,-0.07696675509214401
1789323738718742300,18.3737421875,-0.11178504675626755,1.0219475030899048,0.4367557764053345
1789323738737592300,18.39259228515625,-0.017714571207761765,0.6401679515838623,0.9034430980682373
1789323738756442000,18.411442138671877,0.11667182296514511,-0.0024433890357613564,1.5009280443191528
1789323738775292000,18.4302919921875,0.3500154912471771,-0.18081079423427582,2.06412935256958
1789323738794141700,18.4491416015625,0.5149442553520203,-0.2583884000778198,2.2308905124664307
1789323738812991500,18.467991455078124,0.6047387719154358,-0.2883199155330658,2.0916173458099365
1789323738831841300,18.48684130859375,0.6933116316795349,-0.23945212364196777,2.0360302925109863
1789323738850691300,18.50569140625,0.7684458494186401,-0.18814095854759216,1.8888161182403564
1789323738869541000,18.524541015625,0.8283088803291321,-0.06658235192298889,1.5546826124191284
1789323738888391000,18.543390869140627,0.7434011101722717,-0.17531315982341766,1.4215179681777954
1789323738907240700,18.56224072265625,0.6285618543624878,-0.5149442553520203,1.8503327369689941
1789323738926090500,18.581090576171874,0.6554391384124756,-0.6035171151161194,2.4062037467956543
1789323738944940500,18.5999404296875,0.9199360013008118,-0.7330167293548584,2.510047674179077
1789323738963790300,18.618790283203126,1.110520362854004,-0.4593571424484253,2.3756613731384277
1789323738982640000,18.63764013671875,0.7342383861541748,-0.8857285380363464,2.3396213054656982
1789323739001490000,18.656489990234373,0.5137225389480591,-1.1227372884750366,2.1472043991088867
1789323739020339700,18.675339599609377,0.3035911023616791,-1.318819284439087,1.9547876119613647
1789323739039189500,18.694189453125,0.0012216945178806782,-1.0952491760253906,1.8955353498458862
1789323739058039300,18.713039306640624,-0.021990500390529633,-0.7898254990577698,1.5919443368911743
1789323739076889000,18.73188916015625,0.09407047927379608,-0.5967977643013,1.3671525716781616
1789323739095739100,18.7507392578125,0.27976804971694946,-0.9064973592758179,0.8551861643791199
1789323739114589000,18.7695888671875,0.15454435348510742,-0.7708892226219177,0.5644228458404541
1789323739133438700,18.788438720703127,-0.05008947476744652,-0.6939224600791931,0.4049917459487915
1789323739152288500,18.80728857421875,0.08002099394798279,-0.1704263836145401,0.13499724864959717
1789323739171138300,18.82613818359375,-0.17225892841815948,0.16737215220928192,-0.469741553068161
1789323739189988000,18.844988037109374,-0.4813476502895355,0.883895993232727,-0.9749122262001038
1789323739208838000,18.863837890625,-0.6914790868759155,1.4618338346481323,-1.1361758708953857
1789323739227687700,18.882687744140625,-0.5198310017585754,1.6481422185897827,-1.4569470882415771
1789323739246537700,18.901537841796873,-0.2852656841278076,1.3359229564666748,-1.8185685873031616
1789323739265387500,18.920387451171877,-0.47707170248031616,0.7403468489646912,-2.2247819900512695
1789323739284237300,18.9392373046875,-0.8338065147399902,0.4343124032020569,-2.2791473865509033
1789323739303087000,18.958087158203124,-1.317597508430481,0.8160919547080994,-2.101390838623047
1789323739321937000,18.97693701171875,-1.5033714771270752,1.1172395944595337,-2.0311434268951416
1789323739340786700,18.99578662109375,-1.6762412786483765,1.5168100595474243,-2.035419464111328
1789323739359636500,19.014636474609375,-1.5730080604553223,0.0910162404179573,-2.3005270957946777
1789323739378486300,19.033486328125,-1.3102673292160034,0.05008947476744652,-2.385434865951538
1789323739397336000,19.052336181640626,-1.0066763162612915,0.05619794875383377,-2.556472063064575
1789323739416185900,19.071185791015626,-0.6536065936088562,-0.6658235192298889,-2.769657850265503
1789323739435035600,19.09003564453125,-0.41476529836654663,0.37200596928596497,-2.54181170463562
1789323739453885400,19.108885498046874,-0.06780404597520828,0.7501204609870911,-2.1258249282836914
1789323739472735500,19.127735595703125,-0.4446968138217926,-0.06413896381855011,-1.1752700805664062
1789323739491585300,19.146585205078125,-0.4862344264984131,-0.5528167486190796,-0.5894675850868225
1789323739510435000,19.16543505859375,-0.22906772792339325,0.030542362481355667,-0.5326588153839111
1789323739529284900,19.184284912109376,-0.030542362481355667,0.24006296694278717,-0.5803049206733704
1789323739548134700,19.203134765625,-0.023823043331503868,-0.030542362481355667,-0.39827242493629456
1789323739566984400,19.221984375,-0.130721315741539,-0.5332696437835693,-0.01588202826678753
1789323739585834200,19.240834228515624,-0.41476529836654663,-1.1251806020736694,0.42392799258232117
1789323739604684000,19.25968408203125,-0.2767138183116913,0.14171656966209412,0.7550072073936462
1789323739623533800,19.278533935546875,-0.11361759155988693,-0.20035789906978607,0.7385143637657166
1789323739642383600,19.297383544921875,0.09834641218185425,-0.5137225389480591,1.0292776823043823
1789323739661233400,19.3162333984375,0.5632011890411377,-0.0922379344701767,2.023813247680664
1789323739680083200,19.335083251953126,1.2662863731384277,-0.237008735537529,2.3005270957946777
1789323739698933000,19.35393310546875,1.8307856321334839,-0.021990500390529633,2.1123862266540527
1789323739717782800,19.37278271484375,1.8051300048828125,-0.2583884000778198,2.139263391494751
1789323739736632600,19.391632568359373,1.0976924896240234,-0.29259583353996277,2.2730391025543213
1789323739755482400,19.410482421875,0.7043069005012512,-0.390942245721817,2.2327229976654053
1789323739774332200,19.429332275390625,0.5595360994338989,-0.49295374751091003,2.2327229976654053
1789323739793182000,19.448181884765624,0.5925218462944031,-0.6218425035476685,2.2504377365112305
1789323739812031700,19.46703173828125,0.7104153633117676,-0.7220214605331421,2.3286261558532715
1789323739830881500,19.485881591796876,0.8344173431396484,-0.9504783153533936,2.291975259780884
1789323739849731300,19.5047314453125,0.9663603901863098,-1.073258638381958,1.9578418731689453
1789323739868581000,19.5235810546875,0.8906152844429016,-1.3799803256988525,1.7348825931549072
1789323739887431000,19.542430908203126,0.5790832042694092,-1.7031185626983643,1.3952515125274658
1789323739906280700,19.56128076171875,0.36284327507019043,-1.4245721101760864,1.1636639833450317
1789323739925130500,19.580130615234374,0.4703523814678192,-0.8716790676116943,1.222305417060852
1789323739943980300,19.598980224609374,0.6444438695907593,-0.7409577369689941,0.9859074950218201
1789323739962830000,19.617830078125,0.45385950803756714,-0.6963658928871155,0.6542174220085144
1789323739981679900,19.636679931640625,0.19241689145565033,-0.24250635504722595,0.3689517378807068
1789323740000529700,19.65552978515625,0.08368607610464096,0.3799470067024231,0.1850867122411728
1789323740019379500,19.67437939453125,0.1441599577665329,0.5387672781944275,-0.20219044387340546
1789323740038229200,19.693229248046876,0.0653606578707695,0.7928797602653503,-0.6267293095588684
1789323740057079000,19.7120791015625,-0.14049486815929413,0.9859074950218201,-0.9694145917892456
1789323740075928800,19.7309287109375,-0.3158080279827118,1.0799779891967773,-1.3573789596557617
1789323740094778600,19.749778564453123,-0.469741553068161,1.2571237087249756,-1.7880263328552246
1789323740113628400,19.76862841796875,-0.6432221531867981,1.2442958354949951,-2.0891740322113037
1789323740132478200,19.787478271484375,-0.8722898960113525,1.3793694972991943,-2.2528810501098633
1789323740160753000,19.8157529296875,-1.0537115335464478,1.2791141271591187,-2.5259296894073486
1789323740179602400,19.8346025390625,-1.0885298252105713,0.8741224408149719,-2.7281203269958496
1789323740198452200,19.8534521484375,-1.2174185514450073,0.2980934679508209,-2.8038651943206787
1789323740217302000,19.872302001953123,-1.199093222618103,0.08124268800020218,-2.9382517337799072
1789323740236151800,19.89115185546875,-1.0207257270812988,0.10078980028629303,-3.0695838928222656
1789323740264426500,19.919426513671876,-0.46851983666419983,-0.1966928243637085,-2.9975037574768066
1789323740283276300,19.9382763671875,-0.0653606578707695,-0.06780404597520828,-2.6096158027648926
1789323740302126000,19.9571259765625,0.18691925704479218,0.2241809368133545,-2.0396952629089355
1789323740320976000,19.975975830078124,0.20341213047504425,0.18630841374397278,-1.4716074466705322
1789323740339825700,19.99482568359375,0.08124268800020218,0.007941014133393764,-1.022558331489563
1789323740358675500,20.013675537109375,-0.036039989441633224,0.04703523963689804,-0.555260181427002
1789323740377525200,20.032525146484375,0.01588202826678753,0.3023693859577179,-0.1704263836145401
1789323740396375000,20.051375,0.1985253542661667,0.6444438695907593,0.07513421028852463
1789323740415224800,20.070224853515626,0.23151111602783203,0.342074453830719,0.4947862923145294
1789323740434074400,20.089074462890625,0.2742704153060913,0.26938363909721375,0.938872218132019
1789323740452924200,20.107924072265625,0.3249707520008087,0.1178935244679451,1.2833900451660156
1789323740471774000,20.12677392578125,0.4080459773540497,0.021379653364419937,1.6114914417266846
1789323740490623700,20.145623779296876,0.37444937229156494,-0.07024743407964706,1.738547682762146
1789323740509473500,20.1644736328125,0.3384093940258026,-0.16187451779842377,1.589500904083252
1789323740528323300,20.1833232421875,0.2736595869064331,-0.15149012207984924,1.4581687450408936
1789323740547173000,20.202173095703124,0.208298921585083,-0.11545012891292572,1.5363571643829346
1789323740566023000,20.22102294921875,0.2980934679508209,-0.036039989441633224,1.7819178104400635
1789323740584872400,20.23987255859375,0.6163448691368103,-0.19363857805728912,2.0329761505126953
1789323740603722200,20.25872216796875,0.8936695456504822,-0.1423274129629135,2.03480863571167
1789323740622572000,20.277572021484374,0.9248227477073669,-0.23334364593029022,1.8656039237976074
1789323740641421800,20.296421875,0.6780404448509216,-0.7018635272979736,2.0256459712982178
1789323740660271600,20.315271728515626,0.5076140761375427,-1.3224843740463257,2.2687630653381348
1789323740679121400,20.334121337890625,0.4618005156517029,-1.4367891550064087,2.1575889587402344
1789323740697971200,20.35297119140625,0.5082249045372009,-1.105022668838501,1.8827075958251953
1789323740716821000,20.371821044921877,0.3402419090270996,-1.2284138202667236,1.829563856124878
1789323740735670500,20.39067041015625,0.14904673397541046,-1.7519862651824951,1.9205801486968994
1789323740754520300,20.409520263671876,-0.0030542362947016954,-1.621264934539795,1.8888161182403564
1789323740773370000,20.4283701171875,0.13682979345321655,-0.8857285380363464,1.557736873626709
1789323740792220000,20.447219970703124,0.3170297145843506,-0.23334364593029022,1.2290246486663818
1789323740811069700,20.466069580078123,0.2241809368133545,-0.025655584409832954,1.0115630626678467
1789323740829919500,20.48491943359375,0.07391251623630524,-0.00916270911693573,0.8105943202972412
1789323740848769000,20.50376904296875,0.045202698558568954,0.07574506103992462,0.47646087408065796
1789323740867618800,20.522618896484374,0.11178504675626755,0.17653486132621765,-0.16431790590286255
1789323740886468600,20.541468505859374,0.03787253051996231,0.41537612676620483,-0.7977665066719055
1789323740905318400,20.560318359375,-0.20524467527866364,0.7427902817726135,-1.2302464246749878
1789323740924168200,20.579168212890625,-0.43919917941093445,1.1141854524612427,-1.450838565826416
1789323740943018000,20.59801806640625,-0.5369347333908081,1.1618314981460571,-1.6163781881332397
1789323740961867500,20.616867431640625,-0.5106683373451233,1.2357439994812012,-1.852776050567627
1789323740980717300,20.63571728515625,-0.5839699506759644,1.2931636571884155,-2.072070360183716
1789323740999567000,20.654567138671876,-0.8875610828399658,1.2852226495742798,-2.2596004009246826
1789323741018417000,20.6734169921875,-1.178935170173645,1.1318999528884888,-2.5259296894073486
1789323741037266700,20.6922666015625,-1.3634874820709229,0.7617265582084656,-2.8295209407806396
1789323741056116200,20.7111162109375,-1.4221287965774536,0.3426853120326996,-2.857008934020996
1789323741074966000,20.729966064453127,-1.2852226495742798,0.1044548824429512,-3.0317113399505615
1789323741093815800,20.74881591796875,-0.9419264793395996,-0.17348061501979828,-3.200916051864624
1789323741112665600,20.76766552734375,-0.5002838969230652,-0.1313321590423584,-3.139831304550171
1789323741131515100,20.78651513671875,-0.21929416060447693,0.13560809195041656,-2.677419900894165
1789323741150365000,20.805364990234374,-0.21257483959197998,0.12278030067682266,-2.014650583267212
1789323741169214700,20.824214599609373,-0.25289076566696167,0.047646086663007736,-1.4734399318695068
1789323741188064500,20.843064453125,-0.08490777015686035,0.14049486815929413,-1.0811996459960938
1789323741206914300,20.861914306640625,0.13621893525123596,0.24678228795528412,-0.7171346545219421
1789323741225763800,20.880763916015624,0.2516690790653229,0.20585553348064423,-0.3775036036968231
1789323741244613600,20.899613525390624,0.2608317732810974,0.04214845970273018,-0.10201149433851242
1789323741263463400,20.91846337890625,0.291374146938324,-0.10017894953489304,0.20096874237060547
1789323741282313200,20.937313232421875,0.312142938375473,-0.07330167293548584,0.5509842038154602
1789323741301162800,20.956162841796875,0.3439069986343384,-0.5668662786483765,0.8747332692146301
1789323741320012500,20.975012451171875,0.48989951610565186,0.012216945178806782,1.1911520957946777
1789323741338862300,20.9938623046875,0.573585569858551,-0.0653606578707695,1.3928080797195435
1789323741357712100,21.012712158203126,0.555260181427002,-0.16309621930122375,1.549185037612915
1789323741376561700,21.031561767578125,0.4886777997016907,-0.45080527663230896,1.760538101196289
1789323741395411500,21.050411376953125,0.6071822047233582,-0.1954711228609085,1.903476357460022
1789323741414261200,21.06926123046875,0.8637380003929138,-0.16309621930122375,2.012207269668579
1789323741433111000,21.088111083984376,1.1563338041305542,0.05070032179355621,2.1624755859375
1789323741451960600,21.106960693359376,1.252847671508789,-0.38849884271621704,2.321906805038452
1789323741470810400,21.125810302734376,1.2913310527801514,-0.767224133014679,2.488668203353882
1789323741489660200,21.14466015625,1.2681188583374023,-0.9364288449287415,2.663370370864868
1789323741508509700,21.163509765625,1.1648857593536377,-1.222305417060852,2.7360613346099854
1789323741527359500,21.182359375,0.9370396733283997,-1.1129636764526367,2.599231481552124
1789323741546209300,21.201209228515626,0.6181774139404297,-1.1025793552398682,1.9053089618682861
1789323741565059000,21.22005908203125,0.23151111602783203,-1.5180318355560303,2.061685800552368
1789323741583908600,21.23890869140625,0.288930743932724,-1.4532819986343384,2.3115224838256836
1789323741602758400,21.25775830078125,0.6499415040016174,-0.7372926473617554,1.641422986984253
1789323741621608200,21.276608154296873,0.6297835111618042,-0.23028941452503204,1.0494356155395508
1789323741640457700,21.295457763671877,0.3115321099758148,-0.08918370306491852,0.8191461563110352
1789323741659307500,21.3143076171875,0.03787253051996231,0.017714571207761765,0.2858765125274658
1789323741678157300,21.3331572265625,-0.045202698558568954,0.1960819661617279,-0.2895416021347046
1789323741697007000,21.352007080078124,-0.22051586210727692,0.3035911023616791,-0.5882459282875061
1789323741715856600,21.370856689453124,-0.2651077210903168,0.5790832042694092,-0.7653915882110596
1789323741734706400,21.38970654296875,-0.3927747905254364,0.8057075142860413,-0.994459331035614
1789323741753556000,21.408555908203127,-0.5302154421806335,0.9303203821182251,-1.3445512056350708
1789323741772405800,21.42740576171875,-0.6383354067802429,1.1422843933105469,-1.6004961729049683
1789323741791255600,21.446255615234374,-0.7598940134048462,1.1667182445526123,-1.74709951877594
1789323741810105000,21.46510498046875,-1.0024003982543945,1.1477819681167603,-1.8118493556976318
1789323741828955000,21.483954833984374,-1.376926064491272,1.501538872718811,-1.8753774166107178
1789323741847804700,21.5028046875,-1.6328710317611694,1.3879213333129883,-1.9731130599975586
1789323741866654200,21.521654296875,-1.6469205617904663,1.1545013189315796,-2.095893383026123
1789323741885504000,21.54050390625,-1.6340928077697754,0.781884491443634,-2.2675414085388184
1789323741904353800,21.559353759765624,-1.5827815532684326,0.2858765125274658,-2.3555033206939697
1789323741923203300,21.578203369140624,-1.404414176940918,0.037261683493852615,-2.816693067550659
1789323741942053000,21.59705322265625,-1.0610417127609253,-0.23273280262947083,-3.2797152996063232
1789323741960903000,21.61590283203125,-0.38422292470932007,-0.2608317732810974,-3.018272638320923
1789323741979752400,21.63475244140625,-0.0653606578707695,0.37261682748794556,-2.306635618209839
1789323741998602200,21.653602294921875,-0.09468132257461548,0.29748260974884033,-1.6805171966552734
1789323742017452000,21.6724521484375,-0.14721418917179108,-0.031153209507465363,-1.4514493942260742
1789323742036301600,21.691301513671874,-0.09529217332601547,0.2492256760597229,-1.0970816612243652
1789323742055151400,21.7101513671875,-0.0030542362947016954,0.45385950803756714,-0.7244648337364197
1789323742074001200,21.729001220703125,0.025655584409832954,0.3530697226524353,-0.28282228112220764
1789323742092850700,21.7478505859375,0.08918370306491852,0.09468132257461548,0.23212195932865143
1789323742111700500,21.766700439453125,0.130721315741539,-0.2602209448814392,0.8069292306900024
1789323742130550000,21.785550048828124,0.22784602642059326,-0.41232189536094666,1.188708782196045
1789323742149399800,21.80439990234375,0.3897205591201782,-0.16798299551010132,1.389753818511963
1789323742168249600,21.82324951171875,0.47951510548591614,-0.14965757727622986,1.5992745161056519
1789323742187099100,21.84209912109375,0.518609344959259,-0.3640649616718292,1.618210792541504
1789323742205949000,21.860948974609375,0.5601469278335571,-0.4312581717967987,1.8307856321334839
1789323742234223400,21.889223388671876,0.684759795665741,-0.1453816443681717,2.1606431007385254
1789323742253073200,21.9080732421875,0.4587462842464447,0.0794101431965828,2.1093318462371826
1789323742271922700,21.926922607421876,0.1966928243637085,-0.6487197875976562,2.2486050128936768
1789323742290772500,21.9457724609375,0.4190412163734436,-0.684759795665741,2.506382703781128
1789323742309622000,21.9646220703125,0.8643488883972168,-0.5076140761375427,2.315798282623291
1789323742328471800,21.983471923828127,0.9834640622138977,-0.7012526392936707,2.11666202545166
1789323742347321600,22.002321533203126,0.7953231334686279,-0.9272661209106445,2.1496479511260986
1789323742366171100,22.021171142578126,0.6810947060585022,-1.0518789291381836,1.978610634803772
1789323742385021000,22.04002099609375,0.7660024762153625,-0.9969027042388916,1.8075734376907349
1789323742403870500,22.058870361328125,0.730573296546936,-1.1850436925888062,1.760538101196289
1789323742422720300,22.07772021484375,0.5473191738128662,-1.595609426498413,1.6328710317611694
1789323742441569800,22.09656982421875,0.22967857122421265,-1.5717864036560059,1.4532819986343384
1789323742460419600,22.115419677734376,0.16615045070648193,-1.1044118404388428,1.4343457221984863
1789323742479269400,22.134269287109376,0.43797749280929565,-0.5259394645690918,1.1880979537963867
1789323742498119000,22.153118896484376,0.497229665517807,-0.43919917941093445,0.6065713167190552
1789323742516968700,22.17196875,0.26755109429359436,-0.20524467527866364,0.130721315741539
1789323742535818200,22.190818359375,0.02870982140302658,0.13927318155765533,0.02626643143594265
1789323742554668000,22.20966796875,0.05803048983216286,0.28404396772384644,-0.1423274129629135
1789323742573517600,22.228517578125,-0.182643324136734,0.8655705451965332,-0.550373375415802
1789323742592367400,22.247367431640626,-0.38910970091819763,1.4166311025619507,-0.9413156509399414
1789323742611217000,22.266216796875,-0.6065713167190552,1.6334819793701172,-1.178935170173645
1789323742630066700,22.285066650390625,-0.6615476012229919,1.5308595895767212,-1.4746615886688232
1789323742648916200,22.303916259765625,-0.6517740488052368,1.5797274112701416,-1.9779998064041138
1789323742667766000,22.32276611328125,-0.9168817400932312,1.3506596088409424,-2.471564292907715
1789323742686615600,22.341615478515624,-1.3194301128387451,1.1080769300460815,-2.6731438636779785
1789323742705465300,22.36046533203125,-1.5840033292770386,0.6340594291687012,-2.781263828277588
1789323742724315000,22.37931494140625,-1.576673150062561,0.183865025639534,-2.7201790809631348
1789323742743164700,22.39816455078125,-1.3518813848495483,0.1820324808359146,-2.818525552749634
1789323742762014200,22.41701416015625,-1.0616525411605835,-0.055587101727724075,-2.995060443878174
1789323742790289000,22.445288818359376,-0.546097457408905,-0.16187451779842377,-3.097071886062622
1789323742809138400,22.464138427734376,-0.2736595869064331,-0.21623992919921875,-2.8545656204223633
1789323742827988200,22.48298828125,-0.029320668429136276,-0.0390942245721817,-2.359168529510498
1789323742846837800,22.501837646484375,0.21379654109477997,0.04947862774133682,-1.7776418924331665
1789323742865687600,22.5206875,0.2730487287044525,0.16187451779842377,-1.276059865951538
1789323742884537000,22.539537109375,0.2522799074649811,0.08857285231351852,-0.8252546191215515
1789323742903387000,22.558386962890626,0.29259583353996277,-0.1319430023431778,-0.4068242609500885
1789323742922236400,22.577236328125,0.3836120665073395,0.10811996459960938,-0.013438640162348747
1789323742941086200,22.596086181640626,0.42514967918395996,0.4043808877468109,0.3915531039237976
1789323742959935700,22.614935791015625,0.44958359003067017,0.6004628539085388,0.8191461563110352
1789323742978785300,22.633785400390625,0.4581354558467865,0.18936264514923096,1.2607887983322144
1789323742997635000,22.652635009765625,0.4862344264984131,-0.062306419014930725,1.5778948068618774
1789323743016484600,22.671484619140625,0.5430431962013245,-0.16309621930122375,1.5595693588256836
1789323743035334400,22.69033447265625,0.5308262705802917,-0.43919917941093445,1.4557254314422607
1789323743054184000,22.709183837890624,0.4746283292770386,-0.41171106696128845,1.5638453960418701
1789323743073033700,22.72803369140625,0.37689274549484253,-0.21562908589839935,1.7049510478973389
1789323743091883300,22.74688330078125,0.27121618390083313,-0.24067382514476776,1.690901517868042
1789323743110733000,22.765733154296875,0.23028941452503204,-0.4819584786891937,1.6976208686828613
1789323743129582600,22.78458251953125,0.4605788290500641,-0.26877278089523315,1.7336609363555908
1789323743148432100,22.80343212890625,0.7177455425262451,-0.32313820719718933,1.6762412786483765
1789323743167282000,22.822281982421874,0.9101623892784119,-0.5247178077697754,1.8790425062179565
1789323743186131500,22.84113134765625,0.9651386737823486,-0.8130376935005188,2.257767915725708
1789323743204981200,22.859981201171873,0.9859074950218201,-1.4789376258850098,2.260822057723999
1789323743223830800,22.878830810546877,0.9150491952896118,-1.6157673597335815,1.9926601648330688
1789323743242680600,22.8976806640625,0.5564818382263184,-1.5571260452270508,1.6695219278335571
1789323743261530000,22.916530029296876,0.36039987206459045,-2.0225915908813477,1.4954304695129395
1789323743280379600,22.935379638671876,0.20219044387340546,-1.8509435653686523,1.5271944999694824
1789323743299229400,22.9542294921875,0.06352811306715012,-1.4624446630477905,1.4502277374267578
1789323743318079000,22.973078857421875,0.09468132257461548,-0.5662553906440735,1.4911545515060425
1789323743336928800,22.9919287109375,0.2486148327589035,0.08490777015686035,1.4343457221984863
1789323743355778300,23.0107783203125,0.3280249834060669,0.4343124032020569,1.096470832824707
1789323743374627800,23.0296279296875,0.3243598937988281,0.8319739699363708,0.8295305967330933
1789323743393477600,23.0484775390625,0.22723518311977386,0.8032641410827637,0.24556060135364532
1789323743412327200,23.0673271484375,0.1960819661617279,0.9517000317573547,-0.28160059452056885
1789323743431177000,23.086177001953125,0.10140064358711243,1.0213366746902466,-1.1257915496826172
1789323743450026500,23.105026611328125,-0.577861487865448,1.492987036705017,-1.7648141384124756
1789323743468876000,23.1238759765625,-1.0555440187454224,1.3463836908340454,-1.8808751106262207
1789323743487725800,23.142725830078124,-0.8215895891189575,1.738547682762146,-1.9706696271896362
1789323743506575400,23.161575439453124,-0.9040539264678955,1.192984700202942,-2.1520912647247314
1789323743525425200,23.180425048828123,-1.0854755640029907,1.0640959739685059,-2.251659393310547
1789323743544274700,23.199274658203127,-1.3482162952423096,1.2345223426818848,-2.3744397163391113
1789323743563124200,23.218124267578126,-1.4135769605636597,0.6994200944900513,-2.5320382118225098
1789323743581974000,23.23697412109375,-1.3921972513198853,0.4752391576766968,-2.3628334999084473
1789323743600823600,23.255823486328126,-1.2259705066680908,0.15515519678592682,-2.3170199394226074
1789323743619673000,23.274673095703125,-1.045770525932312,0.22967857122421265,-2.5546395778656006
1789323743638523000,23.29352294921875,-0.8637380003929138,0.3042019307613373,-2.8991575241088867
1789323743657372400,23.312372314453125,-0.5167768001556396,-0.14965757727622986,-2.8844971656799316
1789323743676222000,23.331221923828124,-0.4850127100944519,0.2644968628883362,-2.3170199394226074
1789323743695071700,23.35007177734375,-0.265718549489975,0.2583884000778198,-1.7654249668121338
1789323743713921300,23.36892138671875,-0.14171656966209412,0.48806697130203247,-1.4410650730133057
1789323743732770800,23.387770751953123,0.06413896381855011,0.7403468489646912,-1.0030112266540527
1789323743751620600,23.40662060546875,0.17531315982341766,0.7134696245193481,-0.31825143098831177
1789323743770470100,23.42547021484375,-0.03298575058579445,0.12155860662460327,-0.022601349279284477
1789323743789319700,23.444319580078126,0.0024433890357613564,0.13316470384597778,0.26694026589393616
1789323743808169500,23.46316943359375,0.022601349279284477,-0.14965757727622986,0.6224533319473267
1789323743827019000,23.48201904296875,0.06719319522380829,-0.21440738439559937,0.9303203821182251
1789323743845868500,23.50086865234375,0.19058434665203094,0.13377554714679718,1.1764918565750122
1789323743864718300,23.51971826171875,0.42453885078430176,0.007330167107284069,1.2791141271591187
1789323743883567900,23.53856787109375,0.6303943991661072,-0.4886777997016907,1.327981948852539
1789323743902417400,23.55741748046875,0.6517740488052368,-0.5595360994338989,1.6860147714614868
1789323743921267200,23.57626708984375,0.7220214605331421,-0.7036960124969482,1.9431815147399902
1789323743940116700,23.59511669921875,0.5967977643013,0.0653606578707695,1.9340187311172485
1789323743958966300,23.61396630859375,0.29259583353996277,-0.2626643180847168,1.7953563928604126
1789323743977816000,23.632816162109375,0.18019993603229523,-0.5570927262306213,2.1294898986816406
1789323743996665600,23.65166552734375,0.762948215007782,-0.4709632396697998,2.4642341136932373
1789323744015515100,23.67051513671875,1.3983057737350464,-0.30786702036857605,2.3438973426818848
1789323744034364700,23.68936474609375,1.0946383476257324,-0.6505523324012756,2.3664987087249756
1789323744053214500,23.70821435546875,0.6371136903762817,-1.557736873626709,2.5540287494659424
1789323744072064000,23.72706396484375,0.6896465420722961,-1.6847931146621704,2.3695528507232666
1789323744090913500,23.74591357421875,0.856407880783081,-1.0750911235809326,2.0128180980682373
1789323744109763000,23.76476318359375,0.7831062078475952,-1.119683027267456,1.9303536415100098
1789323744128612900,23.78361279296875,0.6114581227302551,-1.298661231994629,1.7794743776321411
1789323744147462400,23.80246240234375,0.6187883019447327,-1.1838220357894897,1.3842562437057495
1789323744166312000,23.82131201171875,0.6743753552436829,-0.9932376146316528,0.9871291518211365
1789323744185161700,23.84016162109375,0.5522059202194214,-1.0714260339736938,0.4031592011451721
1789323744204011300,23.85901123046875,0.16370706260204315,-0.6762079000473022,0.09651386737823486
1789323744222860800,23.87786083984375,-0.17348061501979828,-0.09651386737823486,0.11667182296514511
1789323744241710300,23.89671044921875,-0.16126367449760437,0.5393781065940857,-0.08124268800020218
