time,seconds_elapsed,z,y,x
1790097386778104064,0.13210400390625,0.0,0.0,0.0
1790097386788104192,0.14210400390625,-0.08646625813088456,-0.08065999656704119,0.016037134965227847
1790097386798104064,0.15210400390625,-0.03627380347178997,-0.003404946223694353,-0.08731199467214898
1790097386808104192,0.16210400390625002,-0.10274357378442814,0.032214854419631116,-0.23953831401657563
1790097386818104064,0.17210400390625002,-0.46957402341344684,0.5067836091212256,-0.8198718083348577
1790097386828104192,0.18210400390625003,-0.053989479291141174,0.7437863869590716,-0.8775085286521926
1790097386838104064,0.19210400390625004,0.1663391347333263,0.8470548094731746,-0.6508935998039685
1790097386848104192,0.20210400390625005,-0.04040885558972129,0.7553355467831161,-0.46800484950084
1790097386858104064,0.21210400390625006,0.09208957854098623,0.31551190096073867,-0.060392875401147184
1790097386868104192,0.22210400390625007,0.15697737539576004,-0.029312467125438668,0.1310184482878995
1790097386878104064,0.23210400390625008,-0.027908594866108374,-0.2688181178445415,0.2511520039026355
1790097386888104192,0.2421040039062501,-0.08581493291367394,-0.36213810038783406,0.40946784621152554
1790097386898104064,0.2521040039062501,0.13769764337311927,-0.2914998459636242,0.4593657070258286
1790097386908104192,0.2621040039062501,0.4839086593738456,-0.05066624839505279,0.3962880676382276
1790097386918104064,0.2721040039062501,0.9763463084581615,0.29682779544358123,0.24600457033585718
1790097386928104192,0.2821040039062501,1.086242576663553,0.5282583273258216,0.19581704106419034
1790097386938104064,0.29210400390625013,0.8745585634735422,0.5663368445370189,0.22608159887723403
1790097386948104192,0.30210400390625014,0.7384361012737127,0.4544953622542291,0.2881896314615051
1790097386958104064,0.31210400390625015,0.4543685336463993,0.41723050436734566,0.3409580997615073
1790097386968104192,0.32210400390625016,0.14333217963363604,0.34742582423051577,0.2929644454474185
1790097386978104064,0.33210400390625017,-0.1337683969954349,0.30224687184823773,0.005064846730312683
1790097386988104192,0.3421040039062502,-0.583054276131817,0.36128871947717206,-0.47203003731758486
1790097386998104064,0.3521040039062502,-0.7989201760404433,0.6108460484388105,-0.8897116598388293
1790097387008104192,0.3621040039062502,-0.7271865712013095,0.863519022082635,-1.0934783150901908
1790097387018104064,0.3721040039062502,-0.6427211276274867,0.8745048452442067,-1.0715816777422504
1790097387028104192,0.3821040039062502,-0.30716735442976795,0.6511297062402939,-0.9444875748677762
1790097387038104064,0.3921040039062502,0.023685360997403565,0.43436534941724225,-0.7965458154996395
1790097387048104192,0.40210400390625023,0.3482003578715983,0.4078863632356909,-0.62192276156702
1790097387058104064,0.41210400390625024,0.6841402733229067,0.29292516684656456,-0.3147329871601678
1790097387068104192,0.42210400390625025,0.9935147765448499,-0.07106616953274239,0.042850738426752966
1790097387078104064,0.43210400390625026,1.2812160912724246,-0.3457049976870911,0.13682189233426284
1790097387088104192,0.44210400390625026,1.5139031804874423,-0.48691930380046494,0.12079456135500455
1790097387098104064,0.4521040039062503,1.035552542651145,-0.5251216161739919,-0.0035518447009469517
1790097387108104192,0.4621040039062503,0.5705267982079603,-0.3141916973604798,-0.12174430501120524
1790097387118104064,0.4721040039062503,0.1013223124713922,0.13395477706216674,-0.268057960971927
1790097387128104192,0.4821040039062503,-0.254957398073237,0.39816990064701596,-0.46376521129953974
1790097387138104064,0.4921040039062503,-0.29679619357422143,0.4247310009035203,-0.7826948958192874
1790097387148104192,0.5021040039062503,-0.0796854523917726,0.14260651012637698,-1.031815198799112
1790097387158104064,0.5121040039062503,-0.14417457205046996,-0.010116693930429299,-1.1839600329411186
1790097387168104192,0.5221040039062503,-0.3803492617924572,0.03263290562992289,-1.0725517595909315
1790097387178104064,0.5321040039062503,-0.33419189153457124,0.04580891904684274,-0.9124327551666008
1790097387188104192,0.5421040039062504,-0.10431487722955296,0.004132599072420265,-0.619912541245826
1790097387198104064,0.5521040039062504,0.3350717399638249,-0.028093751778835926,-0.27420827258087127
1790097387208104192,0.5621040039062504,0.7533572701788868,-0.26910665574936754,-0.07680460544615443
1790097387218104064,0.5721040039062504,0.9579517165604711,-0.3338173584836345,-0.26429755196617155
1790097387228104192,0.5821040039062504,0.3424690284356059,-0.11925905996341005,-0.6032221931805063
1790097387238104064,0.5921040039062504,-0.47412317738339094,0.17956864566397998,-0.909946622328043
1790097387248104192,0.6021040039062504,-0.9248757019721003,0.4352434525871831,-0.7838509964218396
1790097387258104064,0.6121040039062504,-1.4790575282696627,0.22276989562937208,-0.29001255713496904
1790097387268104192,0.6221040039062504,-2.0183835144481943,0.0960576001130638,-0.19959525109220375
1790097387278104064,0.6321040039062504,-2.2300082039154105,-0.00022237127879740082,-0.18137039100926444
1790097387288104192,0.6421040039062504,-1.6478762371324565,-0.26106790554657555,-0.1674389204308675
1790097387298104064,0.6521040039062505,-0.11260256021906334,0.0011335110011153754,-0.17265498736126683
1790097387308104192,0.6621040039062505,1.5373081687979422,0.5464521981402513,-0.4725934392026539
1790097387318104064,0.6721040039062505,2.5535941425614355,0.7358057084747139,-0.4002597185837804
1790097387328104192,0.6821040039062505,2.6154241156228273,0.1921825856101345,-0.1583698409393324
1790097387338104064,0.6921040039062505,2.082303842966917,-0.2764127542357411,-0.12099653809928673
1790097387348104192,0.7021040039062505,1.319904037384433,-0.38520966553734753,-0.05276508284729399
1790097387358104064,0.7121040039062505,0.6822015492942185,-0.2864243299761823,0.1659511581652445
1790097387368104192,0.7221040039062505,0.11990006583554574,-0.15104331600128318,0.23842043222204126
1790097387378104064,0.7321040039062505,-0.6476486826784605,0.16238393439682192,0.1731140070578137
1790097387388104192,0.7421040039062505,-1.5661341504470803,0.3938430971368496,0.21632661422763272
1790097387398104064,0.7521040039062505,-1.7685810959429904,-0.5743392578994535,0.881267268480715
1790097387408104192,0.7621040039062505,-1.2632284758343981,-1.7403055200132216,1.6182024739121408
1790097387418104064,0.7721040039062506,-0.5185590861044143,-2.1033419160260247,1.8370852878117698
1790097387428104192,0.7821040039062506,-0.42416549808564663,-1.5387170364569633,1.5556842713249346
1790097387438104064,0.7921040039062506,-0.39420053964635254,-1.2515452846642088,1.5782154762747929
1790097387448104192,0.8021040039062506,-0.15660907861375997,-1.4998721128473333,1.9440805664408773
1790097387458104064,0.8121040039062506,0.051219143287054555,-1.4827704460754252,1.716573222913818
1790097387468104192,0.8221040039062506,-0.00967690586498253,-1.3153424360218258,1.062497663132227
1790097387478104064,0.8321040039062506,-0.3039010125434219,-1.1568377158602547,0.028157744824060804
1790097387488104192,0.8421040039062506,-0.7402945413199653,-1.2707478237747694,-1.1779202024193538
1790097387498104064,0.8521040039062506,-1.058157133664559,-1.6791909829328258,-0.9526347256437819
1790097387508104192,0.8621040039062506,-2.1254914321624656,-2.856139024642331,0.41973042533118593
1790097387518104064,0.8721040039062506,-2.7756435336254226,-3.8330472702930836,1.5671363687380804
1790097387528104192,0.8821040039062507,-2.281008555662904,-3.295821148338336,1.354231182645398
1790097387538104064,0.8921040039062507,-0.7289721081708922,-2.473594588891426,1.1001532099931435
1790097387548104192,0.9021040039062507,1.4078216511109511,-1.827182476087685,1.6118184482819586
1790097387558104064,0.9121040039062507,0.8262192363114347,-1.7236217184639007,1.2112371428544302
1790097387568104192,0.9221040039062507,-2.092859526890348,-1.8965473292955055,0.2768598915096895
1790097387578104064,0.9321040039062507,-3.0839275199601577,-1.5641943332404602,-0.1791412696114046
1790097387588104192,0.9421040039062507,-2.739552689880773,-0.34501806204227514,-0.4025240845406532
1790097387598104064,0.9521040039062507,-3.0206808045420517,0.2787107032701752,-0.11880215765527277
1790097387608104192,0.9621040039062507,-4.578916621116122,-0.18667167430568432,-0.41433104581960917
1790097387618104064,0.9721040039062507,-4.221055351843662,-1.4243781316726518,-0.4781548225517175
1790097387628104192,0.9821040039062507,-5.2945059052532235,-2.468900554054151,-0.4230739127010239
1790097387638104064,0.9921040039062508,-3.6185908632796426,-3.3032782797745655,0.18082252420235634
1790097387648104192,1.0021040039062508,-2.3986139862248166,-3.9122317746836934,0.6032948764110259
1790097387658104064,1.0121040039062508,-0.6866250759292192,-4.010972355889563,0.9421051085153156
1790097387668104192,1.0221040039062508,2.7827512516087056,-3.716210146442391,1.5571510088826008
1790097387678104064,1.0321040039062508,4.205146109957106,-3.3938026309142897,1.9809474094464623
1790097387688104192,1.0421040039062508,4.016368600829447,-3.3628611610835275,1.6807401804693525
1790097387698104064,1.0521040039062508,2.5165131158586638,-3.629753298250943,0.4413743439143768
1790097387708104192,1.0621040039062508,0.280488292173261,-3.6591719646415197,-0.8043156027797768
1790097387718104064,1.0721040039062508,-1.7003498195979707,-3.765603353468168,-1.426360832502902
1790097387728104192,1.0821040039062508,-3.5483131806448434,-3.7748332029055724,-1.8245632949317243
1790097387738104064,1.0921040039062508,-3.9907141105830624,-3.1098021005375474,-2.1839060515100774
1790097387748104192,1.1021040039062509,-2.7024150171906625,-2.61804299082544,-2.4480987006744463
1790097387758104064,1.1121040039062509,-1.075974576306698,-3.694288183534743,-2.1102574048749263
1790097387768104192,1.1221040039062509,0.5898355999928535,-4.033672385877313,-2.087916847659327
1790097387778104064,1.1321040039062509,1.3940324280819478,-3.81019002702849,-2.9599061812227143
1790097387788104192,1.1421040039062509,1.5916364737096802,-3.4190894022091753,-4.205561173517517
1790097387798104064,1.152104003906251,1.2935273802638598,-3.0443051967695345,-4.9731675432534495
1790097387808104192,1.162104003906251,1.0091175384151834,-2.939513802105307,-5.48163140130454
1790097387818104064,1.172104003906251,0.9210345942852546,-2.736481039284762,-5.7508942060696615
1790097387828104192,1.182104003906251,0.7818232648181399,-1.662282271568071,-6.056071720347654
1790097387838104064,1.192104003906251,1.0119825651604069,-0.9017275876053965,-5.465611883227913
1790097387848104192,1.202104003906251,1.6186533446362104,-1.8634156132046906,-4.190319740106983
1790097387858104064,1.212104003906251,2.1258530977458236,-1.8532661797499115,-3.4938789785145463
1790097387868104192,1.222104003906251,3.1428697893905753,-2.2735573112189185,-3.6820211849648654
1790097387878104064,1.232104003906251,4.077973535603662,-1.9145598247025788,-4.047954311612482
1790097387888104192,1.242104003906251,9.839786433141596,-0.4628457285616392,-4.970271657707948
1790097387898104064,1.252104003906251,11.879328185094826,1.2643499164149083,-5.2505722521722715
1790097387908104192,1.262104003906251,10.360783905611363,2.639197365606493,-5.323149602073434
1790097387918104064,1.272104003906251,5.44011710052773,4.051539965362575,-3.592559800111892
1790097387928104192,1.282104003906251,2.1850780172026094,1.6190168183938225,-1.5886397671922827
1790097387938104064,1.292104003906251,1.8232914194822674,-0.019271606281460275,-1.933422535431692
1790097387948104192,1.302104003906251,3.1095079146086264,0.15699360058242562,-2.1203447878222343
1790097387958104064,1.312104003906251,1.217061101386518,0.6933842961834698,-2.725423598671247
1790097387968104192,1.322104003906251,0.9499013140003816,0.8542271434149893,-3.1770194942795595
1790097387978104064,1.332104003906251,3.6333359521750785,0.28689801476485416,-3.2830071597878776
1790097387988104192,1.342104003906251,4.332164513830363,-0.061952848915265174,-3.5900719580233686
1790097387998104064,1.352104003906251,1.646414418700095,-0.06765593979441004,-4.008441470544193
1790097388008104192,1.362104003906251,1.455411179548471,0.5340220409751766,-5.020511608050775
1790097388018104064,1.372104003906251,3.19064694175802,1.3046161780969354,-6.411377790857464
1790097388028104192,1.382104003906251,0.5142622128158747,0.6648215372023303,-6.027871955834545
1790097388038104064,1.392104003906251,2.93819044739642,1.3853473735099264,-6.076142517652025
1790097388048104192,1.4021040039062511,4.051343405742568,2.642773189814563,-5.668248993455627
1790097388058104064,1.4121040039062511,3.3331557547178914,2.761561544143696,-4.621470049078322
1790097388068104192,1.4221040039062511,2.1347034559410494,3.0616638444518123,-4.347803004231914
1790097388078104064,1.4321040039062511,0.6473826122222957,3.372032544902094,-5.047267604977389
1790097388088104192,1.4421040039062512,-2.945906563701323,4.097724830755096,-6.573642766508685
1790097388098104064,1.4521040039062512,5.810458253266021,7.126566436647521,-3.737099448841761
1790097388108104192,1.4621040039062512,3.053246619077403,6.238337566763324,-2.5771815903931863
1790097388118104064,1.4721040039062512,2.630538914823254,4.884752050933427,-1.1007488638125535
1790097388128104192,1.4821040039062512,1.8943050890495496,4.5290382121740524,-0.6945454782857521
1790097388138104064,1.4921040039062512,0.5485487295787044,3.8141388312675852,-1.2116404272696597
1790097388148104192,1.5021040039062512,1.0878804482906843,3.7089430963701275,-1.6253738700525115
1790097388158104064,1.5121040039062512,2.3171872769524096,3.8642449290773873,-1.7132074866267055
1790097388168104192,1.5221040039062512,3.0498289373043455,3.6131756183279147,-2.0391799554350447
1790097388178104064,1.5321040039062512,3.1306576379364124,3.3640629518255034,-2.65301737333984
1790097388188104192,1.5421040039062512,3.1232591239841105,3.6511301039760697,-3.277156722124478
1790097388198104064,1.5521040039062513,2.679943563715579,3.916751789902182,-3.3235886561537424
1790097388208104192,1.5621040039062513,1.4880608641858335,4.237192012681773,-3.2464436452580134
1790097388218104064,1.5721040039062513,-0.17826199976891122,5.84987433383753,-4.433416603093626
1790097388228104192,1.5821040039062513,-2.0830590718833184,5.3012744640557035,-1.9690444446904425
1790097388238104064,1.5921040039062513,-2.9584837062364153,2.4768874683830213,0.3040629827561723
1790097388248104192,1.6021040039062513,-2.6406200128196233,1.376553632398756,2.459388623342401
1790097388258104064,1.6121040039062513,-2.1567515653683147,7.246964286456419,-3.5529049587802195
1790097388268104192,1.6221040039062513,-0.809112362764441,2.2195233298165404,0.6425084903218299
1790097388278104064,1.6321040039062513,2.0395807135963406,1.7611643841132878,1.7426768681844154
1790097388288104192,1.6421040039062513,0.8242183527422718,5.801533196765907,-0.18793963249571005
1790097388298104064,1.6521040039062513,-1.2258395714432813,8.564244257403208,0.7926327994408182
1790097388308104192,1.6621040039062513,-0.1428214703611821,3.3341298323454307,4.025203017625302
1790097388318104064,1.6721040039062514,-0.5168835953744572,1.5298889021452922,6.132815648503929
1790097388328104192,1.6821040039062514,-1.2116960558545402,-0.3644079211823177,6.602337925701196
1790097388338104064,1.6921040039062514,-2.675027411692461,-2.329714144878015,5.584966387243804
1790097388348104192,1.7021040039062514,-4.791478867957599,-3.7484711031304765,3.206710258046566
1790097388358104064,1.7121040039062514,-5.691344668230051,-6.380592210702698,0.33543082261686963
1790097388368104192,1.7221040039062514,-3.9487529192601496,-10.748022706575664,-2.945567791057678
1790097388378104064,1.7321040039062514,-2.591562292654895,-12.232335178736372,-5.742797650560446
1790097388388104192,1.7421040039062514,-1.6790762600557994,-9.65882953531693,-5.775861341722696
1790097388398104064,1.7521040039062514,-0.5083482201483831,-8.706157285014196,-4.70134666100537
1790097388408104192,1.7621040039062514,1.8472005321467972,-8.877842965763579,-3.113112814928978
1790097388418104064,1.7721040039062514,3.101474004152347,-8.204808547542564,-0.5953202864263459
1790097388428104192,1.7821040039062515,3.47464239146733,-9.523354557584062,-0.3238002030255834
1790097388438104064,1.7921040039062515,1.3302694244041744,-11.324752182968016,-2.354003796138792
1790097388448104192,1.8021040039062515,0.7588022803993553,-9.709257476882456,-4.252707105119854
1790097388458104064,1.8121040039062515,0.5873788931768384,-5.767025364873684,-4.0950305090385175
1790097388468104192,1.8221040039062515,-0.48171039272702465,-3.226375505100162,-3.1475230172707604
1790097388478104064,1.8321040039062515,-1.5931749775205277,-1.0926902245240335,-2.4751802967835443
1790097388488104192,1.8421040039062515,-1.928453877233956,1.48063545650532,-1.6364456889456338
1790097388498104064,1.8521040039062515,-1.3640251144348716,2.6281657238203455,-0.851885996644821
1790097388508104192,1.8621040039062515,-0.8800101386687027,2.6903904452248324,0.814617465202522
1790097388518104064,1.8721040039062515,-0.2976461334873053,2.4887514988700197,2.318528753816654
1790097388528104192,1.8821040039062515,1.4104039171845872,1.6668396319484464,2.735886208708799
1790097388538104064,1.8921040039062516,2.586160323328567,-2.3339293057318344,1.5826149360358226
1790097388548104192,1.9021040039062516,2.7911631185246852,-2.6179681149876872,-0.5698307078069478
1790097388558104064,1.9121040039062516,3.9298902239544136,-2.1618956724513954,-4.416190135591464
1790097388568104192,1.9221040039062516,0.7593081719720987,-1.989191480723239,-5.751869578885652
1790097388578104064,1.9321040039062516,-1.566467969359393,-2.66590623407966,-5.214800971318342
1790097388588104192,1.9421040039062516,-3.1645803006116515,-1.872486621194555,-3.7922239781991207
1790097388598104064,1.9521040039062516,-5.12163528622298,-0.9056864626496918,-1.779637589750146
1790097388608104192,1.9621040039062516,-5.399122160783898,0.807410095552427,-0.4244732175455401
1790097388618104064,1.9721040039062516,-3.5343726637927055,2.2310599899571346,0.8756214421800981
1790097388628104192,1.9821040039062516,-1.2927829051446416,3.645505514140634,1.8073471825325211
1790097388638104064,1.9921040039062516,0.6001948619070308,4.216506325697928,2.2959774974418585
1790097388648104192,2.0021040039062514,2.2751518508219113,3.148316034130166,2.781239569330788
1790097388658104064,2.0121040039062517,1.557327962836745,1.2150637326685356,2.6295165303061188
1790097388668104192,2.022104003906252,0.6208939674591637,-0.2565131277240185,1.735979762846389
1790097388678104064,2.0321040039062517,0.5525827839315214,-0.9019947448522638,0.19420454278616894
1790097388688104192,2.0421040039062515,-0.568825318735654,-0.5865249760155686,-2.227936721751484
1790097388698104064,2.0521040039062517,-2.8901079914455057,1.353504461528949,-4.67694956408429
1790097388708104192,2.062104003906252,-3.61978171754496,7.392436510405744,-6.8468280745104035
1790097388718104064,2.0721040039062517,0.7898048098915083,11.47427651484594,-6.682174260736865
1790097388728104192,2.0821040039062515,6.208045797114437,4.842748731681452,-1.8747797621908031
1790097388738104064,2.0921040039062517,4.916648663328621,0.44297928807954534,0.32502365271680334
1790097388748104192,2.102104003906252,2.397950008528798,-0.4121726484448743,0.06638575642768871
1790097388758104064,2.1121040039062517,0.05495172579352564,-0.7168017382649805,-0.5923446180486686
1790097388768104192,2.1221040039062515,-0.8575863515066803,-2.6734590106972713,-0.5239511460124519
1790097388778104064,2.1321040039062518,-0.7869909194447694,-4.720017804166106,-0.7116603017021644
1790097388788104192,2.1421040039062516,-0.9703404413332369,-4.648951389405237,-1.563842841153102
1790097388798104064,2.152104003906252,-0.586824587946978,-4.808347433943748,-1.8418773458746855
1790097388808104192,2.162104003906252,-0.16465541424155283,-4.981347078597948,-1.0317198682303772
1790097388818104064,2.172104003906252,0.10567451213888596,-4.57428473023248,0.11346687789326987
1790097388828104192,2.1821040039062516,-0.6382420897853583,-5.1618671468377535,2.392640731398438
1790097388838104064,2.192104003906252,-1.2775992098346924,-4.824169191372423,2.9206260991883983
1790097388848104192,2.202104003906252,-1.2684530738622855,-4.001922406647994,1.7369819396727115
1790097388858104064,2.212104003906252,-1.5300923603742056,-3.6785138582454864,1.3322191708421258
1790097388868104192,2.2221040039062516,-1.666895460951533,-2.9570232602909092,1.291532371738598
1790097388878104064,2.232104003906252,-1.7148868714606365,-2.5901869246393607,1.4457628169484293
1790097388888104192,2.242104003906252,-1.5933416812026717,-2.035005124563863,1.3929836066019812
1790097388898104064,2.252104003906252,-1.548889742754088,-1.418330610877597,1.46726145807446
1790097388908104192,2.2621040039062517,-1.7006007587496748,-0.984007829664418,1.4307385273856847
1790097388918104064,2.272104003906252,-2.0056218365227383,-0.9393935458602813,0.840488161931108
1790097388928104192,2.282104003906252,-1.7351764772289857,-0.5398620885585445,0.17994711414711118
1790097388938104064,2.292104003906252,-2.0544095673908225,-0.40187871560366023,0.5832072638498249
1790097388948104192,2.3021040039062517,-2.0418844833240457,0.2617585441902082,0.020134627376710457
1790097388958104064,2.312104003906252,-1.2051161081316364,1.0152418884654377,-2.321041765618329
1790097388968104192,2.322104003906252,-2.6633551851215413,-0.6204396255068179,0.45497835467199554
1790097388978104064,2.332104003906252,-2.9061891051043482,0.22157980658815016,1.8511774954985605
1790097388988104192,2.3421040039062517,-1.8661553035498986,0.9233224962523168,1.8133547900022982
1790097388998104064,2.352104003906252,-0.7811146422336483,1.0067520949557367,2.379984155231843
1790097389008104192,2.362104003906252,-0.29930077409924116,0.9076838650793082,3.144975289746942
1790097389018104064,2.372104003906252,-0.715436076236087,0.9672942915010395,3.7186057958311958
1790097389028104192,2.3821040039062518,-1.459786682491211,1.236841037848285,4.295770942808259
1790097389038104064,2.392104003906252,-1.7459175474726796,1.5753526742775885,4.711161647606276
1790097389048104192,2.4021040039062522,-3.0175857701074618,1.0730237597614907,6.470673224523903
1790097389058104064,2.412104003906252,-1.9454045379335738,2.4142885141833523,2.5590376671926967
1790097389068104192,2.422104003906252,-1.3281022003230696,0.9922048159426522,0.20782977676395298
1790097389078104064,2.432104003906252,-1.4129214513469066,-0.5216341711812447,-0.9642573969236273
1790097389088104192,2.4421040039062523,-1.2336975431590207,-0.6323980491831976,-3.8156704934639403
1790097389098104064,2.452104003906252,-1.2804428359938602,-1.6139913166215287,-3.549248531083828
1790097389108104192,2.462104003906252,0.06565098460846855,-0.21868912749767355,-5.629012330789515
1790097389118104064,2.472104003906252,-0.6665332127379822,-1.4055671119871507,-4.105754076884642
1790097389128104192,2.4821040039062523,-1.1689963334088835,-0.6561562955256762,-2.7862165040048597
1790097389138104064,2.492104003906252,-1.1936849252985455,0.12336051351680366,-0.7910309263928406
1790097389148104192,2.502104003906252,-1.1553230164100394,0.816719267766488,1.8247000305487824
1790097389158104064,2.512104003906252,-0.9154141007366375,1.7903821970199607,4.39879930609562
1790097389168104192,2.5221040039062523,-0.7126850536354661,2.3335081304048515,7.323233908640703
1790097389178104064,2.532104003906252,0.26859648857338614,3.4811330863614245,8.258679474495072
1790097389188104192,2.542104003906252,1.3049471628332638,3.3049506676552096,4.917666627629652
1790097389198104064,2.552104003906252,0.8248877020845158,1.6750350122398197,1.6995421204806525
1790097389208104192,2.5621040039062524,-0.3540601333582247,0.13955782109957138,-0.2041981048238517
1790097389218104064,2.572104003906252,-1.0516334964061593,-1.2175718350075422,-1.5929176243598773
1790097389228104192,2.582104003906252,-1.1773486352073839,-1.9797987711016094,-2.8301484706295703
1790097389238104064,2.592104003906252,-1.060613984663598,-1.9810254344870564,-2.830413031935648
1790097389248104192,2.6021040039062524,-0.795032185099664,-1.5755255674971385,-2.758801688203722
1790097389258104064,2.612104003906252,-0.3573607693841382,-1.3967597002093926,-2.4221411560684216
1790097389268104192,2.622104003906252,0.009825676292143287,-1.2154634756581004,-0.43724648133841376
1790097389278104064,2.632104003906252,0.4816454825729617,-0.4480999014485638,1.2475562708552417
1790097389288104192,2.6421040039062524,0.770177089695258,-0.015377677135661766,2.6044993085715
1790097389298104064,2.6521040039062522,0.9176691412882638,0.18007847401305915,3.1857952307520567
1790097389308104192,2.662104003906252,1.0775897140173416,-0.21295296867616703,2.5254039061986115
1790097389318104064,2.6721040039062522,1.2074059880008572,-0.8514666403897719,1.2727070705871575
1790097389328104192,2.6821040039062525,1.2325937185786209,-1.6330450033131718,0.5948481385827267
1790097389338104064,2.6921040039062523,1.0565536396822044,-2.3049304691971697,0.24605400429369925
1790097389348104192,2.702104003906252,0.6046886209266766,-2.864461606416499,-0.30229090841995854
1790097389358104064,2.7121040039062523,0.31832862076345536,-3.259279199713005,-0.7426221441723817
1790097389368104192,2.7221040039062525,0.5321459692134727,-3.453321199776368,-0.878190752163043
1790097389378104064,2.7321040039062523,0.8805428358742362,-3.4806801165224583,-0.8513628848212903
1790097389388104192,2.742104003906252,1.1004206702594925,-3.1997438840314767,-1.0355482579105637
1790097389398104064,2.7521040039062523,1.1137508494416322,-2.7608183407484863,-0.909094134326222
1790097389408104192,2.7621040039062525,1.1132390908111516,-2.4391820465217107,-0.6846643583087936
1790097389418104064,2.7721040039062523,1.1649938253739651,-1.5413142398511641,-0.6038691296038734
1790097389428104192,2.782104003906252,1.172873698698193,-1.170073646759549,-0.5396471658902229
1790097389438104064,2.7921040039062524,1.1425603563153992,-1.1326177017251668,-0.6548158392196932
1790097389448104192,2.8021040039062526,0.892793680594805,-0.9718396332737655,-0.6827014267960871
1790097389458104064,2.8121040039062524,0.42895849192910296,-0.7801185662706066,-0.5226437436019612
1790097389468104192,2.822104003906252,0.465391180982625,-0.7514634775184532,-0.3315069245844272
1790097389478104064,2.8321040039062524,1.3952294594051584,-1.186003051780021,-0.39862008202604376
1790097389488104192,2.8421040039062526,0.9662193162011058,-1.3472986874767956,-0.08205928778282179
1790097389498104064,2.8521040039062524,-0.45356086227948134,-0.2707036366728155,-0.04138924281086784
1790097389508104192,2.862104003906252,-0.23090737810248596,0.741794061800499,-0.33863150617358656
1790097389518104064,2.8721040039062524,0.26968778011675987,1.592640116390265,-0.9290778719820159
1790097389528104192,2.8821040039062527,1.0485971148875632,1.9152092856578533,-1.519411153848339
1790097389538104064,2.8921040039062524,1.1137490686088478,2.112555879267134,-1.813695996198416
1790097389548104192,2.9021040039062522,0.7494183648105064,1.2410581397429707,-1.4775732522108251
1790097389558104064,2.9121040039062525,1.2126981352323216,-0.5241089458019366,-1.4446466608026736
1790097389568104192,2.9221040039062527,1.5524609847226751,-1.0199116677991187,-1.4450478118648464
1790097389578104064,2.9321040039062525,1.4133916311044896,-0.6048442294612536,-1.014192313871443
1790097389588104192,2.9421040039062523,1.284107763833139,-0.2141680820483559,-0.8174354097359082
1790097389598104064,2.9521040039062525,0.9520840253018948,-0.0041562870116920655,-0.7463393567605763
1790097389608104192,2.9621040039062527,0.40164063101710346,0.1354243564244845,-0.4992256847156834
1790097389618104064,2.9721040039062525,0.025504232864135,-0.00568257376744187,0.009738678901766898
1790097389628104192,2.9821040039062523,-0.16338366387260334,-0.22792578672427743,0.2809292409956621
1790097389638104064,2.9921040039062525,-0.12572003173022417,-0.27297074314942754,0.2986275173482663
1790097389648104192,3.0021040039062528,0.2685008596235405,-0.5124915338516286,-0.032333255629566376
1790097389658104064,3.0121040039062525,0.2501924395893454,-0.6128205598270947,-0.8094521925101308
1790097389668104192,3.0221040039062523,-0.23391093168175003,-0.6326761927965009,-1.3323652737376248
1790097389678104064,3.0321040039062526,0.2764160567497166,-1.4934672345081128,-2.300427368685544
1790097389688104192,3.042104003906253,1.5779828965241576,-2.195142097589886,-2.752494264150511
1790097389698104064,3.0521040039062526,2.1954549346549146,-2.035901835436337,-1.0210222617309748
1790097389708104192,3.0621040039062524,2.1683581562821694,-1.7469166488413617,-0.8642761008640314
1790097389718104064,3.0721040039062526,1.629344298988074,-1.7961432379002509,-1.6224173376933744
1790097389728104192,3.082104003906253,1.3045507355133554,-1.6956641023426124,-2.0840889323616882
1790097389738104064,3.0921040039062526,0.5446429863568906,-1.1664733768628022,-2.099675773836241
1790097389748104192,3.1021040039062524,-0.21582064580319205,-0.25161426011682514,-2.1176747336361395
1790097389758104064,3.1121040039062526,-0.891081902356116,0.6917151185241105,-1.8601210775409218
1790097389768104192,3.122104003906253,-1.41024889390617,1.3358283818284895,-1.2584329732407011
1790097389778104064,3.1321040039062527,-1.6906419392016079,1.6675501097399124,-0.49433795225348404
1790097389788104192,3.1421040039062524,-1.7330889646504128,1.7178588982360152,0.4792436279265524
1790097389798104064,3.1521040039062527,-1.3243145375946646,1.490927133935139,1.5480584546846439
1790097389808104192,3.162104003906253,-0.3440248148056305,1.262213264670131,2.3295294577893837
1790097389818104064,3.1721040039062527,0.9052824761726587,0.6481354552758011,2.5198979168373934
1790097389828104192,3.1821040039062525,0.9799755286269456,-0.7271485870712988,1.5199047400474188
1790097389838104064,3.1921040039062527,1.2689701007248155,-1.289219925805841,0.16532692000104132
1790097389848104192,3.202104003906253,1.9286709109716411,-1.0615307268470295,-0.6254928728567696
1790097389858104064,3.2121040039062527,2.061600640354766,-0.833455091498172,-0.7771135330218758
1790097389868104192,3.2221040039062525,2.0613460076805796,-1.1965331854608279,-0.5735060367754801
1790097389878104064,3.2321040039062527,1.2191702970725908,-1.666725449989093,-0.503633502653467
1790097389888104192,3.242104003906253,1.0515526463025189,-1.2521063820214116,-0.9431586661622331
1790097389898104064,3.2521040039062528,0.07114851830796695,-1.4419614144336352,-1.1447557046575054
1790097389908104192,3.2621040039062525,-0.6138250489274368,-1.4960388115852667,-1.3548548980732198
1790097389918104064,3.272104003906253,-0.8726603466391836,-1.1332104334922188,-1.5112672248199592
1790097389928104192,3.282104003906253,-0.8378503623442061,-0.8355686551990126,-1.4363349444494342
1790097389938104064,3.292104003906253,-0.5989358226024344,-1.014267006725611,-1.239720393726063
1790097389948104192,3.3021040039062526,0.157501841473707,-1.3382295743832244,-1.0894409895103152
1790097389958104064,3.312104003906253,1.0907984149490701,-1.5491667458811367,-0.8538534759785963
1790097389968104192,3.322104003906253,1.444782979666952,-1.6394334673137632,-0.7896194140244298
1790097389978104064,3.332104003906253,1.2471735078826032,-1.6801590886142395,-0.7961627341732169
1790097389988104192,3.3421040039062526,0.7854723824992269,-1.947039415881982,-0.5223338996158879
1790097389998104064,3.352104003906253,-0.01680167397521215,-2.223272654765942,-0.37370134797594234
1790097390008104192,3.362104003906253,-0.9318692717404913,-2.086500514919122,-0.6119540289124955
1790097390018104064,3.372104003906253,-1.5825959632945672,-1.99342147817241,-0.5981108775315236
1790097390028104192,3.3821040039062527,-2.0870491216532496,-1.5794404201336705,-0.44782098573285545
1790097390038104064,3.392104003906253,-2.390631828642188,-1.1099328011442133,0.015037859968289158
1790097390048104192,3.402104003906253,-2.241218942479546,-0.23420935141172183,0.30157472502868493
1790097390058104064,3.412104003906253,-1.8762870374448342,0.5257861696865216,0.6754600393201747
1790097390068104192,3.4221040039062527,-1.3131080926168532,0.7883944220747512,0.655285581549114
1790097390078104064,3.432104003906253,-0.7302214169549752,0.6938946311056089,0.4648298386075433
1790097390088104192,3.442104003906253,-0.6150931659809769,0.3955966904535545,0.3545344947465302
1790097390098104064,3.452104003906253,-1.1335193657109677,-0.18047614910145587,0.36458487694643005
1790097390108104192,3.4621040039062527,-1.8434949376141316,-0.6060367853868366,0.5198464926449438
1790097390118104064,3.472104003906253,-2.1993875898197612,-0.7617544410228766,0.6352278116444262
1790097390128104192,3.482104003906253,-2.3094730273808297,-0.5490367071579568,0.7187911251420772
1790097390138104064,3.492104003906253,-2.3053403539698505,-0.22835322834062652,0.7430231722224084
1790097390148104192,3.5021040039062528,-2.275908390221846,-0.005505365399411766,0.6586884280697533
1790097390158104064,3.512104003906253,-2.3268260736062834,0.17935283336360502,0.5289735818231256
1790097390168104192,3.5221040039062532,-2.4708615482321887,0.17058930955541393,0.3861960436807358
1790097390178104064,3.532104003906253,-2.6510588460794042,-0.03149403512723112,0.2986112187596698
1790097390188104192,3.542104003906253,-2.7467978080682123,-0.10474501807506187,0.26228451015491133
1790097390198104064,3.552104003906253,-2.599975799694587,-0.005315139288276163,0.22258117668300667
1790097390208104192,3.5621040039062533,-2.26294702001498,0.14384936116894598,0.399278676007791
1790097390218104064,3.572104003906253,-1.6615900235530052,0.4027833046019663,0.48092297552334096
1790097390228104192,3.582104003906253,-1.2080151895362998,0.6278250040475291,0.6087510524470984
1790097390238104064,3.592104003906253,-1.1243078623539988,0.6872357485035238,0.5869539408854911
1790097390248104192,3.6021040039062533,-1.5111291801087454,0.7609083269615247,0.49208960897154647
1790097390258104064,3.612104003906253,-1.9074206729731384,0.8880160058985913,0.4145051170633805
1790097390268104192,3.622104003906253,-1.9306815000307642,0.9364733333087607,0.18826172372704453
1790097390278104064,3.632104003906253,-1.699729312118657,0.81891563839137,0.0061675696608538486
1790097390288104192,3.6421040039062533,-1.4343247057763486,0.5909344059405631,0.04111024518956304
1790097390298104064,3.652104003906253,-1.2975685975322149,0.37732183489713633,0.2537073357558087
1790097390308104192,3.662104003906253,-1.4308524410436918,0.26585759521734753,0.5341992153212651
1790097390318104064,3.672104003906253,-1.7395274484228551,0.29176463684014,0.6625204738740234
1790097390328104192,3.6821040039062534,-2.1640097700099283,0.4494254047647833,0.6326489108981419
1790097390338104064,3.692104003906253,-2.3464434412943698,0.6809619287174975,0.4479455371283244
1790097390348104192,3.702104003906253,-2.027356249601271,0.9177972134034492,0.2967900750389775
1790097390358104064,3.712104003906253,-1.5458905113281323,1.0976226395734576,0.28037027769736533
1790097390368104192,3.7221040039062534,-1.177316033835743,1.3095233953035028,0.40686770890222124
1790097390378104064,3.732104003906253,-0.9106185857945724,1.4630785836987168,0.45606589619329846
1790097390388104192,3.742104003906253,-0.8513400855745766,1.5104092515120497,0.46891549780609887
1790097390398104064,3.752104003906253,-1.086378055116354,1.5036234499502956,0.3577605891690201
1790097390408104192,3.7621040039062534,-1.3063469435598072,1.440556398411526,0.3089475317037727
1790097390418104064,3.7721040039062532,-1.1890476329972735,1.4298619992145907,0.1869438229775764
1790097390428104192,3.782104003906253,-0.8981559783704127,1.5411916201379077,0.08386318689738177
1790097390438104064,3.7921040039062532,-0.4243660717761611,1.6885432720579445,0.1350520572961403
1790097390448104192,3.8021040039062535,-0.03586843104347956,1.5548399708243712,0.28330418919234174
1790097390458104064,3.8121040039062533,0.4609649628409923,1.16862205709592,0.2611333045629873
1790097390468104192,3.822104003906253,0.40815003199112093,0.548269564129906,0.10840968602848552
1790097390478104064,3.8321040039062533,-0.21295235411061866,-0.19943207743724797,0.016882719290851313
1790097390488104192,3.8421040039062535,-0.603159154031601,-0.882382733483253,-0.024414249716840433
1790097390498104064,3.8521040039062533,-0.5813484675104902,-1.206315078311491,-0.08385684218214838
1790097390508104192,3.862104003906253,-0.4279661969158245,-1.204564935969184,-0.1280784226101369
1790097390518104064,3.8721040039062533,-0.1818186323144579,-0.9885696428869901,-0.14759347427263342
1790097390528104192,3.8821040039062535,0.30344383722098034,-0.7508942113404715,-0.0967107706544307
1790097390538104064,3.8921040039062533,1.0520847188784561,-0.6673438151481641,-0.026997979297529437
1790097390548104192,3.902104003906253,1.6581844946906856,-0.722322099064297,0.08432841866083433
1790097390558104064,3.9121040039062533,1.5145212187689685,-0.8811136002047344,0.07429995227755251
1790097390568104192,3.9221040039062536,1.0084774228711013,-0.9902711136713112,0.012976118452313737
1790097390578104064,3.9321040039062534,0.5624478548185698,-1.1508820539089097,-0.12147142452128555
1790097390588104192,3.942104003906253,0.2332570375878087,-1.2339346263518587,-0.09349349259775729
1790097390598104064,3.9521040039062534,0.16696963127312572,-1.1756673060534797,0.030202540255558206
1790097390608104192,3.9621040039062536,0.47444320112923105,-1.1545301895365,0.05134580121571449
1790097390618104064,3.9721040039062534,0.8496161370609264,-1.19602012371182,0.013135036475006804
1790097390628104192,3.982104003906253,0.9559128067911713,-1.4848030126502318,-0.047596784621539254
1790097390638104064,3.9921040039062534,0.7349357816575056,-1.914461794095569,0.016297468931517373
1790097390648104192,4.002104003906254,0.5550585148828255,-2.139328258319996,0.03721407091980852
1790097390658104064,4.012104003906254,0.47293035890527557,-1.9412198114391237,0.122371824230845
1790097390668104192,4.022104003906254,0.3871388008590274,-1.55464045452915,0.17680663099697527
1790097390678104064,4.0321040039062535,0.21652926746948645,-1.0765596995864017,0.5465154900625947
1790097390688104192,4.042104003906253,-0.051094450230354554,-0.851158781714138,0.6415794551798725
1790097390698104064,4.052104003906253,-10.242428117540056,-1.218008481754081,2.7437471705158942
1790097390708104192,4.062104003906253,1.1003272094017547,0.33413190302912055,-0.5606118528926416
1790097390718104064,4.0721040039062535,6.298147106758012,-0.9784584458226905,0.9655447354804473
1790097390728104192,4.082104003906254,4.425349721634591,-1.3937842628206567,0.05815172028701912
1790097390738104064,4.092104003906254,1.4173931514576108,-1.4333846470059317,0.2899616896087181
1790097390748104192,4.102104003906254,0.8464402042739434,-1.5798475945099268,-1.1559800005175607
1790097390758104064,4.1121040039062535,2.361445862013866,-0.2707992993657238,-2.1547357606841735
1790097390768104192,4.122104003906253,2.2725906456063316,0.9284067718310396,-0.5194016416997806
1790097390778104064,4.132104003906253,1.8387308707201675,0.8396159184308732,0.8053105574561435
1790097390788104192,4.142104003906253,1.8289989656032966,0.3946983572992463,1.446336594253439
1790097390798104064,4.152104003906253,1.3703182641819893,0.3845130756222591,0.9054133010717573
1790097390808104192,4.162104003906254,0.7171185710151273,0.19424518233104188,0.2559298731712444
1790097390818104064,4.172104003906254,0.7766620596559423,-0.9997727814559303,0.3175126810543055
1790097390828104192,4.182104003906254,0.9242914175469684,-1.9926172948789065,-0.012260634154143968
1790097390838104064,4.192104003906254,0.8396815128640218,-1.8939319253522346,-0.271685902120808
1790097390848104192,4.202104003906253,0.735553058167979,-1.3568400140437111,-0.17059636799742425
1790097390858104064,4.212104003906253,0.8306230735961994,-1.0666469420508495,-0.34322316805989406
1790097390868104192,4.222104003906253,0.7859912000163258,-1.7379044463705582,-0.2839374375483893
1790097390878104064,4.232104003906253,0.4783619440019075,-1.6803433558073424,-0.5109147352003407
1790097390888104192,4.242104003906254,0.4782483471248741,-0.3398947201022227,-1.0331629410622443
1790097390898104064,4.252104003906254,0.5303544655153204,-0.11609632348124763,-0.8871954900960088
1790097390908104192,4.262104003906254,0.48075338961715924,-0.8204426630921531,-0.7485278656517094
1790097390918104064,4.272104003906254,0.6128241531566643,-0.927879580765267,-0.7465193105127654
1790097390928104192,4.2821040039062535,0.8619641465412009,-0.9202065481542635,-0.7201620202957854
1790097390938104064,4.292104003906253,0.7543957793791336,-0.17727582312548756,-0.4256658375769681
1790097390948104192,4.302104003906253,0.7214498873175613,0.34763098890841493,-0.12204997185562705
1790097390958104064,4.312104003906253,1.1810431915211275,0.2350322459022115,0.2303958245426091
1790097390968104192,4.322104003906254,1.2394754792192462,-0.048480967550401946,0.3566825449646034
1790097390978104064,4.332104003906254,0.8697552806837807,-0.2580085022198901,0.4633898898808919
1790097390988104192,4.342104003906254,0.4559132958079469,-0.3461778889381149,0.5581672379194758
1790097390998104064,4.352104003906254,0.3854077308243138,-0.5349092937087555,0.5561653197756659
1790097391008104192,4.3621040039062535,0.5158132650736457,-0.19670642585257592,0.43946978068891523
1790097391018104064,4.372104003906253,0.7373303560829307,0.1686833994477893,0.6655564886009628
1790097391028104192,4.382104003906253,1.0355766977396563,0.3341748810116305,0.94357186598641
1790097391038104064,4.392104003906253,1.4909839839998953,0.5558872078870017,1.0489209188983635
1790097391048104192,4.4021040039062544,1.668042983814945,1.017489586552323,1.5107009855620048
1790097391058104064,4.412104003906254,2.2897768427029552,0.8237690905707242,0.8471929759388898
1790097391068104192,4.422104003906254,1.6203011026886687,0.08396838696594355,0.8799161231689988
1790097391078104064,4.432104003906254,0.9617547784834443,-0.5080100883292338,-0.022932761877544783
1790097391088104192,4.442104003906254,0.45132480288484456,-1.119448514931364,-0.5416646328105411
1790097391098104064,4.452104003906253,-0.06314306175416765,-1.6490727625027197,-0.7487507111277815
1790097391108104192,4.462104003906253,-0.14058451161760102,-1.9743658843425373,-0.7617912875882057
1790097391118104064,4.472104003906253,0.13041932539075174,-2.196349446527737,-1.2292499822513034
1790097391128104192,4.4821040039062545,0.43229379686802405,-2.6894006748769366,-1.7003933198557666
1790097391138104064,4.492104003906254,0.26326517182604664,-2.898556189985011,-2.4679954288399704
1790097391148104192,4.502104003906254,0.14205208814873974,-2.9422823176268325,-2.908060894294608
1790097391158104064,4.512104003906254,0.19879247638083622,-2.930405288249893,-2.4269316818193443
1790097391168104192,4.522104003906254,0.312854634968814,-2.6021951272210644,-1.8254209333647302
1790097391178104064,4.5321040039062535,0.33588258338930527,-2.3583486753662575,-1.3390513889134137
1790097391188104192,4.542104003906253,0.5865084301666026,-1.508197004785746,-1.084536743679094
1790097391198104064,4.552104003906253,0.7916931677516253,-0.9301593096900513,-0.8015253941042115
1790097391208104192,4.562104003906255,0.7347682090807636,-0.584179391639601,-0.37570246979667776
1790097391218104064,4.572104003906254,0.35525132436115814,-0.5413406680120176,-0.13924024720358538
1790097391228104192,4.582104003906254,-0.41397513809191144,-0.410843124933876,-0.180657210264995
1790097391238104064,4.592104003906254,-1.4082224989864882,-0.376114077449959,-0.3529424301492738
1790097391248104192,4.602104003906254,-2.091918961371064,-0.4025002838719611,-0.6115173769643275
1790097391258104064,4.6121040039062535,-2.1838442974224486,-0.5130413935980855,-0.8454566157037628
1790097391268104192,4.622104003906253,-2.0713457838388454,-0.7100380861307429,-0.7696292593791663
1790097391278104064,4.632104003906253,-2.0358390618861897,-0.8910930381031426,-0.5024399028824905
1790097391288104192,4.642104003906255,-1.8130315269326283,-0.7281741138856744,-0.2699560830651511
1790097391298104064,4.6521040039062544,-1.7603594347365001,-0.6313351871861947,-0.012567495424460173
1790097391308104192,4.662104003906254,-1.936192170056203,-0.5870566967067521,0.23546840230313626
1790097391318104064,4.672104003906254,-2.2486614300619845,-0.4313349091344628,0.5311614020521964
1790097391328104192,4.682104003906254,-2.469504526999203,-0.04043674770691025,0.8351570938939163
1790097391338104064,4.692104003906254,-2.468195856624196,0.5255083342920249,1.0814058346621191
1790097391348104192,4.702104003906253,-1.969164820386458,0.9476717808110671,1.2376531520335132
1790097391358104064,4.712104003906253,-1.4240396120010121,0.9484820784042978,1.2351664152054413
1790097391368104192,4.722104003906255,-1.5485283357916075,0.6378066098200871,1.279610773922965
1790097391378104064,4.7321040039062545,-2.271409878257572,0.12708120320998484,1.1312114117542413
1790097391388104192,4.742104003906254,-2.4623886104376544,0.10219091256779529,0.8273794228088253
1790097391398104064,4.752104003906254,-3.3189386614300087,-0.4943563627386541,0.9292128938369804
1790097391408104192,4.762104003906254,-3.0838197470420625,-0.32853358060799775,0.852061089485997
1790097391418104064,4.772104003906254,-2.721362259919968,0.055987272174473315,0.9353422094182154
1790097391428104192,4.7821040039062535,-2.108380253962055,0.6456482838032547,1.0519101775112578
1790097391438104064,4.792104003906253,-1.6695328060687558,1.1717456607805763,0.9360742790791954
1790097391448104192,4.802104003906255,-1.8068674230961541,1.3932132827208776,0.8103474028890911
1790097391458104064,4.812104003906255,-2.359929445738046,1.5432590864559188,0.7985590028382538
1790097391468104192,4.822104003906254,-2.8533379639586047,1.6535503863547505,0.8006083659179692
1790097391478104064,4.832104003906254,-2.8779807908977197,1.5792345601381514,0.7844516041673869
1790097391488104192,4.842104003906254,-2.5070017710454895,1.3950757037955461,0.7010638732827958
1790097391498104064,4.852104003906254,-1.7210698529564814,1.2226637821229274,0.7773461122635332
1790097391508104192,4.8621040039062535,-0.7631808926894252,1.078138827073184,0.8196957957925959
1790097391518104064,4.872104003906253,-0.22582673197630015,0.8367360020888501,0.8796438893157162
1790097391528104192,4.882104003906255,-0.35188972808587277,0.6343305526535863,0.5663847054020488
1790097391538104064,4.892104003906255,-1.3276288965855032,0.5101985473402578,0.12346582748317551
1790097391548104192,4.9021040039062544,-2.4748649191777523,0.4709779792836524,-0.1971587215838725
1790097391558104064,4.912104003906254,-2.864637569926126,0.4949035921986957,-0.4026838323870992
1790097391568104192,4.922104003906254,-2.1958231796877787,0.39484424472846374,-0.2968228482224438
1790097391578104064,4.932104003906254,-0.9863118015657191,0.24121621306994678,0.022500794732704457
1790097391588104192,4.942104003906254,-0.16899845826294013,0.1783964655435426,0.36545480265475994
1790097391598104064,4.952104003906253,-0.15421914265020684,0.2851533017665499,0.41886979809809244
1790097391608104192,4.962104003906255,-0.6852275713603129,0.5286959872834995,0.14981065170582072
1790097391618104064,4.972104003906255,-1.4345782844498423,0.6884083271990268,-0.14433381051213912
1790097391628104192,4.9821040039062545,-2.0340918566476565,0.7024301527398961,-0.2732377560544247
1790097391638104064,4.992104003906254,-2.172957868343563,0.6752393240261805,-0.2969431965393646
1790097391648104192,5.002104003906254,-1.6584560568056854,0.6702145732375904,-0.27211739833318427
1790097391658104064,5.012104003906254,-0.763140138806035,0.7726931984837719,-0.23196418904899607
1790097391668104192,5.022104003906254,0.18287742410321006,0.8611030510921034,-0.2893850029358238
1790097391678104064,5.0321040039062535,0.8680127095640042,0.5972451946237884,-0.4512130076398471
1790097391688104192,5.042104003906255,0.7933299371376715,0.384453919259758,-0.7356839496283776
1790097391698104064,5.052104003906255,0.36195554294522814,-0.04925563930568432,-0.8163257855946748
1790097391708104192,5.062104003906255,0.19426926553127466,-0.6866944949313208,-0.7456098247158275
1790097391718104064,5.072104003906254,0.4671256597731801,-1.3931566289594284,-0.6888967965565795
1790097391728104192,5.082104003906254,0.8987082472096402,-1.9827012480535993,-0.8150709718698181
1790097391738104064,5.092104003906254,0.9466418334283834,-2.361025410485182,-1.0091860347582644
1790097391748104192,5.102104003906254,0.5460989966686376,-2.581918657707765,-1.1429466581701793
1790097391758104064,5.1121040039062535,0.43085606169891255,-2.801343809862632,-1.1603648521626868
1790097391768104192,5.122104003906255,0.9358756448763965,-2.870752554910935,-1.0928067014837157
1790097391778104064,5.132104003906255,1.7526822929247217,-2.5633947420212677,-0.849784756405747
1790097391788104192,5.142104003906255,2.1672456731673444,-1.9226012195822726,-0.6604555390188657
1790097391798104064,5.1521040039062544,1.76331591928495,-1.28876063764629,-0.625762068253192
1790097391808104192,5.162104003906254,1.0961096929277605,-0.7006157940970653,-0.3369772351534029
1790097391818104064,5.172104003906254,0.44097426523019095,-0.5286677501947774,-0.2696894711209628
1790097391828104192,5.182104003906254,0.293059803712994,-0.45501114857426816,-0.23230325964467777
1790097391838104064,5.192104003906254,0.5859965292855358,-0.43316583163045574,-0.40507298610541426
1790097391848104192,5.202104003906255,0.7095311048222684,-0.44859563227818877,-0.6283518710870517
1790097391858104064,5.212104003906255,0.551987502792361,-0.39163662071624233,-0.4819686334680972
1790097391868104192,5.222104003906255,0.3787249113597224,-0.549079375752269,-0.5134293457739771
1790097391878104064,5.2321040039062545,0.3673024496974344,-0.8942770542179874,-0.37386828284846946
1790097391888104192,5.242104003906254,0.35332784494099484,-1.2757709040296372,-0.3592842213878774
1790097391898104064,5.252104003906254,0.23046909623580447,-1.5018726688615525,-0.24459979058460196
1790097391908104192,5.262104003906254,-0.07202946669139645,-1.3923459936083695,-0.15159303839239655
1790097391918104064,5.272104003906254,-0.27185156812176065,-0.9362940919328312,0.07529933481269882
1790097391928104192,5.282104003906255,-0.337476047843199,-0.27628371589704653,0.23966972107717416
1790097391938104064,5.292104003906255,-0.3538231580382254,0.3930196931319662,0.3240297024722171
1790097391948104192,5.302104003906255,-0.09551612590440156,0.8931040293244956,0.23749662240462716
1790097391958104064,5.312104003906255,0.5929710281933068,1.0163258108435298,0.14942166154790923
1790097391968104192,5.322104003906254,1.6298010627336827,0.6690921861513799,0.3515465504413952
1790097391978104064,5.332104003906254,2.5022908538481152,-0.028759518135414663,0.059422258925504734
1790097391988104192,5.342104003906254,2.620058806131556,-0.9688450196397193,-0.17485284520273373
1790097391998104064,5.352104003906254,3.1366209372866036,-2.037641794062755,-0.7027740381549787
1790097392008104192,5.362104003906255,3.0837023180390815,-2.4668740090800854,-1.0972395467952702
1790097392018104064,5.372104003906255,2.4255823288100737,-1.8703971676215199,-1.2670299754317227
1790097392028104192,5.382104003906255,2.039863787916846,-1.478215701060664,-1.837099242435068
1790097392038104064,5.392104003906255,1.590577407799826,-1.349584770113369,-1.5094818459224342
1790097392048104192,5.4021040039062544,0.8861380072663833,-0.7474571774542982,-0.7752403518224149
1790097392058104064,5.412104003906254,0.09398514509916046,-0.5945288395754549,-0.5585730451563964
1790097392068104192,5.422104003906254,-0.29225899966106383,-0.7939776286398535,-0.7390436654795567
1790097392078104064,5.432104003906254,-0.4094016895428332,-0.960972601245257,-0.9058129596539882
1790097392088104192,5.442104003906255,-0.4097172028103457,-0.9086142700018284,-0.9318292000850765
1790097392098104064,5.452104003906255,-0.3292865416951676,-0.6434604960663737,-0.9480598525746148
1790097392108104192,5.462104003906255,-0.15087528355727325,-0.2956428501396562,-0.9651483140504317
1790097392118104064,5.472104003906255,0.24249954884768382,-0.08757607464116425,-0.9801619301298921
1790097392128104192,5.4821040039062545,0.6863388330403871,-0.11720960215087012,-0.9488510601743365
1790097392138104064,5.492104003906254,0.9053041411413878,-0.31632358787063375,-0.8797290814131639
1790097392148104192,5.502104003906254,0.8950518909794251,-0.47811070768760333,-0.8196821469610883
1790097392158104064,5.512104003906254,0.686504133333726,-0.487116279977058,-0.8352084544996995
1790097392168104192,5.522104003906255,0.323716935569478,-0.21853476921019827,-0.7868864107473797
1790097392178104064,5.532104003906255,-0.2058799171272669,-0.34707082373108344,-0.6710274739607351
1790097392188104192,5.542104003906255,-0.39249256912627833,-0.1857775463432044,-0.5889464997875965
1790097392198104064,5.552104003906255,-0.4265940210668989,-0.006316626000553088,-0.5915362297788715
1790097392208104192,5.562104003906255,-0.30882854613340155,0.026012950853428855,-0.5150480236787371
1790097392218104064,5.572104003906254,0.12077729900832375,-0.24070925057059922,-0.5088515944132885
1790097392228104192,5.582104003906254,0.7413138534927849,-0.5427897285342372,-0.5572878873012855
1790097392238104064,5.592104003906254,1.3413636176601889,-0.911672298145411,-0.8398838850954665
1790097392248104192,5.6021040039062555,1.5923572853925203,-1.444249590695263,-1.263930967516133
1790097392258104064,5.612104003906255,1.350005326924129,-1.993098743925072,-1.6708722194299357
1790097392268104192,5.622104003906255,0.9511589447602035,-2.4097423112849317,-1.9010867271996326
1790097392278104064,5.632104003906255,0.6745266187925786,-2.6529647003594445,-1.9175497454268706
1790097392288104192,5.642104003906255,0.42503860391801884,-2.641796835394445,-1.6440781160358062
1790097392298104064,5.6521040039062544,0.2552900839565365,-2.382161027439673,-1.2558887867807134
1790097392308104192,5.662104003906254,0.23302263418442998,-2.163392163303695,-0.8911348534095693
1790097392318104064,5.672104003906254,0.188637588792655,-2.084053861212923,-0.679139080961336
1790097392328104192,5.682104003906256,0.17537347829993566,-1.9115256870378325,-0.4673002252885633
1790097392338104064,5.692104003906255,0.1737853419279824,-1.6314808298691195,-0.40174367232527936
1790097392348104192,5.702104003906255,0.3308064748046106,-1.3890158753101203,-0.34709537152482894
1790097392358104064,5.712104003906255,0.5224731469868996,-1.0463678859922816,-0.3758016724171172
1790097392368104192,5.722104003906255,0.4151817812547249,-1.2036359302368889,-0.26498541793299946
1790097392378104064,5.7321040039062545,0.25592985020510817,-1.2867461308337544,-0.06957627274747957
1790097392388104192,5.742104003906254,-0.3797501084302353,-1.2732838724730018,0.17637000715901008
1790097392398104064,5.752104003906254,-1.3079030014992972,-1.2902004113777605,0.41029380356233613
1790097392408104192,5.762104003906256,-2.109763272753617,-1.0349631749756691,0.2952258534383584
1790097392418104064,5.772104003906255,-2.491552521489925,-0.8572631776293497,0.07956829392934278
1790097392428104192,5.782104003906255,-2.243466024475362,-0.7957024609484091,-0.035037098426720634
1790097392438104064,5.792104003906255,-1.5423031949412995,-0.5682428444621123,0.11833505415206494
1790097392448104192,5.802104003906255,-0.9577935904388446,-0.4683733144529906,0.5982542264138099
1790097392458104064,5.812104003906255,-0.46806816224276737,-0.32862643415431675,0.6736365782670981
1790097392468104192,5.822104003906254,-0.5493493515313443,-0.1882230777062378,0.5314951589637388
1790097392478104064,5.832104003906254,-1.5424840524344452,-0.23903430981074697,0.567641511684976
1790097392488104192,5.842104003906256,-2.8116369098223553,-0.1487847622561418,0.8419267225545807
1790097392498104064,5.8521040039062555,-3.743201865321308,0.23809208077328048,0.9560075320011309
1790097392508104192,5.862104003906255,-3.430808222331006,0.9971691695035376,1.3135236361404115
1790097392518104064,5.872104003906255,-2.676966730344425,1.3757426203631171,1.5872897569418234
1790097392528104192,5.882104003906255,-1.4809480600560585,0.5759145339656745,1.0859165565729612
1790097392538104064,5.892104003906255,-1.4000215080155882,0.42747127597759255,0.7997456433516454
1790097392548104192,5.9021040039062544,-2.1046999786368636,0.31126599757367296,0.7573858132529074
1790097392558104064,5.912104003906254,-3.11299869078217,0.45181568486184415,0.7253516429528354
1790097392568104192,5.922104003906256,-4.079486936960101,0.6581246257496283,0.7835436940185684
1790097392578104064,5.932104003906256,-3.8667432473767547,1.2169112144534726,0.7061826605994246
1790097392588104192,5.942104003906255,-2.91774776595491,1.4243188142998822,0.9367210530962359
1790097392598104064,5.952104003906255,-1.8924785206183874,1.3672362144223207,1.1204757597972659
1790097392608104192,5.962104003906255,-1.3384033229509027,1.261925530948711,1.0245319937653192
1790097392618104064,5.972104003906255,-1.7631535656084678,1.0793195453384237,0.7962116977609297
1790097392628104192,5.9821040039062545,-3.0027363153893063,0.9312540924715674,0.6264231157058908
1790097392638104064,5.992104003906254,-3.779253774180909,0.9051765633502741,0.46661301295889485
1790097392648104192,6.002104003906256,-3.419319574677691,0.8573419755619092,0.5057535467216527
1790097392658104064,6.012104003906256,-2.2111699031940013,0.6915214751570025,0.9055223427508884
1790097392668104192,6.022104003906255,-1.028006754893487,0.561483350279744,1.54528790814454
1790097392678104064,6.032104003906255,-0.7129342489485585,0.6415852771070302,1.6300339944479172
1790097392688104192,6.042104003906255,-1.2867280662987324,0.8978634014624386,1.5383891914060048
1790097392698104064,6.052104003906255,-1.8959446835453138,1.2032892943706335,0.9580832494493501
1790097392708104192,6.062104003906255,-2.7080756880044685,1.0082622234306577,0.4088064954447483
1790097392718104064,6.072104003906254,-3.289039652209597,0.6342289483605128,0.15279043190813466
1790097392728104192,6.082104003906256,-3.0520892208464883,0.2709407212124382,0.2114317611880383
1790097392738104064,6.092104003906256,-1.9660660809466899,0.17354763059680248,0.3581271489943559
1790097392748104192,6.1021040039062555,-0.36003921970784836,0.3725895123170829,0.40654235035388175
1790097392758104064,6.112104003906255,0.659700676940671,0.6834587280953761,0.33878041734232794
1790097392768104192,6.122104003906255,0.22651286110800828,0.8945027368697663,0.1649327630415529
1790097392778104064,6.132104003906255,-0.6344868662101155,0.8798087968040588,-0.1087913358035686
1790097392788104192,6.142104003906255,-0.5620218059870654,0.41425224243939124,-0.46602811239730046
1790097392798104064,6.1521040039062544,-0.20594263095296356,-0.15039333831398688,-0.7178425324123756
1790097392808104192,6.162104003906256,0.07339014072086453,-0.5705487842689019,-0.9092978367432167
1790097392818104064,6.172104003906256,0.39923191628900967,-0.7075794869172817,-1.048403493815188
1790097392828104192,6.182104003906256,1.0013810665671192,-0.6027005270078749,-1.316321181136928
1790097392838104064,6.192104003906255,1.046435238842261,-0.756085587743735,-1.3984713383857363
1790097392848104192,6.202104003906255,0.8495944615573832,-1.0952855018196719,-1.223193410202294
1790097392858104064,6.212104003906255,0.5970918053685819,-1.7140582219815976,-1.0464208486199127
1790097392868104192,6.222104003906255,0.01799466607891627,-1.9010935310835801,-0.7995941498685203
1790097392878104064,6.2321040039062545,-0.3453206105993892,-1.915839724462397,-0.6248963815547959
1790097392888104192,6.242104003906256,-0.06645842292432663,-1.6385512785801737,-0.28464601484118063
1790097392898104064,6.252104003906256,0.3589892735603884,-1.2477057445257242,-0.056941402924079995
1790097392908104192,6.262104003906256,0.6109311916951641,-0.8156451931165583,-0.04427611781222784
1790097392918104064,6.272104003906255,1.0681624808813743,-0.6597150735216256,-0.13894192967779984
1790097392928104192,6.282104003906255,1.5156322112542564,-0.7790409804948012,-0.2928846679121495
1790097392938104064,6.292104003906255,1.1488551021443014,-0.9118779271642962,-0.3938181301851261
1790097392948104192,6.302104003906255,0.44935329146542013,-1.2427737132287668,-0.5871434626287322
1790097392958104064,6.312104003906255,0.11805604051612978,-1.5530049547904676,-0.5247455587251206
1790097392968104192,6.322104003906256,0.1694391551126497,-1.4277144323066613,-0.3414396100151673
1790097392978104064,6.332104003906256,0.7050568612722415,-1.175842527978291,-0.4470703352629797
1790097392988104192,6.342104003906256,1.2438613917099106,-0.6573414679522029,-0.6579336269003604
1790097392998104064,6.3521040039062555,1.4828269563864946,-0.23384179738644845,-0.9172297577394647
1790097393008104192,6.362104003906255,1.269296897506227,-0.2379543988549606,-0.8085347994377147
1790097393018104064,6.372104003906255,1.0537103962206733,-0.6382474620625199,-0.9960556048988405
1790097393028104192,6.382104003906255,0.9586732507297878,-1.005864704167679,-1.2000102270694097
1790097393038104064,6.392104003906255,0.8476561181759061,-1.2217311426675974,-1.1582977177055354
1790097393048104192,6.402104003906256,0.9171707547212572,-1.257260532795141,-0.9924712654060243
1790097393058104064,6.412104003906256,1.0537181187526374,-1.2197220975590175,-0.5556343610119245
1790097393068104192,6.422104003906256,1.1337620753919715,-1.2437899740879717,-0.01848980241747092
1790097393078104064,6.432104003906256,1.2036554164163529,-1.212183638763225,0.09855963496783972
1790097393088104192,6.442104003906255,1.3239801799033333,-1.0019101316609578,0.08392376940732502
1790097393098104064,6.452104003906255,1.3388594259971998,-0.8330952245219102,0.0372922374797483
1790097393108104192,6.462104003906255,1.20940102280606,-0.738761294358655,0.07327767370062718
1790097393118104064,6.472104003906255,1.0239043099528018,-0.6309875303287353,0.30799647532179975
1790097393128104192,6.482104003906256,1.0483616433100917,-0.5658188906277191,0.4527158220546799
1790097393138104064,6.492104003906256,1.2055023511745875,-0.337797470258625,0.426954305575844
1790097393148104192,6.502104003906256,1.2768122744159716,-0.22497706564827386,0.4828074106827028
1790097393158104064,6.512104003906256,1.1742444896035202,-0.19502551169858737,0.26847378439632275
1790097393168104192,6.522104003906255,1.1575633083771693,-0.3571398097815545,0.059201173342767525
1790097393178104064,6.532104003906255,1.3366309595284704,-0.5984127375878421,-0.08778950748200517
1790097393188104192,6.542104003906255,1.5745084423526905,-0.8641872627360883,-0.19595104631500065
1790097393198104064,6.552104003906255,1.6460987610985038,-1.1180870213073857,-0.09074686977626753
1790097393208104192,6.562104003906256,1.5319438031296342,-1.3747660423967456,-0.04131586711885428
1790097393218104064,6.572104003906256,1.2338355023651253,-1.3791776597367347,-0.10433325444381306
1790097393228104192,6.582104003906256,0.7295778444447293,-1.0244678620682868,-0.1403340672893639
1790097393238104064,6.592104003906256,0.17585212883783055,-0.3790781089448911,-0.2340813242681518
1790097393248104192,6.6021040039062555,-0.28998727079327863,0.23033827364022638,-0.3531510259804077
1790097393258104064,6.612104003906255,-0.4872664585717626,0.703921568479159,-0.45229453996559177
1790097393268104192,6.622104003906255,-0.41904655661633167,0.8959435737124152,-0.6223010390645194
1790097393278104064,6.632104003906255,-0.2529733513161785,0.5667831222907532,-0.929015548406902
1790097393288104192,6.642104003906256,0.17588456353217866,-0.07363811313516566,-1.1602244709653673
1790097393298104064,6.652104003906256,0.8765033322987055,-0.705137430982673,-0.9710763481685383
1790097393308104192,6.662104003906256,1.4695965690794959,-1.0580922214028663,-0.6175000141113383
1790097393318104064,6.672104003906256,1.9125052567729466,-1.6732743370538081,-0.6548487678141404
1790097393328104192,6.682104003906256,1.8592822488975314,-1.8380493009828047,-0.9128378734992417
1790097393338104064,6.692104003906255,1.5998540878219778,-1.78846881319381,-0.9428888988059797
1790097393348104192,6.702104003906255,1.2166003591962848,-1.521074684873416,-0.8693224963665396
1790097393358104064,6.712104003906255,1.0082101481460515,-1.3127426642232825,-0.6739416636492034
1790097393368104192,6.7221040039062565,1.0408026189769066,-1.1000520186489122,-0.6480664408701465
1790097393378104064,6.732104003906256,1.062585229985405,-1.1087942834148687,-0.7401046992560405
1790097393388104192,6.742104003906256,1.1226406862781961,-1.2500818724287734,-1.0387287119512716
1790097393398104064,6.752104003906256,1.0083966333130425,-1.3989594352217167,-1.317368694405881
1790097393408104192,6.762104003906256,0.8715309649596966,-1.4962160795319315,-1.5845325188606334
1790097393418104064,6.772104003906255,0.805939447236839,-1.5837981922566002,-1.690778710515824
1790097393428104192,6.782104003906255,1.0485229893887542,-1.6029426845013048,-1.5245604590671014
1790097393438104064,6.792104003906255,1.542734793265167,-1.5310633841381562,-1.1369269372957076
1790097393448104192,6.802104003906257,1.7372458282568597,-1.4395806498314843,-0.7087101644143183
1790097393458104064,6.812104003906256,1.1229470951997553,-1.322485721368772,-0.45892890174353906
1790097393468104192,6.822104003906256,-0.26769810035753017,-1.2322479507741864,-0.3401131966173794
1790097393478104064,6.832104003906256,-1.8980337208568046,-1.2804647651117824,-0.19722519063184699
1790097393488104192,6.842104003906256,-3.1794837314814215,-1.290837033203458,-0.17829154681729115
1790097393498104064,6.8521040039062555,-4.0068982430857885,-1.4094996585177484,-0.11574649429098528
1790097393508104192,6.862104003906255,-4.278339988301592,-1.3672671538175836,0.19551221075911365
1790097393518104064,6.872104003906255,-3.8995090691813123,-0.81946272042838,0.6542263224260788
1790097393528104192,6.882104003906257,-3.0209650663540035,-0.09625357196699469,1.1340367931331796
1790097393538104064,6.892104003906256,-1.7359725517435178,0.7094691709775742,1.4831443021291626
1790097393548104192,6.902104003906256,-0.425584751239478,1.3413671574585628,1.6998715752374867
1790097393558104064,6.912104003906256,-0.022856238617123936,1.520248500259999,1.595014636509899
1790097393568104192,6.922104003906256,-0.2128326878337973,0.5055052046551989,1.3921919571523915
1790097393578104064,6.932104003906256,-0.3963720014719374,-0.48971335570829616,0.8248779496823649
1790097393588104192,6.942104003906255,-1.0622694829554147,-0.5816597304138,0.3298814728423526
1790097393598104064,6.952104003906255,-1.869160345502014,-0.4150031405964102,0.30116453384295516
1790097393608104192,6.962104003906257,-2.480583673684754,-0.19754149402713891,0.5843260811066954
1790097393618104064,6.9721040039062565,-2.715713813960089,-0.16528180595288108,0.9379677902594314
1790097393628104192,6.982104003906256,-2.9649556906728227,-0.0006407966079206018,1.062378312674089
1790097393638104064,6.992104003906256,-3.062580899599633,0.11459378934009876,0.9131038459912515
1790097393648104192,7.002104003906256,-2.624288647034083,0.26879952911853805,0.8760159170465038
1790097393658104064,7.012104003906256,-2.1121299170651393,0.37534328365269437,0.9921286611259722
1790097393668104192,7.022104003906255,-1.9807219002063126,0.5831182628316397,1.1984649334019408
1790097393678104064,7.032104003906255,-2.15440331136864,1.1671747597042608,1.145869309421201
1790097393688104192,7.042104003906257,-3.057232576599531,0.8326228359906943,1.5020016272431485
1790097393698104064,7.052104003906257,-2.9925572913479135,1.0178760736374035,1.3964421771781605
1790097393708104192,7.062104003906256,-2.8200090430830373,1.0313672907589766,1.3833060884550614
1790097393718104064,7.072104003906256,-2.6704635105147223,1.0623682492589326,1.2695643148424065
1790097393728104192,7.082104003906256,-2.544560792813411,1.1294867585855393,1.1848380676783812
1790097393738104064,7.092104003906256,-2.540632798445564,1.1818917348782627,1.2695674242970747
1790097393748104192,7.1021040039062555,-2.635291278529105,1.2062785124460194,1.3054709358081027
1790097393758104064,7.112104003906255,-2.7881057018648145,1.2026378911903197,1.2459941616861578
1790097393768104192,7.122104003906257,-2.773728548675917,1.181915013391075,1.088922781548613
1790097393778104064,7.132104003906257,-2.283618492891062,1.1447638935107771,0.9847414914960231
1790097393788104192,7.142104003906256,-1.5721227508857338,1.1070946458985236,1.0346770273096555
1790097393798104064,7.152104003906256,-1.019292547761581,1.0178385496175963,1.1826805914881888
1790097393808104192,7.162104003906256,-0.9770695076604567,0.915683186174911,1.177539406442082
1790097393818104064,7.172104003906256,-1.4253656740460574,0.8638416925952556,0.9374299642658486
1790097393828104192,7.182104003906256,-2.3964276065868266,0.894561081898446,0.7084467976900694
1790097393838104064,7.192104003906255,-1.9982959801761708,0.76292845938837,0.521437047445123
1790097393848104192,7.202104003906257,-1.6100249404474174,0.5135242418033888,0.3844311630386461
1790097393858104064,7.212104003906257,-0.9847891592823537,0.26589611176674255,0.38132562979232537
1790097393868104192,7.2221040039062565,-0.25037355869832395,0.12385047290861328,0.3393753989200218
1790097393878104064,7.232104003906256,0.46141916455119114,0.12104778791671755,0.19200834110164677
1790097393888104192,7.242104003906256,0.8579510530992647,-0.017839153569639173,0.021519814637336238
1790097393898104064,7.252104003906256,0.501976754076157,-0.14439490842445182,-0.189126736258875
1790097393908104192,7.262104003906256,0.07843426662722126,-0.5086156042354598,-0.3837768817088973
1790097393918104064,7.272104003906255,0.07513472598058221,-0.83086893556226,-0.5094683392414153
1790097393928104192,7.282104003906257,0.15013817885595476,-0.9179167987065134,-0.5277663687574405
1790097393938104064,7.292104003906257,0.18129572392277118,-0.9276033982076335,-0.5524913815228013
1790097393948104192,7.302104003906257,0.7001801129531791,-0.9342652221351477,-0.6047010704065858
1790097393958104064,7.312104003906256,1.334538479343804,-1.3231211053242364,-0.6551194716433999
1790097393968104192,7.322104003906256,1.6752252584666443,-1.7644268444220703,-0.8004197556518561
1790097393978104064,7.332104003906256,1.683569311326697,-2.2553611369289626,-0.8899162387989229
1790097393988104192,7.342104003906256,1.3876121627124764,-2.317634913018606,-0.7305188944057153
1790097393998104064,7.3521040039062555,0.9039074165399664,-2.3219472803750567,-0.5599724265749964
1790097394008104192,7.362104003906257,0.4902257747369294,-1.947922935264227,-0.14219413306597956
1790097394018104064,7.372104003906257,0.26086323894262653,-1.6168597106521334,0.15050629986057304
1790097394028104192,7.382104003906257,0.5045336638793028,-1.4473537470339997,0.1415578557910918
1790097394038104064,7.392104003906256,1.2015959524160305,-1.2197879930892113,0.1422172814761001
1790097394048104192,7.402104003906256,1.6009998389221543,-0.9081897969788146,0.19869778603671173
1790097394058104064,7.412104003906256,1.2614114149249795,-0.7059859336641726,0.18839879252365765
1790097394068104192,7.422104003906256,0.7772653123933658,-0.6448254495464517,0.05489822208251714
1790097394078104064,7.432104003906256,0.673846155988717,-0.6777197192610196,-0.04949186709418273
1790097394088104192,7.442104003906257,0.7527261833124503,-0.7133387755912902,-0.06741309839159146
1790097394098104064,7.452104003906257,1.0016163420908715,-0.6480404347102613,-0.14509936759161823
1790097394108104192,7.462104003906257,1.2404732041090591,-0.5764286212808601,-0.2597621642280684
1790097394118104064,7.4721040039062565,1.3549014592552342,-0.6312020002670569,-0.30236738925617174
1790097394128104192,7.482104003906256,1.3605756603752988,-0.8719763326915899,-0.37983231816011587
1790097394138104064,7.492104003906256,1.1746974334161135,-1.1538095860986506,-0.518138522101878
1790097394148104192,7.502104003906256,0.9254348554674877,-1.4865508490862482,-0.6149324541019237
1790097394158104064,7.512104003906256,0.7231519881732958,-1.6201179286948963,-0.4107357390604513
1790097394168104192,7.522104003906257,0.6416090350776912,-1.4636252429049186,-0.17659357908861478
1790097394178104064,7.532104003906257,0.8146164203635314,-1.0989225895028452,0.4204152969523298
1790097394188104192,7.542104003906257,1.0535580563897116,-0.7039976234253225,1.0490261275878807
1790097394198104064,7.552104003906257,1.1439763599735928,-0.5968568919004569,1.2041635852313577
1790097394208104192,7.562104003906256,1.3402214478673726,-0.5380546450228131,0.8572690042221206
1790097394218104064,7.572104003906256,1.6005024727901136,-0.43927082874497947,0.45957818623707053
1790097394228104192,7.582104003906256,1.8137877160633795,-0.44087551803917596,0.1575359416838955
1790097394238104064,7.592104003906256,1.9474528523024504,-0.49086911035607256,-0.02753858566044453
1790097394248104192,7.602104003906257,1.9085347434724564,-0.42455100887180025,-0.010828510645074299
1790097394258104064,7.612104003906257,1.711940088626177,-0.3050746984177653,0.09094772709681179
1790097394268104192,7.622104003906257,1.4712221547237645,-0.22467748040783952,0.2050509826364984
1790097394278104064,7.632104003906257,1.1946190699724246,-0.16624155795079867,0.271836145187979
1790097394288104192,7.642104003906256,0.8701103719053659,-0.3292224697963813,0.3520436670580386
1790097394298104064,7.652104003906256,0.46948274255368994,-0.5536187018916742,0.3438079366905415
1790097394308104192,7.662104003906256,0.24644706797805244,-0.7794877305982671,0.2698643894542417
1790097394318104064,7.672104003906256,0.268042382182965,-0.9511464255970019,0.1511909961514069
1790097394328104192,7.682104003906257,0.5673074828772687,-1.0373229958482377,-0.05319414909123066
1790097394338104064,7.692104003906257,0.9610895461546276,-1.2518681012527253,-0.2719393153977164
1790097394348104192,7.702104003906257,1.4291355068014884,-1.5743691527576673,-0.3550654544125495
1790097394358104064,7.712104003906257,1.862302363371349,-1.657137164939031,-0.4565354912336691
1790097394368104192,7.7221040039062565,1.936653925668851,-1.56782960269169,-0.5860996229972157
1790097394378104064,7.732104003906256,1.761325403899105,-1.515203693624847,-0.6879613458179105
1790097394388104192,7.742104003906256,1.3052337496671838,-1.2392991617162605,-0.6287708178030991
1790097394398104064,7.752104003906256,0.9764687110360246,-0.8560623164817213,-0.5733513657615587
1790097394408104192,7.762104003906257,1.0527470915182648,-0.5623910392320235,-0.5424088059232653
1790097394418104064,7.772104003906257,1.2237922898433762,-0.460366236620938,-0.6342563437196468
1790097394428104192,7.782104003906257,1.2656908533447937,-0.7557473596237707,-0.6911979255610016
1790097394438104064,7.792104003906257,1.2006424508456373,-1.2674322459333354,-0.7353598132873533
1790097394448104192,7.802104003906257,1.0555095132177776,-1.5103536591086941,-1.0280879593646342
1790097394458104064,7.812104003906256,0.7792434311929017,-1.5779194610741678,-1.2544637970260746
1790097394468104192,7.822104003906256,0.4418417190764613,-1.3368175132274627,-1.363520281053791
1790097394478104064,7.832104003906256,0.288714006993453,-0.985265459089468,-1.426157736418716
1790097394488104192,7.8421040039062575,0.6186123577375775,-0.7518607886828924,-1.3002667670897359
1790097394498104064,7.852104003906257,1.2208101811924499,-0.7294472065657345,-1.1979480890544396
1790097394508104192,7.862104003906257,1.5644683748457213,-1.0790683484488643,-1.1007625710920892
1790097394518104064,7.872104003906257,1.365832352215902,-1.4562814660982049,-1.1446992251809853
1790097394528104192,7.882104003906257,0.6161556398538482,-1.8630140130538344,-1.1198108787240866
1790097394538104064,7.892104003906256,-0.09628618598262294,-1.825193286970265,-1.0666605614565847
1790097394548104192,7.902104003906256,-0.5212017302131708,-1.5842220444522188,-0.7886361296350721
1790097394558104064,7.912104003906256,-0.6123758471575943,-1.3158614839521159,-0.34372841139622456
1790097394568104192,7.922104003906258,-0.43075580328613394,-0.9487982105749131,0.09107391297515179
1790097394578104064,7.932104003906257,-0.3258487620777818,-0.5440507937102421,0.48770419144116156
1790097394588104192,7.942104003906257,-0.5494640196635885,-0.11899421214653805,0.816201620516668
1790097394598104064,7.952104003906257,-1.5914410231756375,0.0231005174120716,0.6394222488370507
1790097394608104192,7.962104003906257,-2.8912501905706867,-0.3855598316855046,-0.051589262040414585
1790097394618104064,7.9721040039062565,-3.6504259109501183,-1.0441884807409068,-0.8761665078168851
1790097394628104192,7.982104003906256,-4.041571577622906,-1.4599638785869211,-1.1165556850214995
1790097394638104064,7.992104003906256,-3.7413391743322197,-1.4360070256801418,-0.5753520056761751
1790097394648104192,8.002104003906258,-3.1309771646600146,-0.4628043898397458,0.08683980217561578
1790097394658104064,8.012104003906257,-2.798355128985392,0.18273900508720373,1.0261999866142426
1790097394668104192,8.022104003906257,-1.925697967820116,1.1494972803151584,1.3240612485917147
1790097394678104064,8.032104003906257,-1.5773618747725124,1.4896998209794925,1.3331303189250154
1790097394688104192,8.042104003906257,-1.5752967484449523,0.7718051140259933,1.1527943010988526
1790097394698104064,8.052104003906257,-2.0485789228089573,0.4296248568613874,0.898218556293296
1790097394708104192,8.062104003906256,-2.5933898316555375,0.2309174332986732,0.907059194957968
1790097394718104064,8.072104003906256,-2.5925634963380704,0.32910395272146137,0.8719650032211679
1790097394728104192,8.082104003906258,-2.59886955131581,0.25915221151394385,0.8246444307220475
1790097394738104064,8.092104003906258,-2.6236473187648333,0.1064685431577319,0.7561893291071162
1790097394748104192,8.102104003906257,-2.6734044734602724,0.21409962517750022,0.8173575241653
1790097394758104064,8.112104003906257,-2.504628133764969,0.6707543554981159,0.7024093416443943
1790097394768104192,8.122104003906257,-2.67761036398864,1.0237527177590369,0.47048472451501155
1790097394778104064,8.132104003906257,-3.3967111912009202,0.9941441827496355,0.3413031950656415
1790097394788104192,8.142104003906256,-3.919127319253594,1.0048598254298118,0.4120547261735347
1790097394798104064,8.152104003906256,-3.6688320378892247,1.0421096366560618,0.6746620238300024
1790097394808104192,8.162104003906256,-2.834317609256142,1.0547101994708412,0.9691488272391596
1790097394818104064,8.172104003906256,-1.9011131035913387,1.1151671669809287,1.2876498545279182
1790097394828104192,8.182104003906257,-1.2562125377636566,1.1662815939223603,1.4029146510199055
1790097394838104064,8.192104003906257,-1.3694016605855488,1.0966550376950068,1.231675751650323
1790097394848104192,8.202104003906257,-2.2671874918307737,0.9088752901194269,0.9937282406324415
1790097394858104064,8.212104003906257,-2.8917498656004934,0.6259761336641119,0.8121206956432667
1790097394868104192,8.222104003906257,-2.9099627769946768,0.354743563774083,0.7907771252506332
1790097394878104064,8.232104003906256,-2.6168460691169932,0.20048605600071573,0.8397531509276426
1790097394888104192,8.242104003906256,-2.190483716300852,0.18189544850577466,0.9215578459750087
1790097394898104064,8.252104003906258,-1.8825688209939124,0.32714117856141217,1.0093853334854757
1790097394908104192,8.262104003906257,-2.102180041201966,0.6029915667149558,0.9769985996878909
1790097394918104064,8.272104003906257,-1.6791872927683387,0.8852234850063666,0.7591219543436146
1790097394928104192,8.282104003906257,-1.173971941942518,0.9569087970291671,0.49191740003653195
1790097394938104064,8.292104003906257,-0.9316059934768206,0.9187053320392293,0.17530114643354666
1790097394948104192,8.302104003906257,-0.8452433040468139,0.8146192134205568,-0.11570039329853832
1790097394958104064,8.312104003906256,-0.4438490743223845,0.6103363867462754,-0.4086821381888267
1790097394968104192,8.322104003906256,-0.13521483092541975,0.19385364475407277,-0.6638874470489838
1790097394978104064,8.332104003906256,-0.32929558319686564,-0.1610237922019029,-0.9599221343884934
1790097394988104192,8.342104003906258,-0.5060975151006101,-0.435939885465765,-1.1716486291870012
1790097394998104064,8.352104003906257,-0.1492193020106352,-0.7443186001246045,-1.2700335434909102
1790097395008104192,8.362104003906257,0.3461455885038391,-1.1277546005639871,-1.2777306942627922
1790097395018104064,8.372104003906257,0.6934099957305381,-1.5591936593625968,-1.2374547479053244
1790097395028104192,8.382104003906257,0.9123196680305568,-1.9368717446619443,-1.1963195512601907
1790097395038104064,8.392104003906256,0.9300766429471224,-2.308799243728857,-1.3237401899259933
1790097395048104192,8.402104003906256,0.7622258464735592,-2.446298172840584,-1.445348278820228
1790097395058104064,8.412104003906258,0.6543229159687083,-2.4210304150021322,-1.4454223782991795
1790097395068104192,8.422104003906258,0.6450558489654467,-2.1987583166919724,-1.2679105397779111
1790097395078104064,8.432104003906257,0.4601596774909355,-1.8549709829352776,-1.201916861681761
1790097395088104192,8.442104003906257,0.417750049180313,-1.3792110098407158,-1.027744255772772
1790097395098104064,8.452104003906257,0.7563209972325683,-1.011150510398061,-1.0639355164737723
1790097395108104192,8.462104003906257,1.194394699765312,-0.8275334062598145,-1.018150399127246
1790097395118104064,8.472104003906257,1.169837983739107,-0.7038794148230917,-0.9593796575636964
1790097395128104192,8.482104003906256,0.6663411962758453,-0.8742386639417286,-0.9261691876928501
1790097395138104064,8.492104003906256,0.28620717026629344,-1.0350408359157854,-0.9224499515945549
1790097395148104192,8.502104003906258,0.2519597975087362,-1.1281054500323309,-0.8886986192498435
1790097395158104064,8.512104003906257,0.5215813055052111,-1.1811407801400708,-0.8183187962368151
1790097395168104192,8.522104003906257,0.8128414831702401,-1.1101555273982373,-0.7434695123918923
1790097395178104064,8.532104003906257,0.8603156934061431,-1.0176069910776846,-0.6515376308061965
1790097395188104192,8.542104003906257,0.84256326157921,-1.012927230831554,-0.46673306693394123
1790097395198104064,8.552104003906257,0.8784256356585471,-0.9758165102593249,-0.49154942284510383
1790097395208104192,8.562104003906256,0.7684351096537272,-1.0463861858580428,-0.5710615845440393
1790097395218104064,8.572104003906258,0.4349604816293304,-1.1500420408187824,-0.7232989809771503
1790097395228104192,8.582104003906258,-0.009357164064730528,-1.0058031564386112,-0.7103891249836001
1790097395238104064,8.592104003906258,-0.2746041811177907,-0.5827733510155304,-0.6466445044167938
1790097395248104192,8.602104003906257,-0.107628290498123,-0.1981842406929536,-0.22541656638373037
1790097395258104064,8.612104003906257,0.3996222932183995,-0.10304397084256345,0.3350890092263854
1790097395268104192,8.622104003906257,0.9842123521835253,-0.3587685161882795,0.5992170899464733
1790097395278104064,8.632104003906257,1.4045129413141415,-0.7274255174476747,0.5108657080011514
1790097395288104192,8.642104003906256,1.6020173564031008,-1.0195030799964813,0.06204873951509032
1790097395298104064,8.652104003906256,1.7489359421061317,-0.9928225634176941,-0.2361163401763593
1790097395308104192,8.662104003906258,1.8474459151952904,-0.7201221329646493,-0.3357351087756597
1790097395318104064,8.672104003906258,1.9776016336937992,-0.42477333915313037,-0.47547267746529714
1790097395328104192,8.682104003906257,2.0503181782829962,-0.23661288553490273,-0.6044378405398364
1790097395338104064,8.692104003906257,1.9313774014019434,-0.22681159572699844,-0.6026270088900578
1790097395348104192,8.702104003906257,1.6927228173178732,-0.512382292035637,-0.532939830666387
1790097395358104064,8.712104003906257,1.2019736454851777,-0.8393300129362846,-0.47248741641201325
1790097395368104192,8.722104003906257,0.48244078280403374,-0.9664968523902162,-0.4284764649419738
1790097395378104064,8.732104003906258,-0.08044059142652481,-0.848319073796409,-0.36029473402374523
1790097395388104192,8.742104003906258,-0.2983122078479687,-0.5456847451191595,-0.35350839656846167
1790097395398104064,8.752104003906258,-0.1720268314530883,-0.20469352430934315,-0.4649465932783912
1790097395408104192,8.762104003906257,0.19267007555641297,-0.31719744606021816,-0.5511341536443505
1790097395418104064,8.772104003906257,0.5660481454920643,-1.0029427462818927,-0.5096558974595436
1790097395428104192,8.782104003906257,1.0318210970675716,-1.74081526000796,-0.5684497952477418
1790097395438104064,8.792104003906257,1.3923856908209578,-2.171361718557528,-0.8104810483864561
1790097395448104192,8.802104003906257,1.4745310808412393,-2.164767556340782,-1.0340630737201184
1790097395458104064,8.812104003906256,1.1149519559519878,-2.0228220896203024,-1.179644697083758
1790097395468104192,8.822104003906258,0.7833143231087997,-1.496073347562712,-1.1192049747012238
1790097395478104064,8.832104003906258,0.49388247644507094,-1.065189006738918,-0.9927479042504394
1790097395488104192,8.842104003906258,0.5484422623538929,-0.8396613521039696,-0.8022747801416947
1790097395498104064,8.852104003906257,0.798477685906837,-0.7407073619593042,-0.5350457099144565
1790097395508104192,8.862104003906257,0.9791620711207953,-0.6756691127183666,-0.6556580935976678
1790097395518104064,8.872104003906257,0.9619862210895457,-0.8369679921231062,-0.7837257718204707
1790097395528104192,8.882104003906257,0.6309065274169348,-0.9564936239046797,-1.0806036379148958
1790097395538104064,8.892104003906258,0.3177723493001637,-1.0361013313407992,-1.2678054800232268
1790097395548104192,8.902104003906258,0.36433987211876184,-1.1506776368973723,-1.2829590703696958
1790097395558104064,8.912104003906258,0.7011982808322208,-1.317254720350593,-1.2982837522758752
1790097395568104192,8.922104003906258,0.9363621334037355,-1.504416470539897,-1.2859305230874514
1790097395578104064,8.932104003906257,0.9557117739047849,-1.6530347587846834,-1.3589093923180502
1790097395588104192,8.942104003906257,0.59639962252348,-1.9557112132612293,-1.3832514541357328
1790097395598104064,8.952104003906257,-0.00890228372425339,-2.011367127440962,-1.303954502567916
1790097395608104192,8.962104003906257,-0.6470966580734064,-1.7850654815725038,-1.0648088794216815
1790097395618104064,8.972104003906257,-0.9098305688129511,-1.457768939798902,-0.7244142391385442
1790097395628104192,8.982104003906258,-0.8850451163745456,-1.0876741654553739,-0.44615687750932037
1790097395638104064,8.992104003906258,-0.29409057774567443,-0.6697304310814787,-0.22889751028518013
1790097395648104192,9.002104003906258,0.07890806177855778,-0.3847304406938844,0.012694677023974806
1790097395658104064,9.012104003906257,-0.08797295088701274,-0.09597300105843556,0.09889560501994256
1790097395668104192,9.022104003906257,-0.6710485697119037,0.1819821642220229,-0.003152992426371959
1790097395678104064,9.032104003906257,-1.3188634813197084,0.24326917239036602,-0.3278640044979318
1790097395688104192,9.042104003906257,-1.4251622224517828,-0.21737970281124178,-0.753604052431582
1790097395698104064,9.052104003906258,-1.2612230519336116,-0.9283947925686842,-0.8762941286545574
1790097395708104192,9.062104003906258,-1.2854011183010694,-1.4493805966324138,-0.462367384166947
1790097395718104064,9.072104003906258,-1.552532202048488,-1.3742312709210445,0.11534809206539604
1790097395728104192,9.082104003906258,-2.171959491965378,-0.7927285007638543,0.661079049036734
1790097395738104064,9.092104003906258,-2.7393792568174633,-0.06805522753487653,1.2141233902143855
1790097395748104192,9.102104003906257,-2.932448904807681,0.5637909450909084,1.602609075456531
1790097395758104064,9.112104003906257,-2.858278010467862,0.7911640129766276,1.6931395773362437
1790097395768104192,9.122104003906257,-2.754725748239336,0.6568475287356503,1.5615298137794797
1790097395778104064,9.132104003906257,-2.640249056900278,0.4746773660870548,1.3039614322869395
1790097395788104192,9.142104003906258,-2.8209419777919638,0.3463364742345243,1.174906121542962
1790097395798104064,9.152104003906258,-2.9206242373962468,0.10995754294133503,0.9716908389434518
1790097395808104192,9.162104003906258,-3.755197090519287,0.05073862669783216,1.0460265485208402
1790097395818104064,9.172104003906258,-4.400407822957427,0.18258518527998202,1.0614746863664961
1790097395828104192,9.182104003906257,-4.406857634184541,0.44590311753530354,1.116195945737646
1790097395838104064,9.192104003906257,-4.012137035673207,0.6807036808025096,1.304317186166909
1790097395848104192,9.202104003906257,-3.6857720106921277,0.8139996962552791,1.5447339576560661
1790097395858104064,9.212104003906258,-3.2713780583851624,1.0459623186355185,1.7120026588427963
1790097395868104192,9.222104003906258,-3.0380458753474477,1.3515190516589108,1.6585204363874693
1790097395878104064,9.232104003906258,-2.982702546879885,1.5957350003673219,1.4344131768692363
1790097395888104192,9.242104003906258,-2.566793362630629,1.7821023717704805,1.1326601404605527
1790097395898104064,9.252104003906258,-1.8800130256929437,1.765855348027045,0.9028346203330748
1790097395908104192,9.262104003906257,-1.0688260949879314,1.5321707143712842,0.6286866853694572
1790097395918104064,9.272104003906257,-0.521439331057544,1.202422034942793,0.37576734609581375
1790097395928104192,9.282104003906257,-0.6071685733652903,0.863411298058046,0.1507216460332023
1790097395938104064,9.292104003906257,-1.422749195338707,0.5120156613920843,0.04785701972345545
1790097395948104192,9.302104003906258,-2.222455958334483,0.326953411360012,-0.005577850905087341
1790097395958104064,9.312104003906258,-2.574212455077143,0.23215046253465962,0.1053335335739363
1790097395968104192,9.322104003906258,-2.054920150705393,0.044884638116312894,0.3322939579004935
1790097395978104064,9.332104003906258,-1.1991163206145907,-0.07283937531755912,0.5583108702686848
1790097395988104192,9.342104003906258,-0.3834180647854585,0.05060701905644237,0.7419606974140132
1790097395998104064,9.352104003906257,-0.09074961461028842,0.022203868799927376,0.726779205368361
1790097396008104192,9.362104003906257,-0.5689755815199922,0.10352916904114043,0.4950841502740412
1790097396018104064,9.372104003906259,-1.2366217794859609,0.1297434495648075,0.2893021509168061
1790097396028104192,9.382104003906258,-1.6274169497806426,0.11239905395524695,0.16543712336556213
1790097396038104064,9.392104003906258,-1.4022756486040648,-0.10747228986663755,0.1956455431538338
1790097396048104192,9.402104003906258,-0.7803109960933723,-0.43873046155573525,0.2427933888988139
1790097396058104064,9.412104003906258,0.07429384907390357,-0.538881866291172,0.1237227256960758
1790097396068104192,9.422104003906258,0.7967104078049005,-0.49152338384353195,-0.028904343056647616
1790097396078104064,9.432104003906257,0.6527730898141053,-0.5020505074741257,-0.21556669858592295
1790097396088104192,9.442104003906257,-0.11862860132889175,-0.6027259324847272,-0.5787371594627293
1790097396098104064,9.452104003906257,-0.49179235795259635,-0.9349130393065459,-0.8974207940591524
1790097396108104192,9.462104003906258,-0.32420837312792,-1.2845489457943873,-1.0132635905517386
1790097396118104064,9.472104003906258,0.014833514498848416,-1.4999683835619346,-0.9155827374941498
1790097396128104192,9.482104003906258,0.5064927423957029,-1.4395260077493195,-0.7455335496802388
1790097396138104064,9.492104003906258,1.1923616357894575,-1.3286644143949289,-0.6973981912888115
1790097396148104192,9.502104003906258,1.6370202024270346,-1.1235213646577544,-0.9064809513977211
1790097396158104064,9.512104003906257,1.4593174411657723,-1.0129565011743804,-1.2507756399011296
1790097396168104192,9.522104003906257,1.10842046961726,-1.0405730909904385,-1.4774810170903618
1790097396178104064,9.532104003906259,0.9319221447470041,-1.1182647197929643,-1.3130747398527856
1790097396188104192,9.542104003906259,1.0872269876574692,-1.1330880210236285,-0.8506452826891695
1790097396198104064,9.552104003906258,1.5466508749125008,-1.1001455050176967,-0.5457485025386744
1790097396208104192,9.562104003906258,1.789581919763907,-1.2213000637821663,-0.5330902528990344
1790097396218104064,9.572104003906258,1.6155600531606555,-1.4967573952270228,-0.6784486859321379
1790097396228104192,9.582104003906258,1.1823914018687562,-1.7464940859355498,-0.9352471213486233
1790097396238104064,9.592104003906258,0.7834220455798382,-1.805624144795524,-1.050086939436506
1790097396248104192,9.602104003906257,0.5583266317379946,-1.6927937773295556,-0.9477939788274682
1790097396258104064,9.612104003906257,0.6471700564823469,-1.3806640494037974,-0.732186406713996
1790097396268104192,9.622104003906259,0.9015750473308745,-0.9900117000634472,-0.4095182912790248
1790097396278104064,9.632104003906258,1.0749814200240395,-0.7164746629410965,-0.1421339327264914
1790097396288104192,9.642104003906258,1.0992515863532222,-0.6683659787729503,-0.029758855511538097
1790097396298104064,9.652104003906258,0.9478003998862907,-0.8316635678265314,0.1462964034118303
1790097396308104192,9.662104003906258,0.9347283557550728,-0.9488750447091515,-0.08306060550849176
1790097396318104064,9.672104003906258,0.9274310080821907,-1.0000473945476736,-0.2830424207364948
1790097396328104192,9.682104003906257,0.8625763268460483,-0.9925422231195603,-0.3871634260952709
1790097396338104064,9.692104003906259,0.7943264329520048,-0.9940926728926952,-0.4428990823852344
1790097396348104192,9.702104003906259,1.0454914844266663,-0.9060803244211131,-0.19454954867587884
1790097396358104064,9.712104003906258,1.4594200859139206,-0.7027091995172813,0.11426335703062201
1790097396368104192,9.722104003906258,1.6303031012156741,-0.5916941503697881,0.14132292302831578
1790097396378104064,9.732104003906258,1.6325849147974258,-0.5009425321728149,0.027943775212857666
1790097396388104192,9.742104003906258,1.4575848056777254,-0.4360863199394853,-0.07873532057057595
1790097396398104064,9.752104003906258,1.1422295099882063,-0.38112175732663567,-0.08018442520559675
1790097396408104192,9.762104003906257,0.8297536448547246,-0.13451127147718958,-0.024757602173203185
1790097396418104064,9.772104003906257,0.6509108115016149,0.21743845060789185,0.014210471148906608
1790097396428104192,9.782104003906259,0.47175446578904345,0.4237991351587268,0.014380530576314172
1790097396438104064,9.792104003906259,0.3815004294502652,0.4012050658801443,-0.033085710739354464
1790097396448104192,9.802104003906258,0.2458265752151229,0.14674730128429997,-0.16807832213687735
1790097396458104064,9.812104003906258,0.041483001581377084,-0.31234945842574297,-0.18211864851945592
1790097396468104192,9.822104003906258,-0.040583135945388475,-0.7311750505052308,-0.18312304348444874
1790097396478104064,9.832104003906258,0.2740865686551268,-0.9560512548011149,-0.25522587066764013
1790097396488104192,9.842104003906258,0.7141766682307185,-0.9666981060937937,-0.3280355463287558
1790097396498104064,9.852104003906259,1.207189855590073,-1.045043982777202,-0.4588332757448993
1790097396508104192,9.862104003906259,1.6602839901947606,-1.1464980327784156,-0.6074096817701015
1790097396518104064,9.872104003906259,1.9994063141700869,-1.358694789218651,-0.7364065523973822
1790097396528104192,9.882104003906258,2.0714351428102127,-1.5905794209466542,-0.801202275699085
1790097396538104064,9.892104003906258,1.8217891773005566,-1.5991154669627552,-0.8210233054301332
1790097396548104192,9.902104003906258,1.4763458902942874,-1.3107418555949284,-0.9578773202117685
1790097396558104064,9.912104003906258,1.1352888982927174,-0.973481986665819,-1.1594718141660403
1790097396568104192,9.922104003906258,0.8502797515693628,-0.7719644504460237,-1.3130468508557318
1790097396578104064,9.932104003906257,0.6158853349455895,-0.78376112089496,-1.3620586835489636
1790097396588104192,9.942104003906259,0.6697473778977576,-1.0289599609708182,-1.3499751125836854
1790097396598104064,9.952104003906259,0.8173651459440721,-1.3045878339067118,-1.2113783709476869
1790097396608104192,9.962104003906258,0.9437817970626531,-1.7507890644794493,-1.0351972935328182
1790097396618104064,9.972104003906258,1.0250149638348696,-1.7451957813879935,-0.6297025757007173
1790097396628104192,9.982104003906258,0.7728613243856218,-1.5383127387502402,-1.0686567950441712
1790097396638104064,9.992104003906258,0.5798465168591345,-1.4983729096338672,-1.075782366437728
1790097396648104192,10.002104003906258,0.5177813990140815,-1.6520480121063357,-1.0008030819269185
1790097396658104064,10.01210400390626,0.30644437056474216,-1.8378795642778474,-1.0308386262815474
1790097396668104192,10.022104003906259,0.08871487679576036,-1.992382131351577,-0.961317095111582
1790097396678104064,10.032104003906259,0.0867058697293193,-1.9721031760212246,-0.9370563560110011
1790097396688104192,10.042104003906259,0.024829554935675256,-1.8151106198466584,-0.9048808030964998
1790097396698104064,10.052104003906258,-0.20060721020111527,-1.6000217347088415,-0.8112042832490345
1790097396708104192,10.062104003906258,-0.3683215403092269,-1.1949761869668398,-0.5732641482206774
1790097396718104064,10.072104003906258,-0.28199938524190354,-0.6319148909014716,-0.12544282860401085
1790097396728104192,10.082104003906258,-0.3274174889076076,0.03360497062178869,0.26286087358690763
1790097396738104064,10.092104003906258,-0.7371603102309976,0.706623413283908,0.3566154470419914
1790097396748104192,10.102104003906259,-1.6464128498223156,0.9438340404820845,-0.010297209000843466
1790097396758104064,10.112104003906259,-2.925561644737969,0.3332299520346209,-0.5689309826669336
1790097396768104192,10.122104003906259,-3.5157610953930893,-0.5092368780305399,-0.9912447706359042
1790097396778104064,10.132104003906258,-3.2723132065197644,-0.8530329882497615,-0.6225448855951217
1790097396788104192,10.142104003906258,-2.73692477557507,-0.5589895650783404,0.12770456916779444
1790097396798104064,10.152104003906258,-1.882154498146118,0.3202476480875962,0.8173186258679396
1790097396808104192,10.162104003906258,-0.9277917137696958,1.0529414957931127,0.7885994262450952
1790097396818104064,10.17210400390626,-1.0193959352678648,0.5031799855036017,0.9135000461512849
1790097396828104192,10.18210400390626,-1.6036257025064429,-0.09108783093554257,0.8339428801740836
1790097396838104064,10.192104003906259,-2.7071570915806635,-0.3518132689040114,0.7214350531309618
1790097396848104192,10.202104003906259,-3.2083369981355174,-0.30555869886994075,0.9142779032315822
1790097396858104064,10.212104003906258,-3.1237034701563537,-0.21565591932671577,1.3032873493032369
1790097396868104192,10.222104003906258,-2.6779928472714785,-0.07011409894090792,1.5471117766630864
1790097396878104064,10.232104003906258,-2.6911313499260476,-0.06228073061679466,1.629600966850338
1790097396888104192,10.242104003906258,-2.6199641184610596,0.09551809911480313,1.640437230867328
1790097396898104064,10.252104003906258,-3.1291536787044527,0.34135250541473033,1.5071644860408095
1790097396908104192,10.26210400390626,-3.359031482751364,0.5885856792065722,1.281169706330223
1790097396918104064,10.272104003906259,-3.4507977489338426,0.7764694985355215,1.4175389629911048
1790097396928104192,10.282104003906259,-2.9672976467940426,1.0966050336948205,1.4319743669376126
1790097396938104064,10.292104003906259,-2.378751589387569,1.3967015919863996,1.3833689768966944
1790097396948104192,10.302104003906258,-2.248421012553791,1.4761554567818842,1.1603598112768752
1790097396958104064,10.312104003906258,-2.260208247721634,1.4058175703772053,1.012104790672743
1790097396968104192,10.322104003906258,-3.0104919338287743,1.2678714237337854,0.913796973392643
1790097396978104064,10.33210400390626,-3.476665892704156,1.0098180496147617,0.8068934012234545
1790097396988104192,10.34210400390626,-3.4643231996807033,0.6725340610032053,0.8217505142487824
1790097396998104064,10.352104003906259,-2.9560016551486523,0.4452875685758242,1.0261904187387842
1790097397008104192,10.362104003906259,-2.137907860114975,0.43228872539168367,1.3303215161288713
1790097397018104064,10.372104003906259,-1.5788881354226045,0.5455452012476173,1.6317785567511796
1790097397028104192,10.382104003906258,-1.6844334778751406,0.8535441196552555,1.7065148046898455
1790097397038104064,10.392104003906258,-1.6521327686106941,1.1839400587024023,1.3788332423403205
1790097397048104192,10.402104003906258,-1.3959530875394486,1.2101755308076334,0.9906466868240532
1790097397058104064,10.412104003906258,-1.2985536384853782,1.0159021520455118,0.5682200875677901
1790097397068104192,10.42210400390626,-1.0315199257527734,0.8383763179704241,0.2896440194914874
1790097397078104064,10.43210400390626,-0.4351396395266164,0.7182583203571917,0.015997481933265167
1790097397088104192,10.442104003906259,-0.10676681532463206,0.5841383397218268,-0.2194847597706146
1790097397098104064,10.452104003906259,0.24527322117282693,0.4749799673101875,-0.35218378983875787
1790097397108104192,10.462104003906258,-0.012095222941674819,0.16918947987889962,-0.5580744833394996
1790097397118104064,10.472104003906258,-0.1952583282949934,-0.4385149180605766,-0.7380735800556946
1790097397128104192,10.482104003906258,-0.36964473763369354,-0.6841785754820557,-0.8257218207122989
1790097397138104064,10.49210400390626,0.08534710326552829,-0.8275157701426432,-0.8307248026937466
1790097397148104192,10.50210400390626,0.6871227356507337,-1.041084220816522,-0.7562160956946742
1790097397158104064,10.51210400390626,1.0119785445901108,-1.380784389136347,-0.8305604103468794
1790097397168104192,10.522104003906259,1.191425866050368,-1.8098878560068414,-1.1497994796067634
1790097397178104064,10.532104003906259,1.1698796257181492,-2.1835248885038716,-1.5434448411207786
1790097397188104192,10.542104003906259,0.87240986201073,-2.271944685154898,-1.6342647692342005
1790097397198104064,10.552104003906258,0.4070552686444335,-2.389074222002464,-1.713412481347122
1790097397208104192,10.562104003906258,0.17286521656020482,-2.297252065995659,-1.3767493273451197
1790097397218104064,10.572104003906258,0.0834133388846916,-1.94282566355325,-1.0694702659070054
1790097397228104192,10.58210400390626,0.00777012085817487,-1.4352364099610886,-0.8524193356906653
1790097397238104064,10.59210400390626,-0.01968901946180324,-0.783085747068913,-0.665560407423968
1790097397248104192,10.602104003906259,0.14765384571958098,-0.4139063944731433,-0.45490068954277413
1790097397258104064,10.612104003906259,0.5073336512618196,-0.20750189553831952,-0.3064549585294302
1790097397268104192,10.622104003906259,0.7452316136694295,-0.16913573155112574,-0.11237069484130364
1790097397278104064,10.632104003906258,0.9012627288246052,-0.15467390605121623,-0.08987780389098005
1790097397288104192,10.642104003906258,1.0421952673493255,-0.284905782475893,-0.27823954967642556
1790097397298104064,10.65210400390626,1.163426418772998,-0.6087934324322021,-0.5504433687449642
1790097397308104192,10.66210400390626,1.2754893242514875,-1.0497759827632902,-0.8568004702295273
1790097397318104064,10.67210400390626,1.2923224258393136,-1.4698943603153947,-1.1874653998837543
1790097397328104192,10.68210400390626,1.1618455671734675,-1.6836187127458144,-1.34435542500075
1790097397338104064,10.692104003906259,0.7555456554309046,-1.5582841431855157,-1.225642642865432
1790097397348104192,10.702104003906259,0.28777322385224313,-1.1531924514021956,-0.9924315742265535
1790097397358104064,10.712104003906258,0.055785267457296936,-0.6526821325485374,-0.8497037492235936
1790097397368104192,10.722104003906258,0.2095886847149056,-0.35814655656873373,-0.4641825990240332
1790097397378104064,10.732104003906258,0.6168574979180064,-0.3377280484430987,0.09279617745984758
1790097397388104192,10.74210400390626,0.9410997205534379,-0.5347495283603203,0.4851619051344044
1790097397398104064,10.75210400390626,1.2351560092013942,-0.9446220850789837,0.4507104943977912
1790097397408104192,10.76210400390626,1.7425423624902492,-1.2855675243529112,-0.03203095148526669
1790097397418104064,10.772104003906259,2.2350518563945254,-1.422861404716492,-0.45716326454717227
1790097397428104192,10.782104003906259,2.44122445512616,-1.2235659096019618,-1.1220724273926042
1790097397438104064,10.792104003906259,2.341878728883388,-1.0899240107449835,-1.1302968699153915
1790097397448104192,10.802104003906258,2.3076157187938406,-0.748228701474665,-0.6596141874672852
1790097397458104064,10.81210400390626,1.9233329761603188,-0.4189783127239501,-0.3241291604465544
1790097397468104192,10.82210400390626,1.278755767828089,-0.00940846066489058,-0.10234367836306782
1790097397478104064,10.83210400390626,0.5893383100971465,0.41340282077462076,0.022105925441962958
1790097397488104192,10.84210400390626,-0.0012051658159088485,0.7221543856046329,0.08026726900006931
1790097397498104064,10.852104003906259,-0.40809225321513265,0.8214937311915593,0.12521033576954424
1790097397508104192,10.862104003906259,-0.5481308102375904,0.5922554878203208,0.03259976172104588
1790097397518104064,10.872104003906259,-0.26819170116361263,-0.03643561480562102,-0.14868115452377828
1790097397528104192,10.882104003906258,0.4253628215899638,-0.8525546263104294,-0.3435593570976241
1790097397538104064,10.892104003906258,1.0668473955478015,-1.525332411388117,-0.3561115722681287
1790097397548104192,10.90210400390626,1.3689305047294744,-1.816096674539835,-0.3444314858884113
1790097397558104064,10.91210400390626,1.2643445647045208,-1.642207189504357,-0.3951705500854345
1790097397568104192,10.92210400390626,1.047880709078461,-1.1825334024528715,-0.38932186392917895
1790097397578104064,10.93210400390626,0.899453812212619,-0.7656527242827093,-0.22940749448607337
1790097397588104192,10.942104003906259,0.9004394208418434,-0.6559059876951052,-0.14980799966430822
1790097397598104064,10.952104003906259,0.9692894727076123,-0.875441115072514,-0.2556344837525595
1790097397608104192,10.962104003906258,0.994409071201516,-1.113075654276191,-0.44850543776780244
1790097397618104064,10.97210400390626,0.9697567462279273,-1.2843757963296836,-0.752301330258449
1790097397628104192,10.98210400390626,1.021774358954282,-1.4305302959966957,-1.093930269929051
1790097397638104064,10.99210400390626,1.1119129541572714,-1.2034598399116077,-1.431936405182324
1790097397648104192,11.00210400390626,1.1700753917490845,-0.9778347687099734,-1.6695111833503125
1790097397658104064,11.01210400390626,1.237952391298484,-0.9543573554031415,-1.7744597828617223
1790097397668104192,11.022104003906259,1.464180619248171,-1.197301852494371,-1.659789972804333
1790097397678104064,11.032104003906259,1.6022407983130547,-1.7024757566142723,-1.2479311982686692
1790097397688104192,11.042104003906259,1.3575048986215505,-2.0286312221981433,-0.916248815719511
1790097397698104064,11.052104003906258,0.79372285995468,-1.935057502136992,-0.7393629797855545
1790097397708104192,11.06210400390626,0.1605993681013913,-1.6978328783169727,-0.3251544879421589
1790097397718104064,11.07210400390626,-0.3943880098673184,-1.3711204336483762,-0.5181990600281836
1790097397728104192,11.08210400390626,-0.3636287321305617,-1.3128345259958616,-0.4313647626664449
1790097397738104064,11.09210400390626,0.31529367030038197,-1.3302668345221114,-0.2984772036466239
1790097397748104192,11.102104003906259,1.0606373658570556,-1.3460519714758772,-0.3530028713465253
1790097397758104064,11.112104003906259,1.3494712008006484,-1.4849033967217056,-0.5150159569451277
1790097397768104192,11.122104003906259,0.7872418556880953,-1.6692528465772847,-0.6573015807292099
1790097397778104064,11.13210400390626,-0.14210636241173583,-1.6900511063301655,-0.5606727756851013
1790097397788104192,11.14210400390626,-0.8444482567025993,-1.3456361963900578,-0.3892629839046141
1790097397798104064,11.15210400390626,-1.317984636035872,-0.7394490229305215,-0.24911323828417098
1790097397808104192,11.16210400390626,-1.4120325498053863,-0.13051082939148567,-0.23058797133939515
1790097397818104064,11.17210400390626,-1.3886683256433272,0.2688915321063443,-0.3699945197051933
1790097397828104192,11.18210400390626,-1.7513140650347694,0.15031832632561315,-0.5216511624699235
1790097397838104064,11.192104003906259,-2.3008801885042183,-0.3363458735895903,-0.4737338733631007
1790097397848104192,11.202104003906259,-2.589525977809749,-0.5271994360391304,-0.02350738920477835
1790097397858104064,11.212104003906258,-2.6589988000453992,-0.09258068961452676,0.6335124185382013
1790097397868104192,11.22210400390626,-2.44161680355325,0.6165817711819692,1.2197328944799966
1790097397878104064,11.23210400390626,-1.8702542096823793,1.1729149399620034,1.329399832486409
1790097397888104192,11.24210400390626,-1.4250679249451674,1.372980103617106,1.0751783704237516
1790097397898104064,11.25210400390626,-1.7799793305814373,0.30374711072322924,1.1801356975712007
1790097397908104192,11.26210400390626,-2.646572563268122,-0.19203523708096182,1.110389491889294
1790097397918104064,11.272104003906259,-3.5123715624146175,-0.054661718406697306,1.226654173321203
1790097397928104192,11.282104003906259,-3.7326290003158755,0.1480203957582243,1.5120193905259471
1790097397938104064,11.29210400390626,-3.4851276948835657,0.5850493561163636,1.6975484445764566
1790097397948104192,11.30210400390626,-2.9623912070458545,0.36515280766160196,2.33903533413118
1790097397958104064,11.31210400390626,-2.672349463508247,0.877014013537547,2.0099112013128186
1790097397968104192,11.32210400390626,-2.415064074939785,1.1081558180339917,1.4747125047586187
1790097397978104064,11.33210400390626,-3.1822533251876752,1.0106911399909342,1.2429101924248827
1790097397988104192,11.34210400390626,-4.217295333400739,0.9431600787076069,1.2609628529586487
1790097397998104064,11.352104003906259,-4.695273406591618,0.9972379016176918,1.4844997305309164
1790097398008104192,11.362104003906259,-4.067838242504864,1.0959389877868422,1.6789776923163435
1790097398018104064,11.372104003906259,-2.694959260531514,1.194681213099367,1.7388822149372531
1790097398028104192,11.38210400390626,-0.9762718817392564,1.2308357464872777,1.7731529818333234
1790097398038104064,11.39210400390626,-0.34630610044663224,1.2010956484939617,1.541224064137816
1790097398048104192,11.40210400390626,-1.0020411108688654,1.1010660136156087,1.1729216709761512
1790097398058104064,11.41210400390626,-2.4354913633888957,0.9529089775769253,0.838390816580387
1790097398068104192,11.42210400390626,-3.330203556865083,0.7354751858249661,0.5964360432595277
1790097398078104064,11.43210400390626,-3.0205828757396915,0.3588707110456272,0.4950912248258661
1790097398088104192,11.442104003906259,-2.6689905279096307,0.002861618510634649,0.6018228971680177
1790097398098104064,11.45210400390626,-1.5831340547540196,-0.20135380964292576,0.9994373942351296
1790097398108104192,11.46210400390626,-0.9791849552113422,-0.15348370672082354,1.5007099739867082
1790097398118104064,11.47210400390626,-0.5544501958976382,0.12301661073164005,1.813531969126854
1790097398128104192,11.48210400390626,-0.46071706056844597,0.46991991314956416,1.7712579405115632
1790097398138104064,11.49210400390626,-0.8488152717940405,0.6247647734061541,1.4505200086376318
1790097398148104192,11.50210400390626,-1.3420694923348997,0.5813893183456763,1.1297678242356977
1790097398158104064,11.51210400390626,-1.3322699183241304,0.39191016601749706,0.8615748681076745
1790097398168104192,11.522104003906259,-0.5327228142160818,0.07784798017224961,0.6373042392163367
1790097398178104064,11.532104003906259,0.6144215961272884,-0.12669971069336444,0.314259404169556
1790097398188104192,11.54210400390626,1.2322745512170186,-0.14922076965809214,-0.08120002871126134
1790097398198104064,11.55210400390626,0.8323495693010058,-0.14208439534626033,-0.38950379849325834
1790097398208104192,11.56210400390626,0.04354567241481078,-0.3598418871865424,-0.5858004831532744
1790097398218104064,11.57210400390626,-0.24188247714477573,-0.913272672253326,-0.5259049241760609
1790097398228104192,11.58210400390626,0.19193462855676913,-1.5989994178626388,-0.3511847570736058
1790097398238104064,11.59210400390626,0.9761010012918379,-2.168410659408196,-0.3426137998728387
1790097398248104192,11.602104003906259,1.3533173389547337,-2.431986333273695,-0.5211476389332368
1790097398258104064,11.61210400390626,0.8904769758217359,-2.394564920667035,-0.8098124616057494
1790097398268104192,11.62210400390626,0.5503483790733743,-2.1856420630754,-1.153166300768472
1790097398278104064,11.63210400390626,0.8387624197169721,-1.8807924858040352,-1.3987605418088158
1790097398288104192,11.64210400390626,1.648339486593579,-1.64763465601349,-1.3829003739778858
1790097398298104064,11.65210400390626,2.213911056345798,-1.2962483525831803,-1.1925632057665017
1790097398308104192,11.66210400390626,2.089468450894528,-0.9985823784449817,-1.0341378364546918
1790097398318104064,11.67210400390626,1.4170606539557398,-0.8164347600642723,-0.8915625201187243
1790097398328104192,11.68210400390626,0.8774158935717358,-0.6854255315793346,-0.6612061817689708
1790097398338104064,11.692104003906259,0.586392346075017,-0.7283371543248404,-0.4345128632384796
1790097398348104192,11.70210400390626,0.5783671221083858,-0.7869111364362747,-0.2837555539655402
1790097398358104064,11.71210400390626,0.626017336208884,-0.6125718506893835,-0.3210015976315333
1790097398368104192,11.72210400390626,0.6411654539893846,-0.3910085549238884,-0.4332619525299073
1790097398378104064,11.73210400390626,0.683869764403005,-0.2353666635496161,-0.31089465446355713
1790097398388104192,11.74210400390626,0.6289407146923472,-0.20298193947710705,-0.250126063568901
1790097398398104064,11.75210400390626,0.7228339946145609,-0.4294166188187692,-0.1271103694582163
1790097398408104192,11.76210400390626,1.0037548512439998,-1.0118280599934186,0.033371255005191496
1790097398418104064,11.77210400390626,1.121147452118883,-1.4329046732564286,0.04116037191902476
1790097398428104192,11.78210400390626,1.0908612682218761,-1.4427089813690253,-0.07882113160800076
1790097398438104064,11.79210400390626,1.1162458077583537,-1.0522346112162049,-0.3273393209658849
1790097398448104192,11.80210400390626,1.3451048001770167,-0.5846439016988106,-0.4055637065767476
1790097398458104064,11.81210400390626,1.7843216899223444,-0.38490439020875467,-0.16440624963786876
1790097398468104192,11.82210400390626,2.1180827865002727,-0.649971220242689,0.17547155139953774
1790097398478104064,11.83210400390626,2.2156206334844035,-1.1559688109699635,0.2546525061617693
1790097398488104192,11.84210400390626,2.03978327285767,-1.433016248012878,-0.008166170199555511
1790097398498104064,11.852104003906259,1.6856613634234536,-1.2328509338378708,-0.032068013144185795
1790097398508104192,11.86210400390626,1.438749952999469,-0.6631774457147297,0.24554867601436184
1790097398518104064,11.87210400390626,1.506612306443904,-0.2568621481524138,0.2920524669403295
1790097398528104192,11.88210400390626,1.6515529044564397,-0.1907230869449949,0.12686173382977114
1790097398538104064,11.89210400390626,1.6592306270789776,-0.33695799278791727,0.011676518128022104
1790097398548104192,11.90210400390626,1.4168083574429935,-0.6979729812717942,-0.022157322497965145
1790097398558104064,11.91210400390626,0.9998419019124449,-1.0086427052126972,0.0035248115487693556
1790097398568104192,11.92210400390626,0.42192350136571266,-0.8888111702224691,0.16210772911337382
1790097398578104064,11.932104003906261,-0.06429834423171839,-0.5378771951287749,0.3180834070388461
1790097398588104192,11.94210400390626,-0.16308911176562477,-0.12912062464901233,0.4370672815132723
1790097398598104064,11.95210400390626,0.012546948241508128,0.1534522228504375,0.328143022405012
1790097398608104192,11.96210400390626,0.25436562435001575,0.14997378906013362,0.1956937076538029
1790097398618104064,11.97210400390626,0.42468385948657567,-0.130161639097583,0.11585257686608369
1790097398628104192,11.98210400390626,0.5451557518729906,-0.5477955654412804,0.01748347721523181
1790097398638104064,11.99210400390626,0.7964623189706991,-0.8114052692675798,-0.10445344976179793
1790097398648104192,12.00210400390626,1.333080043732472,-0.9180785829373472,-0.31391025304743597
1790097398658104064,12.01210400390626,1.8776396063827232,-0.9675045763832294,-0.6235676149977252
1790097398668104192,12.02210400390626,2.1387595043091756,-1.0499402190681568,-0.9060397674605105
1790097398678104064,12.03210400390626,2.125011518796677,-1.2548627792871403,-1.1191576158628176
1790097398688104192,12.04210400390626,1.9780729079903803,-1.5224946684887393,-1.2130164419731568
1790097398698104064,12.05210400390626,1.6806447793200876,-1.5391711515517708,-1.096328784353089
1790097398708104192,12.06210400390626,1.354283601258338,-1.486007126436666,-0.8960542846324122
1790097398718104064,12.07210400390626,1.0016173791909306,-1.1454591854116225,-0.7298281820416458
1790097398728104192,12.08210400390626,0.6633548940753642,-0.9315088631323726,-0.6364656942135767
1790097398738104064,12.092104003906261,0.5714576049499515,-0.9636013205027204,-0.5801648673155351
1790097398748104192,12.10210400390626,0.9130727067302951,-1.1238437412881,-0.6749844445970768
1790097398758104064,12.11210400390626,1.5759651936869778,-1.3506996976493566,-0.9103696443372316
1790097398768104192,12.12210400390626,2.0577812943004474,-1.6238195264638087,-1.1654597546431937
1790097398778104064,12.13210400390626,1.8536448894729738,-1.883009092399597,-1.4484724822944348
1790097398788104192,12.14210400390626,1.3064178869429222,-2.1078449715864824,-1.595483981114581
1790097398798104064,12.15210400390626,1.0252735185223147,-2.0462263254562476,-1.6309662515336016
1790097398808104192,12.16210400390626,0.9475396183757601,-1.767537431278324,-1.3401311149995612
1790097398818104064,12.17210400390626,0.9444135979346706,-1.425496993050899,-0.9011905794574627
1790097398828104192,12.182104003906261,0.7887147790146061,-1.2403483519144374,-0.6866629278458138
1790097398838104064,12.19210400390626,0.19244696009774742,-1.2472738321775207,-0.6933868221584399
1790097398848104192,12.20210400390626,-0.7689689498682627,-1.3759025445190414,-0.687396181351716
1790097398858104064,12.21210400390626,-1.5455390399836848,-1.3787504837878222,-0.5549949507750476
1790097398868104192,12.22210400390626,-1.8247589875025443,-1.2498971971053041,-0.24835598916204332
1790097398878104064,12.23210400390626,-1.6627437321917051,-0.7478526192468455,0.09764764389992331
1790097398888104192,12.24210400390626,-1.1918491033821386,-0.17882505368923163,0.43288789820962337
1790097398898104064,12.252104003906261,-0.9011277964213374,0.28747295621193975,0.7299269988784319
1790097398908104192,12.262104003906261,-1.1287098437363061,0.3833809591705627,1.136090381107218
1790097398918104064,12.27210400390626,-2.0484667220857373,0.3157231020283158,1.6394868763499029
1790097398928104192,12.28210400390626,-3.408712032314395,0.35977616073107893,1.8200713643397384
1790097398938104064,12.29210400390626,-4.087691741856818,0.6270525589008954,1.7625214575877226
1790097398948104192,12.30210400390626,-4.114023036455342,0.7680876473357826,1.3385360299170044
1790097398958104064,12.31210400390626,-3.7578631482016784,0.7074062282967318,0.7413808530220762
1790097398968104192,12.32210400390626,-3.360361328594348,0.424713261717448,0.2993871284502453
1790097398978104064,12.33210400390626,-3.2377180386527824,0.08733061006760962,0.3718114773509211
1790097398988104192,12.342104003906261,-3.1869432260196247,-0.09117402871520347,0.9241724219710594
1790097398998104064,12.35210400390626,-3.4377386183418674,0.1521740641056485,1.545235701800784
1790097399008104192,12.36210400390626,-3.816364599609048,0.4517896090217644,2.117199502368548
1790097399018104064,12.37210400390626,-3.385224429132911,0.6871912056274123,2.388995803749345
1790097399028104192,12.38210400390626,-3.013715010301958,0.7084977395811347,2.2841172411017214
1790097399038104064,12.39210400390626,-3.250014073348201,0.6361496366404041,1.9323916709460178
1790097399048104192,12.40210400390626,-3.8074947159965635,0.7167315601167076,1.5883387677688678
1790097399058104064,12.412104003906261,-3.207905077208988,0.7488390538904809,1.4689154938409137
1790097399068104192,12.422104003906261,-3.3381487201145004,0.6877088144419331,1.6181904081513165
1790097399078104064,12.432104003906261,-2.518903269543411,0.9043057787420192,1.5854525339372494
1790097399088104192,12.44210400390626,-1.6780814656715788,1.2507480638894455,1.4295690479514407
1790097399098104064,12.45210400390626,-0.5572913979943952,1.522241774045139,1.0930408359888064
1790097399108104192,12.46210400390626,-0.2278351408867789,1.42180297065775,0.6649260670517613
1790097399118104064,12.47210400390626,-1.254652354248215,1.2575273312140705,0.37517699888226874
1790097399128104192,12.48210400390626,-2.592673544211251,1.1541542707784829,0.34920912049825636
