time,seconds_elapsed,z,y,x
1789214478178734800,0.05873486328125,0.2423812299966812,0.02614116296172142,0.418651282787323
1789214478188767000,0.06876708984375,0.2352823168039322,0.1052761971950531,0.2869579493999481
1789214478198798800,0.078798828125,0.22657254338264465,0.1271064281463623,0.1374327838420868
1789214478208830000,0.088829833984375,0.21705308556556702,0.09807026386260986,0.000919407932087779
1789214478218861800,0.09886181640625,0.23266999423503876,0.016233744099736214,-0.11160951107740402
1789214478228893000,0.108892822265625,0.24460148811340332,-0.06238490343093872,-0.15313537418842316
1789214478238925000,0.118925048828125,0.21762807667255402,-0.08753157407045364,-0.1254226416349411
1789214478248956000,0.128955810546875,0.15610213577747345,-0.14929507672786713,-0.06563414633274078
1789214478258987800,0.13898779296875,0.0724390372633934,-0.19424772262573242,0.017763463780283928
1789214478269020000,0.14902001953125,0.015594929456710815,-0.12300790846347809,0.16106469929218292
1789214478279050800,0.15905078125,-0.018693406134843826,0.025575820356607437,0.34339794516563416
1789214478289083000,0.169082763671875,-0.04583714157342911,0.1418699324131012,0.4862927794456482
1789214478299114000,0.179114013671875,-0.07023785263299942,0.20661145448684692,0.554938793182373
1789214478309145900,0.189145751953125,-0.08565676212310791,0.25785359740257263,0.5614672899246216
1789214478319178800,0.1991787109375,-0.08679746091365814,0.26564615964889526,0.5076647996902466
1789214478329211000,0.2092109375,-0.09455578029155731,0.2132202386856079,0.3962104022502899
1789214478339243000,0.219242919921875,-0.1096283420920372,0.07733327150344849,0.24761299788951874
1789214478349273900,0.22927392578125,-0.1163826510310173,-0.1253596544265747,0.09850259870290756
1789214478359306000,0.239305908203125,-0.132571280002594,-0.2744661569595337,-0.017967810854315758
1789214478369336800,0.2493369140625,-0.09395517408847809,-0.34613579511642456,-0.08666671067476273
1789214478379368700,0.25936865234375,-0.1208319291472435,-0.28529462218284607,-0.08780230581760406
1789214478389400800,0.26940087890625,-0.17719720304012299,-0.1933971643447876,-0.017046378925442696
1789214478399430700,0.2794306640625,-0.14616264402866364,-0.07074181735515594,0.16325369477272034
1789214478409462800,0.289462890625,-0.07612603902816772,0.04573313519358635,0.39184316992759705
1789214478419493600,0.29949365234375,-0.027643190696835518,0.01655919849872589,0.5755570530891418
1789214478429525500,0.309525390625,0.04055982828140259,-0.18142631649971008,0.7095707654953003
1789214478439556600,0.319556640625,-0.062294669449329376,-0.5600948929786682,0.7855051755905151
1789214478449588700,0.329588623046875,-0.24343596398830414,-0.8665368556976318,0.8337251543998718
1789214478459620600,0.33962060546875,-0.34164831042289734,-0.9398258328437805,0.8704009652137756
1789214478469651700,0.349651611328125,-0.5251968502998352,-0.825548529624939,0.8345212936401367
1789214478479683600,0.35968359375,-0.7432520389556885,-0.6409456133842468,0.6845297813415527
1789214478489714700,0.369714599609375,-0.9832649230957031,-0.43934378027915955,0.3561740219593048
1789214478499746800,0.379746826171875,-1.1629979610443115,-0.20067526400089264,-0.07529643923044205
1789214478509778700,0.38977880859375,-1.1209758520126343,-0.0058325487188994884,-0.20419955253601074
1789214478519809800,0.399809814453125,-0.9862511157989502,0.07393548637628555,-0.1296660453081131
1789214478529841700,0.409841552734375,-0.8583120703697205,-0.10581297427415848,-0.005944111850112677
1789214478539872800,0.419872802734375,-0.7671937942504883,-0.4553482234477997,0.056332312524318695
1789214478549904600,0.429904541015625,-0.6438087821006775,-0.8116426467895508,0.013276454992592335
1789214478559936800,0.439936767578125,-0.508057177066803,-0.9387808442115784,-0.14658606052398682
1789214478569967900,0.4499677734375,-0.38609665632247925,-0.7251010537147522,-0.3443683683872223
1789214478579999700,0.459999755859375,-0.2821800708770752,-0.31340765953063965,-0.49713653326034546
1789214478590030600,0.470030517578125,-0.24322974681854248,0.050991326570510864,-0.5870320200920105
1789214478600062700,0.480062744140625,-0.2312525361776352,0.2812637686729431,-0.5857276916503906
1789214478610094800,0.4900947265625,-0.2026057094335556,0.2603427767753601,-0.5575711727142334
1789214478620125700,0.500125732421875,-0.15163426101207733,0.11714378744363785,-0.5047721266746521
1789214478630157800,0.51015771484375,-0.0831763818860054,-0.09360946714878082,-0.4279032051563263
1789214478640188700,0.520188720703125,-0.016074350103735924,-0.34082460403442383,-0.40130263566970825
1789214478650220500,0.530220458984375,0.03806265443563461,-0.5377190113067627,-0.4028374254703522
1789214478660252700,0.540252685546875,0.11142605543136597,-0.6055189967155457,-0.39965617656707764
1789214478670283800,0.55028369140625,0.16343145072460175,-0.5997452735900879,-0.4041542708873749
1789214478680315600,0.560315673828125,0.1759541928768158,-0.5791075825691223,-0.38915276527404785
1789214478690346800,0.5703466796875,0.17546044290065765,-0.5911889672279358,-0.3404371440410614
1789214478700378600,0.580378662109375,0.17745010554790497,-0.6642665863037109,-0.23210442066192627
1789214478710410500,0.590410400390625,0.12155433744192123,-0.7205804586410522,-0.10255387425422668
1789214478720441600,0.600441650390625,-0.0886770635843277,-0.6862619519233704,-0.01246116403490305
1789214478730473700,0.6104736328125,-0.1126532331109047,-0.6158615350723267,-0.04232079163193703
1789214478740504800,0.6205048828125,0.04852955788373947,-0.5857663750648499,-0.13790273666381836
1789214478750536700,0.63053662109375,0.2970235049724579,-0.2440418004989624,-0.29366010427474976
1789214478760568600,0.640568603515625,0.3058067262172699,0.0608617439866066,-0.5078874230384827
1789214478770599700,0.650599609375,0.16340883076190948,0.21731260418891907,-0.7274786233901978
1789214478780631800,0.6606318359375,0.08799445629119873,0.3688954710960388,-0.8030155897140503
1789214478790662700,0.67066259765625,0.05676596239209175,0.5230419039726257,-0.77620929479599
1789214478800694800,0.68069482421875,0.0182584747672081,0.587891161441803,-0.7177949547767639
1789214478810726700,0.6907265625,0.009754735976457596,0.6675993204116821,-0.6353083252906799
1789214478820757500,0.700757568359375,0.00025520380586385727,0.7726356387138367,-0.5333228707313538
1789214478830790000,0.710789794921875,-0.018606368452310562,0.802792489528656,-0.3784243166446686
1789214478840820700,0.72082080078125,-0.05842887610197067,0.6347710490226746,-0.18415267765522003
1789214478850852600,0.7308525390625,-0.1311936378479004,0.3503992557525635,0.014773745089769363
1789214478860884700,0.740884765625,-0.21755889058113098,0.12725511193275452,0.11886126548051834
1789214478870915600,0.75091552734375,-0.2829909026622772,0.03856919705867767,0.11797576397657394
1789214478880947700,0.76094775390625,-0.31420832872390747,0.10128743201494217,0.02160187065601349
1789214478890978600,0.770978515625,-0.3225112557411194,0.24130524694919586,-0.15011848509311676
1789214478901010700,0.7810107421875,-0.37302348017692566,0.322838693857193,-0.3005472421646118
1789214478911042800,0.791042724609375,-0.400307297706604,0.46124449372291565,-0.4200874865055084
1789214478921073700,0.80107373046875,-0.38413962721824646,0.6303495168685913,-0.4634521007537842
1789214478931105500,0.81110546875,-0.3382669687271118,0.5958772897720337,-0.46204516291618347
1789214478941137700,0.8211376953125,-0.2918373644351959,0.23929868638515472,-0.48045840859413147
1789214478951168800,0.831168701171875,-0.23954512178897858,-0.03254614397883415,-0.45133912563323975
1789214478961200600,0.84120068359375,-0.14387644827365875,-0.24845753610134125,-0.4337085485458374
1789214478971231700,0.851231689453125,-0.08795353770256042,-0.19941435754299164,-0.32534852623939514
1789214478981263600,0.861263671875,-0.0363738127052784,-0.2378620207309723,-0.26434463262557983
1789214478991295500,0.87129541015625,0.018451618030667305,0.002000906504690647,-0.11862844228744507
1789214479001326800,0.881326904296875,0.031737230718135834,0.3590259552001953,0.13470768928527832
1789214479011358700,0.891358642578125,-0.04120089113712311,0.5775012969970703,0.36154454946517944
1789214479021389800,0.901389892578125,-0.23373624682426453,0.7242524027824402,0.4250428378582001
1789214479031421700,0.911421630859375,-0.3930146098136902,0.8447703123092651,0.32431676983833313
1789214479041453600,0.92145361328125,-0.3987928628921509,0.9722065925598145,0.15296508371829987
1789214479051484700,0.931484619140625,-0.34461352229118347,1.0093376636505127,0.0029127374291419983
1789214479061516800,0.941516845703125,-0.32483118772506714,0.8798033595085144,-0.05124714970588684
1789214479071547600,0.951547607421875,-0.3928517997264862,0.6362338662147522,0.00836238544434309
1789214479081579800,0.961579833984375,-0.4169687032699585,0.188890740275383,-0.008147556334733963
1789214479091611600,0.971611572265625,-0.39126676321029663,0.07022961229085922,-0.006788012105971575
1789214479101642500,0.981642578125,-0.2765708863735199,0.261530339717865,0.060624174773693085
1789214479111675000,0.9916748046875,-0.1555856168270111,0.224596306681633,0.07694002985954285
1789214479121706800,1.001706787109375,-0.029874511063098907,0.08163623511791229,-0.0019217213848605752
1789214479131737600,1.011737548828125,0.04112562909722328,-0.14644485712051392,-0.06491772830486298
1789214479141769700,1.021769775390625,0.04893391951918602,-0.3774157464504242,-0.1111951470375061
1789214479151800600,1.031800537109375,-0.02049575187265873,-0.47996315360069275,-0.20391283929347992
1789214479161832400,1.04183251953125,-0.1857195645570755,-0.42764943838119507,-0.4165547490119934
1789214479171864800,1.05186474609375,-0.3076944649219513,-0.32437363266944885,-0.6974311470985413
1789214479181895700,1.061895751953125,-0.3562692105770111,-0.16769392788410187,-0.9436713457107544
1789214479191927600,1.071927490234375,-0.37856733798980713,-0.049760907888412476,-1.080436110496521
1789214479201959700,1.081959716796875,-0.3670138120651245,-0.06262597441673279,-1.039785385131836
1789214479211990500,1.091990478515625,-0.312242716550827,-0.13659420609474182,-0.8780702352523804
1789214479222022700,1.102022705078125,-0.20419837534427643,-0.20866775512695312,-0.6694316267967224
1789214479232053800,1.1120537109375,-0.0876733586192131,-0.29698991775512695,-0.45280101895332336
1789214479242085600,1.122085693359375,0.0191205907613039,-0.41183510422706604,-0.28165289759635925
1789214479252117800,1.13211767578125,0.1111527755856514,-0.5188286900520325,-0.16632390022277832
1789214479262148600,1.142148681640625,0.17492607235908508,-0.6232402324676514,-0.07596997171640396
1789214479272180700,1.1521806640625,0.2003941386938095,-0.7205258011817932,0.057050131261348724
1789214479282212600,1.162212646484375,0.2534734606742859,-0.7247148156166077,0.16339530050754547
1789214479292243700,1.17224365234375,0.3444438576698303,-0.7988542914390564,0.21674853563308716
1789214479302275600,1.182275634765625,0.41653934121131897,-0.5511853098869324,0.3279454708099365
1789214479312306700,1.192306640625,0.43774741888046265,-0.3876000940799713,0.3789343535900116
1789214479322338600,1.202338623046875,0.43517616391181946,-0.2906835079193115,0.46325019001960754
1789214479332370700,1.21237060546875,0.39750123023986816,-0.22292256355285645,0.600131630897522
1789214479342401800,1.22240185546875,0.3729599118232727,-0.1410212218761444,0.7455024719238281
1789214479352433700,1.23243359375,0.37293168902397156,0.011610405519604683,0.8780757188796997
1789214479362465500,1.242465576171875,0.3405701816082001,0.1166052520275116,0.9245991706848145
1789214479372496600,1.25249658203125,0.2950197458267212,0.14946360886096954,0.8449828624725342
1789214479382528800,1.26252880859375,0.23907507956027985,0.07086820900440216,0.6695005297660828
1789214479392560600,1.272560546875,0.17738215625286102,-0.08627400547266006,0.5234019160270691
1789214479402591700,1.282591796875,0.1025225892663002,-0.24424222111701965,0.43197932839393616
1789214479412624000,1.292623779296875,0.02061600238084793,-0.3887275159358978,0.373932808637619
1789214479422655000,1.302655029296875,-0.04180941730737686,-0.49293801188468933,0.29878348112106323
1789214479432686800,1.312686767578125,-0.07280808687210083,-0.5193504691123962,0.17438934743404388
1789214479442718700,1.32271875,-0.08135100454092026,-0.46052980422973633,0.0180827584117651
1789214479452749800,1.332749755859375,-0.060036398470401764,-0.3229764699935913,-0.12093078345060349
1789214479462781700,1.34278173828125,-0.05055474489927292,-0.1561771035194397,-0.2024429589509964
1789214479472813800,1.352813720703125,-0.055697038769721985,0.05214015394449234,-0.1695297509431839
1789214479482845000,1.362844970703125,-0.06817309558391571,0.29093825817108154,-0.05628907307982445
1789214479492876800,1.372876708984375,-0.06539887934923172,0.4773928225040436,0.05940556526184082
1789214479502908700,1.38290869140625,-0.04993065446615219,0.5228039026260376,0.13015203177928925
1789214479512939800,1.392939697265625,-0.04463975131511688,0.4305762052536011,0.16680750250816345
1789214479522972000,1.402971923828125,-0.04092384874820709,0.25647491216659546,0.16905565559864044
1789214479533002800,1.413002685546875,-0.04026231914758682,0.050764892250299454,0.1811211109161377
1789214479543035000,1.423034912109375,-0.03550245240330696,-0.18385560810565948,0.18620775640010834
1789214479553066800,1.433066650390625,-0.010106012225151062,-0.3695562183856964,0.17012758553028107
1789214479563097600,1.44309765625,0.024176230654120445,-0.5240055322647095,0.15805576741695404
1789214479573129700,1.453129638671875,0.07437655329704285,-0.6831251978874207,0.17649975419044495
1789214479583161900,1.463161865234375,0.08592871576547623,-0.7307719588279724,0.16585925221443176
1789214479593192700,1.473192626953125,0.13679111003875732,-0.7767404913902283,0.14902648329734802
1789214479603224800,1.483224853515625,0.14170803129673004,-0.7346019148826599,0.1871946156024933
1789214479613256700,1.493256591796875,0.15926626324653625,-0.779948353767395,0.25537553429603577
1789214479623287600,1.50328759765625,0.15035803616046906,-0.7354527711868286,0.36692553758621216
1789214479633320000,1.51331982421875,0.11018583923578262,-0.8340322971343994,0.47207111120224
1789214479643351800,1.523351806640625,0.21013560891151428,-0.8398904800415039,0.5520032644271851
1789214479653382700,1.533382568359375,0.3778361976146698,-0.6924986243247986,0.5375838279724121
1789214479663414800,1.543414794921875,0.5101327896118164,-0.4105742573738098,0.5699180364608765
1789214479673445600,1.553445556640625,0.5181770920753479,-0.17804938554763794,0.6406731605529785
1789214479683477800,1.563477783203125,0.4795704483985901,-0.0016437256708741188,0.6508625745773315
1789214479693510000,1.573510009765625,0.4573229253292084,0.2048434019088745,0.5568023920059204
1789214479703540700,1.583540771484375,0.5115119218826294,0.5795315504074097,0.4254327714443207
1789214479713572900,1.59357275390625,0.5287197232246399,0.8281024694442749,0.20428895950317383
1789214479723604700,1.603604736328125,0.531225323677063,0.7943624258041382,-0.02078249678015709
1789214479733635600,1.613635498046875,0.5188631415367126,0.3427545130252838,-0.19585444033145905
1789214479743668000,1.62366796875,0.6122952103614807,-0.16971918940544128,-0.22164009511470795
1789214479753699800,1.633699951171875,0.7782599925994873,-0.5473317503929138,-0.15738680958747864
1789214479763730700,1.643730712890625,0.8905866146087646,-0.6883566975593567,-0.21890316903591156
1789214479773762800,1.6537626953125,0.8849273920059204,-0.5635859966278076,-0.5712087154388428
1789214479783795000,1.663794921875,0.8426456451416016,-0.3271980881690979,-0.9977964162826538
1789214479793825800,1.67382568359375,0.8405300378799438,-0.178481325507164,-1.3460428714752197
1789214479803858000,1.68385791015625,0.7965657711029053,0.01126187201589346,-1.6957314014434814
1789214479813889800,1.693889892578125,0.7389250993728638,0.12859435379505157,-2.003899097442627
1789214479823920600,1.703920654296875,0.7240884900093079,0.12215128540992737,-2.1200828552246094
1789214479833952800,1.713952880859375,0.7618728876113892,-0.055541738867759705,-2.026005268096924
1789214479843985000,1.72398486328125,0.822213888168335,-0.378274530172348,-1.7765629291534424
1789214479854015700,1.734015625,1.0053269863128662,-0.7404823303222656,-1.5244362354278564
1789214479864047900,1.7440478515625,1.2556160688400269,-1.1872613430023193,-1.3822872638702393
1789214479874079700,1.754079833984375,1.5166071653366089,-1.7191741466522217,-1.2568947076797485
1789214479884110600,1.764110595703125,1.397538423538208,-2.231900691986084,-1.0049065351486206
1789214479894143000,1.77414306640625,1.2797255516052246,-2.5085816383361816,-0.5705742239952087
1789214479904173800,1.784173828125,1.3698477745056152,-2.020641803741455,-0.4814996123313904
1789214479914205700,1.794205810546875,1.4430580139160156,-1.7176284790039062,-1.0737086534500122
1789214479924237800,1.80423779296875,1.588055968284607,-1.4934005737304688,-1.5315568447113037
1789214479934268700,1.8142685546875,1.7833174467086792,-1.3761860132217407,-1.8336442708969116
1789214479944300500,1.824300537109375,1.7992836236953735,-1.7216311693191528,-2.26977801322937
1789214479954333000,1.8343330078125,1.7310986518859863,-1.958676815032959,-2.4206900596618652
1789214479964363800,1.84436376953125,1.726159930229187,-2.293888568878174,-2.2351784706115723
1789214479974395600,1.854395751953125,1.6511629819869995,-2.943560838699341,-1.8525068759918213
1789214479984427800,1.864427734375,1.495073676109314,-4.1874613761901855,-1.337900161743164
1789214479994458600,1.874458740234375,1.4152541160583496,-5.684661865234375,-0.7670985460281372
1789214480004490800,1.88449072265625,1.3721262216567993,-7.0136308670043945,-0.26524683833122253
1789214480014523000,1.89452294921875,1.1623647212982178,-8.586243629455566,-0.07488115131855011
1789214480024553700,1.9045537109375,0.8591699004173279,-9.494507789611816,-0.1391792744398117
1789214480034585600,1.914585693359375,0.48475852608680725,-9.18300724029541,-0.242974653840065
1789214480044617700,1.92461767578125,-0.007898066192865372,-8.306543350219727,-0.24018076062202454
1789214480054648800,1.93464892578125,-0.28062838315963745,-7.4963178634643555,-0.26557186245918274
1789214480064680700,1.9446806640625,-0.278331995010376,-7.026119709014893,-0.47560957074165344
1789214480074712800,1.954712890625,-0.046178389340639114,-7.148185729980469,-0.6483853459358215
1789214480084743700,1.96474365234375,0.3735705018043518,-7.673540115356445,-0.6230834722518921
1789214480094775600,1.974775634765625,0.9257413148880005,-8.113845825195312,-0.40085309743881226
1789214480104808000,1.984807861328125,1.541825294494629,-7.979366302490234,-0.08288456499576569
1789214480114838800,1.9948388671875,2.3211488723754883,-7.114669322967529,0.2870873808860779
1789214480124870700,2.00487060546875,3.3064610958099365,-5.888966083526611,0.7456700205802917
1789214480134902800,2.01490283203125,4.365067005157471,-4.6743316650390625,1.2204573154449463
1789214480144933600,2.02493359375,5.187006950378418,-3.639807939529419,1.4748594760894775
1789214480154965800,2.0349658203125,5.693322658538818,-2.713841199874878,1.5657023191452026
1789214480164998000,2.044997802734375,6.121277332305908,-1.72353994846344,1.605064034461975
1789214480175028700,2.05502880859375,6.55269193649292,-0.6355932354927063,1.6216355562210083
1789214480185060900,2.065060791015625,6.501132488250732,0.49582287669181824,1.5738333463668823
1789214480195092700,2.0750927734375,6.019045829772949,1.5705162286758423,1.420619010925293
1789214480205123600,2.08512353515625,5.634289264678955,2.981534481048584,1.1516882181167603
1789214480215155700,2.09515576171875,5.300019264221191,4.970580101013184,0.4800557494163513
1789214480225187800,2.105187744140625,4.731102466583252,5.2608256340026855,-0.014853697270154953
1789214480235218700,2.11521875,4.1766581535339355,5.0528645515441895,-0.3285016417503357
1789214480245250800,2.125250732421875,3.7392468452453613,3.8602094650268555,-0.5459434986114502
1789214480255283000,2.135282958984375,2.978741407394409,2.092039108276367,0.17586712539196014
1789214480265313800,2.145313720703125,2.1944117546081543,1.203018307685852,0.7355889678001404
1789214480275346000,2.155345947265625,1.8228530883789062,0.5912148952484131,0.5517318248748779
1789214480285377800,2.165377685546875,1.9045019149780273,0.6720417737960815,-0.03445502370595932
1789214480295408600,2.17540869140625,2.1426048278808594,1.357546329498291,-0.44317060708999634
1789214480305440800,2.185440673828125,2.378692388534546,1.7857931852340698,-0.5370771288871765
1789214480315473000,2.195472900390625,2.2832579612731934,1.2686253786087036,-0.09685764461755753
1789214480325503700,2.205503662109375,1.7950736284255981,0.0851445272564888,0.3327910304069519
1789214480335535900,2.215535888671875,2.0399718284606934,-0.8040913343429565,0.7179653644561768
1789214480345567700,2.225567626953125,3.2734827995300293,-1.1291823387145996,1.3452686071395874
1789214480355598600,2.2355986328125,3.985515594482422,-0.1464652121067047,1.0967978239059448
1789214480365631000,2.245630859375,4.052627086639404,0.8997151255607605,0.7914975881576538
1789214480375662800,2.255662841796875,3.1719110012054443,0.4941841661930084,1.4069838523864746
1789214480385693700,2.265693603515625,1.7871434688568115,-0.18583786487579346,2.1060338020324707
1789214480395725800,2.275725830078125,0.8834102153778076,-0.8013806939125061,2.1544113159179688
1789214480405758700,2.2857587890625,0.7144913077354431,-0.37532103061676025,1.2457090616226196
1789214480415789600,2.29578955078125,1.5859018564224243,1.407551646232605,0.18520665168762207
1789214480425821400,2.305821533203125,1.9905697107315063,1.122938871383667,0.6279900670051575
1789214480435853600,2.315853515625,1.7644479274749756,1.1126110553741455,1.5045223236083984
1789214480445884400,2.325884521484375,1.2027326822280884,0.475071519613266,2.8529863357543945
1789214480455916300,2.335916259765625,0.4549843966960907,-1.1241778135299683,2.9554197788238525
1789214480465948700,2.34594873046875,0.32284310460090637,0.581684947013855,3.278390407562256
1789214480475979500,2.3559794921875,0.6745449900627136,-0.5460793375968933,2.0556869506835938
1789214480486011400,2.366011474609375,0.6971887350082397,-1.7663828134536743,-0.2834928631782532
1789214480496043500,2.37604345703125,0.722207248210907,-1.2416982650756836,0.44440311193466187
1789214480506074400,2.386074462890625,1.0221960544586182,-1.5976293087005615,1.3898279666900635
1789214480516106500,2.3961064453125,1.173291563987732,-3.6547939777374268,0.7203434109687805
1789214480526138600,2.406138671875,0.9236326217651367,-3.267648458480835,0.23183439671993256
1789214480536169500,2.41616943359375,0.6524384021759033,-1.934759497642517,0.5920826196670532
1789214480546201300,2.426201416015625,0.6155256032943726,-1.724813461303711,0.9199625849723816
1789214480556233500,2.4362333984375,0.6290419697761536,-1.0798577070236206,1.159447431564331
1789214480566264600,2.4462646484375,0.681563675403595,-0.2682396471500397,1.0613967180252075
1789214480576296400,2.45629638671875,0.55864417552948,0.21804769337177277,1.3056608438491821
1789214480586328600,2.46632861328125,0.42451027035713196,0.430660218000412,1.482139229774475
1789214480596360400,2.4763603515625,0.2121409922838211,1.1723870038986206,1.5892128944396973
1789214480606391600,2.4863916015625,-0.024552304297685623,1.4262782335281372,1.4347443580627441
1789214480616423700,2.496423583984375,-0.4922688901424408,1.3020020723342896,1.164878010749817
1789214480626455600,2.50645556640625,-1.1138384342193604,1.1402833461761475,0.9828245639801025
1789214480636486700,2.516486572265625,-1.7519375085830688,0.555180013179779,0.9206916689872742
1789214480646518500,2.5265185546875,-2.144120216369629,-0.4585344195365906,0.39806145429611206
1789214480656550400,2.53655029296875,-2.2950243949890137,-1.0431216955184937,-0.7501875758171082
1789214480666581500,2.54658154296875,-2.275136709213257,-1.5799837112426758,-2.2886173725128174
1789214480676613600,2.556613525390625,-2.3297417163848877,-1.9942865371704102,-3.642317533493042
1789214480686645500,2.5666455078125,-2.50212025642395,-2.554650068283081,-4.593527317047119
1789214480696676600,2.576676513671875,-2.4759838581085205,-2.840682029724121,-5.203256607055664
1789214480706708500,2.58670849609375,-2.3159854412078857,-3.157881498336792,-5.33645486831665
1789214480716740600,2.59674072265625,-2.067046642303467,-3.3402013778686523,-4.909876346588135
1789214480726771700,2.606771728515625,-1.5623056888580322,-3.17578125,-4.042647361755371
1789214480736803600,2.616803466796875,-0.7152778506278992,-2.4946024417877197,-2.8849058151245117
1789214480746835500,2.62683544921875,0.26248612999916077,-2.038733959197998,-1.4979056119918823
1789214480756866600,2.636866455078125,1.1931277513504028,-1.9715310335159302,-0.04064113274216652
1789214480766898700,2.646898681640625,1.9443879127502441,-1.6629314422607422,1.1310813426971436
1789214480776930600,2.6569306640625,2.4388809204101562,-0.9992387294769287,1.7867752313613892
1789214480786962400,2.66696240234375,2.650522470474243,0.017582980915904045,1.956395149230957
1789214480796993500,2.67699365234375,2.62819242477417,1.2509052753448486,1.8237733840942383
1789214480807025400,2.687025390625,2.4463367462158203,2.2336580753326416,1.4575265645980835
1789214480817057500,2.6970576171875,1.9965368509292603,3.7883636951446533,1.1454910039901733
1789214480827088600,2.707088623046875,1.4534623622894287,5.177112102508545,0.8823627233505249
1789214480837120500,2.71712060546875,0.8649725317955017,5.736401557922363,0.875777542591095
1789214480847152400,2.72715234375,0.14151784777641296,5.570762634277344,1.0166159868240356
1789214480857183500,2.73718359375,-0.3407057821750641,4.593752861022949,0.9373341798782349
1789214480867215600,2.747215576171875,-0.25190213322639465,2.644813299179077,0.2746162414550781
1789214480877247500,2.75724755859375,-0.23168686032295227,0.6956914067268372,0.009469535201787949
1789214480887278600,2.767278564453125,-0.2541032135486603,-1.1349782943725586,0.9469083547592163
1789214480897310500,2.777310546875,-0.2502589523792267,-2.630894899368286,1.7255114316940308
1789214480907342300,2.78734228515625,-0.0015970156528055668,-3.7730565071105957,1.8478609323501587
1789214480917374700,2.797374755859375,0.4640505611896515,-2.5426504611968994,1.905903697013855
1789214480927405600,2.807405517578125,0.3045118749141693,0.08789243549108505,2.720564842224121
1789214480937437400,2.8174375,0.04509788379073143,-0.2066931277513504,2.125494956970215
1789214480947469600,2.827469482421875,1.329128623008728,-1.154585361480713,-0.4550617039203644
1789214480957500400,2.83750048828125,1.2811906337738037,-0.9609513878822327,-0.13015154004096985
1789214480967532500,2.847532470703125,0.5095891952514648,-2.176222085952759,0.6877379417419434
1789214480977564700,2.857564697265625,0.0027547338977456093,-3.2742385864257812,1.232012152671814
1789214480987595500,2.867595458984375,0.12309319525957108,-3.041788101196289,1.2667803764343262
1789214480997627400,2.87762744140625,0.3617531955242157,-2.327592611312866,1.2337816953659058
1789214481007659500,2.887659423828125,0.4875929355621338,-2.612699270248413,0.8511000275611877
1789214481017690400,2.8976904296875,0.4655193090438843,-2.084641933441162,1.1844249963760376
1789214481027722500,2.907722412109375,0.36625438928604126,-1.1984065771102905,1.3370338678359985
1789214481037754600,2.917754638671875,0.349424809217453,0.24716472625732422,1.663221001625061
1789214481047786500,2.927786376953125,0.6555899977684021,0.5069643259048462,1.4956655502319336
1789214481057817300,2.9378173828125,0.13802433013916016,0.7289683222770691,2.3460941314697266
1789214481067849700,2.947849609375,-0.41897517442703247,0.2732774317264557,3.218488931655884
1789214481077881600,2.957881591796875,-0.6545863747596741,0.3126080632209778,4.306982040405273
1789214481087912400,2.967912353515625,0.6082121729850769,-0.9213406443595886,1.078904151916504
1789214481097944600,2.977944580078125,1.272748589515686,0.020357947796583176,0.3517584204673767
1789214481107976400,2.9879765625,1.1401991844177246,-0.8995375633239746,0.60202956199646
1789214481118007300,2.99800732421875,0.5172685384750366,-1.9838757514953613,1.2314224243164062
1789214481128039700,3.008039794921875,0.41867485642433167,-2.1372275352478027,1.2922545671463013
1789214481138071600,3.018071533203125,0.763357400894165,-1.366389513015747,1.040332317352295
1789214481148103400,3.028103515625,0.9444561004638672,-0.7026634812355042,0.7130637168884277
1789214481158134500,3.038134521484375,1.0080779790878296,-0.4216949939727783,0.4727555215358734
1789214481168166700,3.048166748046875,0.9742546677589417,-0.5748080015182495,0.2867666482925415
1789214481178198500,3.058198486328125,0.9044221043586731,-0.8027439713478088,0.012523365207016468
1789214481188229600,3.068229736328125,0.9277569651603699,-0.9541253447532654,-0.4769422709941864
1789214481198261500,3.078261474609375,1.0072699785232544,-1.061381459236145,-1.1786394119262695
1789214481208293400,3.08829345703125,0.8095773458480835,-1.0773032903671265,-1.512587070465088
1789214481218324500,3.098324462890625,0.3560647666454315,-1.1597470045089722,-1.3230153322219849
1789214481228356600,3.108356689453125,0.11697514355182648,-1.418641209602356,-1.1838340759277344
1789214481238388500,3.118388427734375,-0.014581289142370224,-1.1784794330596924,-1.4343507289886475
1789214481248420400,3.12842041015625,-0.298379510641098,-0.882609486579895,-1.569288969039917
1789214481258451500,3.138451416015625,-0.4372231662273407,-0.7192530632019043,-1.6703723669052124
1789214481268483300,3.1484833984375,-0.4302036762237549,-0.4826182425022125,-1.9354653358459473
1789214481278515500,3.158515380859375,-0.3564026951789856,-0.3460486829280853,-2.119668483734131
1789214481288546600,3.168546630859375,-0.4805196523666382,-0.33483725786209106,-1.8632997274398804
1789214481298578400,3.178578369140625,-0.393416166305542,-0.5292847752571106,-1.7318530082702637
1789214481308610600,3.188610595703125,-0.37206119298934937,-0.42244192957878113,-1.8672910928726196
1789214481318641400,3.198641357421875,-0.2789059579372406,-0.21327723562717438,-1.7970341444015503
1789214481328673500,3.208673583984375,-0.16924850642681122,-0.12491054832935333,-1.5383156538009644
1789214481338705700,3.21870556640625,0.08235923200845718,0.1900780349969864,-1.1171680688858032
1789214481348737500,3.228737548828125,0.23247894644737244,0.5768651366233826,-0.83363276720047
1789214481358768400,3.238768310546875,0.8357789516448975,1.22537100315094,-0.6917001605033875
1789214481368800500,3.248800537109375,1.6695197820663452,1.8946962356567383,-0.6180875301361084
1789214481378832600,3.25883251953125,2.430122137069702,2.092000722885132,-0.5038541555404663
1789214481388863500,3.268863525390625,2.976834535598755,1.6934638023376465,-0.2426050752401352
1789214481398894800,3.278894775390625,3.2275614738464355,1.0518276691436768,0.13469961285591125
1789214481408926700,3.2889267578125,3.5061769485473633,0.6690360307693481,0.17873507738113403
1789214481418958800,3.298958740234375,4.0735859870910645,0.9813004732131958,0.23191680014133453
1789214481428990000,3.308989990234375,3.679797887802124,1.400957465171814,0.017614085227251053
1789214481439021800,3.319021728515625,0.9430610537528992,1.478960633277893,0.22095495462417603
1789214481449053700,3.3290537109375,-0.7586713433265686,1.6730804443359375,0.3145574927330017
1789214481459085800,3.3390859375,-0.25261691212654114,2.059039354324341,0.3688809275627136
1789214481469117000,3.349116943359375,0.034916896373033524,1.9651330709457397,0.6288684010505676
1789214481479148800,3.359148681640625,0.13119149208068848,1.1333889961242676,0.4540553092956543
1789214481489181000,3.369180908203125,0.016499537974596024,-0.10576548427343369,0.20207394659519196
1789214481499211800,3.379211669921875,-0.3839024603366852,-1.3949000835418701,-0.19356685876846313
1789214481509243600,3.38924365234375,-0.5647475719451904,-1.982749342918396,-0.45439785718917847
1789214481519275800,3.39927587890625,-0.6187037825584412,-2.1333112716674805,-0.5657094717025757
1789214481529308000,3.409307861328125,-0.6561378240585327,-2.107537269592285,-0.7438067197799683
1789214481539338800,3.4193388671875,-0.610529363155365,-1.8916019201278687,-0.9059846997261047
1789214481549371000,3.429370849609375,-0.5486628413200378,-1.8769757747650146,-1.1162266731262207
1789214481559402800,3.43940283203125,-0.6027319431304932,-2.1944899559020996,-1.2901002168655396
1789214481569433900,3.449433837890625,-0.737473726272583,-2.6107780933380127,-1.4292773008346558
1789214481579466000,3.459466064453125,-0.8526202440261841,-2.9725427627563477,-1.4889390468597412
1789214481589497900,3.469497802734375,-0.7087615728378296,-2.777188777923584,-1.4315322637557983
1789214481599529700,3.47952978515625,-0.7044491171836853,-2.3064944744110107,-1.6119030714035034
1789214481609560800,3.489560791015625,-0.5074495077133179,-1.3128066062927246,-1.8484002351760864
1789214481619593000,3.499593017578125,-0.02871999330818653,-0.18859504163265228,-2.071597099304199
1789214481629624800,3.509624755859375,0.800061821937561,0.7617502212524414,-1.999222755432129
1789214481639656000,3.519656005859375,1.0413695573806763,0.17228825390338898,-1.99076509475708
1789214481649687800,3.529687744140625,0.5623398423194885,-0.36099773645401,-1.8428202867507935
1789214481659719700,3.5397197265625,0.28103360533714294,-0.43480750918388367,-1.5583847761154175
1789214481669751800,3.549751708984375,0.11871764063835144,0.06096029281616211,-1.51387619972229
1789214481679783000,3.559782958984375,0.22639670968055725,0.11464029550552368,-1.4818023443222046
1789214481689814800,3.569814697265625,0.13408376276493073,0.5461913347244263,-1.1757919788360596
1789214481699846700,3.5798466796875,0.2023158073425293,0.7508262395858765,-1.1628119945526123
1789214481709879000,3.589879150390625,-0.33317872881889343,1.1177349090576172,-1.1160041093826294
1789214481719910000,3.599909912109375,-1.4375176429748535,0.8468576669692993,-0.8159177303314209
1789214481729941800,3.609941650390625,-1.9121841192245483,0.19352290034294128,-0.5679541826248169
1789214481739974000,3.619973876953125,-2.521826982498169,-0.6430537700653076,-0.28922131657600403
1789214481750004700,3.630004638671875,-2.750058174133301,-1.664469599723816,0.29084935784339905
1789214481760036600,3.64003662109375,-2.1292755603790283,-2.8747363090515137,1.0696450471878052
1789214481770069000,3.650069091796875,-0.8923159241676331,-3.5657787322998047,1.8289623260498047
1789214481780100900,3.660100830078125,0.05826377868652344,-3.3502306938171387,2.531423807144165
1789214481790131700,3.670131591796875,0.6069352626800537,-1.1222254037857056,2.430511951446533
1789214481800163800,3.680163818359375,1.0615320205688477,1.8772790431976318,2.3565731048583984
1789214481810196000,3.690196044921875,1.836295247077942,3.7013156414031982,2.2445099353790283
1789214481820226800,3.700226806640625,2.0899593830108643,4.047863960266113,2.1189253330230713
1789214481830259000,3.710259033203125,1.7201812267303467,2.9932634830474854,1.7475682497024536
1789214481840290800,3.720290771484375,1.233747124671936,1.4691411256790161,1.4214529991149902
1789214481850322700,3.73032275390625,0.7399998903274536,0.7418394088745117,1.0235759019851685
1789214481860353800,3.740353759765625,0.11428616940975189,0.7517223954200745,0.3972773849964142
1789214481870386000,3.750385986328125,-0.5829760432243347,1.1983908414840698,-0.13059766590595245
1789214481880417800,3.760417724609375,-0.8527044653892517,1.3088220357894897,-0.5052860379219055
1789214481890449700,3.77044970703125,-0.39427098631858826,0.969334602355957,-0.798290491104126
1789214481900480800,3.780480712890625,0.17597997188568115,0.44956517219543457,-1.2478619813919067
1789214481910513000,3.790512939453125,0.520559549331665,0.1697567254304886,-1.6212323904037476
1789214481920544800,3.800544677734375,0.6338850259780884,0.03834383189678192,-1.8080024719238281
1789214481930577000,3.810576904296875,0.6143590807914734,0.2543031573295593,-1.9422643184661865
1789214481940607700,3.820607666015625,0.18464450538158417,0.6979101896286011,-2.0682194232940674
1789214481950639600,3.8306396484375,-0.33414196968078613,0.712090253829956,-1.8774445056915283
1789214481960672000,3.840672119140625,-0.6847804188728333,0.5530174970626831,-1.6630994081497192
1789214481970702800,3.850702880859375,-1.8933029174804688,0.7158686518669128,-1.8062440156936646
1789214481980734700,3.860734619140625,-2.7122116088867188,0.3433254063129425,-1.3789280652999878
1789214481990766800,3.870766845703125,-2.949119806289673,-0.17426501214504242,-0.5002554059028625
1789214482000798700,3.880798828125,-2.859818696975708,-1.2566351890563965,-0.5401671528816223
1789214482010829800,3.890829833984375,-2.4751486778259277,-1.9903284311294556,-0.30273398756980896
1789214482020862000,3.900862060546875,-2.3665895462036133,-2.944613218307495,0.05480894446372986
1789214482030893800,3.910893798828125,-2.381018877029419,-4.043936729431152,0.534286618232727
1789214482040925700,3.92092578125,-2.317798376083374,-5.68316650390625,1.309938907623291
1789214482050956800,3.930956787109375,-2.245907783508301,-7.275782108306885,2.211137056350708
1789214482060989000,3.940989013671875,-1.7814089059829712,-6.9707255363464355,2.5243940353393555
1789214482071020800,3.951020751953125,-0.6817983984947205,-4.086087226867676,2.0408194065093994
1789214482081052700,3.961052734375,0.39407315850257874,-1.2337355613708496,1.3112514019012451
1789214482091083800,3.971083740234375,1.4566688537597656,0.6714324951171875,0.6126618385314941
1789214482101115600,3.98111572265625,1.9598617553710938,1.9019070863723755,0.1150188073515892
1789214482111147800,3.991147705078125,1.4959739446640015,2.7782936096191406,0.08893731236457825
1789214482121179000,4.001178955078125,0.02948334813117981,0.9777979254722595,-0.2457495927810669
1789214482131210800,4.011210693359375,-0.5637019872665405,-0.9865737557411194,-0.99721360206604
1789214482141242600,4.02124267578125,-0.6672001481056213,-1.532564640045166,-1.8230059146881104
1789214482151275000,4.03127490234375,-0.8698614239692688,-1.149949312210083,-2.8585002422332764
1789214482161305900,4.041305908203125,-1.5646780729293823,0.021899312734603882,-3.58921217918396
1789214482171337700,4.051337646484375,-1.3627476692199707,1.360599398612976,-1.8484269380569458
1789214482181369900,4.061369873046875,0.5169733762741089,-0.30953946709632874,0.02773851342499256
1789214482191400700,4.071400634765625,1.532771348953247,0.19525887072086334,-0.47651407122612
1789214482201432800,4.081432861328125,0.9092763066291809,0.94088214635849,-0.28061461448669434
1789214482211465000,4.09146484375,0.5451686978340149,1.3582431077957153,-0.07070060819387436
1789214482221496800,4.101496826171875,0.41170647740364075,1.500022053718567,-0.05826098471879959
1789214482231527700,4.111527587890625,0.3418892025947571,1.5206201076507568,-0.06381996721029282
1789214482241559800,4.121559814453125,0.21648414433002472,1.7078171968460083,0.01588844321668148
1789214482251592000,4.131592041015625,-0.044876765459775925,2.1079230308532715,0.14467383921146393
1789214482261623800,4.141623779296875,-0.35955774784088135,2.453681707382202,0.1724226474761963
1789214482271655000,4.151655029296875,-0.30233514308929443,2.472775459289551,0.3577474355697632
1789214482281686800,4.161686767578125,0.06325453519821167,2.1723992824554443,0.6418896913528442
1789214482291718700,4.17171875,0.3504844307899475,1.969748616218567,0.8762682676315308
1789214482301749800,4.181749755859375,0.4178919494152069,1.0138282775878906,0.9909722208976746
1789214482311782000,4.191781982421875,0.4711141288280487,0.459173321723938,1.0629442930221558
1789214482321813800,4.201813720703125,0.5668904185295105,0.3908741772174835,1.0616511106491089
1789214482331846000,4.211845947265625,0.6287357807159424,0.5670051574707031,0.9274490475654602
1789214482341876700,4.221876708984375,0.5633090734481812,0.8003292679786682,0.6622480154037476
1789214482351908900,4.231908935546875,-0.11385445296764374,-0.22272883355617523,-0.04510633274912834
1789214482361940700,4.241940673828125,-0.32359251379966736,-1.054534673690796,-0.4090893566608429
1789214482371972900,4.251972900390625,-0.27132076025009155,-1.9108320474624634,-0.6923068165779114
1789214482382003700,4.262003662109375,-0.1857408732175827,-2.792135000228882,-0.8949453830718994
1789214482392035800,4.272035888671875,-0.131497323513031,-3.233484983444214,-1.1875206232070923
1789214482402068200,4.282068115234375,-0.0697505995631218,-2.229402780532837,-1.2128372192382812
1789214482412099000,4.29209912109375,-0.056206509470939636,1.0279648303985596,-0.24855279922485352
1789214482422131000,4.302130859375,-0.1567610651254654,3.20257568359375,0.03666216507554054
1789214482432163000,4.3121630859375,-0.2069026380777359,3.626549243927002,-0.011105240322649479
1789214482442195000,4.32219482421875,-0.30515411496162415,3.0971837043762207,-0.4453277885913849
1789214482452226000,4.33222607421875,-0.3936310410499573,2.1236348152160645,-0.7695741057395935
1789214482462258200,4.342258056640625,-0.3735835552215576,1.8485404253005981,-0.6307691335678101
1789214482472290000,4.3522900390625,-0.24201972782611847,1.5839465856552124,-0.19345971941947937
1789214482482322000,4.362322021484375,-0.012690933421254158,0.8731984496116638,0.15168967843055725
1789214482492353000,4.37235302734375,0.21790200471878052,0.08341316133737564,0.24177591502666473
1789214482502385000,4.382385009765625,0.25923508405685425,0.2629661560058594,0.21276450157165527
1789214482512417000,4.3924169921875,0.22550274431705475,0.4310034513473511,0.21595588326454163
1789214482522448100,4.4024482421875,0.18778839707374573,0.41533660888671875,0.17425264418125153
1789214482532480000,4.41247998046875,0.1747693419456482,0.4037650227546692,0.08799827098846436
1789214482542511900,4.422511962890625,0.2205522656440735,0.22739210724830627,0.04308245703577995
1789214482552544000,4.4325439453125,0.39553964138031006,-0.056364744901657104,0.11151738464832306
1789214482562575000,4.4425751953125,0.6014541387557983,-0.37441861629486084,0.20961226522922516
1789214482572607000,4.45260693359375,0.5099048614501953,-0.5930289030075073,-0.3146693706512451
1789214482582639000,4.46263916015625,0.07596541196107864,0.12223009765148163,-0.3320763111114502
1789214482592671000,4.4726708984375,-0.3167059123516083,0.42549070715904236,0.14013168215751648
1789214482602701800,4.482701904296875,-0.36859816312789917,0.0848764032125473,0.7609478235244751
1789214482612734000,4.49273388671875,-0.21238289773464203,-0.21841807663440704,1.1675331592559814
1789214482622766000,4.50276611328125,0.11097679287195206,-0.2860091030597687,1.3955793380737305
1789214482632798000,4.5127978515625,0.5327917337417603,0.36593228578567505,1.3905045986175537
1789214482642829000,4.5228291015625,1.3870253562927246,1.2287664413452148,0.8968557119369507
1789214482652861200,4.532861083984375,2.152127981185913,1.4877115488052368,0.3930016756057739
1789214482662893000,4.54289306640625,2.4437756538391113,1.1456072330474854,-0.02831866592168808
1789214482672924200,4.552924072265625,2.3705244064331055,0.4123430848121643,-0.15599991381168365
1789214482682956000,4.5629560546875,2.0402393341064453,-0.14161145687103271,0.2849356532096863
1789214482692988000,4.57298779296875,1.6445300579071045,-0.20629280805587769,0.7017431855201721
1789214482703020000,4.58302001953125,1.4936554431915283,-0.05450567230582237,0.8357182741165161
1789214482713051100,4.593051025390625,1.3520201444625854,-0.24717417359352112,0.9273029565811157
1789214482723083000,4.6030830078125,1.2014130353927612,-0.305570125579834,0.20124667882919312
1789214482733115000,4.613114990234375,1.0634245872497559,0.01806058920919895,-0.6283142566680908
1789214482743147000,4.62314697265625,1.220776081085205,0.2842102348804474,-0.49084317684173584
1789214482753178000,4.63317822265625,1.723300814628601,0.6812667846679688,-0.0013324852334335446
1789214482763210000,4.6432099609375,2.1614880561828613,0.42246854305267334,-0.961810290813446
1789214482773242000,4.6532421875,2.171189785003662,-0.2609742283821106,-1.014504075050354
1789214482783274000,4.66327392578125,2.660479784011841,-0.23741832375526428,-1.239400029182434
1789214482793304800,4.673304931640625,2.883347511291504,0.31130385398864746,-1.1787821054458618
1789214482803337200,4.683337158203125,2.608366012573242,-0.34774142503738403,-0.9688009023666382
1789214482813369000,4.693369140625,1.9328540563583374,-1.6836061477661133,-1.091310739517212
1789214482823400000,4.70339990234375,0.7566947937011719,-1.6705411672592163,-1.1435075998306274
1789214482833432000,4.71343212890625,-0.06175141781568527,-1.3070801496505737,-0.8829289674758911
1789214482843464200,4.723464111328125,-0.23918001353740692,-0.6669936180114746,-0.45335254073143005
1789214482853496000,4.73349609375,-0.07796871662139893,-0.3185186982154846,-0.18690848350524902
1789214482863527200,4.743527099609375,0.033767931163311005,-0.42812907695770264,-0.14162568747997284
1789214482873559000,4.75355908203125,0.044742852449417114,-0.6230599880218506,-0.1690540462732315
1789214482883591000,4.7635908203125,-0.017429709434509277,-0.6433256268501282,-0.1900770366191864
1789214482893623000,4.773623046875,-0.05162225291132927,-0.6624452471733093,-0.18957450985908508
1789214482903654100,4.783654052734375,-0.027570180594921112,-0.623468279838562,0.008562006056308746
1789214482913686000,4.79368603515625,-0.07668192684650421,-0.378657728433609,0.09137721359729767
1789214482923718000,4.8037177734375,-0.18156413733959198,-0.5017082691192627,-0.04725683480501175
1789214482933750000,4.81375,-0.32987430691719055,-0.5848822593688965,-0.30930033326148987
1789214482943781000,4.823781005859375,-0.3805702328681946,-0.22315387427806854,-0.6399408578872681
1789214482953813000,4.83381298828125,-0.36247482895851135,0.7675521969795227,-0.8723409175872803
1789214482963845000,4.84384521484375,-0.041703205555677414,1.1726144552230835,-1.173388123512268
1789214482973877000,4.853876953125,0.2156890630722046,1.4140125513076782,-1.5217804908752441
1789214482983907800,4.863907958984375,0.3232554495334625,1.568548321723938,-1.76486074924469
1789214482993940200,4.873940185546875,0.26619860529899597,0.93662428855896,-1.4015854597091675
1789214483003972000,4.88397216796875,0.28191444277763367,0.4609360694885254,-1.0728517770767212
1789214483014004000,4.89400390625,0.3794969320297241,0.4197036623954773,-1.0143972635269165
1789214483024035000,4.90403515625,0.5560895204544067,0.5618032813072205,-1.1199623346328735
1789214483034067000,4.91406689453125,0.9544885754585266,0.3758399486541748,-1.1949865818023682
1789214483044099000,4.92409912109375,1.5314182043075562,0.6700172424316406,-1.2680869102478027
1789214483054131000,4.934130859375,1.4124703407287598,1.5570729970932007,-1.266717791557312
1789214483064162000,4.944162109375,0.4297167658805847,1.3180537223815918,-1.4436230659484863
1789214483074194000,4.95419384765625,-0.12425559759140015,0.8105713725090027,-1.4454973936080933
1789214483084226000,4.96422607421875,-0.3253471851348877,0.7178425192832947,-1.087104082107544
1789214483094258200,4.974258056640625,-0.3573594391345978,0.71534264087677,-1.0804842710494995
1789214483104289000,4.9842890625,-0.15719947218894958,0.6491439342498779,-1.1231236457824707
1789214483114321000,4.99432080078125,0.09083080291748047,0.244466170668602,-1.2307051420211792
1789214483124353000,5.00435302734375,0.2802489399909973,-0.3198038637638092,-1.6093751192092896
1789214483134385200,5.01438525390625,0.17514073848724365,-0.3620663583278656,-2.074462890625
1789214483144416000,5.024416015625,-0.040925778448581696,0.2931695282459259,-1.911386251449585
1789214483154448100,5.0344482421875,-0.3353026211261749,0.7565861344337463,-1.595106840133667
1789214483164480000,5.04447998046875,-0.5655984282493591,0.8913519382476807,-1.285915732383728
1789214483174511900,5.054511962890625,-0.7396942973136902,0.932915210723877,-1.1816126108169556
1789214483184543200,5.064543212890625,-0.9098998308181763,0.9178177714347839,-1.2989856004714966
1789214483194575000,5.0745751953125,-1.0651209354400635,0.7875629663467407,-1.5729644298553467
1789214483204607000,5.08460693359375,-1.0080342292785645,0.4536750018596649,-1.8624900579452515
1789214483214638800,5.094638916015625,-0.8384775519371033,-0.09806352108716965,-1.994673252105713
1789214483224670000,5.104669921875,-0.6843085289001465,-0.599958598613739,-2.030402421951294
1789214483234702000,5.1147021484375,-0.6497160792350769,-0.5748497843742371,-2.0431668758392334
1789214483244734000,5.12473388671875,-0.6296504735946655,-0.37099093198776245,-2.236051559448242
1789214483254766000,5.13476611328125,-0.5914202332496643,-0.13114787638187408,-2.3817787170410156
1789214483264797000,5.144796875,-0.5936828255653381,-0.17744693160057068,-2.3513941764831543
1789214483274828800,5.154828857421875,-0.6314052939414978,-0.25627315044403076,-2.1658473014831543
1789214483284861200,5.164861083984375,-0.6916923522949219,-0.08643113076686859,-2.0025579929351807
1789214483294893000,5.17489306640625,-0.7400608658790588,0.18096664547920227,-1.9208621978759766
1789214483304924000,5.184923828125,-0.9121577739715576,0.4244157671928406,-1.8629533052444458
1789214483314956000,5.1949560546875,-1.143423318862915,0.3824150562286377,-1.9682540893554688
1789214483324988200,5.20498828125,-1.3080662488937378,0.36530399322509766,-2.059934139251709
1789214483335020000,5.21502001953125,-1.3916947841644287,0.22403675317764282,-1.935618281364441
1789214483345051100,5.225051025390625,-1.2962934970855713,0.015223094262182713,-1.5604617595672607
1789214483355083000,5.2350830078125,-0.890436053276062,-0.36272045969963074,-1.042936086654663
1789214483365115000,5.245114990234375,-0.6467030048370361,-0.2427208125591278,-0.7133887410163879
1789214483375147000,5.25514697265625,-0.6868830323219299,0.19662976264953613,-0.6072413325309753
1789214483385178000,5.26517822265625,-0.709973156452179,0.3807298243045807,-0.49970686435699463
1789214483395210000,5.2752099609375,-0.6718687415122986,0.1954343616962433,-0.23681122064590454
1789214483405241600,5.28524169921875,-0.6813437342643738,0.3171437680721283,-0.04678162932395935
1789214483415274000,5.29527392578125,-0.5720931887626648,0.4159517288208008,0.07565328478813171
1789214483425304800,5.305304931640625,-0.4616801142692566,0.20394839346408844,0.13303294777870178
1789214483435336700,5.315336669921875,-0.3444826900959015,0.0673007145524025,0.28841719031333923
1789214483445368800,5.325368896484375,-0.14581941068172455,0.12227874994277954,0.3951002061367035
1789214483455400700,5.335400634765625,0.05861036852002144,0.07955065369606018,0.5167921781539917
1789214483465431800,5.345431884765625,0.225764200091362,0.04067916050553322,0.734720766544342
1789214483475464000,5.3554638671875,0.3507637083530426,-0.002513403072953224,0.9527345299720764
1789214483485495800,5.365495849609375,0.4003163278102875,-0.09133754670619965,1.2370115518569946
1789214483495527700,5.375527587890625,0.5968222618103027,0.050714828073978424,1.3639503717422485
1789214483505558800,5.385558837890625,0.7879807353019714,0.033942773938179016,1.4918901920318604
1789214483515591000,5.3955908203125,0.9984389543533325,-0.04079494625329971,1.5759756565093994
1789214483525622800,5.405622802734375,1.1934022903442383,-0.22365690767765045,1.6345289945602417
1789214483535654700,5.415654541015625,1.2587131261825562,-0.43579167127609253,1.7247555255889893
1789214483545686800,5.425686767578125,1.356755256652832,-0.394546240568161,1.742787480354309
1789214483555717600,5.435717529296875,1.4997303485870361,-0.1441832333803177,1.7596104145050049
1789214483565749800,5.445749755859375,1.5787897109985352,-0.002850615419447422,1.8403159379959106
1789214483575782000,5.455781982421875,1.6045657396316528,0.08319283276796341,1.9207193851470947
1789214483585813800,5.465813720703125,1.6333537101745605,0.11987308412790298,1.9203928709030151
1789214483595844900,5.475844970703125,1.609869360923767,0.0003442121669650078,1.968696117401123
1789214483605877000,5.485876953125,1.567000150680542,-0.10578488558530807,2.0082180500030518
1789214483615908900,5.495908935546875,1.6156108379364014,-0.18321655690670013,1.9306648969650269
1789214483625940700,5.505940673828125,1.695199966430664,-0.28258389234542847,1.7318029403686523
1789214483635971800,5.515971923828125,1.7011358737945557,-0.48828914761543274,1.5792425870895386
1789214483646003700,5.526003662109375,1.6707193851470947,-0.5856620073318481,1.4287796020507812
1789214483656035800,5.536035888671875,1.6570388078689575,-0.7397965788841248,1.3174853324890137
1789214483666067700,5.546067626953125,1.6312434673309326,-1.0266036987304688,1.223244071006775
1789214483676098800,5.556098876953125,1.6069068908691406,-1.3555426597595215,1.0901808738708496
1789214483686130700,5.566130615234375,1.5332832336425781,-1.7506119012832642,0.8871796727180481
1789214483696162800,5.576162841796875,1.430838942527771,-1.9704203605651855,0.6185858249664307
1789214483706195000,5.58619482421875,1.3140863180160522,-2.0339012145996094,0.5431398153305054
1789214483716225800,5.596225830078125,1.1803585290908813,-1.7564228773117065,0.5940213203430176
1789214483726258000,5.6062578125,1.038094162940979,-1.3111317157745361,0.6110572814941406
1789214483736289800,5.616289794921875,0.8816397786140442,-1.1767299175262451,0.5101666450500488
1789214483746322000,5.626322021484375,0.652560830116272,-1.2649420499801636,0.4598105549812317
1789214483756353000,5.63635302734375,0.5477572083473206,-1.1301794052124023,0.5799485445022583
1789214483766385000,5.646385009765625,0.46175387501716614,-0.9612349271774292,0.7298080921173096
1789214483776416800,5.656416748046875,0.3242141306400299,-0.670692503452301,0.7812771201133728
1789214483786448600,5.66644873046875,0.2092934250831604,-0.2531439960002899,0.7206832766532898
1789214483796480800,5.676480712890625,-0.016907522454857826,-0.06857192516326904,0.5824787616729736
1789214483806511900,5.686511962890625,-0.2797008156776428,-0.08984658867120743,0.4303848147392273
1789214483816543700,5.696543701171875,-0.498128205537796,-0.005105574615299702,0.3452881872653961
1789214483826576000,5.706575927734375,-0.47482073307037354,0.1622306853532791,0.2406398057937622
1789214483836607700,5.716607666015625,-0.3276745676994324,0.12811730802059174,-0.014184598810970783
1789214483846638800,5.726638916015625,-0.2702181935310364,-0.05476196110248566,-0.3379853069782257
1789214483856671000,5.7366708984375,-0.3186131715774536,-0.15920515358448029,-0.6452555656433105
1789214483866702800,5.746702880859375,-0.3711400330066681,-0.03928699344396591,-0.8729171752929688
1789214483876734700,5.756734619140625,-0.3520667552947998,0.21035608649253845,-1.0159878730773926
1789214483886765800,5.766765869140625,-0.2963894009590149,0.4667186439037323,-1.130952000617981
1789214483896798000,5.7767978515625,-0.2111290693283081,0.7186883091926575,-1.2619694471359253
1789214483906829800,5.786829833984375,-0.14077633619308472,0.8549862504005432,-1.4146087169647217
1789214483916861700,5.79686181640625,-0.1648990362882614,1.0352572202682495,-1.4587804079055786
1789214483926892800,5.806892822265625,-0.27889299392700195,1.1964954137802124,-1.414445161819458
1789214483936924700,5.816924560546875,-0.37689727544784546,1.0962404012680054,-1.3880946636199951
1789214483946956800,5.826956787109375,-0.4547020494937897,0.8844481110572815,-1.31382155418396
1789214483956989000,5.836989013671875,-0.4866589605808258,0.665472149848938,-1.2917555570602417
1789214483967019800,5.847019775390625,-0.4948367178440094,0.5292871594429016,-1.360255241394043
1789214483977051600,5.8570517578125,-0.4690394401550293,0.33551788330078125,-1.4868496656417847
1789214483987084000,5.867083984375,-0.4306659400463104,0.013577395118772984,-1.4650932550430298
1789214483997116000,5.877115966796875,-0.35985276103019714,-0.3155951499938965,-1.1666758060455322
1789214484007147800,5.887147705078125,-0.42454251646995544,-0.6669153571128845,-0.8613108396530151
1789214484017179000,5.897178955078125,-0.6515511274337769,-0.60321044921875,-0.6535150408744812
1789214484027210800,5.907210693359375,-0.9534788727760315,-0.03185834735631943,-0.5640709400177002
1789214484037243000,5.917242919921875,-1.3297078609466553,0.6844392418861389,-0.6828891634941101
1789214484047274800,5.927274658203125,-1.6499502658843994,1.0179038047790527,-1.035355806350708
1789214484057305900,5.937305908203125,-1.751105546951294,0.9381409883499146,-1.3057470321655273
1789214484067337700,5.947337646484375,-1.69467294216156,0.40643423795700073,-1.4264342784881592
1789214484077369900,5.957369873046875,-1.6107591390609741,-0.15866513550281525,-1.5195298194885254
1789214484087402000,5.967402099609375,-1.4886808395385742,-0.308693528175354,-1.5945934057235718
1789214484097432800,5.977432861328125,-1.4484606981277466,-0.0018511051312088966,-1.5442312955856323
1789214484107464700,5.987464599609375,-1.4783893823623657,0.1431843787431717,-1.4633291959762573
1789214484117496800,5.997496826171875,-1.5419870615005493,0.1864873468875885,-1.4081249237060547
1789214484127529000,6.007529052734375,-1.5650063753128052,0.3174983561038971,-1.400620937347412
1789214484137560800,6.017560791015625,-1.4834485054016113,0.3376694321632385,-1.4963473081588745
1789214484147592000,6.027592041015625,-1.2979847192764282,0.08621297776699066,-1.6702067852020264
1789214484157623800,6.037623779296875,-1.231471061706543,-0.3929077088832855,-1.8056809902191162
1789214484167655700,6.04765576171875,-1.4354898929595947,-0.41996461153030396,-1.5821565389633179
1789214484177687800,6.057687744140625,-1.7033941745758057,0.15520739555358887,-1.0575628280639648
1789214484187719000,6.067718994140625,-1.8235666751861572,0.682933509349823,-0.5689252018928528
1789214484197750800,6.077750732421875,-1.6105481386184692,0.829725444316864,-0.4609697759151459
1789214484207782700,6.08778271484375,-1.2432292699813843,0.18848368525505066,-0.44810056686401367
1789214484217815000,6.09781494140625,-1.1717407703399658,-0.10921882838010788,-0.26624858379364014
1789214484227847000,6.107846923828125,-1.178382396697998,-0.05168869346380234,0.1130065843462944
1789214484237877800,6.117877685546875,-1.1224783658981323,0.2381419539451599,0.3614376187324524
1789214484247910000,6.127909912109375,-0.9144009947776794,0.297903835773468,0.419337660074234
1789214484257941800,6.137941650390625,-0.6411733031272888,0.10549678653478622,0.5737101435661316
1789214484267974000,6.147973876953125,-0.34129470586776733,0.10666245222091675,0.8883383870124817
1789214484278005000,6.1580048828125,-0.0585305318236351,0.2811557948589325,1.1130508184432983
1789214484288036900,6.168036865234375,0.19812363386154175,0.43596747517585754,1.2547610998153687
1789214484298068700,6.17806884765625,0.3702412545681,0.4858121871948242,1.3631190061569214
1789214484308100600,6.1881005859375,0.5235186815261841,0.5700138807296753,1.51206636428833
1789214484318133000,6.198133056640625,0.8022642135620117,0.8237802982330322,1.555222749710083
1789214484328163800,6.208163818359375,1.0231693983078003,0.8557771444320679,1.4197468757629395
1789214484338195700,6.21819580078125,1.1406649351119995,0.6403321623802185,1.3878265619277954
1789214484348227800,6.228227783203125,1.2669321298599243,0.5544023513793945,1.4680012464523315
1789214484358260000,6.238260009765625,1.4253164529800415,0.6873165369033813,1.533279299736023
1789214484368290800,6.248290771484375,1.5432268381118774,0.7199783325195312,1.5023540258407593
1789214484378323000,6.258322998046875,1.6540226936340332,0.6967554092407227,1.4090118408203125
1789214484388354800,6.268354736328125,1.7768503427505493,0.5766769051551819,1.2865010499954224
1789214484398386700,6.27838671875,1.8094030618667603,0.21287769079208374,1.2976106405258179
1789214484408419600,6.288419677734375,1.8104065656661987,-0.15601246058940887,1.4557251930236816
1789214484418450700,6.29845068359375,1.8082612752914429,-0.37586164474487305,1.592850923538208
1789214484428482600,6.308482666015625,1.8512564897537231,-0.5882548689842224,1.6162971258163452
1789214484438514400,6.318514404296875,1.8742567300796509,-0.8029956817626953,1.430371880531311
1789214484448546300,6.32854638671875,1.840189814567566,-1.040235161781311,1.2241867780685425
1789214484458577700,6.33857763671875,1.759839415550232,-1.256032943725586,1.2222018241882324
1789214484468609500,6.348609619140625,1.675160527229309,-1.1765916347503662,1.2374303340911865
1789214484478641400,6.358641357421875,1.5421297550201416,-0.9543218016624451,1.257283329963684
1789214484488673500,6.368673583984375,1.461326003074646,-0.8345341682434082,1.283670425415039
1789214484498705700,6.37870556640625,1.453385591506958,-0.9679266810417175,1.2388663291931152
1789214484508736500,6.388736572265625,1.4933762550354004,-1.2107524871826172,1.0973728895187378
1789214484518768600,6.3987685546875,1.5263888835906982,-1.402949571609497,0.9078693985939026
1789214484528800500,6.408800537109375,1.499070644378662,-1.4198119640350342,0.8040599226951599
1789214484538832400,6.418832275390625,1.3874496221542358,-1.4526259899139404,0.8310939073562622
1789214484548863500,6.428863525390625,1.2109992504119873,-1.5568146705627441,0.8883859515190125
1789214484558895600,6.4388955078125,1.0080442428588867,-1.584371566772461,0.8902571201324463
1789214484568927500,6.448927490234375,0.8297027349472046,-1.3627525568008423,0.9256625175476074
1789214484578959400,6.45895947265625,0.6434465646743774,-0.9267334342002869,0.9307472705841064
1789214484588991500,6.468991455078125,0.46946436166763306,-0.5654274225234985,0.8417481780052185
1789214484599022600,6.479022705078125,0.2965265214443207,-0.45637908577919006,0.5852816104888916
1789214484609054500,6.489054443359375,0.10351072251796722,-0.507313072681427,0.31753164529800415
1789214484619086600,6.499086669921875,-0.1682811677455902,-0.4867066740989685,0.1826416403055191
1789214484629118500,6.509118408203125,-0.41852402687072754,-0.09969394654035568,0.23047387599945068
1789214484639149300,6.5191494140625,-0.501640260219574,0.22584977746009827,0.22190988063812256
1789214484649181700,6.529181640625,-0.5213793516159058,0.40948405861854553,0.040984831750392914
1789214484659213600,6.539213623046875,-0.5379300713539124,0.48025238513946533,-0.2300417572259903
1789214484669245400,6.549245361328125,-0.49579402804374695,0.37971246242523193,-0.5618178844451904
1789214484679277300,6.55927734375,-0.43768632411956787,0.3602163791656494,-0.8248929381370544
1789214484689308400,6.569308349609375,-0.3902761936187744,0.3437705636024475,-0.9686093926429749
1789214484699340500,6.579340576171875,-0.42478248476982117,0.3698783218860626,-0.9638206958770752
1789214484709372400,6.589372314453125,-0.5288995504379272,0.5045940279960632,-0.8400073647499084
1789214484719404500,6.599404541015625,-0.6250599026679993,0.582338809967041,-0.6921511292457581
1789214484729436700,6.609436767578125,-0.7093263268470764,0.5832067131996155,-0.6325152516365051
1789214484739467500,6.619467529296875,-0.7799962759017944,0.532059371471405,-0.684981644153595
1789214484749499600,6.629499755859375,-0.7804194688796997,0.45555126667022705,-0.7245386838912964
1789214484759531500,6.639531494140625,-0.7064306139945984,0.33239448070526123,-0.7571141719818115
1789214484769563400,6.6495634765625,-0.5797616243362427,0.3313838243484497,-0.7919557690620422
1789214484779594500,6.659594482421875,-0.4399462342262268,0.37773212790489197,-0.8601619601249695
1789214484789626600,6.669626708984375,-0.3937568962574005,0.4568503797054291,-0.982515811920166
1789214484799658500,6.679658447265625,-0.44673168659210205,0.5043530464172363,-1.1915664672851562
1789214484809690400,6.6896904296875,-0.5415545701980591,0.4548259675502777,-1.437118411064148
1789214484819722500,6.699722412109375,-0.6336012482643127,0.285905659198761,-1.5562821626663208
1789214484829753600,6.709753662109375,-0.736610472202301,0.124602772295475,-1.430302381515503
1789214484839785500,6.719785400390625,-0.852564811706543,0.11737042665481567,-1.1923127174377441
1789214484849817600,6.729817626953125,-1.0248236656188965,0.22157539427280426,-0.9120123982429504
1789214484859849500,6.739849365234375,-1.2773408889770508,0.462251752614975,-0.6880006194114685
1789214484869880300,6.74988037109375,-1.5582550764083862,0.6974791884422302,-0.7534917593002319
1789214484879912700,6.75991259765625,-1.699724555015564,0.7450067400932312,-1.0650838613510132
1789214484889944600,6.769944580078125,-1.6515759229660034,0.5914283990859985,-1.398482322692871
1789214484899976400,6.7799765625,-1.5376688241958618,0.2513444721698761,-1.6312021017074585
1789214484910008300,6.79000830078125,-1.5133795738220215,-0.04717165231704712,-1.6911394596099854
1789214484920039400,6.800039306640625,-1.4219143390655518,-0.2143983244895935,-1.6847121715545654
1789214484930071600,6.810071533203125,-1.3315761089324951,-0.2101130336523056,-1.7023484706878662
1789214484940103400,6.820103515625,-1.2873482704162598,-0.11764515936374664,-1.6700552701950073
1789214484950135600,6.830135498046875,-1.234145998954773,-0.024333052337169647,-1.5710575580596924
1789214484960167400,6.84016748046875,-1.1575883626937866,0.16260674595832825,-1.4357233047485352
1789214484970198500,6.850198486328125,-1.1339970827102661,0.3844696283340454,-1.27980375289917
1789214484980230700,6.860230712890625,-1.311785340309143,0.5020002722740173,-0.9922669529914856
1789214484990262500,6.870262451171875,-1.5692524909973145,0.6541061997413635,-0.6439316272735596
1789214485000294400,6.88029443359375,-1.5175420045852661,0.6016960740089417,-0.4426511228084564
1789214485010326500,6.890326416015625,-1.1844385862350464,0.2001366913318634,-0.540981113910675
1789214485020357600,6.900357666015625,-0.9623664617538452,-0.4136376678943634,-0.5151075124740601
1789214485030389500,6.910389404296875,-0.9545636177062988,-0.48180660605430603,-0.22184020280838013
1789214485040421400,6.92042138671875,-0.9931999444961548,-0.027975844219326973,-0.13584297895431519
1789214485050453500,6.93045361328125,-0.8057762980461121,0.18811412155628204,-0.0521366223692894
1789214485060485600,6.940485595703125,-0.6205272674560547,0.2168717086315155,0.19334150850772858
1789214485070516500,6.9505166015625,-0.5095341801643372,0.2677905559539795,0.4780525863170624
1789214485080548600,6.960548583984375,-0.317139208316803,0.419392853975296,0.7688788771629333
1789214485090580500,6.97058056640625,-0.14549846947193146,0.4402291774749756,0.8577011227607727
1789214485100612400,6.9806123046875,-0.046561915427446365,0.2965121269226074,1.0070042610168457
1789214485110643700,6.990643798828125,0.16186238825321198,0.4890594780445099,1.1253743171691895
1789214485120675600,7.000675537109375,0.5030118823051453,0.6217564940452576,1.157678484916687
1789214485130707500,7.01070751953125,0.9013313055038452,0.568236768245697,1.2022185325622559
1789214485140739300,7.0207392578125,1.225013017654419,0.46010148525238037,1.2236772775650024
1789214485150771700,7.030771728515625,1.3856117725372314,0.4373290538787842,1.247924566268921
1789214485160802600,7.040802490234375,1.439316987991333,0.5199766159057617,1.2422312498092651
1789214485170834400,7.05083447265625,1.4791706800460815,0.580927312374115,1.2672553062438965
1789214485180866600,7.060866455078125,1.6449830532073975,0.715076744556427,1.2476346492767334
1789214485190898400,7.0708984375,1.8520557880401611,0.5118064284324646,1.2610145807266235
1789214485200930600,7.0809306640625,1.9960672855377197,0.08410689979791641,1.3614811897277832
1789214485210961700,7.090961669921875,2.1356163024902344,-0.020526837557554245,1.369274377822876
1789214485220993500,7.10099365234375,2.214280366897583,-0.0691884458065033,1.3631134033203125
1789214485231025400,7.111025390625,2.1571898460388184,-0.2604273855686188,1.4194523096084595
1789214485241057500,7.1210576171875,2.0194408893585205,-0.4598722755908966,1.4440338611602783
1789214485251089700,7.131089599609375,1.8838778734207153,-0.6507666110992432,1.4811612367630005
1789214485261120500,7.14112060546875,1.875333547592163,-0.7413231730461121,1.3634493350982666
1789214485271152400,7.15115234375,1.9064738750457764,-0.919611930847168,1.2320399284362793
1789214485281184500,7.1611845703125,1.871040940284729,-1.1205415725708008,1.169615387916565
1789214485291216600,7.171216552734375,1.7876064777374268,-1.3165010213851929,1.1147444248199463
1789214485301248500,7.18124853515625,1.6534998416900635,-1.5002832412719727,1.0765085220336914
1789214485311279600,7.191279541015625,1.5327789783477783,-1.5363256931304932,1.136682152748108
1789214485321311500,7.2013115234375,1.4191248416900635,-1.3986554145812988,1.2104532718658447
1789214485331343400,7.21134326171875,1.2780561447143555,-1.1988070011138916,1.2080607414245605
1789214485341375500,7.22137548828125,1.1130350828170776,-1.0911310911178589,1.1980122327804565
1789214485351407600,7.23140771484375,0.946956217288971,-1.0811223983764648,1.183852195739746
1789214485361438500,7.2414384765625,0.7512277960777283,-0.8825684189796448,1.2664958238601685
1789214485371470300,7.25147021484375,0.4678115248680115,-0.514487087726593,1.3570187091827393
1789214485381502700,7.261502685546875,0.26775163412094116,-0.39723098278045654,1.289231538772583
1789214485391534600,7.27153466796875,0.14893361926078796,-0.39835190773010254,1.1398955583572388
1789214485401566500,7.28156640625,0.07829219102859497,-0.42320045828819275,0.9142860770225525
1789214485411597600,7.29159765625,0.05860796943306923,-0.2758389711380005,0.7136639952659607
1789214485421629400,7.30162939453125,0.010406890884041786,-0.1296764612197876,0.501474142074585
1789214485431661300,7.311661376953125,-0.1754458099603653,0.07831721007823944,0.2929731011390686
1789214485441693200,7.321693115234375,-0.36646926403045654,0.2730676233768463,0.1483437418937683
1789214485451725600,7.3317255859375,-0.48644334077835083,0.3749324679374695,0.03612160310149193
1789214485461756400,7.34175634765625,-0.510853111743927,0.43778520822525024,-0.10696890950202942
1789214485471788300,7.351788330078125,-0.42575255036354065,0.23467977344989777,-0.357194721698761
1789214485481820400,7.3618203125,-0.3540341854095459,0.09207791835069656,-0.6111805438995361
1789214485491852300,7.371852294921875,-0.3307019770145416,0.1492844820022583,-0.8145816326141357
1789214485501884400,7.381884521484375,-0.3210991322994232,0.36940300464630127,-0.9810318350791931
1789214485511915500,7.39191552734375,-0.33661046624183655,0.5627090930938721,-1.0177773237228394
1789214485521947400,7.401947509765625,-0.3927565813064575,0.6203705668449402,-0.9292152523994446
1789214485531979300,7.411979248046875,-0.4018624722957611,0.5947837233543396,-0.907807469367981
1789214485542011400,7.422011474609375,-0.3904736340045929,0.5366823673248291,-1.0580509901046753
1789214485552043500,7.43204345703125,-0.3754619359970093,0.5849055051803589,-1.2672520875930786
1789214485562074400,7.442074462890625,-0.3896166980266571,0.6493237018585205,-1.4535372257232666
1789214485572106200,7.452106201171875,-0.40420734882354736,0.9054442644119263,-1.5238810777664185
1789214485582138400,7.462138427734375,-0.3932303488254547,1.0499622821807861,-1.5048964023590088
1789214485592170500,7.47217041015625,-0.4208739697933197,0.9438952207565308,-1.3358322381973267
1789214485602202400,7.482202392578125,-0.4804310202598572,0.4740857183933258,-1.058176875114441
1789214485612233500,7.4922333984375,-0.5518316626548767,-0.011375253088772297,-0.842778205871582
1789214485622265300,7.502265380859375,-0.6263794302940369,-0.12366437166929245,-0.6364111304283142
1789214485632297200,7.512297119140625,-0.8081638813018799,0.18752732872962952,-0.44894564151763916
1789214485642329300,7.522329345703125,-1.0486360788345337,0.6351198554039001,-0.38211578130722046
1789214485652361500,7.532361572265625,-1.228620171546936,1.0472031831741333,-0.3936896324157715
1789214485662392300,7.542392333984375,-1.3043981790542603,1.0744919776916504,-0.4999449551105499
1789214485672424200,7.552424072265625,-1.3413724899291992,0.804046094417572,-0.7140380144119263
1789214485682456600,7.56245654296875,-1.3207486867904663,0.4176163673400879,-1.036733865737915
1789214485692488400,7.572488525390625,-1.2218888998031616,0.19262583553791046,-1.28626549243927
1789214485702520300,7.582520263671875,-1.054940938949585,0.060670070350170135,-1.4073013067245483
1789214485712551400,7.592551513671875,-0.9531671404838562,0.008898217231035233,-1.3901383876800537
1789214485722583300,7.602583251953125,-0.9491433501243591,0.11283960938453674,-1.3723238706588745
1789214485732615400,7.612615478515625,-1.100362777709961,0.24472947418689728,-1.4137229919433594
1789214485742647300,7.622647216796875,-1.1043082475662231,0.2586449980735779,-1.5569590330123901
1789214485752679400,7.632679443359375,-1.0231117010116577,0.23412556946277618,-1.6677241325378418
1789214485762710300,7.642710205078125,-0.9726535081863403,0.09940338134765625,-1.6978765726089478
1789214485772742400,7.652742431640625,-1.0640745162963867,0.0497700497508049,-1.7014172077178955
1789214485782774500,7.6627744140625,-1.246537685394287,0.08114282041788101,-1.6690828800201416
1789214485792806400,7.672806396484375,-1.334241509437561,-0.015304625034332275,-1.6176934242248535
1789214485802838300,7.68283837890625,-1.3183025121688843,-0.163205087184906,-1.5822833776474
1789214485812869400,7.692869384765625,-1.2288414239883423,-0.21821826696395874,-1.4860013723373413
1789214485822901500,7.702901611328125,-1.198909044265747,-0.12922123074531555,-1.2814011573791504
1789214485832933400,7.712933349609375,-1.2540247440338135,0.1205207109451294,-1.059651494026184
1789214485842965200,7.72296533203125,-1.2610448598861694,0.19881463050842285,-0.8330714106559753
1789214485852997400,7.732997314453125,-1.2960124015808105,0.2747485339641571,-0.40794381499290466
1789214485863029500,7.743029541015625,-1.078476071357727,0.24735893309116364,-0.16918770968914032
1789214485873060400,7.753060302734375,-0.6764732003211975,0.21573442220687866,-0.06458672136068344
1789214485883092500,7.763092529296875,-0.4509093761444092,0.27682584524154663,0.32991811633110046
1789214485893124400,7.773124267578125,-0.4258476793766022,0.45187488198280334,0.6487464308738708
1789214485903156200,7.78315625,-0.39947015047073364,0.5618560910224915,0.902233898639679
1789214485913188400,7.793188232421875,-0.26440420746803284,0.5476046800613403,1.018934965133667
1789214485923219500,7.803219482421875,-0.010940512642264366,0.38244715332984924,0.9466239809989929
1789214485933251300,7.813251220703125,0.2525233328342438,0.25074025988578796,0.9904960989952087
1789214485943283200,7.823283203125,0.5106555819511414,0.2791423797607422,1.1889598369598389
1789214485953315600,7.833315673828125,0.7053672671318054,0.40591445565223694,1.2621668577194214
1789214485963347500,7.843347412109375,0.912658154964447,0.521512508392334,1.319793939590454
1789214485973379300,7.85337939453125,1.1368131637573242,0.6953762173652649,1.2647855281829834
1789214485983410400,7.863410400390625,1.3475033044815063,0.6828232407569885,1.201135516166687
1789214485993442300,7.8734423828125,1.553613543510437,0.5214974880218506,1.1776763200759888
1789214486003474400,7.883474365234375,1.720299243927002,0.2431304156780243,1.2201846837997437
1789214486013506300,7.89350634765625,1.8921560049057007,0.17354120314121246,1.2303470373153687
1789214486023538400,7.903538330078125,1.9948996305465698,0.10189024358987808,1.1941028833389282
1789214486033569300,7.9135693359375,2.0123660564422607,0.010035418905317783,1.2568289041519165
1789214486043601400,7.923601318359375,2.037447690963745,0.06682053208351135,1.2390987873077393
1789214486053633500,7.933633544921875,2.0625674724578857,0.06900965422391891,1.2283028364181519
1789214486063665400,7.94366552734375,2.0928471088409424,-0.006746768485754728,1.1868395805358887
1789214486073697300,7.953697265625,2.0747921466827393,-0.28040042519569397,1.2445820569992065
1789214486083728400,7.963728271484375,2.016540765762329,-0.7043250203132629,1.3312005996704102
1789214486093760500,7.973760498046875,1.9413509368896484,-0.9924463033676147,1.406681776046753
1789214486103792400,7.98379248046875,1.9287028312683105,-1.0872246026992798,1.4248113632202148
1789214486113824300,7.99382421875,1.9859445095062256,-1.0734288692474365,1.2909419536590576
1789214486123856400,8.0038564453125,2.0103015899658203,-1.0762194395065308,1.087856411933899
1789214486133887200,8.01388720703125,1.8095319271087646,-1.2839821577072144,0.9466273784637451
1789214486143919400,8.02391943359375,1.4464911222457886,-1.565882921218872,0.9153444766998291
1789214486153951500,8.033951416015626,1.0747750997543335,-1.6926634311676025,1.0068855285644531
1789214486163983400,8.0439833984375,0.8125730156898499,-1.6058424711227417,1.1516785621643066
1789214486174015200,8.05401513671875,0.6489912867546082,-1.3661383390426636,1.3063831329345703
1789214486184047400,8.06404736328125,0.5166383385658264,-1.1382536888122559,1.4184681177139282
1789214486194078500,8.074078369140626,0.3795928955078125,-0.893082857131958,1.4379481077194214
1789214486204110300,8.0841103515625,0.22128500044345856,-0.41128239035606384,1.3713903427124023
1789214486214142200,8.09414208984375,0.01905067451298237,-0.07233177125453949,1.0482072830200195
1789214486224174600,8.104174560546875,-0.16280381381511688,0.0251845121383667,0.6221338510513306
1789214486234206500,8.11420654296875,-0.27859485149383545,0.014139316976070404,0.37458711862564087
1789214486244238300,8.12423828125,-0.27578815817832947,0.03243890404701233,0.26677486300468445
1789214486254269400,8.13426953125,-0.26263320446014404,0.0685601532459259,0.09233060479164124
1789214486264301300,8.14430126953125,-0.3258680999279022,0.20109745860099792,-0.15423928201198578
1789214486274333400,8.15433349609375,-0.42796942591667175,0.3510235548019409,-0.4221500754356384
1789214486284365300,8.164365234375,-0.4826529026031494,0.3648913502693176,-0.6370251774787903
1789214486294397400,8.1743974609375,-0.5046423673629761,0.39450809359550476,-0.7408910989761353
1789214486304428300,8.18442822265625,-0.4598943293094635,0.4226566255092621,-0.8330919742584229
1789214486314460200,8.194460205078125,-0.3858605921268463,0.43226343393325806,-0.9850578308105469
1789214486324492500,8.204492431640626,-0.3455677628517151,0.45894286036491394,-1.0942513942718506
1789214486334524400,8.2145244140625,-0.37548333406448364,0.508362889289856,-1.071889877319336
1789214486344556300,8.224556396484376,-0.4688745141029358,0.658726155757904,-1.0539942979812622
1789214486354588400,8.23458837890625,-0.5904486775398254,0.8224437236785889,-1.1527498960494995
1789214486364619500,8.24461962890625,-0.7161104679107666,0.8058688044548035,-1.3960387706756592
1789214486374651400,8.2546513671875,-0.8370509743690491,0.7606741786003113,-1.6951208114624023
1789214486384683300,8.264683349609374,-0.8902275562286377,0.7361426949501038,-1.7976139783859253
1789214486394715400,8.27471533203125,-0.9661324620246887,0.7706682085990906,-1.8060969114303589
1789214486404746800,8.284746826171874,-1.021024227142334,0.9460436701774597,-1.5816681385040283
1789214486414777900,8.29477783203125,-1.0582184791564941,0.709526777267456,-1.1056528091430664
1789214486424809700,8.304809814453124,-1.0970537662506104,0.3275512754917145,-0.6651114225387573
1789214486434841900,8.314841796875,-1.1287472248077393,0.1872224062681198,-0.401378870010376
1789214486444873700,8.324873779296874,-1.2248919010162354,0.44851356744766235,-0.35544994473457336
1789214486454905900,8.33490576171875,-1.2916611433029175,0.8283492922782898,-0.44385969638824463
1789214486464937700,8.344937744140625,-1.3066773414611816,0.9102108478546143,-0.7145744562149048
1789214486474968600,8.354968505859375,-1.2399920225143433,0.6277479529380798,-1.018523931503296
1789214486485001000,8.3650009765625,-1.0425900220870972,0.007966941222548485,-1.28179132938385
1789214486495032800,8.37503271484375,-0.8581210374832153,-0.17437170445919037,-1.5205309391021729
1789214486505064700,8.385064697265625,-0.8444489240646362,0.18892718851566315,-1.5969659090042114
1789214486515096600,8.3950966796875,-0.9565040469169617,0.47625163197517395,-1.4411004781723022
1789214486525129000,8.40512890625,-1.0584917068481445,0.5001421570777893,-1.2544976472854614
1789214486535159800,8.415159912109376,-1.1052805185317993,0.39082765579223633,-1.17195725440979
1789214486545191700,8.425191650390625,-1.1006428003311157,0.19729696214199066,-1.299462914466858
1789214486555223800,8.435223876953126,-1.0663719177246094,0.2315918207168579,-1.5344125032424927
1789214486565256000,8.445255859375,-1.0636954307556152,0.34008294343948364,-1.6446036100387573
1789214486575287800,8.455287841796874,-1.0898096561431885,0.15616583824157715,-1.5809426307678223
1789214486585319000,8.46531884765625,-1.0018386840820312,-0.24681363999843597,-1.505535364151001
1789214486595350800,8.475350830078124,-0.9577538967132568,-0.4156405031681061,-1.2584859132766724
1789214486605382700,8.485382568359375,-1.0270817279815674,-0.29225602746009827,-0.8732267618179321
1789214486615414800,8.495414794921874,-1.1524442434310913,0.08345022797584534,-0.5985379219055176
1789214486625447000,8.505447021484375,-1.2401304244995117,0.4603971242904663,-0.5109673142433167
1789214486635478800,8.515478759765625,-1.2218067646026611,0.3958556652069092,-0.45391571521759033
1789214486645510700,8.5255107421875,-1.0085740089416504,-0.06567168980836868,-0.2929358184337616
1789214486655541800,8.535541748046874,-0.7335562109947205,-0.3027707636356354,-0.20062506198883057
1789214486665574000,8.545573974609376,-0.56771320104599,-0.43515050411224365,-0.210161492228508
1789214486675605800,8.555605712890625,-0.45128828287124634,-0.4595130980014801,0.054122619330883026
1789214486685637600,8.5656376953125,-0.2809346914291382,-0.1097218468785286,0.3353070318698883
1789214486695669800,8.575669677734375,-0.09625698626041412,0.1299661099910736,0.49724745750427246
1789214486705702000,8.585701904296876,0.12891782820224762,0.20252592861652374,0.6472151279449463
1789214486715732700,8.595732666015625,0.42687493562698364,0.26493921875953674,0.8897835612297058
1789214486725764900,8.605764892578126,0.7936971783638,0.4143325984477997,1.0591810941696167
1789214486735796700,8.615796630859375,1.1453355550765991,0.5353183746337891,1.2057667970657349
1789214486745828900,8.625828857421874,1.2950867414474487,0.6450062394142151,1.2721506357192993
1789214486755860700,8.63586083984375,1.3364753723144531,0.725633978843689,1.3502379655838013
1789214486765891800,8.645891845703124,1.3937668800354004,0.931470513343811,1.3954722881317139
1789214486775923700,8.655923828125,1.5277109146118164,1.0681109428405762,1.3646047115325928
1789214486785955600,8.66595556640625,1.6753867864608765,0.8036690950393677,1.2385952472686768
1789214486795988000,8.675988037109375,1.8015161752700806,0.295432984828949,1.1540766954421997
1789214486806019800,8.686019775390625,1.8847836256027222,-0.03357457369565964,1.1930091381072998
1789214486816051700,8.6960517578125,1.9406921863555908,-0.107274629175663,1.313954472541809
1789214486826082800,8.706082763671875,2.005338191986084,-0.06823313236236572,1.3267890214920044
1789214486836115000,8.716114990234376,2.0628435611724854,-0.19956211745738983,1.179303765296936
1789214486846146800,8.726146728515625,2.0642077922821045,-0.6221400499343872,1.0487861633300781
1789214486856178700,8.7361787109375,2.0272469520568848,-1.0400608777999878,1.007704257965088
1789214486866210800,8.7462109375,1.954209804534912,-1.3878140449523926,1.054753303527832
1789214486876243000,8.756242919921876,1.8368011713027954,-1.6116018295288086,1.1539134979248047
1789214486886273800,8.766273681640625,1.717142939567566,-1.680907130241394,1.1708248853683472
1789214486896306000,8.776305908203126,1.6245554685592651,-1.6157883405685425,1.1035313606262207
1789214486906337800,8.786337890625,1.473096251487732,-1.481606125831604,1.0056533813476562
1789214486916369700,8.79636962890625,1.2449374198913574,-1.4010887145996094,0.9952191710472107
1789214486926401800,8.80640185546875,1.0126676559448242,-1.3529819250106812,1.0926741361618042
1789214486936434000,8.816433837890624,0.8341115117073059,-1.2820568084716797,1.220765471458435
1789214486946465800,8.8264658203125,0.6808130145072937,-1.2110687494277954,1.2084776163101196
1789214486956496600,8.83649658203125,0.5268077254295349,-1.151106357574463,1.1208980083465576
1789214486966528800,8.84652880859375,0.4063023626804352,-1.0286389589309692,1.0680711269378662
1789214486976561000,8.856560791015625,0.35239383578300476,-0.7890317440032959,1.0549070835113525
1789214486986592800,8.8665927734375,0.30857473611831665,-0.536261796951294,0.9663335084915161
1789214486996624600,8.876624755859375,0.20262032747268677,-0.2813897728919983,0.7827056050300598
1789214487006656800,8.88665673828125,0.068040631711483,-0.07943053543567657,0.5568037033081055
1789214487016687900,8.89668798828125,-0.048929668962955475,-0.013705853372812271,0.2686329185962677
1789214487026719700,8.9067197265625,-0.18805496394634247,0.06597571820020676,-0.0006634608726017177
1789214487036752000,8.916751953125,-0.29220691323280334,0.26684463024139404,-0.15019942820072174
1789214487046783700,8.92678369140625,-0.2992318868637085,0.34655967354774475,-0.21349650621414185
1789214487056815900,8.93681591796875,-0.3308814465999603,0.3917287290096283,-0.2273438721895218
1789214487066847700,8.94684765625,-0.3825038969516754,0.34970152378082275,-0.31612998247146606
1789214487076878800,8.95687890625,-0.4609188139438629,0.3569948375225067,-0.4898279905319214
1789214487086910700,8.96691064453125,-0.47356775403022766,0.47265851497650146,-0.6841284036636353
1789214487096942600,8.976942626953125,-0.44771379232406616,0.5429829955101013,-0.8238011002540588
1789214487106974700,8.986974609375,-0.436678409576416,0.5871937274932861,-0.9177058339118958
1789214487117006800,8.9970068359375,-0.44172829389572144,0.6059914231300354,-1.0096967220306396
1789214487127038700,9.007038818359375,-0.461029589176178,0.558368444442749,-1.0996803045272827
1789214487137069800,9.01706982421875,-0.4859005808830261,0.4135226309299469,-1.12079918384552
1789214487147102000,9.02710205078125,-0.4986988604068756,0.24617932736873627,-1.0261433124542236
1789214487157133800,9.0371337890625,-0.5441116690635681,0.13244158029556274,-0.8939112424850464
1789214487167165700,9.047165771484375,-0.5836704969406128,0.08948894590139389,-0.8364846110343933
1789214487177197600,9.057197509765626,-0.6498261094093323,0.22310906648635864,-0.8132991194725037
1789214487187230000,9.06722998046875,-0.7257349491119385,0.5203486084938049,-0.7983421683311462
1789214487197260800,9.0772607421875,-0.8378377556800842,0.8269740343093872,-0.7390050888061523
1789214487207292700,9.087292724609375,-0.9713830947875977,0.922229528427124,-0.6152477264404297
1789214487217324800,9.09732470703125,-1.0897481441497803,0.7337126135826111,-0.4466720521450043
1789214487227356700,9.107356689453125,-1.1460845470428467,0.44633302092552185,-0.4741632640361786
1789214487237388800,9.117388916015624,-1.0482935905456543,0.46406489610671997,-0.7301034331321716
1789214487247420700,9.127420654296875,-0.9314042329788208,0.7278097867965698,-1.0780200958251953
1789214487257452800,9.137452880859374,-1.043521523475647,0.6308518052101135,-1.3522876501083374
1789214487267483600,9.147483642578125,-1.1587194204330444,-0.06917908787727356,-1.458158016204834
1789214487277515800,9.157515869140624,-1.211349606513977,-0.4431002140045166,-1.5093410015106201
1789214487287548000,9.1675478515625,-1.2306632995605469,-0.14359146356582642,-1.5767099857330322
1789214487297579800,9.177579833984375,-1.3297406435012817,0.3172941207885742,-1.6351275444030762
1789214487307611600,9.187611572265626,-1.4399583339691162,0.5916361808776855,-1.6431893110275269
1789214487317643800,9.197643798828125,-1.5197681188583374,0.515691339969635,-1.6497803926467896
1789214487327676000,9.207676025390626,-1.4559667110443115,0.09076814353466034,-1.761083722114563
1789214487337706800,9.217706787109375,-1.4365732669830322,-0.1262054443359375,-1.7939963340759277
1789214487347738600,9.227738525390626,-1.4057427644729614,-0.2836320400238037,-1.6851246356964111
1789214487357770800,9.237770751953125,-1.2507740259170532,-0.3315092623233795,-1.584580659866333
1789214487367803000,9.247802978515624,-1.1841819286346436,-0.0660325363278389,-1.4934720993041992
1789214487377834800,9.257834716796875,-1.3968230485916138,0.18038415908813477,-1.1839563846588135
1789214487387866600,9.26786669921875,-1.732722282409668,0.14069202542304993,-0.4852631688117981
1789214487397897700,9.277897705078125,-1.7879796028137207,0.22342100739479065,0.10177130252122879
1789214487407929900,9.287929931640624,-1.311721920967102,0.14683522284030914,0.05019579455256462
1789214487417961700,9.297961669921875,-0.7834112644195557,-0.2915565073490143,-0.21818000078201294
1789214487427994000,9.307994140625,-0.5453789234161377,-0.15748979151248932,0.06644438952207565
1789214487438026000,9.31802587890625,-0.48553401231765747,0.27441394329071045,0.5899640917778015
1789214487448057900,9.328057861328125,-0.3800051808357239,0.6136833429336548,0.9133663177490234
1789214487458089700,9.33808984375,-0.16544069349765778,0.45939281582832336,0.8381351828575134
1789214487468120800,9.348120849609375,0.09220410883426666,0.11132745444774628,0.7222321033477783
1789214487478153000,9.358153076171876,0.17491576075553894,0.08685300499200821,0.8571611642837524
1789214487488184800,9.368184814453125,0.2928270101547241,0.3473045825958252,1.0748528242111206
1789214487498217000,9.378217041015626,0.568483829498291,0.5777697563171387,1.1500509977340698
1789214487508248800,9.388248779296875,0.9215602874755859,0.44132059812545776,1.161842703819275
1789214487518281000,9.398281005859374,1.2352317571640015,0.23478154838085175,1.228618860244751
1789214487528312000,9.40831201171875,1.432721495628357,0.19880901277065277,1.3482807874679565
1789214487538344000,9.418343994140624,1.550457239151001,0.4303191900253296,1.403096318244934
1789214487548375800,9.428375732421875,1.6397311687469482,0.5630345344543457,1.3493307828903198
1789214487558407700,9.43840771484375,1.725835919380188,0.4917241632938385,1.310528039932251
1789214487568440000,9.448440185546875,1.8319330215454102,0.3735502362251282,1.2447073459625244
1789214487578472000,9.458471923828125,1.9299861192703247,0.22869931161403656,1.1877684593200684
1789214487588503800,9.46850390625,2.0084171295166016,0.0076003847643733025,1.0878499746322632
1789214487598535000,9.478534912109374,2.034775733947754,-0.23452889919281006,0.9982606768608093
1789214487608567000,9.488567138671876,2.0016050338745117,-0.4968586266040802,1.051371455192566
1789214487618599000,9.498598876953125,1.9686471223831177,-0.6604316234588623,1.1495885848999023
1789214487628630800,9.508630859375,1.9780056476593018,-0.7555710077285767,1.1495606899261475
1789214487638663000,9.518662841796875,1.981656789779663,-0.825484573841095,1.1044352054595947
1789214487648695000,9.528695068359376,1.9526759386062622,-0.9102955460548401,1.0617655515670776
1789214487658727000,9.538726806640625,1.880643606185913,-1.0223569869995117,1.008070945739746
1789214487668758000,9.548758056640626,1.7294684648513794,-1.1872597932815552,0.9984641671180725
1789214487678790000,9.558789794921875,1.4968816041946411,-1.3193608522415161,1.0250811576843262
1789214487688821800,9.56882177734375,1.2148525714874268,-1.2321600914001465,1.123235821723938
1789214487698854000,9.57885400390625,0.9461183547973633,-1.0525187253952026,1.2743265628814697
1789214487708886000,9.588885986328124,0.6908668875694275,-0.9635859131813049,1.3560792207717896
1789214487718918000,9.59891796875,0.46440842747688293,-0.9466341137886047,1.3824788331985474
1789214487728949800,9.60894970703125,0.28209948539733887,-0.8701402544975281,1.3556501865386963
1789214487738981000,9.618981201171875,0.12303449213504791,-0.6516342759132385,1.2461726665496826
1789214487749013000,9.629012939453125,0.020904291421175003,-0.42254558205604553,1.1268315315246582
1789214487759044900,9.639044921875,-0.06466680020093918,-0.20997580885887146,1.032532811164856
1789214487769076700,9.64907666015625,-0.13283859193325043,-0.08631104975938797,0.9169859886169434
1789214487779109000,9.659109130859376,-0.07486584037542343,-0.20633253455162048,0.7421824336051941
1789214487789141000,9.66914111328125,0.05095592141151428,-0.32053831219673157,0.4866219758987427
1789214487799172900,9.6791728515625,0.16313812136650085,-0.3393799066543579,0.2790980935096741
1789214487809204000,9.689203857421875,0.19905252754688263,-0.09378734230995178,0.1251690685749054
1789214487819235800,9.69923583984375,0.17837414145469666,0.13998627662658691,-0.048444800078868866
1789214487829268000,9.70926806640625,0.13619740307331085,0.24159033596515656,-0.19361288845539093
1789214487839299800,9.7192998046875,0.04954587295651436,0.2858038544654846,-0.3062414228916168
1789214487849332000,9.72933203125,-0.050732847303152084,0.39634376764297485,-0.3917745053768158
1789214487859363800,9.73936376953125,-0.10616548359394073,0.39086484909057617,-0.5049213171005249
1789214487869396000,9.74939599609375,-0.1383836269378662,0.2930528521537781,-0.6381193399429321
1789214487879427000,9.759427001953124,-0.18572691082954407,0.2650230824947357,-0.7742689251899719
1789214487889459000,9.769458984375,-0.2485801726579666,0.48453089594841003,-0.8757809400558472
1789214487899490800,9.77949072265625,-0.30958548188209534,0.7581773996353149,-0.9544224739074707
1789214487909523000,9.78952294921875,-0.38941293954849243,0.9238170981407166,-1.0552047491073608
1789214487919555000,9.79955517578125,-0.5017810463905334,0.9691789746284485,-1.2168885469436646
1789214487929587000,9.8095869140625,-0.5924894213676453,0.8625147342681885,-1.4280552864074707
1789214487939617800,9.81961767578125,-0.6456738114356995,0.6607365608215332,-1.539643406867981
1789214487949650000,9.82964990234375,-0.6048726439476013,0.40134721994400024,-1.4746204614639282
1789214487959682000,9.83968212890625,-0.4917125403881073,0.14817781746387482,-1.2682255506515503
1789214487969714000,9.8497138671875,-0.37038537859916687,-0.008182644844055176,-1.0116353034973145
1789214487979745800,9.859745849609375,-0.3151511549949646,0.01929105632007122,-0.8113754987716675
1789214487989778000,9.86977783203125,-0.33023640513420105,0.41738027334213257,-0.6875196099281311
1789214487999810000,9.87981005859375,-0.4408939480781555,0.6870990991592407,-0.5471012592315674
1789214488009842000,9.889842041015624,-0.658534049987793,0.8493961691856384,-0.4724397659301758
1789214488019873000,9.899873046875,-0.8204721212387085,0.8153393864631653,-0.5434305667877197
1789214488029905000,9.90990478515625,-0.8899747133255005,0.537517786026001,-0.6916109323501587
1789214488039936800,9.919936767578125,-0.9183349609375,0.43040838837623596,-0.823237419128418
1789214488049969000,9.929968994140625,-0.963060736656189,0.4721391797065735,-0.8707104921340942
1789214488060001000,9.9400009765625,-1.044069528579712,0.6212069392204285,-0.9142286777496338
1789214488070033000,9.950032958984375,-1.1494392156600952,0.7656474113464355,-0.9994403719902039
1789214488080065000,9.96006494140625,-1.2080687284469604,0.5915036201477051,-1.0196328163146973
1789214488090095900,9.970095947265625,-1.224421501159668,0.2356492429971695,-1.0834980010986328
1789214488100128000,9.9801279296875,-1.1884560585021973,0.054469864815473557,-1.1480265855789185
1789214488110160000,9.990159912109375,-1.1738874912261963,-0.04608190432190895,-1.247432827949524
1789214488120191700,10.000191650390626,-1.1644729375839233,-0.14128485321998596,-1.3378607034683228
1789214488130223900,10.010223876953125,-1.145289421081543,-0.11512761563062668,-1.3418951034545898
1789214488140256000,10.020256103515624,-1.138029932975769,-0.08845552802085876,-1.2910622358322144
1789214488150288000,10.030287841796875,-1.1765073537826538,-0.08919724076986313,-1.2915170192718506
1789214488160319000,10.040319091796874,-1.1400902271270752,-0.09490679204463959,-1.4051592350006104
1789214488170350800,10.050350830078125,-1.090514898300171,-0.060095082968473434,-1.5914455652236938
1789214488180383000,10.060383056640624,-1.0303508043289185,-0.20093075931072235,-1.7525668144226074
1789214488190414800,10.070414794921875,-1.0830527544021606,-0.37703216075897217,-1.7752668857574463
1789214488200446700,10.08044677734375,-1.2454100847244263,-0.4101773500442505,-1.4132553339004517
1789214488210478800,10.090478759765626,-1.2907328605651855,-0.11198112368583679,-1.0588817596435547
1789214488220511000,10.100510986328125,-1.1055095195770264,0.22945690155029297,-1.1161195039749146
1789214488230542800,10.11054296875,-0.8598820567131042,-0.320844829082489,-0.9868106245994568
1789214488240574000,10.120573974609375,-0.7590502500534058,-0.6133020520210266,-0.5919027328491211
1789214488250605800,10.130605712890626,-0.8297964930534363,-0.2154029756784439,-0.23875845968723297
1789214488260638000,10.140637939453125,-0.9010791778564453,0.213144913315773,0.0008354903548024595
1789214488270669800,10.150669921875,-0.7629246115684509,0.2794862389564514,0.12064576148986816
1789214488280702000,10.160701904296875,-0.5317468047142029,0.07230589538812637,0.23354649543762207
1789214488290733800,10.17073388671875,-0.31744620203971863,-0.00903385877609253,0.36828991770744324
1789214488300766000,10.180765869140625,-0.11600947380065918,0.024770444259047508,0.4323727488517761
1789214488310797000,10.190797119140624,0.06726648658514023,0.09550315141677856,0.5504369139671326
1789214488320829000,10.200828857421875,0.23376598954200745,0.15971064567565918,0.5809324979782104
1789214488330860800,10.21086083984375,0.42776522040367126,0.07055667787790298,0.6187743544578552
1789214488340892700,10.220892578125,0.6801292300224304,-0.06766244769096375,0.6725896596908569
1789214488350925000,10.230925048828125,0.9801117181777954,-0.09885808080434799,0.7237892150878906
1789214488360957000,10.24095703125,1.2822511196136475,-0.12391762435436249,0.7695066332817078
1789214488370988800,10.25098876953125,1.5529056787490845,-0.1414821594953537,0.8100383877754211
1789214488381020700,10.261020751953126,1.739216923713684,-0.13475076854228973,0.9041811227798462
1789214488391052000,10.271052001953125,1.835736870765686,-0.1806897073984146,1.0072888135910034
1789214488401084000,10.281083984375,1.952984094619751,-0.23888137936592102,1.1526769399642944
1789214488411116500,10.291116455078125,2.0829148292541504,-0.16635701060295105,1.2693628072738647
1789214488421148400,10.3011484375,2.1718883514404297,-0.12739789485931396,1.3420047760009766
1789214488431180500,10.3111806640625,2.1488029956817627,-0.4030973017215729,1.4181640148162842
1789214488441212400,10.32121240234375,2.006772756576538,-0.7303206920623779,1.527785301208496
1789214488451244500,10.33124462890625,1.8249813318252563,-0.7846524119377136,1.5875742435455322
1789214488461276400,10.3412763671875,1.6474177837371826,-0.7218998074531555,1.6444289684295654
1789214488471307500,10.3513076171875,1.5994322299957275,-0.555363655090332,1.6366087198257446
1789214488481339400,10.36133935546875,1.6736825704574585,-0.34826263785362244,1.6116280555725098
1789214488491371500,10.37137158203125,1.721927285194397,-0.32360365986824036,1.6798487901687622
1789214488501403600,10.381403564453125,1.7351748943328857,-0.4213201105594635,1.69218111038208
1789214488511435500,10.391435546875,1.766242504119873,-0.44482719898223877,1.5542038679122925
1789214488521467400,10.40146728515625,1.7712208032608032,-0.6012144088745117,1.3322386741638184
1789214488531499500,10.41149951171875,1.6832728385925293,-0.8188835978507996,1.1566410064697266
1789214488541530600,10.421530517578125,1.470046043395996,-0.7903630137443542,1.1703078746795654
1789214488551562500,10.4315625,1.2418396472930908,-0.5981044173240662,1.2214897871017456
1789214488561594400,10.441594482421875,0.9701324105262756,-0.5125862956047058,1.1370245218276978
1789214488571626500,10.45162646484375,0.7369220852851868,-0.5110547542572021,1.0646860599517822
1789214488581658600,10.46165869140625,0.6862205266952515,-0.6059183478355408,0.9553220272064209
1789214488591690500,10.4716904296875,0.7065238356590271,-0.7475816607475281,0.7963968515396118
1789214488601722400,10.481722412109375,0.6814157962799072,-0.8626723289489746,0.6209619045257568
1789214488611754500,10.49175439453125,0.465839147567749,-0.8047346472740173,0.5471246838569641
1789214488621785300,10.501785400390625,0.2050139605998993,-0.49370357394218445,0.5616578459739685
1789214488631817500,10.5118173828125,-0.015719473361968994,-0.23336847126483917,0.5472118258476257
1789214488641849600,10.521849609375,-0.2199927121400833,-0.1351151466369629,0.4695449769496918
1789214488651881500,10.531881591796875,-0.4090002179145813,-0.10824672877788544,0.4177907109260559
1789214488661913600,10.54191357421875,-0.5831307768821716,0.048042744398117065,0.33035752177238464
1789214488671945500,10.551945556640625,-0.7075554132461548,0.20256416499614716,0.14192797243595123
1789214488681977600,10.5619775390625,-0.7521343231201172,0.1955973356962204,-0.0736546590924263
1789214488692009500,10.572009521484375,-0.7242470383644104,-0.021192293614149094,-0.21497343480587006
1789214488702040300,10.582040283203124,-0.6501802206039429,-0.17210856080055237,-0.2965351343154907
1789214488712072700,10.59207275390625,-0.5703839659690857,-0.22860634326934814,-0.353037029504776
1789214488722104600,10.6021044921875,-0.4945682883262634,-0.2698187828063965,-0.4611067771911621
1789214488732136400,10.612136474609375,-0.4883841872215271,-0.1677660197019577,-0.579157292842865
1789214488742168300,10.622168212890625,-0.49032989144325256,-0.03879711776971817,-0.7161915302276611
1789214488752200700,10.63220068359375,-0.507969081401825,0.09894688427448273,-0.8072852492332458
1789214488762232600,10.642232666015625,-0.5282357335090637,0.2030852735042572,-0.8429926037788391
1789214488772264400,10.652264404296876,-0.5511372685432434,0.3619791567325592,-0.8173144459724426
1789214488782295600,10.662295654296875,-0.5675157308578491,0.545612633228302,-0.7716268301010132
1789214488792327400,10.672327392578126,-0.5785030126571655,0.6391329169273376,-0.7647987604141235
1789214488802359600,10.682359619140625,-0.5534732937812805,0.5988771319389343,-0.873104989528656
1789214488812391400,10.692391357421876,-0.48229488730430603,0.23861464858055115,-1.0195924043655396
1789214488822423600,10.702423583984375,-0.4334525167942047,-0.2105056196451187,-0.9923706650733948
1789214488832455700,10.71245556640625,-0.42012831568717957,-0.3265959620475769,-0.8069542050361633
1789214488842487600,10.722487548828125,-0.4657543897628784,-0.17726773023605347,-0.6108725666999817
1789214488852519400,10.73251953125,-0.6226741671562195,0.019774794578552246,-0.5125159025192261
1789214488862551600,10.742551513671875,-0.7948483824729919,0.058508872985839844,-0.5489468574523926
1789214488872582400,10.75258251953125,-0.8917528986930847,0.17877116799354553,-0.630130410194397
1789214488882614500,10.762614501953125,-0.9880581498146057,0.4451911151409149,-0.6007355451583862
1789214488892646700,10.772646728515625,-1.087942123413086,0.5839335322380066,-0.5561650991439819
1789214488902678500,10.782678466796876,-1.218780517578125,0.6968510746955872,-0.5109723210334778
1789214488912710400,10.79271044921875,-1.4041187763214111,0.6921645402908325,-0.5948739051818848
1789214488922742500,10.802742431640626,-1.5387578010559082,0.48724687099456787,-0.8286999464035034
1789214488932774700,10.812774658203125,-1.5358867645263672,0.1650836318731308,-1.0315414667129517
1789214488942806500,10.822806640625,-1.4242292642593384,-0.2482765167951584,-1.1384940147399902
1789214488952837400,10.83283740234375,-1.3401429653167725,-0.4520181715488434,-1.1652276515960693
1789214488962869500,10.842869384765624,-1.2657289505004883,-0.3359219431877136,-1.0748122930526733
1789214488972901600,10.852901611328125,-1.2852014303207397,-0.1777823269367218,-0.9521697759628296
1789214488982933500,10.86293359375,-1.2731887102127075,-0.11087414622306824,-0.9671428799629211
1789214488992965400,10.87296533203125,-1.262693166732788,0.0005092425271868706,-1.0816317796707153
1789214489002997800,10.882997802734375,-1.2455240488052368,0.07555579394102097,-1.2720965147018433
1789214489013029600,10.893029541015625,-1.1986757516860962,0.1226811632514,-1.4362841844558716
1789214489023061500,10.9030615234375,-1.2815344333648682,0.32343077659606934,-1.4297730922698975
1789214489033093400,10.91309326171875,-1.4661047458648682,0.37668657302856445,-1.2586055994033813
1789214489043124500,10.92312451171875,-1.4629372358322144,0.029972828924655914,-1.1846603155136108
1789214489053156600,10.933156494140626,-1.3558931350708008,-0.20203424990177155,-1.251602292060852
1789214489063188500,10.9431884765625,-1.2704317569732666,0.021510962396860123,-1.2821927070617676
1789214489073220600,10.953220703125,-1.2618162631988525,0.4243755340576172,-1.183855414390564
1789214489083252500,10.96325244140625,-1.3124117851257324,0.469515323638916,-1.0165740251541138
1789214489093284600,10.97328466796875,-1.3909871578216553,0.27145302295684814,-0.6449453234672546
1789214489103316500,10.98331640625,-1.4030965566635132,0.07051458954811096,-0.11506841331720352
1789214489113348600,10.9933486328125,-1.2173504829406738,0.2639572024345398,0.19241666793823242
1789214489123380500,11.00338037109375,-0.9184346199035645,0.2734542787075043,0.23014700412750244
1789214489133412600,11.01341259765625,-0.7727137804031372,0.14546653628349304,0.45313289761543274
1789214489143443700,11.023443603515625,-0.7543182969093323,0.15597403049468994,0.8642290234565735
1789214489153475600,11.0334755859375,-0.7046435475349426,0.4164697825908661,1.0165348052978516
1789214489163507500,11.043507568359376,-0.5331943035125732,0.4331084191799164,1.0237079858779907
1789214489173539300,11.053539306640625,-0.32667022943496704,0.12707269191741943,1.0043106079101562
1789214489183571500,11.063571533203126,-0.1740732342004776,-0.06742488592863083,0.9851524233818054
1789214489193603600,11.073603515625,-0.029279183596372604,-0.16086353361606598,1.1341322660446167
1789214489203635500,11.083635498046876,0.11110615730285645,-0.0863051488995552,1.271812081336975
1789214489213667600,11.09366748046875,0.33455005288124084,0.054350364953279495,1.4083276987075806
1789214489223699500,11.103699462890624,0.638242781162262,0.33845025300979614,1.5044550895690918
1789214489233730600,11.11373046875,0.9783610701560974,0.6617467403411865,1.543596625328064
1789214489243762400,11.123762451171874,1.2434990406036377,0.8775432109832764,1.5389461517333984
1789214489253794300,11.133794189453125,1.366220235824585,0.8639285564422607,1.5105594396591187
1789214489263826700,11.14382666015625,1.4436525106430054,0.8629458546638489,1.444435477256775
1789214489273858600,11.153858642578125,1.5745311975479126,0.7843831181526184,1.35493803024292
1789214489283890400,11.163890380859375,1.758527159690857,0.5228554010391235,1.3108052015304565
1789214489293922300,11.17392236328125,1.948630690574646,0.2943609058856964,1.3078488111495972
1789214489303954700,11.18395458984375,2.1170501708984375,0.33415812253952026,1.2779181003570557
1789214489313986600,11.193986572265626,2.1968955993652344,0.3809170424938202,1.2510648965835571
1789214489324018400,11.204018310546875,2.1645023822784424,0.41690513491630554,1.1951444149017334
1789214489334049500,11.214049560546876,2.097788095474243,0.40627363324165344,1.078212857246399
1789214489344081400,11.224081298828125,2.047679901123047,0.12477218359708786,1.0446382761001587
1789214489354113500,11.234113525390624,2.0665218830108643,-0.1709904968738556,1.038710594177246
1789214489364145400,11.2441455078125,2.1520583629608154,-0.4411335587501526,0.9537208080291748
1789214489374177500,11.254177490234374,2.21573543548584,-0.8348737955093384,0.7807468771934509
1789214489384209700,11.264209716796875,2.186033010482788,-1.270113229751587,0.5858407616615295
1789214489394241500,11.274241455078124,2.048712968826294,-1.4528981447219849,0.49465128779411316
1789214489404273400,11.2842734375,1.8022878170013428,-1.221343755722046,0.6308586001396179
1789214489414305800,11.294305908203125,1.4848426580429077,-0.9106774926185608,0.7533364295959473
1789214489424336600,11.304336669921875,1.121621012687683,-0.6463547348976135,0.8118937611579895
1789214489434368500,11.314368408203125,0.8285505771636963,-0.4173039197921753,0.8811852931976318
1789214489444401000,11.32440087890625,0.6930817365646362,-0.3859526813030243,0.9471811056137085
1789214489454432800,11.334432861328125,0.6531046628952026,-0.47882044315338135,1.03717839717865
1789214489464464600,11.344464599609376,0.6874221563339233,-0.4920555353164673,1.1084355115890503
1789214489474496500,11.35449658203125,0.6395207047462463,-0.4049074053764343,1.067872405052185
1789214489484529000,11.36452880859375,0.4352477490901947,-0.29846566915512085,0.9348927736282349
1789214489494560800,11.374560791015625,0.2217501401901245,-0.23356923460960388,0.781269371509552
1789214489504592600,11.384592529296874,0.03021613508462906,-0.1295243352651596,0.6785560250282288
1789214489514624500,11.39462451171875,-0.13462957739830017,-0.05773720145225525,0.6646149158477783
1789214489524655600,11.404655517578124,-0.3907257914543152,0.052042022347450256,0.7173612713813782
1789214489534687700,11.414687744140625,-0.577979564666748,0.15874707698822021,0.7124796509742737
1789214489544719600,11.4247197265625,-0.6020521521568298,0.2001059651374817,0.5651327967643738
1789214489554751700,11.434751708984376,-0.5378301739692688,0.0654626116156578,0.32625359296798706
1789214489564783600,11.44478369140625,-0.44966626167297363,-0.13898798823356628,0.07112889736890793
1789214489574815700,11.454815673828126,-0.390063613653183,-0.20576518774032593,-0.15186479687690735
1789214489584847600,11.46484765625,-0.3463883101940155,-0.1306411474943161,-0.39473631978034973
1789214489594879700,11.474879638671876,-0.3601289689540863,0.13108345866203308,-0.5531584024429321
1789214489604911900,11.484911865234375,-0.4282294511795044,0.434665709733963,-0.588208794593811
1789214489614943700,11.49494384765625,-0.49980875849723816,0.6550267934799194,-0.5279833078384399
1789214489624975600,11.5049755859375,-0.5405793190002441,0.9050161242485046,-0.4256223142147064
1789214489635006700,11.5150068359375,-0.5194764733314514,1.029858112335205,-0.34094682335853577
1789214489645038600,11.52503857421875,-0.4833323359489441,1.1052910089492798,-0.30810683965682983
1789214489655070700,11.53507080078125,-0.42373380064964294,0.9812020063400269,-0.3268074691295624
1789214489665102800,11.545102783203125,-0.3630635440349579,0.6839146614074707,-0.39103439450263977
1789214489675134700,11.555134765625,-0.27672281861305237,0.2245003879070282,-0.5165989398956299
1789214489685166600,11.56516650390625,-0.22983281314373016,0.08185935020446777,-0.6849765181541443
1789214489695198700,11.57519873046875,-0.20204061269760132,0.180913046002388,-0.8476104140281677
1789214489705230600,11.585230712890626,-0.236735999584198,0.3426654636859894,-0.9194097518920898
1789214489715262700,11.5952626953125,-0.3174329102039337,0.39516153931617737,-0.8618123531341553
1789214489725294600,11.605294677734374,-0.3611777424812317,0.3138517439365387,-0.7411389350891113
1789214489735325700,11.61532568359375,-0.36677655577659607,0.19554400444030762,-0.6631210446357727
1789214489745357800,11.62535791015625,-0.382807195186615,0.22969770431518555,-0.6760187745094299
1789214489755389700,11.6353896484375,-0.40445131063461304,0.28256160020828247,-0.8210873603820801
1789214489765421600,11.645421630859374,-0.4719557762145996,0.3376983404159546,-1.1121906042099
1789214489775453400,11.655453369140625,-0.5250919461250305,0.5427767038345337,-1.3896616697311401
1789214489785485800,11.66548583984375,-0.624804675579071,0.878385603427887,-1.4167723655700684
1789214489795517700,11.675517578125,-0.8742385506629944,0.8705834746360779,-1.1589298248291016
1789214489805549600,11.685549560546875,-1.2339328527450562,0.6772834658622742,-0.7829535007476807
1789214489815581700,11.695581787109376,-1.5732382535934448,0.5016963481903076,-0.5290032625198364
1789214489825613800,11.70561376953125,-1.7331173419952393,0.49669361114501953,-0.4810751676559448
1789214489835645700,11.715645751953126,-1.6614577770233154,0.4194006025791168,-0.6962919235229492
1789214489845676500,11.725676513671875,-1.4469867944717407,0.11356773227453232,-1.0796536207199097
1789214489855708700,11.735708740234376,-1.2063456773757935,-0.19274474680423737,-1.4743273258209229
1789214489865740800,11.74574072265625,-0.9985072016716003,-0.1860375702381134,-1.6557035446166992
1789214489875772700,11.755772705078124,-0.9574562907218933,0.018533166497945786,-1.6405571699142456
1789214489885804500,11.765804443359375,-1.0161269903182983,0.2359216809272766,-1.6596496105194092
1789214489895836700,11.775836669921874,-1.0675822496414185,0.46658235788345337,-1.733738899230957
1789214489905868800,11.785868896484375,-1.007599115371704,0.48941653966903687,-1.69981050491333
1789214489915900700,11.795900634765625,-0.9443087577819824,0.20560301840305328,-1.3687856197357178
1789214489925932500,11.8059326171875,-0.9755499958992004,0.06393030285835266,-1.0557507276535034
1789214489935964700,11.815964599609375,-0.9649186134338379,0.04388350993394852,-1.1805521249771118
1789214489945996800,11.825996826171876,-0.9153955578804016,0.008657076396048069,-1.3654077053070068
1789214489956028700,11.836028564453125,-0.8577898144721985,0.04975365474820137,-1.300061583518982
1789214489966060500,11.846060546875,-0.7177764773368835,0.0019089002162218094,-0.9465211629867554
1789214489976091600,11.856091552734375,-0.5434027314186096,-0.0138858025893569,-0.5972636342048645
1789214489986123800,11.866123779296874,-0.5840016007423401,-0.013694853521883488,-0.43567636609077454
1789214489996155600,11.87615576171875,-0.7243661284446716,0.01976999081671238,-0.09612490981817245
1789214490006187800,11.886187744140624,-0.8525869846343994,0.1878812313079834,0.25072601437568665
1789214490016219600,11.8962197265625,-0.8593204021453857,0.1548285186290741,0.4298687279224396
1789214490026251800,11.906251708984374,-0.7144135236740112,-0.2477828562259674,0.2820534408092499
1789214490036283600,11.91628369140625,-0.3822678327560425,-0.5076745748519897,0.2128850221633911
1789214490046315800,11.926315673828125,-0.02891295962035656,-0.6687542796134949,0.32430529594421387
1789214490056347600,11.93634765625,0.3013257086277008,-0.8005507588386536,0.4789944589138031
1789214490066379800,11.9463798828125,0.5515366196632385,-0.9730892777442932,0.6890680193901062
1789214490076411600,11.95641162109375,0.7750380039215088,-0.7717741131782532,0.8914018273353577
1789214490086443800,11.96644384765625,0.9934571981430054,-0.3661099970340729,1.1278555393218994
1789214490096474600,11.976474609375,1.203315019607544,0.08282192796468735,1.4724756479263306
1789214490106506500,11.986506591796875,1.620742678642273,0.8986051678657532,1.639647364616394
1789214490116539000,11.996538818359374,2.0828299522399902,1.9566794633865356,1.2169559001922607
1789214490126570800,12.00657080078125,2.2542974948883057,1.270176887512207,1.1929608583450317
1789214490136602600,12.0166025390625,2.1591238975524902,0.5819404125213623,1.0651613473892212
1789214490146634500,12.026634521484375,1.8644598722457886,0.1815488189458847,0.9543467164039612
1789214490156667000,12.0366669921875,1.8091486692428589,0.44998177886009216,0.9868741631507874
1789214490166698800,12.04669873046875,1.8208500146865845,0.7296637296676636,0.8575731515884399
1789214490176730600,12.056730712890625,1.5567723512649536,0.5202015042304993,0.6169506311416626
1789214490186762500,12.066762451171876,1.2354841232299805,-0.07577051222324371,0.6822646260261536
1789214490196794600,12.076794677734375,1.1885921955108643,-0.6674019694328308,0.8220603466033936
1789214490206826800,12.08682666015625,1.3739285469055176,-1.1510685682296753,0.7936598658561707
1789214490216858600,12.096858642578125,1.5844446420669556,-1.3529226779937744,0.681160569190979
1789214490226889700,12.1068896484375,1.5528143644332886,-1.1570618152618408,0.7387727499008179
1789214490236921900,12.116921875,1.2264286279678345,-0.8906349539756775,0.8758412599563599
1789214490246953700,12.12695361328125,0.782059371471405,-0.7963643670082092,1.0508968830108643
1789214490256985600,12.136985595703125,0.5701625347137451,-0.6874656677246094,1.2322603464126587
1789214490267017700,12.147017822265624,0.5744462013244629,-0.5510185956954956,1.3818600177764893
1789214490277049900,12.1570498046875,0.7593175172805786,-0.6600640416145325,1.379048466682434
1789214490287081700,12.167081787109375,1.090714693069458,-0.8146339058876038,1.2487804889678955
1789214490297113600,12.177113525390626,1.4407958984375,-0.6383163928985596,1.0558958053588867
1789214490307145500,12.1871455078125,1.436248540878296,-0.5878021121025085,0.9523451924324036
1789214490317177900,12.197177734375,1.0906476974487305,-0.4925325810909271,1.018622875213623
1789214490327209700,12.207209716796875,0.5897760987281799,-0.40644535422325134,1.0410716533660889
1789214490337241600,12.21724169921875,0.1430359184741974,-0.29677799344062805,0.9776303172111511
1789214490347273500,12.2272734375,-0.20283706486225128,-0.22775204479694366,0.8857297301292419
1789214490357305900,12.237305908203124,-0.48310378193855286,-0.21445204317569733,0.833088219165802
1789214490367336700,12.247336669921875,-0.6011382937431335,-0.19397634267807007,0.7938917875289917
1789214490377368600,12.25736865234375,-0.550449550151825,-0.035117894411087036,0.7218626141548157
1789214490387400700,12.267400634765625,-0.41529595851898193,0.146647647023201,0.5932708382606506
1789214490397432800,12.277432861328125,-0.25019288063049316,0.17655031383037567,0.3788323402404785
1789214490407464000,12.2874638671875,-0.10866743326187134,0.08795413374900818,0.10396775603294373
1789214490417496300,12.297496337890625,-0.06243397295475006,0.11983076483011246,-0.13889537751674652
1789214490427528200,12.307528076171875,-0.026058925315737724,0.23949722945690155,-0.3164970576763153
1789214490437560000,12.31756005859375,-0.000821955967694521,0.4101751446723938,-0.4494371712207794
1789214490447592200,12.32759228515625,-0.026813343167304993,0.6751887202262878,-0.5089231133460999
1789214490457624300,12.337624267578125,-0.04709332063794136,0.7978470921516418,-0.5341553688049316
1789214490467656200,12.34765625,-0.033046476542949677,0.5717319250106812,-0.5865498781204224
1789214490477688000,12.35768798828125,-0.06682953983545303,0.317644327878952,-0.6472880244255066
1789214490487720200,12.36772021484375,-0.11732440441846848,0.2905815541744232,-0.728096604347229
1789214490497752000,12.377751953125,-0.13857251405715942,0.2957894504070282,-0.8716421723365784
1789214490507783200,12.387783203125,-0.1308397352695465,0.16793082654476166,-1.096915602684021
1789214490517815000,12.39781494140625,-0.15021169185638428,0.008234539069235325,-1.299741506576538
1789214490527847200,12.40784716796875,-0.2218552529811859,0.05829530581831932,-1.4367643594741821
1789214490537879300,12.41787939453125,-0.27210095524787903,0.1568460464477539,-1.5597695112228394
1789214490547911200,12.4279111328125,-0.355034202337265,0.24383527040481567,-1.6281830072402954
1789214490557943000,12.437943115234376,-0.44325539469718933,0.20051530003547668,-1.6206910610198975
1789214490567975200,12.44797509765625,-0.5626137256622314,0.2645406126976013,-1.3396042585372925
1789214490578007300,12.45800732421875,-0.7135504484176636,0.4708366394042969,-0.8501189947128296
1789214490588039200,12.4680390625,-0.9299921989440918,0.69633948802948,-0.4795404076576233
1789214490598071000,12.478071044921874,-1.1665560007095337,0.8490279912948608,-0.3808729946613312
1789214490608103000,12.48810302734375,-1.4427388906478882,1.0097790956497192,-0.4762149453163147
1789214490618135300,12.49813525390625,-1.6932977437973022,1.0535008907318115,-0.6843576431274414
1789214490628167200,12.508167236328125,-1.6848489046096802,0.7292136549949646,-0.9394099116325378
1789214490638199000,12.518198974609374,-1.4476454257965088,0.13181355595588684,-1.2110557556152344
1789214490648231000,12.52823095703125,-1.2718342542648315,-0.25362280011177063,-1.3472471237182617
1789214490658263300,12.53826318359375,-1.1991373300552368,-0.23625808954238892,-1.4019449949264526
1789214490668294100,12.548294189453125,-1.1928828954696655,-0.0059836129657924175,-1.4024171829223633
