time,seconds_elapsed,z,y,x
1790097302376150784,0.13415087890625,0.0059442520141601,0.2506680488586426,-0.1898524463176727
1790097302386150656,0.14415087890625,-0.13451664346675338,0.2891367387933427,-0.43581975977462994
1790097302396150784,0.15415087890625,-0.19235324568088935,-0.1080136177827102,-0.403871579870146
1790097302406150656,0.16415087890625002,-0.13487076209645268,-0.5293414554696749,-0.09590610272865384
1790097302416150784,0.17415087890625003,-0.188514885724893,-0.6291146300801992,0.17722182226105135
1790097302426150656,0.18415087890625004,-0.291859013938968,-0.515274758091992,0.4036597431073531
1790097302436150784,0.19415087890625005,-0.22152486251044742,-0.45914166070819507,0.6528551493564156
1790097302446150656,0.20415087890625006,-0.06024527533067093,-0.43233819857263955,0.7411909492604885
1790097302456150784,0.21415087890625006,0.0038881046680658993,-0.22278029676626543,0.5788328352956301
1790097302466150656,0.22415087890625007,0.03893303421494898,-0.07295104943408798,0.472548592266641
1790097302476150784,0.23415087890625008,0.04685252889142313,-0.002311320398997417,0.415399651880443
1790097302486150656,0.2441508789062501,-0.10559899368260645,-0.08424609871263591,0.3086353196251218
1790097302496150784,0.2541508789062501,-0.40283418646699576,-0.2883732455127973,0.16547322412375998
1790097302506150656,0.2641508789062501,-0.6412717724046573,-0.5019700258699287,0.004654413741015301
1790097302516150784,0.2741508789062501,-0.6620884236392353,-0.5526129485739288,-0.18705025394189584
1790097302526150656,0.2841508789062501,-0.4197943389411079,-0.3745644275136751,-0.40295403727299206
1790097302536150784,0.29415087890625014,-0.19115729144456597,-0.08647746224766362,-0.5833666596682714
1790097302546150656,0.30415087890625014,-0.2158357685907688,0.09816474383496435,-0.6091268250989832
1790097302556150784,0.31415087890625015,-0.35901083515974025,0.10585487803931998,-0.4546651652768978
1790097302566150656,0.32415087890625016,-0.39210482976068406,0.0656801584869368,-0.17897204835764252
1790097302576150784,0.33415087890625017,-0.2532948527111991,-0.015020572758113988,0.27395937601944437
1790097302586150656,0.3441508789062502,-0.01504721171398329,-0.2016311122817655,0.7290076398582714
1790097302596150784,0.3541508789062502,0.027708697376470543,-0.4881609626108053,0.7927524066475312
1790097302606150656,0.3641508789062502,-0.042732199955482,-0.5696640652819573,0.33025547283608486
1790097302616150784,0.3741508789062502,-0.21127028663279568,-0.24774770162556847,-0.3258938462185353
1790097302626150656,0.3841508789062502,-0.45636103258908833,0.08532571813603029,-0.7811335153565694
1790097302636150784,0.3941508789062502,-0.3991470579279362,0.04714268625240653,-0.9470965192573124
1790097302646150656,0.40415087890625023,0.039528051357430205,-0.25183754862752994,-0.7740690177183176
1790097302656150784,0.41415087890625024,0.7476624971621894,-0.548816916967432,-0.38863519626072596
1790097302666150656,0.42415087890625025,1.2110965909162683,-0.6942384132452378,-0.05961663798313502
1790097302676150784,0.43415087890625026,1.0512812616590257,-0.5181603262157022,-0.1680759249000773
1790097302686150656,0.44415087890625027,0.5803851230425835,-0.13956497080019126,-0.46376652870428287
1790097302696150784,0.4541508789062503,0.2553900682148779,0.20984627767498473,-0.66103393634655
1790097302706150656,0.4641508789062503,-0.40857944523116657,0.24858482181717168,-0.5442970563031194
1790097302716150784,0.4741508789062503,-1.0967522797777678,0.2854759978684782,-0.4082578151915469
1790097302726150656,0.4841508789062503,-1.284001655241632,0.37094190911143304,-0.2441957112569428
1790097302736150784,0.4941508789062503,-1.2646874570270934,0.34238728438811433,-0.19917139108487183
1790097302746150656,0.5041508789062503,-1.3044938548748166,0.27156809247752556,-0.29313450924631385
1790097302756150784,0.5141508789062503,-1.3547795873513346,0.15288118559974936,-0.4342738748266903
1790097302766150656,0.5241508789062503,-1.3275155105021574,-0.09407118051084853,-0.3751040210421398
1790097302776150784,0.5341508789062503,-1.250655640123369,-0.41944983508154243,-0.04040176716746541
1790097302786150656,0.5441508789062504,-1.0736545100520458,-0.6834248463566096,0.469907212157346
1790097302796150784,0.5541508789062504,-0.46738011156167947,-0.8223673060305953,0.941623701354045
1790097302806150656,0.5641508789062504,0.2602271473360718,-0.8746323016841099,1.2389140628365776
1790097302816150784,0.5741508789062504,0.5936055284082234,-0.9630318421346405,1.3063723335574173
1790097302826150656,0.5841508789062504,0.7281601473951629,-1.163008097163145,1.1877149300068712
1790097302836150784,0.5941508789062504,0.8878027730734158,-1.4834478380105733,1.012270592157119
1790097302846150656,0.6041508789062504,0.9784802916161037,-1.7965384207607753,0.8282012234332666
1790097302856150784,0.6141508789062504,0.8291485443198177,-1.9819627706752798,0.652703813260603
1790097302866150656,0.6241508789062504,0.36220682903208856,-1.9766316641353516,0.34860846277813895
1790097302876150784,0.6341508789062504,-0.5429159513499464,-2.19993588703353,1.0850852353564568
1790097302886150656,0.6441508789062504,-1.3874180091668398,-2.4877907787035354,2.2866895761870554
1790097302896150784,0.6541508789062505,-1.003097678088098,-1.9853355360397564,2.027218426517137
1790097302906150656,0.6641508789062505,-0.8880142312862702,-1.0900224124837403,0.9222703933868228
1790097302916150784,0.6741508789062505,-1.2414597045856373,-0.4906828632944756,-0.0031227205268497538
1790097302926150656,0.6841508789062505,-1.7045412640467816,-0.5069346045363683,-0.42869188587478646
1790097302936150784,0.6941508789062505,-2.082255506755157,-0.7166192639609641,-0.4171204864469156
1790097302946150656,0.7041508789062505,-2.2042441698306567,-0.584353418487638,-0.11404464102777478
1790097302956150784,0.7141508789062505,-2.0841819204868224,-0.35988698144534553,0.256574006903576
1790097302966150656,0.7241508789062505,-1.6542760966673145,-0.27990624824708854,0.6132428112964374
1790097302976150784,0.7341508789062505,-1.2502463083619624,-0.518212272317585,0.7760296424822891
1790097302986150656,0.7441508789062505,-1.9932763128600963,-0.5524498739827264,0.46870768450680306
1790097302996150784,0.7541508789062505,-2.3883760573379127,-0.8409834558928608,0.6924656452698907
1790097303006150656,0.7641508789062506,-3.1142028622212594,-1.7053148243014706,1.3356913184969332
1790097303016150784,0.7741508789062506,-3.7503487982344734,-2.8385628645743357,1.9730795146807814
1790097303026150656,0.7841508789062506,-2.092794941494475,-3.981847512957393,2.649480093514348
1790097303036150784,0.7941508789062506,0.314068330494942,-4.222268420064651,2.867759651701933
1790097303046150656,0.8041508789062506,2.8317988968919936,-3.2012817338786217,2.509685179825324
1790097303056150784,0.8141508789062506,5.573244255037964,-2.7833550960237865,2.1036915732605683
1790097303066150656,0.8241508789062506,7.067056469897432,-2.8476786639158425,1.527365200627796
1790097303076150784,0.8341508789062506,7.150184478825433,-2.687530664244983,0.8857456220962131
1790097303086150656,0.8441508789062506,6.27908921017547,-2.6144471069941284,0.4078347366840058
1790097303096150784,0.8541508789062506,5.1591622815786495,-2.5435256157535044,0.10931805347438117
1790097303106150656,0.8641508789062506,3.846527972324304,-2.4503949805063416,-0.15556046776338345
1790097303116150784,0.8741508789062507,2.4237769903942716,-2.0896037022117957,-0.5166498182820836
1790097303126150656,0.8841508789062507,1.3927238753340436,-1.9186875395650071,-0.9627657639097702
1790097303136150784,0.8941508789062507,0.8309517521653115,-2.493396257589614,-1.2288180535139026
1790097303146150656,0.9041508789062507,0.8786255014936687,-3.173969651237044,-1.7040090351783088
1790097303156150784,0.9141508789062507,5.959000552109633,-2.701195745714398,-3.5724134697625036
1790097303166150656,0.9241508789062507,10.768614452523714,-1.7864882111755689,-5.083535211345337
1790097303176150784,0.9341508789062507,10.846639867539286,-1.5372990845911176,-5.228083171164075
1790097303186150656,0.9441508789062507,8.283970442530055,-1.3682573579838784,-4.6496869968901855
1790097303196150784,0.9541508789062507,6.280260146959608,-1.2997059114998213,-4.082085745244623
1790097303206150656,0.9641508789062507,4.677323208352716,-1.219590832589769,-3.944450043757363
1790097303216150784,0.9741508789062507,3.6322081669146975,-1.1263575817863305,-3.869859472493454
1790097303226150656,0.9841508789062507,3.4859038764172325,-0.9470265055872428,-3.696569497398564
1790097303236150784,0.9941508789062508,3.637354155951279,-0.6948645469367023,-3.385093664209446
1790097303246150656,1.0041508789062508,3.1907003631350577,-0.35081688603791317,-2.877304972430209
1790097303256150784,1.0141508789062508,2.3053607384974533,-0.06400609962037168,-2.5042638825998287
1790097303266150656,1.0241508789062508,0.5215436485316642,0.023118607806791827,-2.2092791022886433
1790097303276150784,1.0341508789062508,-1.2226356122658584,0.057639262684962465,-2.015928302749187
1790097303286150656,1.0441508789062508,-0.19576106167867136,0.5342269943019314,-2.374332517142332
1790097303296150784,1.0541508789062508,1.6117420791391774,1.1369455640592692,-3.0130137786609827
1790097303306150656,1.0641508789062508,0.645683965414007,1.2111668056074543,-3.5658013685328784
1790097303316150784,1.0741508789062508,0.14225968705946349,1.281213664936913,-4.574182157501027
1790097303326150656,1.0841508789062508,1.970677980984387,2.145515612439784,-5.833646436981783
1790097303336150784,1.0941508789062508,3.4219791613720454,3.2226983369538815,-6.886352286197206
1790097303346150656,1.1041508789062509,3.9519657514780167,4.101335894387735,-7.3619213684082005
1790097303356150784,1.1141508789062509,3.845808671900042,4.548722600397099,-7.302947180613504
1790097303366150656,1.1241508789062509,3.3659876921801692,4.364647742015938,-6.633421772903941
1790097303376150784,1.1341508789062509,3.2610332997597453,4.5635129016864395,-5.661649702126498
1790097303386150656,1.144150878906251,3.5669822200543515,4.7894096427135535,-4.610028304262015
1790097303396150784,1.154150878906251,3.675110969440654,4.953099068611811,-3.4592300662320095
1790097303406150656,1.164150878906251,3.341956528371844,5.0942880461207976,-2.701225839869655
1790097303416150784,1.174150878906251,2.904138191287143,5.049054058316865,-2.564758815196177
1790097303426150656,1.184150878906251,2.4292889700720592,5.018874550834175,-2.9584445238645136
1790097303436150784,1.194150878906251,1.9086585389252304,4.9751214087735,-3.5845731037601616
1790097303446150656,1.204150878906251,1.3335240532803434,4.5553727527469645,-4.116263820595066
1790097303456150784,1.214150878906251,0.9541055071628881,3.629283819299554,-3.9864194495872427
1790097303466150656,1.224150878906251,0.9822676050978775,2.6816792934522238,-2.8658504992788427
1790097303476150784,1.234150878906251,1.401062683782361,2.109295422448803,-1.471915030151337
1790097303486150656,1.244150878906251,1.8727051799481382,1.2896728810242544,0.2064385806208613
1790097303496150784,1.254150878906251,2.2811689415125684,0.85921200656915,1.1781836310674254
1790097303506150656,1.264150878906251,2.008516679742209,1.6826568889801843,0.9093077353235919
1790097303516150784,1.274150878906251,0.9401959956010828,1.2875826746986867,1.1392161790758086
1790097303526150656,1.284150878906251,1.2473067480560944,1.7606467893833657,-1.2253139700342197
1790097303536150784,1.294150878906251,0.8167584305829261,-0.1403004611738822,-2.6316794003424033
1790097303546150656,1.304150878906251,1.3913645908247017,-0.19669595657446023,-3.5381845219673487
1790097303556150784,1.314150878906251,0.4646854064137489,0.7543901040181669,-3.7674018445741826
1790097303566150656,1.324150878906251,-1.4053891183540286,0.2638038185504402,-3.1153168899894386
1790097303576150784,1.334150878906251,-1.5550035505020103,-1.564863230452016,-1.8260578616567371
1790097303586150656,1.344150878906251,-0.3258343659980155,-2.203133844871031,-1.1307477841604558
1790097303596150784,1.354150878906251,0.20806289937800174,-2.5929368897944576,-0.18139595953404553
1790097303606150656,1.364150878906251,0.35443142226860125,-3.2398846406572575,1.3494591145952088
1790097303616150784,1.374150878906251,-0.15594337036026362,-4.4163909742232885,3.233442814040708
1790097303626150656,1.384150878906251,-1.0534670030903013,-5.877539855916083,5.161050442469583
1790097303636150784,1.3941508789062511,-1.5630911479005667,-6.473979728030008,6.5266484401902956
1790097303646150656,1.4041508789062511,-0.5731804942929948,-5.863128612229261,7.2812516774163925
1790097303656150784,1.4141508789062511,0.529283507006696,-5.247940625845655,7.252995969347323
1790097303666150656,1.4241508789062511,0.02883054214356573,-6.045762121884432,6.240816097902709
1790097303676150784,1.4341508789062511,-1.385363908806253,-7.350404364788434,4.24206224313875
1790097303686150656,1.4441508789062512,-2.2736570889899204,-8.583974230663454,1.5023690568190617
1790097303696150784,1.4541508789062512,-2.4571547330233168,-8.616334013912772,-1.034486203752138
1790097303706150656,1.4641508789062512,-2.2005118279463183,-8.019077821083261,-2.9212116176557417
1790097303716150784,1.4741508789062512,-1.2630214744525452,-7.048852193213683,-4.145345079272302
1790097303726150656,1.4841508789062512,0.014390257028155135,-5.978512018536712,-4.687820859821476
1790097303736150784,1.4941508789062512,0.967930516190956,-5.064443820752043,-4.775836669269316
1790097303746150656,1.5041508789062512,1.382395433036844,-4.113557620818231,-4.261641980020323
1790097303756150784,1.5141508789062512,1.2977105205267132,-3.2802458271263317,-3.2950528883469206
1790097303766150656,1.5241508789062512,1.0351495475733035,-2.6618282843621155,-2.8348996923486154
1790097303776150784,1.5341508789062512,0.7506838861003984,-2.1407198934850133,-2.819347111098728
1790097303786150656,1.5441508789062512,0.6102901621622252,-1.7171243184909781,-2.686939366054862
1790097303796150784,1.5541508789062513,0.7204892953373057,-1.7220998638383909,-2.4569578277752853
1790097303806150656,1.5641508789062513,0.9409322232669917,-1.9344482120092106,-2.2132254976030286
1790097303816150784,1.5741508789062513,0.8729132748783939,-1.9887221874756775,-1.7958784767488847
1790097303826150656,1.5841508789062513,0.6172538748874632,-2.070437810710179,-1.290133827566741
1790097303836150784,1.5941508789062513,0.1455453195556876,-1.7772395216141534,-0.6386427958389552
1790097303846150656,1.6041508789062513,-0.5334849056563872,-0.6421966879345504,0.27228813145951314
1790097303856150784,1.6141508789062513,-1.0482531671023343,0.8090488324294998,1.2369316064981382
1790097303866150656,1.6241508789062513,-0.8521988380448592,0.9431028812214257,2.3285472591054246
1790097303876150784,1.6341508789062513,-0.08209290366960395,-0.66987144535716,2.306854756328424
1790097303886150656,1.6441508789062513,0.3510283631014422,-1.952908956946907,1.5490922637746136
1790097303896150784,1.6541508789062513,0.42466092933601,-2.647963351335282,1.1249991190704396
1790097303906150656,1.6641508789062514,0.17435450136613906,-2.971651380528188,1.016045638350195
1790097303916150784,1.6741508789062514,-0.5147255638505961,-2.950277242329177,1.0592031094827956
1790097303926150656,1.6841508789062514,-1.4853592622695746,-2.258029578865373,1.1265039120445424
1790097303936150784,1.6941508789062514,-2.5606053288418327,-0.8968693843630382,1.3362473224451994
1790097303946150656,1.7041508789062514,-3.2876347579905336,0.44837545052795025,1.8402850577871788
1790097303956150784,1.7141508789062514,-3.247462346018757,1.199156085331083,2.3754440198865105
1790097303966150656,1.7241508789062514,-2.7348668037993464,1.4513031011579,2.4842423048325917
1790097303976150784,1.7341508789062514,-2.0640001608661636,1.333974962580227,2.253425987133473
1790097303986150656,1.7441508789062514,-1.6633975972635198,1.0238732848350496,2.055705090988634
1790097303996150784,1.7541508789062514,-1.721280423474669,0.9203507355101191,1.8267392844802124
1790097304006150656,1.7641508789062514,-1.8203442347784542,0.8950989195227065,1.8849670407265784
1790097304016150784,1.7741508789062514,-1.8526297242637506,0.8870843810302002,1.7269878170285395
1790097304026150656,1.7841508789062515,-1.793930229093874,0.7835111286002224,1.4127030857955174
1790097304036150784,1.7941508789062515,-1.3924795488708466,0.46608866207927907,1.2501579569935082
1790097304046150656,1.8041508789062515,-0.6677741757093313,0.17089784566813365,1.177364387485522
1790097304056150784,1.8141508789062515,-0.1076218201173213,0.42098675683731485,1.168404596506178
1790097304066150656,1.8241508789062515,-0.24192582646239028,1.3867556292075935,1.2299869279529105
1790097304076150784,1.8341508789062515,-0.9085809078826812,2.656296911259806,1.3377213378029387
1790097304086150656,1.8441508789062515,-1.2267198336315328,3.4470716688146177,1.4138583293378415
1790097304096150784,1.8541508789062515,-0.7620533225244964,3.5746618709873905,1.5439371791164986
1790097304106150656,1.8641508789062515,-0.09139393190141493,3.588855021395753,1.5980220200332749
1790097304116150784,1.8741508789062515,0.14798895621750197,3.8062803193957007,1.404255261115669
1790097304126150656,1.8841508789062515,-0.04163904805987245,3.9879679261475545,1.0502347807936627
1790097304136150784,1.8941508789062516,-0.23893348382752766,3.83543515455527,0.6704417337997267
1790097304146150656,1.9041508789062516,-0.4921997271760035,3.3944555477899803,0.23475833781838784
1790097304156150784,1.9141508789062516,-0.7383748794996995,3.000302985272663,-0.12313579958371848
1790097304166150656,1.9241508789062516,-0.42491724556522503,2.659762350537776,-0.09362890029773213
1790097304176150784,1.9341508789062516,-0.43059050531907384,2.6961889342568073,0.18673123077073528
1790097304186150656,1.9441508789062516,-0.7197785983416647,2.857492839408979,0.5245064028847906
1790097304196150784,1.9541508789062516,-1.1445416894243787,2.682529860551217,1.0070151940044532
1790097304206150656,1.9641508789062516,-1.0212344228835393,1.8011933036428884,1.7897266285524882
1790097304216150784,1.9741508789062516,-1.1897968793422191,0.6681571171129386,2.566943615836453
1790097304226150656,1.9841508789062516,-1.636270970879724,-0.33451742796359635,3.0911283424237785
1790097304236150784,1.9941508789062516,-1.602273218613361,-1.1088211437183406,2.9543582446426013
1790097304246150656,2.004150878906252,-1.2610173365731785,-1.818428663796086,2.210185982613116
1790097304256150784,2.0141508789062517,-0.8818004436126312,-2.4947289000806214,1.1827234200517365
1790097304266150656,2.0241508789062514,-0.830713247637129,-3.1742167367968923,0.30648905878316246
1790097304276150784,2.0341508789062517,-0.9630604976663043,-3.1296972898505753,-0.8342248927820146
1790097304286150656,2.044150878906252,-0.999019585780869,-3.1872349256975894,-0.8840215015847368
1790097304296150784,2.0541508789062517,-0.4960096694684285,-2.9228829175664415,-0.43257618366728645
1790097304306150656,2.0641508789062515,0.13928614546684864,-2.299680885697331,-0.4476517979626191
1790097304316150784,2.0741508789062517,0.11790223585000362,-1.5594922242171179,-0.7922095509781226
1790097304326150656,2.084150878906252,-0.26309411594479254,-1.5773430430380793,-0.86108594078965
1790097304336150784,2.0941508789062517,0.8132973605196008,-1.2282346110473954,-1.4457941915661303
1790097304346150656,2.1041508789062515,0.8191935365141747,-0.014877536408653518,-2.8828353265915845
1790097304356150784,2.1141508789062518,0.07078756075103158,-0.5000662954046571,-2.2771853362489662
1790097304366150656,2.124150878906252,-0.18825086481605396,-0.0690507233467863,-1.6245395521563788
1790097304376150784,2.1341508789062518,0.06999500049637986,0.29897111433320733,-0.7439597521273194
1790097304386150656,2.1441508789062516,0.14037529139140545,0.4047484763464829,0.35458813390685234
1790097304396150784,2.154150878906252,0.37596026719985254,0.5022572515468915,0.5894346121868823
1790097304406150656,2.164150878906252,0.7702039172774402,0.49142144697953855,-0.1509785972412263
1790097304416150784,2.174150878906252,0.18035528113242338,-0.287963130975066,-0.038924073206843934
1790097304426150656,2.1841508789062516,-0.5167970281457726,-0.4819016865105766,0.704751557608753
1790097304436150784,2.194150878906252,-0.3653016633305422,-0.263864593034443,1.6969109029031684
1790097304446150656,2.204150878906252,0.1738854183891715,-0.13889672626366423,2.7710583595396256
1790097304456150784,2.214150878906252,0.6187744749874392,-0.24672246881697985,3.434829127198473
1790097304466150656,2.2241508789062516,0.8654577048367096,-0.6056062855391868,3.4710616028362384
1790097304476150784,2.234150878906252,0.8890449480146798,-0.9384547366475369,3.0120187714100126
1790097304486150656,2.244150878906252,0.7395930205356858,-1.1761444000928885,2.458025739772258
1790097304496150784,2.254150878906252,0.6048734106675605,-1.2897165275708509,1.7701731635852047
1790097304506150656,2.2641508789062517,0.6875816676744276,-1.4755313809105222,1.0015504234011972
1790097304516150784,2.274150878906252,0.8584605725527642,-1.6039324257893288,0.2848290867274869
1790097304526150656,2.284150878906252,1.0840600342124982,-1.588529702032882,-0.06674637657005274
1790097304536150784,2.294150878906252,1.3886311452799216,-1.5598727910216774,-0.03535190076643212
1790097304546150656,2.3041508789062517,1.7590875580276784,-1.522649279530613,-0.05082949072172133
1790097304556150784,2.314150878906252,2.069632283949913,-1.4291530979537457,-0.12369461686714842
1790097304566150656,2.324150878906252,2.123803077808023,-1.306203106111059,-0.12932810608344342
1790097304576150784,2.334150878906252,2.0218162215196456,-1.1615572585080245,-0.13524447555712513
1790097304586150656,2.3441508789062517,1.8581693243235196,-1.298294168365809,-0.3259626802870821
1790097304596150784,2.354150878906252,1.6499653846833382,-1.449257756554376,-0.8323249383121103
1790097304606150656,2.364150878906252,1.4484289431286217,-1.2414923099388373,-1.3896979846508728
1790097304616150784,2.374150878906252,1.358006274606584,-0.7984160682097374,-1.776639140735363
1790097304626150656,2.3841508789062518,1.2391716944269964,-0.45775034103874834,-2.136626399030998
1790097304636150784,2.394150878906252,1.0645396930621815,-0.3468801441663419,-2.287250601236416
1790097304646150656,2.4041508789062522,1.0326214640848546,-0.5075631495946373,-2.106378598341736
1790097304656150784,2.414150878906252,1.0310207414451664,-0.7878685971071833,-1.5811360394988798
1790097304666150656,2.424150878906252,1.0296955669206025,-0.7325119393506999,-0.8644055317338775
1790097304676150784,2.434150878906252,0.9610469303045395,-0.0429626601564161,-0.2341245157890831
1790097304686150656,2.4441508789062523,0.8442484284524089,1.0952478244743904,0.3466122707850241
1790097304696150784,2.454150878906252,0.689657982331658,2.2904017608369935,0.839377695782558
1790097304706150656,2.464150878906252,0.5617397099688229,3.141255873026936,1.1060219334911203
1790097304716150784,2.474150878906252,0.4437744927089602,2.814948948982067,1.0601201264778481
1790097304726150656,2.4841508789062523,0.5011986376742019,2.0180932702011414,0.8682886812557195
1790097304736150784,2.494150878906252,0.48593196494352736,1.499731107362232,0.5546489466267763
1790097304746150656,2.504150878906252,0.24991829168862223,1.1130262174097094,0.33458577518998855
1790097304756150784,2.514150878906252,-0.13196861367795792,0.5653524873267785,0.3446725844645356
1790097304766150656,2.5241508789062523,-0.37472349533609317,-0.062181126870482606,0.5274706894473539
1790097304776150784,2.534150878906252,-0.5128711690087928,-0.4734931294898525,0.8738991178468658
1790097304786150656,2.544150878906252,-0.6032785217562393,-0.606700671607931,1.2321987960056462
1790097304796150784,2.554150878906252,-0.6464506931087096,-0.6264067471686728,1.3465302946289615
1790097304806150656,2.5641508789062524,-0.5316150526043721,-0.6022657201757108,1.1864412210622186
1790097304816150784,2.574150878906252,-0.36275201856627903,-0.5887554113038649,0.7961808233593044
1790097304826150656,2.584150878906252,-0.21806389770012763,-0.6099033821655058,0.28906292600279215
1790097304836150784,2.594150878906252,0.0004710215385988568,-0.7182947435125143,-0.2960400778699915
1790097304846150656,2.6041508789062524,0.3439400029438897,-0.8768224327201812,-0.8968352307855204
1790097304856150784,2.614150878906252,0.6670060811849472,-1.0380198407448953,-1.5088762076654345
1790097304866150656,2.624150878906252,0.8876789100479023,-1.161717967799795,-2.1018422733351394
1790097304876150784,2.634150878906252,1.0280181178126513,-1.1201462226470416,-2.460991477766197
1790097304886150656,2.6441508789062524,1.1670931391836947,-0.8327389131782946,-2.3811273499662433
1790097304896150784,2.6541508789062522,1.1672097202607365,-0.5083760711591743,-2.0586268229098654
1790097304906150656,2.664150878906252,1.0339918338443885,-0.3025850013038205,-1.8245543772400603
1790097304916150784,2.6741508789062522,0.8017265262703459,-0.16162230103085462,-1.7384296603556078
1790097304926150656,2.6841508789062525,0.5418158253468783,-0.24352179394840054,-1.4957561926508356
1790097304936150784,2.6941508789062523,0.4366607329767632,-0.44155518265794436,-1.1729797297958056
1790097304946150656,2.704150878906252,0.3423904375019011,-0.546314835406359,-0.9531945017210028
1790097304956150784,2.7141508789062523,0.31201649045680097,-0.5208637969962258,-0.8481602724596033
1790097304966150656,2.7241508789062525,0.30438877185364543,-0.562042858325101,-0.8975352083987441
1790097304976150784,2.7341508789062523,0.3510251163445139,-0.6489725003961999,-0.944133012400581
1790097304986150656,2.744150878906252,0.4618493883506632,-0.8151986087568999,-0.8839292133368795
1790097304996150784,2.7541508789062523,0.624841513514804,-0.9877536280724207,-0.8122045600609515
1790097305006150656,2.7641508789062526,0.7770996557233757,-1.148224475071825,-0.7010256039077188
1790097305016150784,2.7741508789062523,0.8211210344092162,-1.2912307380858143,-0.6029764350649651
1790097305026150656,2.784150878906252,0.74981666595772,-1.3674489567794967,-0.557824977413561
1790097305036150784,2.7941508789062524,0.6558552488496319,-1.3450670369421749,-0.5875841151469613
1790097305046150656,2.8041508789062526,0.5155113195310885,-1.3798578194066686,-0.673476011943784
1790097305056150784,2.8141508789062524,0.3690707181921594,-1.4010752089054037,-0.8169632476078507
1790097305066150656,2.824150878906252,0.2086418009351177,-1.3708461415801254,-0.976381723598104
1790097305076150784,2.8341508789062524,0.04151280589263022,-1.3418851704506254,-1.1181948768630268
1790097305086150656,2.8441508789062526,-0.1016071364100549,-1.3048460511036255,-1.236892602711847
1790097305096150784,2.8541508789062524,-0.27411886588462603,-1.2082878125404721,-1.3178774148996424
1790097305106150656,2.864150878906252,-0.5126094981916263,-1.0668551999482585,-1.2895997983643703
1790097305116150784,2.8741508789062524,-0.7181111735719455,-0.8825888254367684,-1.23748947783413
1790097305126150656,2.8841508789062527,-0.8240133795884931,-0.7173936980776142,-1.2205207381654362
1790097305136150784,2.8941508789062524,-0.8972584225687472,-0.6219152912896078,-1.1921566086838666
1790097305146150656,2.9041508789062522,-0.9031579853320915,-0.6255862817734178,-1.037955573022491
1790097305156150784,2.9141508789062525,-0.9322035509991425,-0.6786925752855879,-0.7815779058343599
1790097305166150656,2.9241508789062527,-1.1194573195838748,-0.7856056889222504,-0.6284151123038461
1790097305176150784,2.9341508789062525,-1.2453529589547077,-0.7818458626772895,-0.7055538139172743
1790097305186150656,2.9441508789062523,-1.1966379678346777,-0.6790273595864741,-0.87167800037651
1790097305196150784,2.9541508789062525,-0.9832044723187479,-0.6405161203890241,-0.9264419545201106
1790097305206150656,2.9641508789062527,-0.7809483007409943,-0.6780001704011921,-0.7878234150316349
1790097305216150784,2.9741508789062525,-0.87158520153407,-0.7213384044040088,-0.5632865252404599
1790097305226150656,2.9841508789062523,-1.1256061308477312,-0.728390925968408,-0.408478225353113
1790097305236150784,2.9941508789062525,-1.316508933505367,-0.7431404876902388,-0.3458188920282718
1790097305246150656,3.0041508789062528,-1.4920280969030508,-0.7346777725044185,-0.3207739659785128
1790097305256150784,3.0141508789062526,-1.6615762509470398,-0.7062183720701949,-0.24525723404340505
1790097305266150656,3.0241508789062523,-1.764288094472338,-0.650255443436738,-0.0639139502403939
1790097305276150784,3.0341508789062526,-1.832561344943659,-0.4741010324881411,0.1265275002248987
1790097305286150656,3.044150878906253,-1.9642152247432518,-0.11790123538950215,0.22977509654118106
1790097305296150784,3.0541508789062526,-2.3392262746372174,0.2151905890435528,0.3131731662174336
1790097305306150656,3.0641508789062524,-2.7859031828521643,0.3134875150121498,0.3250483004269407
1790097305316150784,3.0741508789062526,-2.862969071700613,0.18327051092541385,0.31133196140884895
1790097305326150656,3.084150878906253,-2.613165794708317,-0.04436522530670872,0.38675223686624033
1790097305336150784,3.0941508789062526,-2.513550914305726,-0.1611136922823782,0.5471703781217084
1790097305346150656,3.1041508789062524,-2.3417769730984364,-0.16487632751150205,0.7483616659920622
1790097305356150784,3.1141508789062526,-2.1192861391576137,0.019659035011917316,0.7592818865330757
1790097305366150656,3.124150878906253,-2.2947395704774376,0.2352077100860771,0.6105465684879792
1790097305376150784,3.1341508789062527,-2.6119384626658513,0.33901249530446564,0.43752876993692175
1790097305386150656,3.1441508789062524,-2.9191050286003515,0.3952288444731127,0.36426226872428413
1790097305396150784,3.1541508789062527,-3.150561295347285,0.4864073019187623,0.48525117271351237
1790097305406150656,3.164150878906253,-3.187119577187975,0.697799760201669,0.7555302841108802
1790097305416150784,3.1741508789062527,-2.974852290149836,1.0468507746253843,1.032935270978348
1790097305426150656,3.1841508789062525,-2.567900264804402,1.4965014217098802,1.2081820543083004
1790097305436150784,3.1941508789062527,-2.0213790686122004,1.9071043113802033,1.20385738970166
1790097305446150656,3.204150878906253,-1.4855459934007949,2.212122242819277,0.9508896337926385
1790097305456150784,3.2141508789062527,-1.173454060837806,2.4405272429635168,0.45310460838032046
1790097305466150656,3.2241508789062525,-1.3529703612834798,2.5246594109123626,-0.019003243067344133
1790097305476150784,3.2341508789062527,-1.3024365764396395,2.398962649257427,-0.4087943871656494
1790097305486150656,3.244150878906253,-1.232050931785313,2.1580268963217106,-0.604600984033232
1790097305496150784,3.2541508789062528,-1.0276442347145398,1.8709715127554978,-0.6849190357827701
1790097305506150656,3.2641508789062526,-0.9004655473698685,1.578092623540054,-0.6799568969293167
1790097305516150784,3.274150878906253,-0.8684647244978687,1.256852484834481,-0.5706812773187191
1790097305526150656,3.284150878906253,-0.8516151761892429,0.9421188188496356,-0.3986188991718569
1790097305536150784,3.294150878906253,-0.7843943745085085,0.6835956487925954,-0.21702121811845745
1790097305546150656,3.3041508789062526,-0.656964617310862,0.4993564703143565,-0.08109233761130069
1790097305556150784,3.314150878906253,-0.6275738634647648,0.4038594847166682,-0.00011575730325704553
1790097305566150656,3.324150878906253,-0.7773882778103769,0.3716567426628067,0.06160866705893554
1790097305576150784,3.334150878906253,-0.9716520892756202,0.3749244407323938,0.15204031369666995
1790097305586150656,3.3441508789062526,-0.916500970293851,0.39435791671902,0.24621726544374242
1790097305596150784,3.354150878906253,-0.6272672749350335,0.398712765762245,0.3700308627918658
1790097305606150656,3.364150878906253,-0.32755192534067834,0.393179590543134,0.5275844219840061
1790097305616150784,3.374150878906253,-0.14126933267659414,0.38104585191572027,0.684149770191738
1790097305626150656,3.3841508789062527,-0.08280815177282619,0.37337124641996206,0.7595392033824256
1790097305636150784,3.394150878906253,-0.07824590165258959,0.35389902478554386,0.7573956708192583
1790097305646150656,3.404150878906253,-0.09271897511428219,0.30636416113791126,0.6760353530639832
1790097305656150784,3.414150878906253,-0.15821791736550306,0.205927425213861,0.4998787409257811
1790097305666150656,3.4241508789062527,-0.2922838224993609,0.0649308717767316,0.27333069713569697
1790097305676150784,3.434150878906253,-0.3505113566898204,-0.11853005278874673,-0.006236029771992772
1790097305686150656,3.444150878906253,-0.1830421769613635,-0.3598397080871112,-0.25172808550663994
1790097305696150784,3.454150878906253,0.12572290329078642,-0.618563486471725,-0.46614062830269565
1790097305706150656,3.4641508789062527,0.3775320917292891,-0.823325737184455,-0.643462400388025
1790097305716150784,3.474150878906253,0.6013017416353111,-0.9721855098128489,-0.7875425284342955
1790097305726150656,3.484150878906253,0.8176907959902043,-1.0495493226110477,-0.8774144592930639
1790097305736150784,3.494150878906253,0.9847755956883684,-1.0461458331089917,-0.9043881355927101
1790097305746150656,3.5041508789062528,1.1327499136962942,-0.9857675963736051,-0.8585454530279931
1790097305756150784,3.514150878906253,1.2788015868465885,-0.9405436790167588,-0.7527667360754329
1790097305766150656,3.5241508789062532,1.3769045662715897,-0.9522356023739629,-0.640566356132283
1790097305776150784,3.534150878906253,1.3124539586985373,-1.0105563988911515,-0.5857626402897722
1790097305786150656,3.544150878906253,1.0994569554512785,-1.0975939968844228,-0.5885731269952479
1790097305796150784,3.554150878906253,0.8442992984696558,-1.1529380615590086,-0.5530584451247328
1790097305806150656,3.5641508789062533,0.6903117579700833,-1.1126737904161839,-0.49193177178239766
1790097305816150784,3.574150878906253,0.8033721908363373,-0.9786018656606448,-0.38068341068090444
1790097305826150656,3.584150878906253,1.0471113392647502,-0.7396322081352175,-0.24774836760745933
1790097305836150784,3.594150878906253,1.169784133395586,-0.5125451092398283,-0.20102141864596745
1790097305846150656,3.6041508789062533,1.2179112097777465,-0.4010649180018294,-0.21457922024452203
1790097305856150784,3.614150878906253,1.2219665210596806,-0.4414802821743586,-0.19335418473585916
1790097305866150656,3.624150878906253,1.1510441016355086,-0.5570960250908787,-0.18424201935043122
1790097305876150784,3.634150878906253,1.0652887689205737,-0.6379148803539629,-0.20494399923466225
1790097305886150656,3.6441508789062533,1.003742563595419,-0.604796058742108,-0.20937311816082685
1790097305896150784,3.654150878906253,0.9818546568678477,-0.46072405068079586,-0.20320023376023738
1790097305906150656,3.664150878906253,0.9771408639680869,-0.2943883066346673,-0.2416597356734937
1790097305916150784,3.674150878906253,0.9508367182414598,-0.23430999200370778,-0.3245702038953986
1790097305926150656,3.6841508789062534,0.8876460445972882,-0.31939714971465505,-0.37899429807453383
1790097305936150784,3.694150878906253,0.824894821337148,-0.4806023435869183,-0.40865499905171393
1790097305946150656,3.704150878906253,0.8034495239211334,-0.6498495628017665,-0.3509344054344133
1790097305956150784,3.714150878906253,0.8942499971245577,-0.6982066229413191,-0.16909999868529635
1790097305966150656,3.7241508789062534,1.0208301475757957,-0.5998523445001529,0.054516384392483075
1790097305976150784,3.734150878906253,1.1243912473818094,-0.3906723139418239,0.22303944380034343
1790097305986150656,3.744150878906253,1.226688663463332,-0.18505380721998216,0.31165966472012746
1790097305996150784,3.754150878906253,1.3453963690672768,-0.09196129233583257,0.39741564756801123
1790097306006150656,3.7641508789062534,1.5373904547239294,-0.1372848882171804,0.48261656185770035
1790097306016150784,3.7741508789062532,1.8360914132536985,-0.2591529233459623,0.5442594706908882
1790097306026150656,3.784150878906253,2.164699309440899,-0.3814365309289675,0.5864905128145064
1790097306036150784,3.7941508789062532,2.3738554302111314,-0.46663398479813883,0.6073817007097377
1790097306046150656,3.8041508789062535,2.3649587296212404,-0.546701758912379,0.6018604639666479
1790097306056150784,3.8141508789062533,2.1279426431612776,-0.5898447277002264,0.5277903475826977
1790097306066150656,3.824150878906253,1.7026629627671206,-0.4850347685117201,0.3651760200252703
1790097306076150784,3.8341508789062533,1.1354646014705776,-0.2007123942843721,0.11942557181520491
1790097306086150656,3.8441508789062535,0.5379194408766579,0.14299526261799989,-0.1792255482314405
1790097306096150784,3.8541508789062533,0.03681663740259644,0.35460249772750585,-0.44448492559256525
1790097306106150656,3.864150878906253,-0.28430551114026914,0.30517570327799215,-0.5589594352752315
1790097306116150784,3.8741508789062533,-0.39722985643937936,0.020288884097643456,-0.47650211493750777
1790097306126150656,3.8841508789062535,-0.3240582924742621,-0.3588219683329079,-0.29524472432806514
1790097306136150784,3.8941508789062533,-0.05112599459349204,-0.7024645933707476,-0.1514856727569765
1790097306146150656,3.904150878906253,0.3483224282725938,-0.9774094904733682,-0.12245967024298747
1790097306156150784,3.9141508789062534,0.7635450859600623,-1.1564684499438596,-0.21479934106716175
1790097306166150656,3.9241508789062536,1.0962701139789222,-1.281670492006298,-0.4201273736996083
1790097306176150784,3.9341508789062534,1.3361944109445258,-1.3639275337827819,-0.5600843509612877
1790097306186150656,3.944150878906253,1.5209457732795293,-1.406128718585484,-0.6052989608151222
1790097306196150784,3.9541508789062534,1.6679746817144545,-1.351930282179082,-0.6511421104980212
1790097306206150656,3.9641508789062536,1.7132777524628597,-1.2360129575154974,-0.7603405583927826
1790097306216150784,3.9741508789062534,1.6014628826510366,-1.0963686576071507,-0.9207681336708321
1790097306226150656,3.984150878906253,1.3878302725600524,-0.94948394426646,-1.1177962951281317
1790097306236150784,3.9941508789062534,1.185790192938168,-0.867679983252375,-1.2685390452351775
1790097306246150656,4.004150878906254,1.0704018409096054,-0.8278341445091084,-1.3580714169847412
1790097306256150784,4.014150878906253,0.993601386915982,-0.7789471477230566,-1.4420099955625036
1790097306266150656,4.024150878906253,0.9083165128294645,-0.6550475188434162,-1.5662471855139881
1790097306276150784,4.034150878906253,0.7783436702820558,-0.47008703097260807,-1.7156306946996365
1790097306286150656,4.044150878906254,0.6510823546954854,-0.2954625258874096,-1.730248548049341
1790097306296150784,4.0541508789062535,0.6176874483071985,-0.15263676125791048,-1.5390322628579418
1790097306306150656,4.064150878906253,0.6158332640898861,-0.0571411142299309,-1.1667881402181899
1790097306316150784,4.074150878906254,0.3721310505993577,-0.0519241536629152,-0.7481038841913974
1790097306326150656,4.084150878906254,-0.31549026786955514,-0.09033771716344402,-0.4293927774104884
1790097306336150784,4.0941508789062535,-1.2794126969560566,-0.06321423158923821,-0.3476983774098274
1790097306346150656,4.104150878906253,-1.9290495080643524,0.017346102662324284,-0.540477297799171
1790097306356150784,4.114150878906253,-1.9194163337567165,0.007326237346597833,-0.8462908467594547
1790097306366150656,4.124150878906254,-1.5065731241683922,-0.1420382361089016,-0.9898819837609331
1790097306376150784,4.1341508789062535,-1.0108880489736127,-0.3565090546994611,-0.8423547200539575
1790097306386150656,4.144150878906253,-0.6358139790441164,-0.5305093050133128,-0.505368617125389
1790097306396150784,4.154150878906253,-0.5915576116998486,-0.5977946660212435,-0.14227800659423664
1790097306406150656,4.164150878906254,-0.780062679231474,-0.5722397684831451,0.1839789819052811
1790097306416150784,4.174150878906254,-1.1145731623886066,-0.46052992990267144,0.4525680112294833
1790097306426150656,4.184150878906253,-1.5107186328833997,-0.24726754881977378,0.7066802307167092
1790097306436150784,4.194150878906254,-1.8260754349597283,-0.047034979396132603,0.9372498888522066
1790097306446150656,4.204150878906254,-2.0454441651823854,0.09007614317985313,1.085480045150703
1790097306456150784,4.214150878906254,-2.213102903104509,0.1199305036957989,1.1074761557877386
1790097306466150656,4.224150878906253,-2.013125217349018,0.14635339695007282,1.0977875279322797
1790097306476150784,4.234150878906253,-2.2862141544069954,0.2356201037158726,1.0328837387006022
1790097306486150656,4.244150878906254,-2.7410448178527558,0.31381463021144074,0.9366859569842341
1790097306496150784,4.254150878906254,-3.2140568403664527,0.37147067108048115,0.9068243078906711
1790097306506150656,4.264150878906253,-3.6269972934639068,0.5725281998997818,1.0710833475195005
1790097306516150784,4.274150878906254,-3.679067409698394,0.9535409274959912,1.3343469429590378
1790097306526150656,4.284150878906254,-3.3640002810037126,1.4395264877700595,1.5750802754893305
1790097306536150784,4.294150878906254,-3.0605965544128675,1.892389536472264,1.6889498874544022
1790097306546150656,4.3041508789062535,-2.970260907037201,2.129619660817442,1.6709796085112372
1790097306556150784,4.314150878906253,-3.0462302925185734,2.2463246937079315,1.6146938310769121
1790097306566150656,4.324150878906254,-3.093508057455686,2.2020291804179943,1.5769361405599542
1790097306576150784,4.334150878906254,-2.8242582537737886,2.0492118533134205,1.5846588145957532
1790097306586150656,4.3441508789062535,-2.2826440862270294,1.826062403681351,1.649035930930038
1790097306596150784,4.354150878906254,-1.8226635852428767,1.6071778747633803,1.7525840521581855
1790097306606150656,4.364150878906254,-1.746182827237767,1.4736178356540504,1.8210910661289574
1790097306616150784,4.374150878906254,-1.9459700429259177,1.3870507314326463,1.8100989059457937
1790097306626150656,4.3841508789062535,-2.1127471032337573,1.2958011852910851,1.7214264038170726
1790097306636150784,4.394150878906253,-2.042413110439721,1.124759209955518,1.6395282397316144
1790097306646150656,4.404150878906254,-1.8849467570440068,0.9270909973130532,1.6024476072985434
1790097306656150784,4.414150878906254,-1.7592808178686483,0.8195783195988259,1.6256286345426747
1790097306666150656,4.424150878906254,-1.6467227658096153,0.8019291866378725,1.6315798564715782
1790097306676150784,4.434150878906254,-1.6573948169760921,0.7975954653138955,1.6219016457063473
1790097306686150656,4.444150878906254,-1.6739450136705003,0.8060419102924675,1.5818936875320535
1790097306696150784,4.454150878906254,-1.56454781323322,0.8013579098833977,1.470861275883698
1790097306706150656,4.464150878906254,-1.2437098868808547,0.7667067157632443,1.3259745237107214
1790097306716150784,4.474150878906253,-0.6964435612719893,0.6978765762499589,1.1677625940789327
1790097306726150656,4.484150878906254,-0.11286465253631656,0.6082903849300607,0.985798314274665
1790097306736150784,4.494150878906254,0.2815614092271546,0.5028080065431163,0.7446722517259039
1790097306746150656,4.504150878906254,0.5172431950545018,0.3586285232320442,0.4355564531563957
1790097306756150784,4.514150878906254,0.6002365642678402,0.1818629252675769,0.06191333272479049
1790097306766150656,4.524150878906254,0.6490994862536199,-0.07089550866798552,-0.3270119491543819
1790097306776150784,4.534150878906254,0.7943174878982234,-0.4504566971545181,-0.6777843740709619
1790097306786150656,4.544150878906254,1.0304413267706214,-0.8428176346769789,-1.0073647208682242
1790097306796150784,4.5541508789062535,1.2657318438141847,-1.2270609526396854,-1.3100787599187618
1790097306806150656,4.564150878906254,1.4659895833792052,-1.5482321721830548,-1.5757162648959122
1790097306816150784,4.574150878906254,1.6430519337895448,-1.7852348338285413,-1.7216940224718802
1790097306826150656,4.584150878906254,1.7003508253401842,-1.8819000134520378,-1.7103110659397605
1790097306836150784,4.594150878906254,1.629173335260208,-1.8726079405777376,-1.6773622936982275
1790097306846150656,4.604150878906254,1.6528106348486977,-1.7832870980852251,-1.5390987367827653
1790097306856150784,4.614150878906254,1.834032033590611,-1.6738169366328095,-1.3549156483451368
1790097306866150656,4.624150878906254,2.0295960326422913,-1.5523992474662474,-1.153430485032333
1790097306876150784,4.6341508789062535,2.0832186975471725,-1.354654509595998,-0.9625469609704249
1790097306886150656,4.644150878906254,1.9005819465429628,-1.086884516940235,-0.8394072682853186
1790097306896150784,4.654150878906254,1.5805584379443411,-0.8031528081602051,-0.7521926540230377
1790097306906150656,4.664150878906254,1.263835371740294,-0.5586080825012102,-0.7295320278430726
1790097306916150784,4.6741508789062545,1.0724269715322292,-0.39200947014841225,-0.7528033908644407
1790097306926150656,4.684150878906254,1.075318190391995,-0.29382060158527956,-0.7347404249936856
1790097306936150784,4.694150878906254,1.2107878560433987,-0.29351117510752095,-0.6602657414564437
1790097306946150656,4.704150878906254,1.289814902588488,-0.36813148859640554,-0.5110407457496577
1790097306956150784,4.714150878906254,1.1784033619191538,-0.49010828757969227,-0.4312115934041689
1790097306966150656,4.724150878906254,0.9796759695482681,-0.5991610971042738,-0.3800071266288346
1790097306976150784,4.734150878906254,0.8463439245333993,-0.6801642464032605,-0.21056655039280936
1790097306986150656,4.744150878906254,0.8181888307642983,-0.6968667996164137,-0.05608716240436484
1790097306996150784,4.7541508789062545,0.893536845889368,-0.704277290970195,0.08439699455468047
1790097307006150656,4.764150878906254,1.0161303081275501,-0.7042995556566171,0.2510998546499073
1790097307016150784,4.774150878906254,1.1722735968289206,-0.6617685260403411,0.43216883064893696
1790097307026150656,4.784150878906254,1.3014456056529151,-0.6313096184035153,0.5094811429952931
1790097307036150784,4.794150878906254,1.3996892710386122,-0.6094459353144862,0.473056010079291
1790097307046150656,4.804150878906254,1.4778841159101985,-0.5597574132370898,0.3806163145528007
1790097307056150784,4.814150878906254,1.5118137754519074,-0.49698884449905323,0.24883305845790718
1790097307066150656,4.824150878906254,1.4899612732189367,-0.4297557643494625,0.11907260251543225
1790097307076150784,4.834150878906255,1.414906455878681,-0.38210798985554806,0.025423926555538524
1790097307086150656,4.844150878906254,1.3219459948097858,-0.3476381176129724,-0.05909889539004056
1790097307096150784,4.854150878906254,1.2321458121024103,-0.3093371964953481,-0.18731833551783422
1790097307106150656,4.864150878906254,1.130629486371912,-0.3103587096171267,-0.3175981998110629
1790097307116150784,4.874150878906254,1.0271709263810767,-0.3928815342936146,-0.42285347529633127
1790097307126150656,4.884150878906254,0.961448461557735,-0.590146343960358,-0.5480307778442797
1790097307136150784,4.894150878906254,0.9468367216312434,-0.89027856118377,-0.6732619490816347
1790097307146150656,4.904150878906254,0.9855460370428998,-1.1758281681354599,-0.7903474675986223
1790097307156150784,4.914150878906255,1.0392962656801474,-1.399155817453902,-0.8872675908229273
1790097307166150656,4.9241508789062545,1.0626938117420976,-1.5512836985920848,-0.9687181260962167
1790097307176150784,4.934150878906254,1.0484154113592346,-1.6481138628064453,-1.040460034050721
1790097307186150656,4.944150878906254,1.0256249332504486,-1.6511314198444533,-1.1298474373803866
1790097307196150784,4.954150878906254,1.0121209595302885,-1.6319222694474587,-1.2023836888753499
1790097307206150656,4.9641508789062545,0.9853371084407864,-1.6305184371606785,-1.2084060448875977
1790097307216150784,4.974150878906254,0.839375632806207,-1.7210089228153345,-1.133998546695166
1790097307226150656,4.984150878906254,0.5293609191638362,-1.8674932713027714,-1.0727271852107259
1790097307236150784,4.994150878906255,0.09818888483825466,-2.0449843509575785,-1.0582965711665044
1790097307246150656,5.0041508789062545,-0.38603368732841076,-2.1601422631164366,-1.0786061124423034
1790097307256150784,5.014150878906254,-0.8298019833791805,-2.1177263676110014,-1.086660523598914
1790097307266150656,5.024150878906254,-1.1048245668282504,-1.935175607773891,-1.0114562024427725
1790097307276150784,5.034150878906254,-1.1238415467486138,-1.6706949464921863,-0.7839122476707981
1790097307286150656,5.044150878906255,-0.8742112995927637,-1.369153198155178,-0.5253514876593873
1790097307296150784,5.054150878906254,-0.4797195477705474,-1.181007873431075,-0.36552764452759834
1790097307306150656,5.064150878906254,-0.15565815627103557,-1.1456575722628226,-0.29763842939644
1790097307316150784,5.074150878906255,-0.07609265396980275,-1.2166011188939927,-0.2679035473373537
1790097307326150656,5.084150878906255,-0.23297488106683117,-1.2801686467687354,-0.19829140929078204
1790097307336150784,5.094150878906254,-0.5440115243326338,-1.2518428103131902,-0.09594919092197421
1790097307346150656,5.104150878906254,-0.956629374136089,-1.1187651287146374,0.050222509732123256
1790097307356150784,5.114150878906254,-1.4219198018664672,-0.9055523025723637,0.15215095576398607
1790097307366150656,5.124150878906255,-1.8366023534742124,-0.608708443514764,0.12022687058314577
1790097307376150784,5.134150878906254,-2.0729915846142397,-0.2762872257588416,-0.048301923281580006
1790097307386150656,5.144150878906254,-2.020308294047157,0.01112340408064355,-0.2559582421548385
1790097307396150784,5.154150878906255,-1.6510666108093284,0.20425250640065365,-0.4492757023323628
1790097307406150656,5.164150878906255,-1.0273453502286471,0.30682423838603107,-0.6340022006741975
1790097307416150784,5.1741508789062545,-0.27075942840748213,0.30170052754779336,-0.9037089340058467
1790097307426150656,5.184150878906254,0.32865156758914615,0.13299868561175948,-1.1748564866463551
1790097307436150784,5.194150878906254,0.5549835422287943,-0.15385230353988233,-1.333895282599414
1790097307446150656,5.204150878906255,0.3257124742307461,-0.44521632656397464,-1.351388893376474
1790097307456150784,5.2141508789062545,-0.07181222783297161,-0.7515763389145252,-1.265753057774338
1790097307466150656,5.224150878906254,-0.5602316512126445,-0.9737804347647061,-1.099919402290054
1790097307476150784,5.234150878906255,-0.9290196972497885,-1.153932057403912,-0.70095887900836
1790097307486150656,5.244150878906255,-1.217748923541629,-1.1809084815825743,-0.10145573006871486
1790097307496150784,5.2541508789062545,-1.6296013545810042,-0.9745605582985956,0.560564672599515
1790097307506150656,5.264150878906254,-2.20843398467894,-0.7235760966962749,1.155834500508588
1790097307516150784,5.274150878906254,-2.585535238434135,-0.6372544042657036,1.5567484799831337
1790097307526150656,5.284150878906255,-2.5455251550034563,-0.705195609798955,1.7472600760520438
1790097307536150784,5.294150878906255,-2.4144281582777793,-0.8682327362507657,1.8365875839992991
1790097307546150656,5.304150878906254,-2.4329536483222722,-0.9729868472371344,1.841654087028253
1790097307556150784,5.314150878906255,-2.6227313415464772,-0.9279923146908527,1.6759784452339794
1790097307566150656,5.324150878906255,-2.5802433723173435,-0.9095854307251912,1.5069228175921001
1790097307576150784,5.334150878906255,-2.248780780762122,-0.7635120288440713,1.3003799695497198
1790097307586150656,5.344150878906254,-2.0320454720455383,-0.4991228605526298,1.05856250099949
1790097307596150784,5.354150878906254,-1.8316199648818627,-0.32141485027810335,0.8559943019623493
1790097307606150656,5.364150878906255,-1.6605512312120472,-0.21119120998614282,0.6711155439712555
1790097307616150784,5.374150878906255,-1.5953112066809263,-0.12050282866325072,0.5445633804236524
1790097307626150656,5.384150878906254,-1.5099652011832836,-0.03085853988481057,0.5765410199233513
1790097307636150784,5.394150878906255,-1.2276744380043791,0.07473605644362159,0.6985933914851383
1790097307646150656,5.404150878906255,-0.8073647743597335,0.2127519107795947,0.789584051870658
1790097307656150784,5.414150878906255,-0.4910737506021334,0.37903716221431233,0.8197413735868755
1790097307666150656,5.4241508789062545,-0.4707016740079157,0.5268376815286181,0.79132600429974
1790097307676150784,5.434150878906254,-0.808628464279011,0.5976124662710123,0.6894122234159554
1790097307686150656,5.444150878906255,-1.383226734191021,0.5767895632593198,0.6071525584365876
1790097307696150784,5.454150878906255,-1.8552371858471148,0.49325270359173917,0.638836601596927
1790097307706150656,5.4641508789062545,-1.99897970274591,0.3746363298229568,0.8123208307942374
1790097307716150784,5.474150878906255,-1.8366135524890574,0.2973948899457682,1.0651906898533112
1790097307726150656,5.484150878906255,-1.5894411970074986,0.3213514836067165,1.321483740562479
1790097307736150784,5.494150878906255,-1.476551904473756,0.44083960006762274,1.4967084929743801
1790097307746150656,5.5041508789062545,-1.6014272277636863,0.5928116191041704,1.5597177939238274
1790097307756150784,5.514150878906254,-1.844083596454461,0.7292109963539365,1.548322979623986
1790097307766150656,5.524150878906255,-1.9164873490240655,0.8238645980725575,1.5182792717209286
1790097307776150784,5.534150878906255,-1.5732765262479917,0.8698429864686298,1.4917484788621278
1790097307786150656,5.544150878906255,-0.8997479090137614,0.8717011162625671,1.4335347713876652
1790097307796150784,5.554150878906255,-0.30378526519759735,0.832030621001977,1.2458144792578985
1790097307806150656,5.564150878906255,-0.17920713008161876,0.789850707319916,0.9275319124524966
1790097307816150784,5.574150878906255,-0.4020916665690564,0.7056858347991458,0.5792458446140204
1790097307826150656,5.584150878906255,-0.5817488710149992,0.6545631118130527,0.2967648516169391
1790097307836150784,5.594150878906254,-0.44441057502839476,0.5234275120173677,0.09888535273216692
1790097307846150656,5.604150878906255,-0.221411314277831,0.25414583572255905,-0.014768375707361902
1790097307856150784,5.614150878906255,0.0028028454066154757,-0.06478078020506843,-0.0905219078410195
1790097307866150656,5.624150878906255,0.1501639486069753,-0.32440527569647026,-0.14684992063591734
1790097307876150784,5.634150878906255,0.06990610046428151,-0.5401518292565413,-0.18724112229529566
1790097307886150656,5.644150878906255,-0.1753422746486089,-0.7302881429515206,-0.22526970744193578
1790097307896150784,5.654150878906255,-0.37426728380311935,-0.8981556647806967,-0.24613690370723584
1790097307906150656,5.664150878906255,-0.37344250390324496,-1.031800044910609,-0.20977406958704076
1790097307916150784,5.6741508789062545,-0.09138109740674027,-1.1174594383339895,-0.162789218086403
1790097307926150656,5.684150878906255,0.3766265803524301,-1.1239302431109357,-0.14225851059922595
1790097307936150784,5.694150878906255,0.7382221951701349,-1.0432653363138527,-0.23886660471197957
1790097307946150656,5.704150878906255,0.7223529092035084,-0.8969466479397336,-0.4357356576116727
1790097307956150784,5.714150878906255,0.40240703926842547,-0.7078643249949229,-0.6072185615771931
1790097307966150656,5.724150878906255,0.14524595718062405,-0.5202003348386053,-0.6507724902832247
1790097307976150784,5.734150878906255,0.19458025590456654,-0.3385513739093116,-0.5726870936955428
1790097307986150656,5.744150878906255,0.5387466877645779,-0.15722855918525214,-0.4579993078416257
1790097307996150784,5.7541508789062545,0.7567289434242753,0.03622194743622564,-0.4232434736706887
1790097308006150656,5.764150878906255,0.5441523461939577,0.21743735631446448,-0.4295872998349239
1790097308016150784,5.774150878906255,0.14442786968790894,0.2940169372063391,-0.4301448840773515
1790097308026150656,5.784150878906255,0.00415987684454109,0.1883270699434437,-0.4563821312961307
1790097308036150784,5.7941508789062555,0.3027626211599712,-0.0644196805223831,-0.4074749330813895
1790097308046150656,5.804150878906255,0.8194956386421507,-0.3943108757830899,-0.30809971526036517
1790097308056150784,5.814150878906255,1.2081180068103006,-0.7300786102050076,-0.3105417028448836
1790097308066150656,5.824150878906255,1.3324406807578724,-1.0268051462537249,-0.39920329846876423
1790097308076150784,5.834150878906255,1.2484262937374857,-1.3530240383536731,-0.46359166072840063
1790097308086150656,5.844150878906255,0.9957751971223838,-1.6859910297842606,-0.5468108027018175
1790097308096150784,5.854150878906255,0.7124493385032473,-1.8750346264492044,-0.6430543579681055
1790097308106150656,5.864150878906255,0.548839735856943,-1.7850430469240093,-0.7434108579706328
1790097308116150784,5.8741508789062555,0.5399106997701619,-1.465664576485826,-0.7351942970297387
1790097308126150656,5.884150878906255,0.5695074219128368,-1.0592489789774253,-0.6052949221897476
1790097308136150784,5.894150878906255,0.5888659365266724,-0.6954651643801159,-0.42768424868109983
1790097308146150656,5.904150878906255,0.6791752736487393,-0.49051020781696325,-0.3126694859262942
1790097308156150784,5.914150878906255,0.9146073752689122,-0.4401282862575672,-0.3773056489311803
1790097308166150656,5.924150878906255,1.0452080343533332,-0.49445080515642176,-0.5688156417260976
1790097308176150784,5.934150878906255,0.9557817691186669,-0.4522967060873583,-0.5913606865481402
1790097308186150656,5.944150878906255,0.734789717101916,-0.3469278656204804,-0.5716266514417399
1790097308196150784,5.954150878906256,0.5020265077840665,-0.2749779953738848,-0.36573070110895733
1790097308206150656,5.964150878906255,-0.010901174095741373,-0.13173063138402233,-0.043859134921292314
1790097308216150784,5.974150878906255,-0.4656519811517405,0.12418987565608458,0.3595387997712669
1790097308226150656,5.984150878906255,-0.7135757133043406,0.31924181823765885,0.660697826323018
1790097308236150784,5.994150878906255,-0.7413114801996392,0.38270749334759147,0.7569203429392543
1790097308246150656,6.004150878906255,-0.4765884980876544,0.362570753394475,0.6204510486147868
1790097308256150784,6.014150878906255,-0.06919298244610184,0.2271760544909899,0.4156419677945241
1790097308266150656,6.024150878906255,0.30890377196240276,0.0015528478755094943,-0.005694906561481861
1790097308276150784,6.034150878906256,0.7894514748256972,-0.3946972570008754,-0.38483528336622386
1790097308286150656,6.0441508789062555,1.234562614780822,-0.8174783532149282,-0.5986133361812056
1790097308296150784,6.054150878906255,1.8539493937238392,-1.216476295232878,-0.5982491523319983
1790097308306150656,6.064150878906255,2.2521435309823645,-1.3291255974002816,-0.9643146099025028
1790097308316150784,6.074150878906255,2.1367110537139573,-1.5339547955019135,-0.6740568109238326
1790097308326150656,6.0841508789062555,1.8002528613724837,-1.7186037602040478,-0.47622894563215334
1790097308336150784,6.094150878906255,1.3400294467835407,-1.7469293649107107,-0.3842962559353602
1790097308346150656,6.104150878906255,0.7770974797030361,-1.649642001877746,-0.34743157067287667
1790097308356150784,6.114150878906256,0.313301824644849,-1.467938180204616,-0.2836939525643368
1790097308366150656,6.1241508789062555,-0.04658442437210894,-1.1700148218414235,-0.23914752651725085
1790097308376150784,6.134150878906255,-0.21971649622193645,-0.8567782492312634,-0.2879257898115514
1790097308386150656,6.144150878906255,-0.10561736596038385,-0.7370202971768154,-0.3601524202428017
1790097308396150784,6.154150878906255,0.01543395128474543,-0.8184208888834742,-0.3939256806506011
1790097308406150656,6.164150878906256,0.19496052448368367,-0.8730841410307879,-0.3596210578186708
1790097308416150784,6.174150878906255,0.2570793140935652,-0.7153526851633896,-0.2830016898298071
1790097308426150656,6.184150878906255,0.3335975565274705,-0.4359220339312188,-0.19140785711275243
1790097308436150784,6.194150878906256,0.4212801337619244,-0.196435320655881,-0.05711141122904303
1790097308446150656,6.204150878906256,0.4745107364019303,-0.17765006680334774,-0.020505317118869507
1790097308456150784,6.214150878906255,0.39350698804676393,-0.3677787512957466,0.03542172661109852
1790097308466150656,6.224150878906255,0.1434414597361058,-0.6181995911547757,-0.015543500806817673
1790097308476150784,6.234150878906255,-0.0020967304624838314,-0.792583426985484,-0.06415999162067536
1790097308486150656,6.244150878906256,-0.01184751615570211,-0.7589789064296554,-0.05773723055971603
1790097308496150784,6.254150878906255,0.018618339560048845,-0.6298057467684182,-0.0721378936683414
1790097308506150656,6.264150878906255,0.0355153571867077,-0.5356696298130186,-0.21025257549015874
1790097308516150784,6.274150878906256,0.08931424147016637,-0.5540263474800209,-0.5166813944804044
1790097308526150656,6.284150878906256,0.28413027097084953,-0.6834772610701793,-0.8182866323619709
1790097308536150784,6.2941508789062555,0.5977716658138031,-0.7577549389995172,-0.9615505779759316
1790097308546150656,6.304150878906255,0.9242824537546046,-0.9534344871794063,-0.8906052732203773
1790097308556150784,6.314150878906255,1.101591515742487,-1.1510110707130876,-0.7226953159112229
1790097308566150656,6.324150878906256,1.0654206776852553,-1.259534526762599,-0.6183171576036977
1790097308576150784,6.3341508789062555,0.8394577399317205,-1.4314201196348655,-0.537949118760658
1790097308586150656,6.344150878906255,0.6421435992399676,-1.6007128563652462,-0.5692593914123327
1790097308596150784,6.354150878906256,0.5800839157760169,-1.696115358204033,-0.6877711699247825
1790097308606150656,6.364150878906256,0.4954821986982246,-1.692029069392844,-0.760090259052939
1790097308616150784,6.3741508789062555,0.34344135528111136,-1.6490291029902404,-1.0340619590850548
1790097308626150656,6.384150878906255,0.1422340604444586,-1.5795869459284506,-1.1057284727076888
1790097308636150784,6.394150878906255,0.12923048138058194,-1.4956465178315448,-1.0629743862663814
1790097308646150656,6.404150878906256,0.34436322810011144,-1.49194826474645,-1.0543578327514889
1790097308656150784,6.414150878906256,0.5094478004896345,-1.5985522172860502,-0.838129795084468
1790097308666150656,6.424150878906255,0.5036165439911081,-1.558254311322085,-0.3627425477226759
1790097308676150784,6.434150878906256,0.4540374177048274,-1.5603380257105521,0.3533594545063797
1790097308686150656,6.444150878906256,0.3057778111256606,-1.2801004009635464,0.9089323414726482
1790097308696150784,6.454150878906256,-0.19636014663964618,-0.9157913326566972,1.0761390451161725
1790097308706150656,6.464150878906255,-0.9332037154379789,-0.7217366806024239,0.8851171683307499
1790097308716150784,6.474150878906255,-1.5258733943353724,-0.626214471853243,0.6008662724763987
1790097308726150656,6.484150878906256,-1.8244522556321954,-0.5773685965986924,0.5326909863400993
1790097308736150784,6.494150878906256,-1.718288966419867,-0.6163351052499838,0.7708501316812044
1790097308746150656,6.504150878906255,-1.367382505360384,-0.6739912200495053,1.000151246475097
1790097308756150784,6.514150878906256,-1.0340176329073616,-0.747982719640009,1.2893157296286273
1790097308766150656,6.524150878906256,-1.1259878444712796,-0.6787321227102581,1.3471620878078068
1790097308776150784,6.534150878906256,-0.9942536475862287,-0.6101177368599587,1.3713783645968551
1790097308786150656,6.5441508789062555,-1.1307348582060608,-0.38704299873936016,1.3948536453671507
1790097308796150784,6.554150878906255,-1.7489080155844832,-0.1554413547175712,1.3554714805359716
1790097308806150656,6.564150878906256,-1.9689289338694114,0.08267650722332463,1.3191961546251982
1790097308816150784,6.574150878906256,-2.0108693897720618,0.23773577271762608,1.2748737510242556
1790097308826150656,6.5841508789062555,-2.103711043036605,0.21783507699111457,1.2396291114421822
1790097308836150784,6.594150878906256,-2.6165339707974353,0.055372339054334,1.1228660139714481
1790097308846150656,6.604150878906256,-3.221450286667609,-0.10769005928323733,1.1770973055636895
1790097308856150784,6.614150878906256,-3.121678418666389,-0.10745299592303237,1.425657063490416
1790097308866150656,6.6241508789062555,-2.45105658248965,-0.009789831441023022,1.796186546131763
1790097308876150784,6.634150878906255,-1.870710120880966,0.29628127517823627,1.868052676844246
1790097308886150656,6.644150878906256,-1.4476376694288178,0.3784579488657887,1.7129198456110897
1790097308896150784,6.654150878906256,-1.2740026603185772,0.24315678184064712,1.5087722073174288
1790097308906150656,6.664150878906256,-1.1876396886561142,0.09475110824062911,1.4986523197948833
1790097308916150784,6.674150878906256,-1.1418208708312498,-0.09027540560018571,1.4714164855066063
1790097308926150656,6.684150878906256,-1.0834639075258834,-0.17747227451602876,1.2454717828660558
1790097308936150784,6.694150878906256,-0.9855982862058598,-0.28617941604324415,1.0911795805595406
1790097308946150656,6.704150878906256,-0.6803225719923102,-0.3487500046347639,1.1094984612284726
1790097308956150784,6.714150878906255,-0.3531527465491224,-0.21268973471796582,0.9722209535038545
1790097308966150656,6.724150878906256,-0.5723714263978277,-0.15903982711067435,1.0217637330916192
1790097308976150784,6.734150878906256,-1.0851837652794194,-0.11901586054833609,1.0706620246634782
1790097308986150656,6.744150878906256,-1.3671492151382325,-0.0007181065334216641,1.115347855771038
1790097308996150784,6.754150878906256,-1.3242486245316405,0.017190886632429812,1.198184203954674
1790097309006150656,6.764150878906256,-1.2364148180248502,-0.007788943639736784,1.3181651311570726
1790097309016150784,6.774150878906256,-1.191465451837068,0.12833549491432944,1.353793626875164
1790097309026150656,6.784150878906256,-1.1334866101083738,0.26713051478880684,1.4120412162842837
1790097309036150784,6.7941508789062555,-1.1320682282979466,0.3879597680940625,1.4955484731834805
1790097309046150656,6.804150878906256,-1.2631135189220142,0.42650012463143705,1.5499899160559272
1790097309056150784,6.814150878906256,-1.3468124913055455,0.4671050056612415,1.566113693974417
1790097309066150656,6.824150878906256,-1.1433343453502316,0.4916791795810428,1.6306091365984645
1790097309076150784,6.834150878906256,-0.6826898697071102,0.5191705351377749,1.5656455806714262
1790097309086150656,6.844150878906256,-0.22536697400513728,0.4027092147614468,1.6291717414467055
1790097309096150784,6.854150878906256,-0.12338510305837781,0.2632332638600858,1.5301575118622082
1790097309106150656,6.864150878906256,-0.13779196977973532,0.19509500438213379,1.3235556371797468
1790097309116150784,6.8741508789062555,0.0264180185735213,0.10314857237725147,1.1159371994706715
1790097309126150656,6.884150878906256,0.44091430792165615,-0.06780243650610972,0.9009858519142576
1790097309136150784,6.894150878906256,0.8101123665586019,-0.23407173984684002,0.6709509719361991
1790097309146150656,6.904150878906256,0.9607705347069267,-0.3827842938320789,0.36894280054064876
1790097309156150784,6.9141508789062565,0.9006724349697744,-0.5520341444446909,0.08418965103707658
1790097309166150656,6.924150878906256,0.5176813793112056,-0.7540418206743198,-0.11142781172327608
1790097309176150784,6.934150878906256,-0.022163508883796285,-0.956914009711319,-0.1219118451658992
1790097309186150656,6.944150878906256,-0.17685393949627942,-1.1491380150310113,-0.01326666957416578
1790097309196150784,6.954150878906256,0.26283896408883,-1.2477038032585641,0.062142861445037674
1790097309206150656,6.964150878906256,0.7939037029304369,-1.2588617223500205,0.14729675590229313
1790097309216150784,6.974150878906256,0.8685688332234663,-1.2168490995453025,0.21397172685154953
1790097309226150656,6.984150878906256,0.48027432588039537,-1.1566478845140302,0.25020715036725527
1790097309236150784,6.9941508789062565,0.035625371774333725,-1.0939625470595438,0.22733745989761994
1790097309246150656,7.004150878906256,-0.16632975351297008,-0.9729404719806903,0.23096503015905379
1790097309256150784,7.014150878906256,-0.05987198270466069,-0.7948229874770423,0.23339211622375844
1790097309266150656,7.024150878906256,0.21321871992080016,-0.5648827002483644,0.3703808115835885
1790097309276150784,7.034150878906256,0.5342322974955501,-0.3804212083086592,0.3872722548427045
1790097309286150656,7.044150878906256,0.6301136271426987,-0.14981706437075415,0.2833629100892017
1790097309296150784,7.054150878906256,0.5616790209373899,0.03529202203390851,0.06997101551674308
1790097309306150656,7.064150878906256,0.5107284004196428,0.0708695111232869,-0.15641934778851302
1790097309316150784,7.074150878906257,0.6546607568570431,-0.03405941117597117,-0.3175902449525485
1790097309326150656,7.084150878906256,0.8393850302575473,-0.2902611329008168,-0.4595475548263125
1790097309336150784,7.094150878906256,0.9799765875444051,-0.6179350406433193,-0.5608791109595782
1790097309346150656,7.104150878906256,1.1217396741630608,-0.9869084317576303,-0.625371700945167
1790097309356150784,7.114150878906256,1.2300016326266372,-1.2717120390372916,-0.5219898227581581
1790097309366150656,7.124150878906256,1.3093648272088387,-1.5230282991331094,-0.5272674980290799
1790097309376150784,7.134150878906256,1.4021932818743146,-1.7075381917130825,-0.5308567133291008
1790097309386150656,7.144150878906256,1.426554127544424,-1.7456783929274762,-0.5284808530872022
1790097309396150784,7.154150878906257,1.3813831404350652,-1.5914862855073286,-0.5558805989327466
1790097309406150656,7.1641508789062565,1.3092850869593662,-1.3378616649308095,-0.5831287885279388
1790097309416150784,7.174150878906256,1.3754092567998915,-0.9930557936595383,-0.2653559648483825
1790097309426150656,7.184150878906256,1.3677933575132335,-0.5209986294695111,0.08674979080822456
1790097309436150784,7.194150878906256,1.092146303105023,-0.18631159241092793,0.25845325169468925
1790097309446150656,7.2041508789062565,1.0207383676822341,-0.007024954546310646,0.314387209331794
1790097309456150784,7.214150878906256,1.1701432382325772,-0.019101580068538005,0.23509851217112115
1790097309466150656,7.224150878906256,1.4238408435111192,-0.2548648272615455,0.2889915851573616
1790097309476150784,7.234150878906257,1.3913279180790903,-0.6798792751546907,0.4138930227700933
1790097309486150656,7.2441508789062565,1.1603973879910248,-1.045666688909657,0.4211347669239196
1790097309496150784,7.254150878906256,0.8500814573249202,-1.1139199491744614,0.15719340641947807
1790097309506150656,7.264150878906256,0.6496326036735042,-0.8112358666708809,0.0026307315215217883
1790097309516150784,7.274150878906256,0.5507589402540862,-0.4123793491628933,0.0308795403918456
1790097309526150656,7.284150878906257,0.5241072138358565,-0.07241543900307981,0.29436867294307895
1790097309536150784,7.294150878906256,0.6234407778963845,-0.0033407209698056196,0.41203716150767583
1790097309546150656,7.304150878906256,0.6246855371968187,-0.21558955871829957,0.2531717252707779
1790097309556150784,7.314150878906257,0.5343470929428074,-0.4464548472500967,0.0038084689089543655
1790097309566150656,7.324150878906257,0.40742972205809874,-0.6052624745837075,-0.09264177149751622
1790097309576150784,7.334150878906256,0.21429781906209522,-0.4017031711541249,-0.19364736964710902
1790097309586150656,7.344150878906256,0.22946825854578323,-0.14724082358548127,-0.2679121121807655
1790097309596150784,7.354150878906256,0.2445821449555352,0.01372630373625242,-0.12494698886014458
1790097309606150656,7.364150878906257,0.3317886477251101,0.038651415427191,0.0023028572127177464
1790097309616150784,7.374150878906256,0.23991405605337915,-0.11447207188576732,0.08682052337035522
1790097309626150656,7.384150878906256,-0.03299391265077664,-0.2535019899326748,0.17339284965439344
1790097309636150784,7.394150878906257,-0.34469202365826274,-0.20120341618254095,0.2660238480265981
1790097309646150656,7.404150878906257,-0.3523505767584641,-0.07219651185014087,0.164686181367068
1790097309656150784,7.4141508789062565,-0.08941149182260538,-0.004322773736828438,-0.14051781953050288
1790097309666150656,7.424150878906256,0.19972720828164947,-0.11159756688661976,-0.3573015404005073
1790097309676150784,7.434150878906256,0.455606418929587,-0.39315589969436765,-0.44937394489324317
1790097309686150656,7.444150878906257,0.8377161037739196,-0.75015255816961,-0.5176267764293285
1790097309696150784,7.4541508789062565,1.2382484373730782,-0.9778258308501402,-0.6531289784157481
1790097309706150656,7.464150878906256,1.246118476789627,-0.9515888577797582,-0.7744155303165563
1790097309716150784,7.474150878906257,0.85697643633677,-0.7119368154959428,-0.8383302667043647
1790097309726150656,7.484150878906257,0.47947195799739606,-0.5320548297474534,-0.8253558986696565
1790097309736150784,7.4941508789062565,0.33986746119145567,-0.4970736366980569,-0.7882835154989934
1790097309746150656,7.504150878906256,0.34849869377935744,-0.6478176962608356,-0.6689401937453614
1790097309756150784,7.514150878906256,0.6541268540364296,-0.991837172776375,-0.6347715292089837
1790097309766150656,7.524150878906257,0.927435690254547,-1.3143037452173483,-0.568987270283807
1790097309776150784,7.534150878906257,1.055257929982809,-1.501135617005164,-0.6227170449577154
1790097309786150656,7.544150878906256,0.9414225801993711,-1.5525846200663456,-0.7184215638277538
1790097309796150784,7.554150878906257,0.5851621964538171,-1.4803268132347784,-0.836758318765731
1790097309806150656,7.564150878906257,0.2535122825839644,-1.389364036073756,-0.8987714838497466
1790097309816150784,7.574150878906257,0.10261731354911217,-1.3582572653154505,-0.7828719659600749
1790097309826150656,7.584150878906256,0.07289479172342955,-1.2767557696984884,-0.5624223946380587
1790097309836150784,7.594150878906256,0.1232180653950137,-1.226373098284552,-0.3291860791377006
1790097309846150656,7.604150878906257,0.21592685330807032,-1.1145979908042039,-0.2461704302475157
1790097309856150784,7.614150878906257,0.3038840077718995,-0.9504393974158644,-0.24107189844010393
1790097309866150656,7.624150878906256,0.31585090336583915,-0.8215841957022441,-0.3817857108751541
1790097309876150784,7.634150878906257,0.15475714168078447,-0.894363723997435,-0.4076200345492485
1790097309886150656,7.644150878906257,-0.02677008357247196,-1.0251597973122966,-0.48282470384927123
1790097309896150784,7.654150878906257,-0.16711812695894807,-1.031282311785546,-0.43707292050213853
1790097309906150656,7.6641508789062565,0.09100377637821996,-0.9802289472515828,-0.7119787417589395
1790097309916150784,7.674150878906256,0.5402459340310108,-0.9504099816314653,-0.7024344593049651
1790097309926150656,7.684150878906257,0.8977408954860147,-1.0825715656079058,-0.6186880349903167
1790097309936150784,7.694150878906257,0.98271162577465,-1.3511722508098398,-0.6520433372292993
1790097309946150656,7.7041508789062565,0.6131502882633655,-1.4657195791401958,-0.675578476212161
1790097309956150784,7.714150878906257,0.061178664346419,-1.520768658329669,-0.6631008088974225
1790097309966150656,7.724150878906257,-0.3922193905313277,-1.4690629978151613,-0.6639980389340155
1790097309976150784,7.734150878906257,-0.41454893655385655,-1.182953269949346,-0.7824452811032762
1790097309986150656,7.7441508789062565,-0.06493507880924118,-1.071059100025842,-0.897688301180198
1790097309996150784,7.754150878906256,0.2464672687595234,-1.096917705991033,-0.8827070203247394
1790097310006150656,7.764150878906257,0.06293079867417661,-1.1642000295861548,-0.5866829085630773
1790097310016150784,7.774150878906257,-0.5499889390287735,-1.11138186158047,-0.09938384737913869
1790097310026150656,7.784150878906257,-0.9942634119890015,-0.6929996760294048,0.41040763813754116
1790097310036150784,7.794150878906257,-0.9468848261880534,-0.03544890183210414,0.8045688581136927
1790097310046150656,7.804150878906257,-0.9912765635248558,0.1764443028675815,1.2902234639204369
1790097310056150784,7.814150878906257,-0.8700625417960297,0.3706226614853426,1.363933319075892
1790097310066150656,7.824150878906257,-1.130476644907609,0.2248044986253357,1.2178266208150208
1790097310076150784,7.834150878906256,-1.7938111184459533,0.2036296133022602,0.9725982146019084
1790097310086150656,7.844150878906257,-2.332969946359899,-0.1420896036761861,0.9142669043741742
1790097310096150784,7.854150878906257,-2.355337298035831,-0.2535899907359069,0.8219235594886416
1790097310106150656,7.864150878906257,-2.202264241656768,-0.3669396755708595,0.9694724205919588
1790097310116150784,7.874150878906257,-2.0323587757250063,0.07494993339686108,1.1624654836094281
1790097310126150656,7.884150878906257,-2.2472554236204454,0.4681861522060172,1.122927241495713
1790097310136150784,7.894150878906257,-3.0018638536502844,0.2916496180875279,1.2509218914849398
1790097310146150656,7.904150878906257,-3.267858481223124,0.20432456901593987,1.3264502495578814
1790097310156150784,7.9141508789062565,-3.052563551293312,0.13525405660685455,1.4304431577704417
1790097310166150656,7.924150878906257,-2.679331399363881,0.2067995724535818,1.668102719402198
1790097310176150784,7.934150878906257,-2.520361846371754,0.40175371176343355,1.941885053727166
1790097310186150656,7.944150878906257,-2.372820134175378,0.6166661279273123,1.9236080596979814
1790097310196150784,7.954150878906257,-2.186317832116148,0.6092113809636549,1.8359621947468712
1790097310206150656,7.964150878906257,-1.8966748253987553,0.4656215539397653,1.5655724734535699
1790097310216150784,7.974150878906257,-1.885791344899851,0.30075879290771446,1.289025485175717
1790097310226150656,7.984150878906257,-1.5211920172327735,0.20932363320339745,0.9359220201270443
1790097310236150784,7.9941508789062565,-0.8011242588976074,0.3801905578557317,0.651596829450175
1790097310246150656,8.004150878906257,-0.7640866075560018,0.4484055780479749,0.42929849241446294
1790097310256150784,8.014150878906257,-1.3347634275001197,0.3587171218175681,0.4524160411048527
1790097310266150656,8.024150878906257,-1.7565384097900174,0.40286040334119566,0.46142338655234344
1790097310276150784,8.034150878906257,-1.6559525029507676,0.42998610898256107,0.4616640175487077
1790097310286150656,8.044150878906258,-1.2191765706873168,0.38083864944191353,0.6236204069938851
1790097310296150784,8.054150878906256,-0.8422936315513491,0.36664468669037814,0.8029272961853783
1790097310306150656,8.064150878906258,-0.7929340123952887,0.33357394719295325,0.8904546421093271
1790097310316150784,8.074150878906256,-1.139610298050588,0.3843600265949664,0.8625889815109025
1790097310326150656,8.084150878906257,-1.5019521835055982,0.4229027210761175,0.7554843968402035
1790097310336150784,8.094150878906257,-1.615624556871645,0.32641718214250104,0.7666076874135102
1790097310346150656,8.104150878906257,-1.4372618875688954,0.18353516244797574,0.9027270295263916
1790097310356150784,8.114150878906258,-1.1852798291692432,0.12775295217766178,1.0300828357984284
1790097310366150656,8.124150878906256,-1.0376347528393288,0.2203488205759938,1.0407491937386877
1790097310376150784,8.134150878906258,-1.2104719777710795,0.31985231775636,0.8962347828467498
1790097310386150656,8.144150878906256,-1.8031898870304515,0.2737196043984907,0.8054008421134746
1790097310396150784,8.154150878906258,-1.6120127301294223,0.2598142058289295,0.8190465878119395
1790097310406150656,8.164150878906256,-0.8841453694866268,0.2249978080875645,0.7783469475401239
1790097310416150784,8.174150878906257,-0.271970744306048,0.1775419443767222,0.8373935749342308
1790097310426150656,8.184150878906259,-0.11864813317486385,0.2324578047115231,0.7399147671432761
1790097310436150784,8.194150878906257,-0.0819183803308494,0.3933843329720773,0.5569150525790977
1790097310446150656,8.204150878906258,0.07257761005854142,0.49938669000773345,0.3278579241646978
1790097310456150784,8.214150878906256,0.19931005632360077,0.4762273934410108,0.14407500671739296
1790097310466150656,8.224150878906258,0.18370756855044032,0.2814730109241396,-0.04942653206424119
1790097310476150784,8.234150878906256,0.3836917353941208,-0.05321741977483527,-0.2621574014848058
1790097310486150656,8.244150878906257,0.808767784136563,-0.43513478553646245,-0.4628479045734789
1790097310496150784,8.254150878906259,1.0553878703346953,-0.768697398143317,-0.7079063983910281
1790097310506150656,8.264150878906257,0.9374160166986418,-1.0616487973047344,-0.9635813142788046
1790097310516150784,8.274150878906259,0.6222834764725288,-1.3378458689993533,-1.218927006864772
1790097310526150656,8.284150878906257,0.2733756129577168,-1.6007703704133496,-1.270275175594591
1790097310536150784,8.294150878906258,0.27905990201465314,-1.7546999263964669,-1.1165680954486379
1790097310546150656,8.304150878906256,0.5830644143469579,-1.825854410047673,-0.8441411434763798
1790097310556150784,8.314150878906258,0.7645658608960677,-1.671427071443334,-0.5869317643473948
1790097310566150656,8.324150878906256,0.5128089334204045,-1.349794603248081,-0.49952277552199903
1790097310576150784,8.334150878906257,0.14506071695528278,-1.015057585250979,-0.4909778156168406
1790097310586150656,8.344150878906259,-0.12976507930325595,-0.6775807230761683,-0.48121227742985323
1790097310596150784,8.354150878906257,-0.09636427567348256,-0.38323968854103574,-0.36659083262989794
1790097310606150656,8.364150878906258,0.198154959887123,-0.1387092415565416,-0.23294961868139358
1790097310616150784,8.374150878906256,0.394888114672335,0.009141664431979828,-0.20649568159157497
1790097310626150656,8.384150878906258,0.47553067911336094,0.12982018125307077,-0.368845632047258
1790097310636150784,8.394150878906256,0.48439983738299713,0.13489859825916986,-0.5312831921008474
1790097310646150656,8.404150878906258,0.36285783866405985,0.060666351996220794,-0.7011280741681767
1790097310656150784,8.41415087890626,0.1330345012096519,-0.03754479220170155,-0.800612087120397
1790097310666150656,8.424150878906257,0.09998505567820914,-0.18103299073371143,-0.8171391456856527
1790097310676150784,8.434150878906259,0.3988762403376827,-0.26382824082643436,-0.8472769313461712
1790097310686150656,8.444150878906257,0.6961240806357186,-0.348749459515617,-0.8144263651362962
1790097310696150784,8.454150878906258,0.6961586003426328,-0.3734583041602566,-0.7805454126185722
1790097310706150656,8.464150878906256,0.5992933244854238,-0.4737156205681834,-0.718110081964293
1790097310716150784,8.474150878906258,0.5292857368092758,-0.6282702958570971,-0.7607974490751249
1790097310726150656,8.484150878906256,0.5058749029109522,-0.7553840617418072,-0.833701218277964
1790097310736150784,8.494150878906257,0.5150598025276106,-0.859660186098673,-0.8458269297425439
1790097310746150656,8.504150878906259,0.8394972575598455,-1.033473232837162,-0.8585833246565103
1790097310756150784,8.514150878906257,1.2742193602276692,-1.3352473440823933,-0.7098816181038546
1790097310766150656,8.524150878906259,1.3905012956360014,-1.4582526235951812,-0.8904671411939152
1790097310776150784,8.534150878906257,1.257569969123309,-1.558029672715404,-0.6656376806219622
1790097310786150656,8.544150878906258,1.064081345724577,-1.3865591126002506,-0.44584651040395323
1790097310796150784,8.554150878906256,1.024823646299869,-1.0735779971934614,-0.27848788504425404
1790097310806150656,8.564150878906258,1.1092393963743359,-0.7061075050374708,-0.11043748131443314
1790097310816150784,8.57415087890626,1.210134475874397,-0.46735308636696665,0.0970229181997426
1790097310826150656,8.584150878906257,1.1959786706622184,-0.4064297489066922,0.28834147475803507
1790097310836150784,8.594150878906259,0.9363683393676983,-0.4194418777071117,0.3135642921189425
1790097310846150656,8.604150878906257,0.6139006927089498,-0.35765321317537274,0.2574239992322309
1790097310856150784,8.614150878906258,0.3736715548512319,-0.05860868719141488,0.25927307154799795
1790097310866150656,8.624150878906256,0.2530814815472327,0.3779048160116174,0.20007891416803789
1790097310876150784,8.634150878906258,0.21135383511777422,0.6458168539457798,0.07251039225032509
1790097310886150656,8.644150878906256,0.1942133998495244,0.6732198297838549,-0.13082856502848336
1790097310896150784,8.654150878906258,0.11571506729793485,0.5440504395658197,-0.20558835937473408
1790097310906150656,8.66415087890626,-0.023650093255525657,0.20128168846514913,-0.21874441419157417
1790097310916150784,8.674150878906257,-0.03677617900141028,-0.08861919304459231,-0.28225434396529636
1790097310926150656,8.684150878906259,0.017598414636737836,-0.150332576792847,-0.3774686363310819
1790097310936150784,8.694150878906257,0.16064639901985858,-0.10520151440265722,-0.3571545416596824
1790097310946150656,8.704150878906258,0.43311408442932064,-0.19051784707298425,-0.358645850190461
1790097310956150784,8.714150878906256,0.828330393931221,-0.381165813309131,-0.4722334342722531
1790097310966150656,8.724150878906258,1.1976917873428705,-0.6244009783879944,-0.6260528514054075
1790097310976150784,8.73415087890626,1.398213303746101,-0.824685355634535,-0.7753169705395595
1790097310986150656,8.744150878906257,1.401291452991859,-0.9324632256222207,-0.9298738773860287
1790097310996150784,8.754150878906259,1.177865160310814,-0.8557745586610345,-1.0615126345709154
1790097311006150656,8.764150878906257,0.8892398105741253,-0.6682039207326501,-1.1575550977742453
1790097311016150784,8.774150878906259,0.5373699819293148,-0.5214871182742875,-1.2335288472622306
1790097311026150656,8.784150878906257,0.26447919892207583,-0.5084887064760524,-1.226990038615536
1790097311036150784,8.794150878906258,0.14606904220099526,-0.5315935791646103,-1.154323037796414
1790097311046150656,8.804150878906256,0.017238441757943687,-0.547087193128336,-0.9301137774972948
1790097311056150784,8.814150878906258,-0.05910681640624828,-0.4899324730936959,-0.804189961632743
1790097311066150656,8.82415087890626,-0.03650612980706712,-0.4110687420079611,-0.7431944673140376
1790097311076150784,8.834150878906257,0.011951803018523074,-0.3997757093541482,-0.7818937084229184
1790097311086150656,8.844150878906259,0.1255532619216335,-0.4835028001700081,-0.8200489982373983
1790097311096150784,8.854150878906257,0.285864531255956,-0.6850287578161727,-0.8955007713265214
1790097311106150656,8.864150878906258,0.4825292514104258,-0.8813853383430434,-0.9187905292833453
1790097311116150784,8.874150878906256,0.6238005711673071,-1.0099651556009122,-1.023649863753937
1790097311126150656,8.884150878906258,0.7411329529210908,-0.9787777176879436,-1.1849085613209687
1790097311136150784,8.89415087890626,0.7687156468831803,-0.8610943990211131,-1.2935029260113122
1790097311146150656,8.904150878906258,0.617047869919947,-0.7371169170142869,-1.423935209356609
1790097311156150784,8.91415087890626,0.28020569240546145,-0.7605148460305995,-1.4451668907862376
1790097311166150656,8.924150878906257,-0.15214562078878438,-0.8304585946927788,-1.396187890867398
1790097311176150784,8.934150878906259,-0.35133035093651654,-0.8406237543113982,-1.3008956323415877
1790097311186150656,8.944150878906257,-0.42364053611073765,-0.8597706907444571,-1.1385277652299564
1790097311196150784,8.954150878906258,-0.4258592974252908,-0.6668667403041657,-0.8726049333384768
1790097311206150656,8.964150878906256,-0.4115819452982468,-0.7371392820198416,-0.5238171377042058
1790097311216150784,8.974150878906258,-0.1435246048453147,-0.5699925496600986,-0.5384912948895137
1790097311226150656,8.98415087890626,-0.04941118268124121,-0.5732910483744342,-0.8150715205864666
1790097311236150784,8.994150878906257,-0.05714344439135813,-0.6607894284753969,-1.0730876913590477
1790097311246150656,9.004150878906259,-0.2279090159973888,-0.7429110323571895,-1.133681783230602
1790097311256150784,9.014150878906257,-0.4296139118501601,-0.8592806454505943,-0.9952585844976175
1790097311266150656,9.024150878906259,-0.31867443085376956,-1.0243205793609078,-0.7877276168757325
1790097311276150784,9.034150878906257,0.016980794213718134,-1.165316219271348,-0.5052202470355854
1790097311286150656,9.044150878906258,0.09429365295965869,-1.2357798695295898,-0.22560254387912032
1790097311296150784,9.05415087890626,-0.2909647268184876,-1.1694422014227073,0.040230291507224444
1790097311306150656,9.064150878906258,-0.7799738050467544,-0.9680010567401052,0.3257443707607007
1790097311316150784,9.07415087890626,-1.0013735966035786,-0.6912734913843565,0.5606056120029193
1790097311326150656,9.084150878906257,-1.0453555513483934,-0.5025793485892859,0.5654900865047874
1790097311336150784,9.094150878906259,-1.0698181562808646,-0.39647686508333235,0.39523810275608895
1790097311346150656,9.104150878906257,-1.3560668978197405,-0.4845558704212719,0.3219032295626691
1790097311356150784,9.114150878906258,-1.952859831871005,-0.44377380986271553,0.35500382626018084
1790097311366150656,9.124150878906256,-2.569815373317998,-0.2130030059854083,0.55755337510684
1790097311376150784,9.134150878906258,-2.895044826225571,0.08996193741779751,0.8768041456666444
1790097311386150656,9.14415087890626,-2.5531396231287298,0.2239394077656045,1.3310767988964995
1790097311396150784,9.154150878906258,-2.386910654264289,0.1392751180923426,1.6404193468486297
1790097311406150656,9.16415087890626,-2.4635486014806203,-0.06062079758774323,1.6769795969360577
1790097311416150784,9.174150878906257,-3.1096882676956707,-0.05081846870917319,1.5716321414155765
1790097311426150656,9.184150878906259,-2.7881083620140332,0.03913566532011461,1.7631239423196887
1790097311436150784,9.194150878906257,-2.40971049409601,0.3637496941097183,1.8660784663699774
1790097311446150656,9.204150878906258,-2.070836043457625,0.7138659290705184,1.7304946728413715
1790097311456150784,9.21415087890626,-1.8481226373942703,0.8669452062295466,1.3750532409880636
1790097311466150656,9.224150878906258,-1.9227635452066427,0.7195891157993943,1.0314718844060513
1790097311476150784,9.23415087890626,-2.0991907262178287,0.5145909827704647,0.8567145654471241
1790097311486150656,9.244150878906257,-1.9119667136279126,0.42640421357996366,0.8494638092289334
1790097311496150784,9.254150878906259,-1.4979316295077214,0.3429495471018137,1.1385944746022405
1790097311506150656,9.264150878906257,-0.9391732938013173,0.27104353423429434,1.2575500242130038
1790097311516150784,9.274150878906259,-0.6864910734469767,0.33325700593351526,0.9071295152675681
1790097311526150656,9.284150878906257,-1.4487753448822926,0.4275531446888505,0.8969627907818711
1790097311536150784,9.294150878906258,-2.6222596574683195,0.5593785063498049,1.1847310581887245
1790097311546150656,9.30415087890626,-2.7075885310966847,0.6067755958819281,1.3417798285627016
1790097311556150784,9.314150878906258,-1.807391448865723,0.5015035783760143,1.4202902916969518
1790097311566150656,9.32415087890626,-1.4315430450344615,0.4903867862461605,1.4599245056440957
1790097311576150784,9.334150878906257,-1.119470016416219,0.537039283495468,1.5646842100815337
1790097311586150656,9.344150878906259,-1.892914199787306,0.6459573687917338,1.5006209045319625
1790097311596150784,9.354150878906257,-1.9847675514931649,0.7543556493293885,1.2690940906627903
1790097311606150656,9.364150878906258,-1.7562946006362883,0.6522844676373402,1.0717670194385314
1790097311616150784,9.37415087890626,-1.40903871214601,0.4954660011964028,0.981964603266781
1790097311626150656,9.384150878906258,-1.070850742884201,0.4614130868495534,0.9505404169483802
1790097311636150784,9.39415087890626,-0.5003241851055245,0.5835363411391992,0.8044658036913088
1790097311646150656,9.404150878906258,0.18246029698279495,0.7112039162837719,0.5420379449056284
1790097311656150784,9.41415087890626,0.2891348368675244,0.7164331286630369,0.18890078606152128
1790097311666150656,9.424150878906257,-0.32345311778792124,0.5673777057577152,-0.04718475742270678
1790097311676150784,9.434150878906259,-0.6842262210454286,0.3476120777929265,-0.07599204409470436
1790097311686150656,9.444150878906257,-0.2764936463297555,0.06726780419119602,-0.14583901861684007
1790097311696150784,9.454150878906258,0.2868806118982611,-0.11524858798879578,-0.26710713128968877
1790097311706150656,9.46415087890626,0.15983019773853066,-0.12623603332466657,-0.13387126252083237
1790097311716150784,9.474150878906258,-0.2746593132620979,-0.04180140377448271,0.0794628441933309
1790097311726150656,9.48415087890626,-0.2691160039270938,-0.007028584628232361,0.3071162289383785
1790097311736150784,9.494150878906257,-0.10819958843715302,-0.11087368217823691,0.511979951997255
1790097311746150656,9.504150878906259,0.2601261450949977,-0.20305582996023563,0.6654335512200535
1790097311756150784,9.514150878906257,0.8270091965288872,-0.3632469176197038,0.6741326339058799
1790097311766150656,9.524150878906259,0.9409438518554332,-0.46875408751712827,0.5093843889422499
1790097311776150784,9.53415087890626,0.4328788375512017,-0.47417752024623183,0.18208599063362596
1790097311786150656,9.544150878906258,-0.034735691435828664,-0.4920970638468062,-0.13437258429538432
1790097311796150784,9.55415087890626,-0.10048709432420352,-0.5881159405879726,-0.3392100800493589
1790097311806150656,9.564150878906258,0.16433921739927593,-0.7014028525083501,-0.4646831627995837
1790097311816150784,9.57415087890626,0.6250565558817878,-0.7738478673603948,-0.5921502164237711
1790097311826150656,9.584150878906257,0.956266853056689,-0.7956693241940394,-0.7234571361224023
1790097311836150784,9.594150878906259,1.021471275973712,-0.7377425171007553,-0.9290440751201433
1790097311846150656,9.604150878906257,0.8681026473981955,-0.7242277271033698,-1.1022497217937022
1790097311856150784,9.614150878906258,0.7434086323784114,-0.7036347051614216,-1.0619836308659671
1790097311866150656,9.62415087890626,0.9040322210632505,-0.6828811294732537,-0.7619284902226158
1790097311876150784,9.634150878906258,1.3072484974691572,-0.665088008763922,-0.4290381009081358
1790097311886150656,9.64415087890626,1.7566780796590618,-0.681410166981452,-0.20451696532392258
1790097311896150784,9.654150878906258,1.8062482735380645,-0.6095976275249838,-0.19552136723821653
1790097311906150656,9.66415087890626,1.228140745759682,-0.4999322888517834,-0.19024192332673096
1790097311916150784,9.674150878906257,0.6106064278475222,-0.5192801888993275,-0.4405379616519991
1790097311926150656,9.684150878906259,0.6138352783758927,-0.5544896477350036,-0.6761300596795038
1790097311936150784,9.69415087890626,1.0150162626629167,-0.5203148946684292,-0.7677870902220714
1790097311946150656,9.704150878906258,1.434230389198377,-0.41261732475429114,-0.7537696727868816
1790097311956150784,9.71415087890626,1.5759038267903012,-0.2834663910651096,-0.7186467636991011
1790097311966150656,9.724150878906258,1.4381387848647191,-0.1488700189476119,-0.6376824740404822
1790097311976150784,9.73415087890626,1.0207428196194546,-0.16381084238028598,-0.49234774296683664
1790097311986150656,9.744150878906257,0.6216383716704872,-0.23436961186738886,-0.44347862131141735
1790097311996150784,9.754150878906259,0.6273871123555703,-0.34594403017821773,-0.21061115221877125
1790097312006150656,9.764150878906257,0.806226026622569,-0.35111232206722615,-0.09615782651776067
1790097312016150784,9.774150878906259,0.9660677446010422,-0.512923723378836,0.10597141931304335
1790097312026150656,9.78415087890626,1.0524623120333045,-0.6483331141190554,0.003078928500364328
1790097312036150784,9.794150878906258,1.1343620836707906,-0.9020973232717009,0.3138933992610043
1790097312046150656,9.80415087890626,1.0679376015767863,-0.74864834843795,0.10727701001352187
1790097312056150784,9.814150878906258,1.0805199898134126,-0.5251333527061397,0.10070140593203072
1790097312066150656,9.82415087890626,1.0187738950458862,-0.27637406450654184,-0.13361872828015292
1790097312076150784,9.834150878906257,0.9975817748645859,-0.09267499830903275,-0.37120339417847315
1790097312086150656,9.844150878906259,1.2320193099543622,0.07397086744745246,-0.3180258828156288
1790097312096150784,9.85415087890626,1.3653600120113034,0.2892447771278549,-0.1703331404706857
1790097312106150656,9.864150878906258,1.1061381542409636,0.3773891841443075,0.11336536807960984
1790097312116150784,9.87415087890626,0.7934153576190415,0.3380540800392815,0.18198146270860432
1790097312126150656,9.884150878906258,0.7534002754862841,0.27504167171098703,-0.010360512028689706
1790097312136150784,9.89415087890626,0.8762274825829157,0.2858589409262986,-0.1434257326271663
1790097312146150656,9.904150878906258,0.7364579695416608,0.2727470918366113,-0.09373299603404468
1790097312156150784,9.91415087890626,0.36594456240587975,0.19377004738927506,-0.09197159341802574
1790097312166150656,9.924150878906257,0.02723000200956069,0.043180631450340456,-0.25841854752700044
1790097312176150784,9.934150878906259,-0.16760516054292235,0.02689271113780145,-0.5233195142657915
1790097312186150656,9.94415087890626,-0.127825082555821,0.016047245665190772,-0.8290712585242923
1790097312196150784,9.954150878906258,0.06007017840647785,-0.009435250559587535,-1.0369806167750923
1790097312206150656,9.96415087890626,0.4952053913931345,-0.21283251918953555,-0.9861381354957497
1790097312216150784,9.974150878906258,0.8516420594436807,-0.5349566272417801,-0.8671097620849522
1790097312226150656,9.98415087890626,0.9589929439865031,-0.8885519060768141,-0.8286358999596418
1790097312236150784,9.994150878906257,1.0043854835237167,-1.03994633772108,-0.8424042047080234
1790097312246150656,10.004150878906259,1.0615687482837484,-0.9822904845535838,-0.9140902676579533
1790097312256150784,10.01415087890626,1.1847076184903564,-0.7937265419511305,-1.0223090714921783
1790097312266150656,10.024150878906259,1.0958923847573783,-0.6287186978928047,-0.9902213830186578
1790097312276150784,10.03415087890626,0.811338864263857,-0.5069286995961404,-0.8347569538713866
1790097312286150656,10.044150878906258,0.5026139213037202,-0.32957829154481266,-0.6636307006245241
1790097312296150784,10.05415087890626,0.3412624794352277,-0.06844166773260307,-0.5377182576969312
1790097312306150656,10.064150878906258,0.37765133649883925,0.202620348119339,-0.5002335837361631
1790097312316150784,10.07415087890626,0.42012930610602545,0.3398348204145781,-0.5538658304700939
1790097312326150656,10.084150878906257,0.39889028250792974,0.28619317603730743,-0.5764486097628017
1790097312336150784,10.094150878906259,0.39302092024913415,-0.0023547439533013748,-0.5915969199221369
1790097312346150656,10.10415087890626,0.5384121064570131,-0.402675025195053,-0.5337408308827561
1790097312356150784,10.114150878906258,0.7680438560105303,-0.7377572340286584,-0.5132837802979119
1790097312366150656,10.12415087890626,1.050617383642244,-0.8724661025103229,-0.5615108581501882
1790097312376150784,10.134150878906258,1.3226722518458398,-0.8293829354577112,-0.8818987240652355
1790097312386150656,10.14415087890626,1.4655381901108895,-0.8372900948860053,-1.192322386148015
1790097312396150784,10.154150878906258,1.2833905264498024,-1.0401859508083258,-1.437696485419208
1790097312406150656,10.16415087890626,0.8912128905333582,-1.3631246115198457,-1.5076075946287875
1790097312416150784,10.17415087890626,0.4727191233048308,-1.50899566085793,-1.3889345877044992
1790097312426150656,10.184150878906259,0.0783363526193222,-1.3699331788556548,-1.224973956728364
1790097312436150784,10.19415087890626,-0.22147365580175188,-1.0593857544946021,-1.0025876606873267
1790097312446150656,10.204150878906258,-0.39082853122490824,-0.7019261509558493,-0.6720347492181641
1790097312456150784,10.21415087890626,-0.3904942651404782,-0.47289724481146117,-0.47883563066129803
1790097312466150656,10.224150878906258,-0.41926001435150706,-0.453487973229172,-0.35195413784251073
1790097312476150784,10.23415087890626,-0.4196382134659852,-0.467530932767873,-0.2137682803039789
1790097312486150656,10.244150878906257,-0.23959188672268217,-0.5025038648952822,-0.036988874820873624
1790097312496150784,10.254150878906259,0.17629313605476685,-0.5787561507964638,0.08781467422041099
1790097312506150656,10.26415087890626,0.10917364284211675,-0.8393001080575465,0.2976490101244358
1790097312516150784,10.274150878906259,-0.4934716336717383,-1.1584593490328965,0.40540008801130467
1790097312526150656,10.28415087890626,-1.1884649190811858,-1.2395223963369417,0.3264146243835237
1790097312536150784,10.294150878906258,-1.7846178980321745,-1.2361005019701579,0.20420847288775665
1790097312546150656,10.30415087890626,-2.0107926878049867,-0.6732307030203121,-0.016237717287020354
1790097312556150784,10.314150878906258,-1.8321416054448911,-0.2701583453644726,-0.21066361035291695
1790097312566150656,10.32415087890626,-1.3629858200971183,-0.12171669877665535,-0.11460568211166546
1790097312576150784,10.33415087890626,-0.8830142580261453,-0.09095641165999183,0.24270326721551921
1790097312586150656,10.344150878906259,-1.162021497770145,0.11000229111762794,0.699240860298743
1790097312596150784,10.35415087890626,-1.690972751130397,0.4718107445560378,1.1515195328961803
1790097312606150656,10.364150878906258,-2.0985663268659698,0.9274528563476421,1.5013283906845691
1790097312616150784,10.37415087890626,-2.209594501645239,1.0248176415565038,1.6749446548012172
1790097312626150656,10.384150878906258,-2.343018802267942,0.5729443996044599,1.5882397787250933
1790097312636150784,10.39415087890626,-3.0470470376644307,0.11200422217450828,1.453403180661191
1790097312646150656,10.404150878906258,-3.6452386350957657,0.0085039072336817,1.4713664428909472
1790097312656150784,10.41415087890626,-3.54182960927709,0.17587815775893656,1.6324595190641034
1790097312666150656,10.42415087890626,-2.820307702672876,0.3736971946354596,1.7170649838321026
1790097312676150784,10.434150878906259,-2.6522345187644656,0.13844956878561315,1.6672388122714947
1790097312686150656,10.44415087890626,-1.4615727161448455,0.5990684163246217,1.7756213749279508
1790097312696150784,10.454150878906258,-2.098529394374504,0.9780859162382337,1.8558895605707808
1790097312706150656,10.46415087890626,-2.4288789960279544,1.3283379742297046,1.7170407673117367
1790097312716150784,10.474150878906258,-2.6299922729513274,1.1201552777088568,1.5153382033375282
1790097312726150656,10.48415087890626,-2.5174194634108304,0.7762206589514633,1.3088209728560303
1790097312736150784,10.494150878906261,-1.9073457525556845,0.5795061064688483,1.1183967765861087
1790097312746150656,10.504150878906259,-1.5221200083695041,0.5160392763178618,0.9855892219961349
1790097312756150784,10.51415087890626,-1.8052527928540816,0.4473992613851966,1.1652118718269964
1790097312766150656,10.524150878906259,-1.906081273811132,0.3961914563267235,1.4773981674590253
1790097312776150784,10.53415087890626,-1.619421299792995,0.39183440919364365,1.5058681333698558
1790097312786150656,10.544150878906258,-1.4896608270197262,0.376053474083619,1.4246326123877115
1790097312796150784,10.55415087890626,-1.33213720200321,0.32039688390188625,1.371437826390312
1790097312806150656,10.564150878906258,-1.725981201003711,0.3197637905661444,1.3065621566601366
1790097312816150784,10.57415087890626,-2.1819119873311257,0.38021627006915804,1.2864652333341509
1790097312826150656,10.58415087890626,-2.23920874082647,0.4304428525730673,1.3958530067562323
1790097312836150784,10.594150878906259,-1.7570767091349337,0.39781318660183296,1.4998116408175686
1790097312846150656,10.60415087890626,-1.252641314070286,0.4168528753172506,1.4518898818092176
1790097312856150784,10.614150878906258,-0.45651727243619117,0.5369200349021402,1.3259448120760529
1790097312866150656,10.62415087890626,-0.553578134257101,0.5979091752156634,1.2131948037293916
1790097312876150784,10.634150878906258,-1.1106061844260968,0.6171835853172436,1.136395183970008
1790097312886150656,10.64415087890626,-0.8552744537736777,0.5788993384410424,1.0244776598852934
1790097312896150784,10.654150878906261,-0.25692800988515824,0.4644049326065963,0.8262267105317266
1790097312906150656,10.66415087890626,0.14902603415640142,0.2515647789211954,0.5679097091598037
1790097312916150784,10.67415087890626,0.08952440051473688,0.014121663696488873,0.3428151739379297
1790097312926150656,10.684150878906259,-0.01657255705968148,-0.1914879479228943,0.16565601161498777
1790097312936150784,10.69415087890626,0.08026124766384535,-0.39054332867893127,0.01276334555822646
1790097312946150656,10.704150878906258,0.30016783937701097,-0.6685047780449492,-0.09136005810687063
1790097312956150784,10.71415087890626,0.6781854549473627,-0.9764289569679467,-0.18483135666327555
1790097312966150656,10.724150878906258,1.2142784584005664,-1.1336213648304472,-0.3879834840129146
1790097312976150784,10.73415087890626,1.276546066186815,-1.1633714234839496,-0.6360148319736584
1790097312986150656,10.744150878906261,0.416120627747822,-1.1598116088349495,-0.7640805288422267
1790097312996150784,10.754150878906259,-0.3597088351514779,-1.127380929800213,-0.726677838769141
1790097313006150656,10.76415087890626,-0.15994182973715781,-1.1411251815685752,-0.48321790705288176
1790097313016150784,10.774150878906259,0.5061857625185916,-0.9955477632018161,-0.19567267591640558
1790097313026150656,10.78415087890626,1.1596238654016369,-0.7018566974905822,0.07287961439448096
1790097313036150784,10.794150878906258,1.187807897721992,-0.5334884552277775,0.09365628792869399
1790097313046150656,10.80415087890626,1.0628409589244665,-0.43638191448442554,0.10742259370815455
1790097313056150784,10.814150878906261,0.7792961302018184,-0.38531801324511517,0.049147180484204384
1790097313066150656,10.82415087890626,0.5823635022310671,-0.42615298873792473,0.009763635098584609
1790097313076150784,10.83415087890626,0.6820652360935205,-0.39973572824172443,-0.0305775884539463
1790097313086150656,10.844150878906259,1.009266031297333,-0.3993852840071355,-0.14704693441797717
1790097313096150784,10.85415087890626,1.1877996758665061,-0.5554154099883943,-0.3249613732331566
1790097313106150656,10.864150878906258,0.9686791320812567,-0.7693399517323712,-0.6112580229958051
1790097313116150784,10.87415087890626,0.7243642491263503,-1.0658036456303035,-0.8114667956420933
1790097313126150656,10.884150878906258,0.9380230274384371,-1.3034387521625121,-0.7568019971618587
1790097313136150784,10.89415087890626,1.2276061610556472,-1.5144219726957961,-0.7348103105117431
1790097313146150656,10.904150878906261,1.329282842508046,-1.630150452200317,-0.5757092429219162
1790097313156150784,10.91415087890626,1.2224677367120447,-1.4889296794342424,-0.45864255556403233
1790097313166150656,10.92415087890626,0.9971159137063025,-1.1818330918532958,-0.3603834623400286
1790097313176150784,10.934150878906259,0.7861238969963394,-0.8760041387132469,0.11189097284999494
1790097313186150656,10.94415087890626,0.569877467423027,-0.738537901961344,-0.03560721902023499
1790097313196150784,10.954150878906258,0.5909465914236377,-0.6576476617399575,0.03387352432172431
1790097313206150656,10.96415087890626,0.6473387957395563,-0.555844123336065,0.0750266574379383
1790097313216150784,10.974150878906261,0.479663390161461,-0.6462485134495398,0.12393956822927613
1790097313226150656,10.98415087890626,0.36576370634342353,-0.6711836017837703,0.2554212759384432
1790097313236150784,10.994150878906261,0.41611741378623346,-0.6766973705676362,0.3463751591955924
1790097313246150656,11.004150878906259,0.7239446191853144,-0.6351787316693165,0.5239206593674538
1790097313256150784,11.01415087890626,1.1710495644303438,-0.4441555935285739,0.5828962177383108
1790097313266150656,11.024150878906259,1.5507336282330484,-0.36797903697183537,0.3441663569385277
1790097313276150784,11.03415087890626,1.8171137480730326,-0.46029987474057166,0.006842730928253132
1790097313286150656,11.044150878906258,1.795684222263766,-0.4475284241254584,-0.16116042297859906
1790097313296150784,11.05415087890626,1.5896207570693994,-0.22836627548092597,-0.0004091056525661052
1790097313306150656,11.064150878906261,1.586103545393774,0.1383057758326375,0.059317540666602074
1790097313316150784,11.07415087890626,1.6602386933696938,0.4391240484281187,-0.04893448482340875
1790097313326150656,11.08415087890626,1.5136732325052251,0.4675666036106877,-0.0811398668408643
1790097313336150784,11.094150878906259,1.1574455072305625,0.34680554740905434,-0.03523119077375922
1790097313346150656,11.10415087890626,0.7579235521042877,0.4464999709483464,-0.04114657935832601
1790097313356150784,11.114150878906258,0.5767151831542635,0.31839995248220165,-0.044593569077461724
1790097313366150656,11.12415087890626,0.5446459583622928,0.4129522913512209,-0.06838053679377294
1790097313376150784,11.134150878906262,0.5238988828637434,0.35321662444617724,-0.16745334092562866
1790097313386150656,11.14415087890626,0.6006249609183287,0.07605981592047494,-0.28926113576926166
1790097313396150784,11.154150878906261,0.7431589240677369,-0.24736509234952156,-0.42041335382120004
1790097313406150656,11.16415087890626,0.8696283519227401,-0.4954095136064293,-0.5783346415598529
1790097313416150784,11.17415087890626,0.9708507480131068,-0.6067970641863801,-0.684858691438612
1790097313426150656,11.184150878906259,1.0454198132833687,-0.6210355647740008,-0.7696801441753139
1790097313436150784,11.19415087890626,1.1314471776570172,-0.6037883872436207,-0.8180202173881941
1790097313446150656,11.204150878906258,1.104834005809772,-0.6483625862031686,-0.8426448225447132
1790097313456150784,11.21415087890626,0.8702272155555,-0.838638949373453,-0.8705204434669611
1790097313466150656,11.224150878906261,0.5663101889047146,-1.0682478145730165,-0.8885018476074557
1790097313476150784,11.23415087890626,0.4063868237165721,-1.0701628870637454,-0.8528620245258519
1790097313486150656,11.244150878906261,0.3154237695903216,-0.9928991613371861,-0.7884783181530235
1790097313496150784,11.254150878906259,0.17359203375814986,-0.9477470428263002,-0.7223853262985647
1790097313506150656,11.26415087890626,0.2490439096517217,-0.8736176044965264,-0.8793904008971019
1790097313516150784,11.274150878906259,0.153863581973204,-0.9134386756199783,-0.8072112638538129
1790097313526150656,11.28415087890626,0.16668001363534374,-0.9770220573483376,-0.7631430360573633
1790097313536150784,11.294150878906262,0.19187765227938763,-0.8342012765042913,-0.8413741138787563
1790097313546150656,11.30415087890626,0.267631045883064,-0.5972581307493554,-1.2082985559309405
1790097313556150784,11.314150878906261,0.5322913054292023,-0.5333382644701558,-1.2841028330160513
1790097313566150656,11.32415087890626,0.6561984222807525,-0.6382398583112963,-1.3638271754037
1790097313576150784,11.33415087890626,0.5387224370866345,-0.795899019223693,-1.3915025101110068
1790097313586150656,11.344150878906259,0.39126242601111505,-0.8720337400090078,-1.411934199404144
1790097313596150784,11.35415087890626,0.3685146237262634,-0.8499811486238084,-1.5642147682354124
1790097313606150656,11.364150878906258,0.407696459739446,-0.8726229618747686,-1.7253462876084134
1790097313616150784,11.37415087890626,0.391720909200432,-0.9125072011477942,-1.6491978964861322
1790097313626150656,11.384150878906262,0.2442482581229411,-0.9864486081077248,-1.4449199958201007
1790097313636150784,11.39415087890626,-0.0132647351014539,-1.1074413151782978,-1.092590414487024
1790097313646150656,11.404150878906261,-0.3341218620429659,-1.2309551863071118,-0.6346374744388115
1790097313656150784,11.41415087890626,-0.6190455582322301,-1.2371649836130048,-0.12720555180966298
1790097313666150656,11.42415087890626,-0.8652874815852948,-1.0346936626088095,0.27232156704515464
1790097313676150784,11.434150878906259,-1.357438441515721,-0.7698495791590763,0.3857677863746017
1790097313686150656,11.44415087890626,-1.9483178531647654,-0.5914906672591465,0.2083550403721976
1790097313696150784,11.454150878906262,-2.020224617662474,-0.30297319010015883,-0.1537867037117762
1790097313706150656,11.46415087890626,-1.6864655771361237,-0.1961240815156174,-0.38268823314471656
1790097313716150784,11.474150878906261,-1.265945133725427,-0.2077566390428359,-0.3590516691882557
1790097313726150656,11.48415087890626,-0.7892933352089082,-0.2819386335912068,-0.22825301952511337
1790097313736150784,11.494150878906261,-0.7102862392910559,-0.16034826588814324,0.0028685533968878796
1790097313746150656,11.504150878906259,-1.695777037078304,0.09584710772941402,0.43214640526746306
1790097313756150784,11.51415087890626,-2.9132625944578647,0.49343745726456784,0.8098488423849941
1790097313766150656,11.524150878906259,-3.2065784360982614,0.743564581938763,1.0618546179779293
1790097313776150784,11.53415087890626,-2.579443037308304,0.7314327351493616,1.2562265765371603
1790097313786150656,11.544150878906262,-1.9978718680296494,0.4462749280428806,1.335723283837385
1790097313796150784,11.55415087890626,-1.8582561197856464,0.02339260040710961,1.2678905714082453
1790097313806150656,11.564150878906261,-3.0060833727464007,-0.4511017563879716,1.0458333610985107
1790097313816150784,11.57415087890626,-3.312008359717531,-0.2512282935280537,1.028487252321957
1790097313826150656,11.58415087890626,-3.7800847039427183,0.17397177509509248,1.1447440667931124
1790097313836150784,11.594150878906259,-3.256985204910249,0.3803600377261021,1.3410963159444018
1790097313846150656,11.60415087890626,-2.7053711433238683,0.3848361182454594,1.5739466797368435
1790097313856150784,11.614150878906262,-2.8870777046648204,0.43935578485583165,1.7706384112535232
1790097313866150656,11.62415087890626,-3.020998186956476,0.7130896052479879,1.829234674979727
1790097313876150784,11.634150878906262,-2.7485285889607325,1.0560345970768363,1.7329817070044424
1790097313886150656,11.64415087890626,-2.4527783727269257,1.2508716574542627,1.4842992891083964
1790097313896150784,11.654150878906261,-2.0486157132527056,1.2872289797599736,1.1073708748310347
1790097313906150656,11.66415087890626,-1.5347722258812633,1.2662930598429738,0.9515555586247259
1790097313916150784,11.67415087890626,-2.126447836158815,1.012148586669023,0.8433363830095514
1790097313926150656,11.684150878906259,-2.180801080454799,0.7680204729750892,0.9046893102766526
1790097313936150784,11.69415087890626,-1.9081558088987136,0.5732787804036154,1.0074641614632471
1790097313946150656,11.704150878906262,-1.5168554571812805,0.4497698579981205,1.0230614474788151
1790097313956150784,11.71415087890626,-1.6354707504400656,0.3872285020981647,1.018262294630638
1790097313966150656,11.724150878906261,-2.231137509340753,0.4698839412331804,0.9905366798758815
1790097313976150784,11.73415087890626,-2.5642477480665335,0.6120676281152458,0.9854202848859095
1790097313986150656,11.744150878906261,-2.138488278104645,0.731858830908106,1.0026775703495618
1790097313996150784,11.754150878906259,-1.4125992325962091,0.6951162682271633,1.0353872750955924
1790097314006150656,11.76415087890626,-1.337867112102251,0.6180010077767252,1.0287886018384047
1790097314016150784,11.774150878906262,-1.7509781775235458,0.564617283669844,0.8844252127103964
1790097314026150656,11.78415087890626,-2.142923331484413,0.6739422825017408,0.7682722266439928
1790097314036150784,11.794150878906262,-2.0612689123434538,0.6590446444470124,0.7373208468345375
1790097314046150656,11.80415087890626,-1.0832389792396695,0.6546035051957361,0.676741137948864
1790097314056150784,11.814150878906261,-0.021459038618479837,0.6746959998801986,0.6094877997689263
1790097314066150656,11.82415087890626,0.09749758751814222,0.7138982043539086,0.4734930961489864
1790097314076150784,11.83415087890626,-0.4636099552361791,0.68043376414185,0.23921413665195296
1790097314086150656,11.844150878906259,-0.7627009489522069,0.5155005496428503,-0.003505950721480633
1790097314096150784,11.85415087890626,-0.6036201473687212,0.18310408866909986,-0.17603593088688096
1790097314106150656,11.864150878906262,-0.1005595237618897,-0.23817364641449626,-0.3585583996726349
1790097314116150784,11.87415087890626,0.541787432431639,-0.568783752041659,-0.5606466444018563
1790097314126150656,11.884150878906262,0.9716948914931156,-0.7746880356498439,-0.8262869360956787
1790097314136150784,11.89415087890626,0.8613221525837996,-0.9262036294976352,-1.0800355843217098
1790097314146150656,11.904150878906261,0.330543717086597,-1.0710076410790543,-1.2159649210669428
1790097314156150784,11.91415087890626,0.3682596473934914,-1.2445734324338018,-1.2009191580879086
1790097314166150656,11.92415087890626,0.6820310226655826,-1.408624181216089,-1.206311858709285
1790097314176150784,11.934150878906262,0.49971411298667323,-1.482564536087735,-1.2038872123757596
1790097314186150656,11.94415087890626,0.20686139729883316,-1.5002551429734772,-1.094581506813106
1790097314196150784,11.954150878906262,0.3681137256373734,-1.4403951570951214,-0.9539422811128909
1790097314206150656,11.96415087890626,0.5655923118852182,-1.3107780343687152,-0.6913814792593072
1790097314216150784,11.974150878906261,0.7777415633880351,-1.1333719971178127,-0.4828085097169954
1790097314226150656,11.98415087890626,1.3081055355537712,-0.9480880523156624,-0.3796737433825934
1790097314236150784,11.994150878906261,1.6908980578308863,-0.6543846636098167,-0.3682352534193306
1790097314246150656,12.004150878906259,1.3865614409737108,-0.4054034820188762,-0.4673686343262396
1790097314256150784,12.01415087890626,0.8692734953859034,-0.3072640792945336,-0.6730855425483293
1790097314266150656,12.024150878906262,0.7405527726670957,-0.36341951938574796,-0.8223387940944863
1790097314276150784,12.03415087890626,0.8442274053457435,-0.48881372875897444,-1.0347883152669923
1790097314286150656,12.044150878906262,0.905190290544626,-0.47431808335640663,-1.0214227952380293
1790097314296150784,12.05415087890626,0.7383275430404185,-0.33730623400469034,-1.1018452791095141
1790097314306150656,12.064150878906261,0.47606434873562914,-0.20169105726429148,-1.1336324736910357
1790097314316150784,12.07415087890626,0.2643078335403761,-0.11787086434630922,-0.7885718783169207
1790097314326150656,12.08415087890626,0.21479407429754008,-0.10690587236975647,-0.500940218263981
1790097314336150784,12.094150878906262,0.4342592259693794,-0.09320175640022176,-0.4161612757936934
1790097314346150656,12.10415087890626,0.8658221451405125,-0.15417139477257008,-0.2950321503157384
1790097314356150784,12.114150878906262,0.9957317548256366,-0.23340614424700523,-0.13627643277864895
1790097314366150656,12.12415087890626,0.8610876258675313,-0.34628504841884294,-0.13061763796645365
1790097314376150784,12.134150878906262,0.6792761372741183,-0.373773870213327,-0.18647903651279724
1790097314386150656,12.14415087890626,0.8145407937742111,-0.21676693109374118,-0.23978479623624255
1790097314396150784,12.154150878906261,1.0197344531508181,0.035180087621138854,-0.6770101536697293
1790097314406150656,12.16415087890626,1.1352856191328262,0.15755588343393684,-1.2218657035820195
1790097314416150784,12.17415087890626,1.2393680148765303,0.10890782979413441,-1.633897973270815
1790097314426150656,12.184150878906262,1.3450025984428355,-0.10335288930195541,-1.7396836319858244
1790097314436150784,12.19415087890626,1.460506933389396,-0.1637994598386931,-1.5450806264200487
1790097314446150656,12.204150878906262,1.413358230663814,-0.10545974370444271,-1.171797535825529
1790097314456150784,12.21415087890626,1.3048937943483512,-0.041016403224967024,-1.0289039136782263
1790097314466150656,12.224150878906261,1.2486108481886558,0.06099224475992034,-0.9427971152725543
1790097314476150784,12.23415087890626,0.9082699028806602,0.19865202553554304,-0.8590912590439643
1790097314486150656,12.244150878906261,0.6700411712003373,0.3907368790934634,-0.9210179752196651
1790097314496150784,12.254150878906263,0.36430272546547693,0.15220841782853986,-1.020592943830836
1790097314506150656,12.26415087890626,-0.04639363805857073,0.16003867078415915,-1.2117229547501511
1790097314516150784,12.274150878906262,-0.0720818597263976,0.07508362556899349,-1.5208000608398202
1790097314526150656,12.28415087890626,0.06266307613414629,-0.1370084484987484,-1.7145446571288783
1790097314536150784,12.294150878906262,0.115474910471147,-0.4050923850093641,-1.65184564277412
1790097314546150656,12.30415087890626,0.08225201582099087,-0.5790081324834397,-1.5084292003819306
1790097314556150784,12.314150878906261,0.20744221964391885,-0.6360332358470945,-1.3755907844022066
1790097314566150656,12.32415087890626,0.56181135879782,-0.6643433067121046,-1.2378519891511377
1790097314576150784,12.33415087890626,0.9441359346204609,-0.7117338075912776,-1.080919137448918
1790097314586150656,12.344150878906262,1.0361635609738638,-0.8460381162965367,-0.904022494089002
1790097314596150784,12.35415087890626,0.8056485386844022,-0.9980105777386133,-0.7597100040737444
1790097314606150656,12.364150878906262,0.5487979537159352,-1.023209459713314,-0.7272283148317223
1790097314616150784,12.37415087890626,0.3381350306702007,-0.8714316977275544,-0.6975428074160118
1790097314626150656,12.384150878906262,0.2397996032766101,-0.6272277091343548,-0.6289073019977155
1790097314636150784,12.39415087890626,0.21695632802151948,-0.3579436303837791,-0.6166342530871737
1790097314646150656,12.404150878906261,0.14737758985807997,-0.2666682263135781,-0.6596253997770376
1790097314656150784,12.414150878906263,0.25311364048201807,-0.3031247386086429,-0.8096477112710025
1790097314666150656,12.42415087890626,0.561202690317168,-0.3401310060894595,-1.0812399727853257
1790097314676150784,12.434150878906262,0.853875542047811,-0.4087122756860565,-1.218195518568289
1790097314686150656,12.44415087890626,0.8934677784461614,-0.5925730340010584,-1.3552392004613982
1790097314696150784,12.454150878906262,0.7353253828772411,-0.7613384922356905,-1.5806092124092206
1790097314706150656,12.46415087890626,0.5245322569448524,-0.8237654613488601,-1.6748983508460469
