time,seconds_elapsed,z,y,x
1790097302376150784,0.13415087890625,0.40468630194664,-0.9152782559394836,0.2864110171794891
1790097302386150656,0.14415087890625,0.6355865597724915,-0.8963419795036316,0.2607554197311401
1790097302396150784,0.15415087890625,0.6340933483251188,-0.9102288692767306,0.25590247524201226
1790097302406150656,0.16415087890625002,0.5932448266266005,-1.0247420151149307,0.21780269508384723
1790097302416150784,0.17415087890625003,0.40918366683152885,-1.0281817107023843,0.2000510540550623
1790097302426150656,0.18415087890625004,0.21060938025761688,-0.7495913973484856,0.18765750489280683
1790097302436150784,0.19415087890625005,0.08075543468842791,-0.5313619025809563,0.16935296544713424
1790097302446150656,0.20415087890625006,0.005502016187956548,-0.4700969738949887,0.13084919291738845
1790097302456150784,0.21415087890625006,0.02206094063220395,-0.27316977172388,0.14511230314470927
1790097302466150656,0.22415087890625007,0.0748287886381149,-0.0961320847272872,0.1819561272859573
1790097302476150784,0.23415087890625008,0.15246731156583665,-0.063658279508026,0.18344917527848367
1790097302486150656,0.2441508789062501,0.2174872944286824,0.0978427357640281,0.17906189761996605
1790097302496150784,0.2541508789062501,0.22599302448475517,0.3676976059870326,0.20467651941059428
1790097302506150656,0.2641508789062501,0.21079150644124683,0.6092542291910527,0.28724132774592814
1790097302516150784,0.2741508789062501,0.2109522944924893,0.5880453789198019,0.3435825643832879
1790097302526150656,0.2841508789062501,0.25085101998107767,0.2685275275768478,0.30850713309875755
1790097302536150784,0.29415087890625014,0.2944307379336951,-0.05158935656772387,0.23605765080761903
1790097302546150656,0.30415087890625014,0.295794751197204,-0.06475048032133843,0.232688592075884
1790097302556150784,0.31415087890625015,0.3020691592635693,-0.24607334849753018,0.18952908071547395
1790097302566150656,0.32415087890625016,0.2580829560756683,-0.4302655458450317,0.2027249336242675
1790097302576150784,0.33415087890625017,0.24817853477215912,-0.46920485365521425,0.22036294470883
1790097302586150656,0.3441508789062502,0.17768206469867642,-0.5510866833618803,0.359115879283439
1790097302596150784,0.3541508789062502,0.05823332352264331,-0.2947575212963238,0.5798301914127941
1790097302606150656,0.3641508789062502,0.0033596600405871,-0.0692548081278801,0.6290963292121887
1790097302616150784,0.3741508789062502,0.16379852269756232,0.14365439690490178,0.5139679067542983
1790097302626150656,0.3841508789062502,0.5116319066733794,0.2510799829582925,0.24534298868018906
1790097302636150784,0.3941508789062502,0.7656044512952436,-0.07750815335174713,-0.0074767390729492955
1790097302646150656,0.40415087890625023,0.8263273026710904,-0.5208665641774052,-0.05515570747849388
1790097302656150784,0.41415087890625024,0.818840742111206,-0.6819345951080322,-0.0318404138088226
1790097302666150656,0.42415087890625025,0.6792499822074384,-0.9229172793562845,0.28223874995828147
1790097302676150784,0.43415087890625026,0.638029932975769,-0.9940775632858276,0.3749838471412658
1790097302686150656,0.44415087890625027,0.6571487688449401,-0.9203336572097982,0.4405339740307276
1790097302696150784,0.4541508789062503,0.6033857932396725,-1.0143234517311164,0.45295416941306405
1790097302706150656,0.4641508789062503,0.3442124426364898,-1.085704684257507,0.2326564490795135
1790097302716150784,0.4741508789062503,0.34241204082924076,-1.0806351308269688,0.21550525191962436
1790097302726150656,0.4841508789062503,0.32515089847693773,-1.012635666639048,-0.011595310691524974
1790097302736150784,0.4941508789062503,0.39681154870443,-0.8489592552445805,-0.21026290034431644
1790097302746150656,0.5041508789062503,0.6406809020816411,-0.2585481644600752,-0.4667341501051158
1790097302756150784,0.5141508789062503,0.8929105969754696,0.25927613665095856,-0.5974888081643397
1790097302766150656,0.5241508789062503,1.1344187505930674,0.7815437655705897,-0.6876767439062901
1790097302776150784,0.5341508789062503,1.2688171389955165,1.2488605391453749,-0.799568550076294
1790097302786150656,0.5441508789062504,1.2983558177947998,1.4573287963867188,-0.8796964287757874
1790097302796150784,0.5541508789062504,1.2558010109428057,1.5106088802519966,-0.9641141490193186
1790097302806150656,0.5641508789062504,1.180291519239525,1.6035287422743651,-1.0249100702111145
1790097302816150784,0.5741508789062504,1.2780463689072095,2.3339543261374116,-0.9027599144209769
1790097302826150656,0.5841508789062504,1.3337849378585815,2.65031361579895,-0.8485432267189026
1790097302836150784,0.5941508789062504,1.5531940001817193,2.9568918502620294,-0.8668685470191673
1790097302846150656,0.6041508789062504,2.045979406369087,2.6662624825295147,-1.102291405645665
1790097302856150784,0.6141508789062504,2.1108591556549072,2.6130518913269043,-1.1362522840499878
1790097302866150656,0.6241508789062504,2.1193604808503204,2.4952475427500325,-1.3985796349696384
1790097302876150784,0.6341508789062504,1.671455102230457,2.9581426306495335,-1.5131240480011285
1790097302886150656,0.6441508789062504,1.3893338307016088,2.4876617111475823,-1.7813537785625386
1790097302896150784,0.6541508789062505,1.5617126764445237,1.537957617973531,-2.0258514747725456
1790097302906150656,0.6641508789062505,1.910424828529358,1.1641221046447754,-2.1680495738983154
1790097302916150784,0.6741508789062505,2.0537585628202484,1.196518040256788,-2.2171010329023586
1790097302926150656,0.6841508789062505,2.3696239809317667,1.8473622003224304,-2.588908044984728
1790097302936150784,0.6941508789062505,2.2910746577662904,3.2556614593103452,-3.24868697516322
1790097302946150656,0.7041508789062505,2.229974269866944,3.789009094238281,-3.528406381607056
1790097302956150784,0.7141508789062505,2.0039518477354323,4.454323367265701,-3.913571036885425
1790097302966150656,0.7241508789062505,1.5967991508932988,4.969785499219455,-4.275930935136862
1790097302976150784,0.7341508789062505,1.4547327756881714,4.942288875579834,-4.30173921585083
1790097302986150656,0.7441508789062505,1.2254754157209709,4.300279549715797,-4.303960633002429
1790097302996150784,0.7541508789062505,0.9661511975197328,2.8184113553087,-4.52013919343666
1790097303006150656,0.7641508789062506,0.8334842688901192,1.634300967948441,-5.012282587611606
1790097303016150784,0.7741508789062506,0.7325621827788648,1.2443931905973789,-5.79400925171701
1790097303026150656,0.7841508789062506,0.3478177615869794,1.2500173057906292,-6.355828176217492
1790097303036150784,0.7941508789062506,-0.336915975216686,0.9180918862925022,-6.2521941998690735
1790097303046150656,0.8041508789062506,-1.154674476747847,0.6577463961232346,-4.845115999653988
1790097303056150784,0.8141508789062506,-1.4441150817888055,0.15628382655737608,-3.640014194008001
1790097303066150656,0.8241508789062506,-1.6521127223968506,-0.0093917762860655,-2.933441162109375
1790097303076150784,0.8341508789062506,-1.650080264477818,0.07258389466474499,-2.827922914624852
1790097303086150656,0.8441508789062506,-1.654497539245733,0.4010035103436037,-2.5206379707556046
1790097303096150784,0.8541508789062506,-1.673492431640625,0.6253548860549927,-2.4575912952423096
1790097303106150656,0.8641508789062506,-1.745800675780578,0.5341958786210675,-2.5208961840127113
1790097303116150784,0.8741508789062507,-2.002884315368475,0.4962745628378084,-2.88407171680191
1790097303126150656,0.8841508789062507,-2.0726586963372995,0.5529752536152418,-3.4267558571971555
1790097303136150784,0.8941508789062507,-2.0810439601462667,0.560581276382316,-3.902040331013264
1790097303146150656,0.9041508789062507,-1.9195233710250108,2.7029260159479795,-3.3853104234352536
1790097303156150784,0.9141508789062507,-1.4343196293877511,5.045416512479201,-1.8597720089589063
1790097303166150656,0.9241508789062507,-1.276500040973849,6.194748997734676,-1.2066880973897613
1790097303176150784,0.9341508789062507,-1.595773062663775,6.478626711492535,-1.5989861880796672
1790097303186150656,0.9441508789062507,-1.6026249646331379,5.679698230095969,-1.9518955910702023
1790097303196150784,0.9541508789062507,-1.5975699097482234,5.627088169690674,-1.9682957111858093
1790097303206150656,0.9641508789062507,-1.2751245616349987,4.710789012666753,-2.0265991002802255
1790097303216150784,0.9741508789062507,-1.0179732851798824,3.78270592184417,-2.0381773722263454
1790097303226150656,0.9841508789062507,-0.9171314123909072,2.5195230692613024,-1.9812201941551593
1790097303236150784,0.9941508789062508,-1.0346439816489181,1.9730473406119868,-1.9623622677214496
1790097303246150656,1.0041508789062508,-1.148425783710418,1.6962954178952283,-1.9760739610484255
1790097303256150784,1.0141508789062508,-1.1622133255004885,1.5947694778442385,-1.9505879878997805
1790097303266150656,1.0241508789062508,-1.1110828434622297,1.4180883940288305,-2.050707324453805
1790097303276150784,1.0341508789062508,-1.0983099206915046,1.1217606872669794,-2.4386170302700068
1790097303286150656,1.0441508789062508,-1.0461164406490195,1.1992793190569373,-2.4013733309058036
1790097303296150784,1.0541508789062508,-0.9500194026588099,1.0670699156913657,-1.8221129591682361
1790097303306150656,1.0641508789062508,-0.6797758573939215,-0.4220533575234722,-1.777453278981404
1790097303316150784,1.0741508789062508,-0.17275423116737443,-0.7783957923889087,-1.3039851115930818
1790097303326150656,1.0841508789062508,0.17532789833997187,-0.23156258080989595,-0.6948926666450087
1790097303336150784,1.0941508789062508,0.2275405973196029,-0.1211768239736557,-0.5932090282440186
1790097303346150656,1.1041508789062509,0.42743963021844095,1.0256235222145462,-0.4386129157603916
1790097303356150784,1.1141508789062509,0.5970915980147528,1.9428183519236584,-0.4554212770327167
1790097303366150656,1.1241508789062509,0.6960474554785142,1.9399372566351676,-0.4879812198156637
1790097303376150784,1.1341508789062509,0.8850663957197689,1.3344559218436771,-0.22079843011786793
1790097303386150656,1.144150878906251,0.996493744291502,0.6110189239109278,0.1585752105069556
1790097303396150784,1.154150878906251,1.0491302013397217,0.0694075226783752,0.429349273443222
1790097303406150656,1.164150878906251,1.0810612981879926,-0.08253429637565905,0.5002076103687148
1790097303416150784,1.174150878906251,1.2451985851445786,-0.5786614031320259,0.7426115626581916
1790097303426150656,1.184150878906251,1.579321666274308,-0.8752588250805066,0.9332114907720861
1790097303436150784,1.194150878906251,2.2384047791425234,-0.8324631809088636,0.9955003140263051
1790097303446150656,1.204150878906251,2.8752236309325094,-0.5918862113467349,0.9873058328013761
1790097303456150784,1.214150878906251,3.033238410949707,-0.5035672187805176,1.0005677938461304
1790097303466150656,1.224150878906251,3.1122908150246276,-0.5076004942614374,1.0344473393703015
1790097303476150784,1.234150878906251,3.1340164029812225,-0.7185452821983771,1.1232647735718537
1790097303486150656,1.244150878906251,3.0707739940415553,-1.3092256602912777,1.2516907143353933
1790097303496150784,1.254150878906251,2.8527106208222395,-2.2508228864884794,1.3812418689826986
1790097303506150656,1.264150878906251,3.0212968347863556,-2.9312852294660283,1.5161142168431336
1790097303516150784,1.274150878906251,2.8595348792521733,-3.418608423619825,1.485862764619559
1790097303526150656,1.284150878906251,2.937089989307044,-3.6663980348187954,1.9789962116225261
1790097303536150784,1.294150878906251,2.673283169543899,-3.7901436642756807,2.2503615158974943
1790097303546150656,1.304150878906251,2.582244115247519,-3.86742315542248,2.5372534454592572
1790097303556150784,1.314150878906251,2.7589681148529053,-3.071645498275757,2.187443971633911
1790097303566150656,1.324150878906251,2.610638369470275,-2.7247486478604426,2.0382855941135616
1790097303576150784,1.334150878906251,1.9216603463710924,-1.6846335254168023,1.4439654563734021
1790097303586150656,1.344150878906251,1.3909423779245695,-1.6062880065440157,1.044837672829866
1790097303596150784,1.354150878906251,1.5274301174468385,-2.4826592211959597,1.1009218987429041
1790097303606150656,1.364150878906251,1.6321427030225708,-4.0641475728608585,1.251770586440134
1790097303616150784,1.374150878906251,1.6685292720794678,-4.804008483886719,1.3127107620239258
1790097303626150656,1.384150878906251,1.4885008722708595,-4.894022645768009,1.3099830670620103
1790097303636150784,1.3941508789062511,0.9584673657950507,-4.387883584933663,1.3349086424714045
1790097303646150656,1.4041508789062511,-0.2904830192151242,-2.9031302876176905,1.7813703518668955
1790097303656150784,1.4141508789062511,-0.923471918288576,-1.9413527802497916,2.231193860177394
1790097303666150656,1.4241508789062511,-1.515222456733426,-0.9158233519794543,2.303540673875283
1790097303676150784,1.4341508789062511,-1.9094032696691496,0.4308569118390131,2.0695673217767228
1790097303686150656,1.4441508789062512,-1.9299564501222948,0.5077358228377227,2.0551271270628964
1790097303696150784,1.4541508789062512,-2.170754055152786,1.2565701035761099,1.963573129843332
1790097303706150656,1.4641508789062512,-1.9470226404576412,1.4330294983987137,1.7660068186830338
1790097303716150784,1.4741508789062512,-1.0283562660074634,0.793439337246492,1.2939756793934323
1790097303726150656,1.4841508789062512,-0.5326608016853717,0.29838714016877177,1.1078485721677132
1790097303736150784,1.4941508789062512,-0.2495311051607132,0.0785702317953109,1.0537115335464478
1790097303746150656,1.5041508789062512,-0.1726751046395001,0.04819057254631713,1.048950556606017
1790097303756150784,1.5141508789062512,-0.030308308863332002,0.07407873439203469,1.0503889771002701
1790097303766150656,1.5241508789062512,0.03386217915980289,0.44635101353769746,1.072216264392843
1790097303776150784,1.5341508789062512,0.1389240268665774,0.8801045076334373,1.0638605060208242
1790097303786150656,1.5441508789062512,0.23845556883512084,1.072229847374523,1.0234916277527353
1790097303796150784,1.5541508789062513,0.2727433145046234,1.114032745361328,1.0072871446609497
1790097303806150656,1.5641508789062513,0.23038179505729445,1.0293097064666703,1.051901954195828
1790097303816150784,1.5741508789062513,0.22703529673851564,0.7327537790149994,1.270274646597046
1790097303826150656,1.5841508789062513,0.21212373946137184,0.3520001953490466,1.4294747336344182
1790097303836150784,1.5941508789062513,0.2289067130234969,-0.41360239445337676,1.336262049511174
1790097303846150656,1.6041508789062513,0.3691819199420906,-0.48325661110824364,1.3225606960977423
1790097303856150784,1.6141508789062513,0.6507070817824563,-0.28640051022029395,1.3826835702832876
1790097303866150656,1.6241508789062513,0.377198189496994,-0.5090648531913757,1.1874871253967283
1790097303876150784,1.6341508789062513,0.29704806855745414,-0.5904278404981835,1.1662619836941526
1790097303886150656,1.6441508789062513,-0.12491919636134569,-1.069859701393072,1.1082035494494613
1790097303896150784,1.6541508789062513,-0.15516689694070265,-1.4750116413341254,1.3754383655640219
1790097303906150656,1.6641508789062514,-0.09097850035910605,-1.907461959873114,1.6228080906464541
1790097303916150784,1.6741508789062514,-0.1108687743544578,-1.9317281246185305,1.6224102973937988
1790097303926150656,1.6841508789062514,0.003920374440372673,-1.4348838334316643,1.5389795784739881
1790097303936150784,1.6941508789062514,0.1328592747449875,-0.8767948746681213,1.4452645778656006
1790097303946150656,1.7041508789062514,0.1643831509494481,-0.38545720897261915,1.3822168608130638
1790097303956150784,1.7141508789062514,0.05731344413134545,0.30566004084606174,0.9268808949827148
1790097303966150656,1.7241508789062514,-0.021614372646826467,0.6221476599417234,0.6313345385617978
1790097303976150784,1.7341508789062514,-0.032601378961160804,0.8140082442465189,0.6999920398990733
1790097303986150656,1.7441508789062514,0.024836126015293614,1.035027731203657,0.8126355577247864
1790097303996150784,1.7541508789062514,0.052814123263569906,1.2248576019827264,0.7817094130023824
1790097304006150656,1.7641508789062514,0.03766849392847729,1.292145021393938,0.683680163030829
1790097304016150784,1.7741508789062514,0.03846317615030821,1.2942709196713587,0.6782258655619574
1790097304026150656,1.7841508789062515,0.11269350290379399,1.2922075387573095,0.5979490820271054
1790097304036150784,1.7941508789062515,0.14558586902248324,1.2173855195764447,0.5133680478855839
1790097304046150656,1.8041508789062515,0.06250224696340893,0.8407739017624938,0.41716928090952066
1790097304056150784,1.8141508789062515,-0.07944126247013554,0.13699943529106826,0.2543228951773659
1790097304066150656,1.8241508789062515,-0.08861910719203159,0.39211480200537063,0.2581524089280759
1790097304076150784,1.8341508789062515,-0.0742179453372955,0.7731798887252808,0.3132883012294769
1790097304086150656,1.8441508789062515,-0.0865495370658101,0.9359569409879867,0.39960946004130216
1790097304096150784,1.8541508789062515,-0.19075667618806927,0.9772266245997117,0.5963126189650125
1790097304106150656,1.8641508789062515,-0.4999546037589766,0.3917380224975739,0.6527780506585029
1790097304116150784,1.8741508789062515,-0.7884682285866594,0.15629007497452047,0.5231725975536118
1790097304126150656,1.8841508789062515,-0.938630659365122,0.2886891553635047,0.3332691335511967
1790097304136150784,1.8941508789062516,-0.9740723371505736,0.3241308331489563,0.276637464761734
1790097304146150656,1.9041508789062516,-0.9865216170482776,0.32960853671204393,0.09288543178763889
1790097304156150784,1.9141508789062516,-0.9813142055508048,0.35868505562709885,-0.1618092264534647
1790097304166150656,1.9241508789062516,-0.9595666292238619,0.03736893618445536,-0.31785767535955994
1790097304176150784,1.9341508789062516,-0.9581902623176576,0.0156529601663351,-0.3262687921524048
1790097304186150656,1.9441508789062516,-0.9829845659807203,-0.10686736831151883,-0.46369883637429427
1790097304196150784,1.9541508789062516,-1.0488227304098596,0.053236295025463946,-0.6917836170166493
1790097304206150656,1.9641508789062516,-1.29427304405809,0.21428986943857067,-0.9000777725907758
1790097304216150784,1.9741508789062516,-1.690596103668213,0.2477749139070511,-0.9890380501747132
1790097304226150656,1.9841508789062516,-1.7763956285475906,0.1346755371135515,-1.030080701065152
1790097304236150784,1.9941508789062516,-1.9560801194914221,-0.28102298251688645,-1.1084230798862216
1790097304246150656,2.004150878906252,-1.9269940853118896,-0.5536566972732544,-1.0812760591506958
1790097304256150784,2.0141508789062517,-1.8108936852640776,-0.7584696598941414,-1.0279889208816742
1790097304266150656,2.0241508789062514,-1.455934252617955,-0.961189332678287,-1.0429556794454953
1790097304276150784,2.0341508789062517,-1.162580785021004,-0.8799661373243237,-1.2138753525998225
1790097304286150656,2.044150878906252,-1.0708360072568917,-0.8702862055983469,-1.2777167707554242
1790097304296150784,2.0541508789062517,-1.057758331298828,-0.8877901434898376,-1.2736928462982178
1790097304306150656,2.0641508789062515,-0.9860818486659222,-1.2427826028177618,-1.2475406531873483
1790097304316150784,2.0741508789062517,-0.8479002227017329,-1.5843576874987564,-1.2751345548730875
1790097304326150656,2.084150878906252,-0.6922010746537002,-0.9315712683644047,-1.1015974080042406
1790097304336150784,2.0941508789062517,-0.4076688347954075,-2.5104245555495934,-1.2769409858941785
1790097304346150656,2.1041508789062515,-0.43586144910472163,-2.6404911987966457,-1.4661708756316731
1790097304356150784,2.1141508789062518,-0.5470137000083923,-2.264029026031494,-1.546741604804993
1790097304366150656,2.124150878906252,-0.5397086535607843,-2.2234129286260274,-1.5324237050239373
1790097304376150784,2.1341508789062518,-0.5006612718147003,-1.9641708111423553,-1.4256894750232407
1790097304386150656,2.1441508789062516,-0.5185648533183052,-1.7470328064602134,-1.2875293362054636
1790097304396150784,2.154150878906252,-0.4168420618565211,-1.7930776591956983,-1.1986688929489462
1790097304406150656,2.164150878906252,-0.17622987846757165,-1.9424512715095184,-1.1829822349541037
1790097304416150784,2.174150878906252,-0.251974493265152,-1.6165308952331543,-1.2113864421844482
1790097304426150656,2.1841508789062516,-0.30338933950809144,-1.118449547758062,-1.2611946082876262
1790097304436150784,2.194150878906252,-0.264347622188531,-0.45595293913558754,-1.3039158268520352
1790097304446150656,2.204150878906252,-0.2756058488173217,-0.3159483284843686,-1.1630157276444837
1790097304456150784,2.214150878906252,-0.3142809271812439,-0.3215347230434418,-1.0873844623565674
1790097304466150656,2.2241508789062516,-0.3674619564279345,-0.277766252340226,-0.9692566827225746
1790097304476150784,2.234150878906252,-0.356385029783478,-0.13011774896208994,-0.7908184153900988
1790097304486150656,2.244150878906252,-0.28876916642990474,0.12998559961557915,-0.6701948625498076
1790097304496150784,2.254150878906252,-0.1764269833228461,0.6427772166065105,-0.7407447009588662
1790097304506150656,2.2641508789062517,-0.08957163006785292,0.7898565416774653,-0.921353443543362
1790097304516150784,2.274150878906252,0.0265718549489974,0.8831323981285095,-1.1319763660430908
1790097304526150656,2.284150878906252,0.03687042510617532,0.8919238671083449,-1.152657234030425
1790097304536150784,2.294150878906252,0.10594311548846035,0.9643406683844628,-1.2891506697643011
1790097304546150656,2.3041508789062517,0.13496458294992994,1.022947478863205,-1.2973557242574512
1790097304556150784,2.314150878906252,0.16126703362936357,0.8940615398538186,-1.2030266922814878
1790097304566150656,2.324150878906252,0.09987074520406827,0.6336643311777014,-1.1033480655640195
1790097304576150784,2.334150878906252,-0.060209946297304,0.5504311206646457,-1.0778931426784455
1790097304586150656,2.3441508789062517,-0.1695101112127304,0.5483881235122681,-1.054398775100708
1790097304596150784,2.354150878906252,-0.278872942233392,0.6170417641698671,-1.0326642035844964
1790097304606150656,2.364150878906252,-0.7355699214558123,0.6760637454835644,-0.892428069576384
1790097304616150784,2.374150878906252,-0.9581902623176576,0.6797202825546265,-0.8186116814613342
1790097304626150656,2.3841508789062518,-1.1990063693908661,0.41234359412438465,-0.6842664602083395
1790097304636150784,2.394150878906252,-1.470899975008659,-0.013319800869016796,-0.47936922239050916
1790097304646150656,2.4041508789062522,-1.719501731602752,-0.6017524903606678,-0.3045627000661878
1790097304656150784,2.414150878906252,-2.2055602952994127,-1.7125402821773408,-0.14245705324129415
1790097304666150656,2.424150878906252,-2.219131079320922,-2.076148769950181,-0.0641202176806327
1790097304676150784,2.434150878906252,-1.8360199674150746,-2.045115823538864,0.03422958293153834
1790097304686150656,2.4441508789062523,-1.2324607372283936,-1.717320680618286,0.1654632538557052
1790097304696150784,2.454150878906252,-1.0846879104615803,-1.6141253461318077,0.1943493584766468
1790097304706150656,2.464150878906252,-0.1389284466164623,-0.8478482482570147,0.3540902412170756
1790097304716150784,2.474150878906252,0.6759024858474731,0.0620773509144783,0.4324035048484802
1790097304726150656,2.4841508789062523,0.7219650429850881,0.14498993824495815,0.4067400871899612
1790097304736150784,2.494150878906252,0.8334414826792622,0.3443448674505811,0.3352668002795457
1790097304746150656,2.504150878906252,0.863821069674873,0.5248848704944834,0.32748551400074793
1790097304756150784,2.514150878906252,0.7665757379808329,0.8342365324806822,0.4745537645366041
1790097304766150656,2.5241508789062523,0.7186842560953529,0.9206953694689082,0.5996823339155914
1790097304776150784,2.534150878906252,0.7351546883583069,0.871526300907135,0.616879403591156
1790097304786150656,2.544150878906252,0.8233682847361092,0.5661033736752873,0.5747673452258596
1790097304796150784,2.554150878906252,0.8567132949829102,0.4506525695323944,0.5588488578796387
1790097304806150656,2.5641508789062524,0.8888247582395089,0.14760033498007674,0.49617966538443137
1790097304816150784,2.574150878906252,0.8918095434417045,0.1332089380651698,0.5021492802402884
1790097304826150656,2.584150878906252,0.8553847601534578,0.2776507142927485,0.5080206124012137
1790097304836150784,2.594150878906252,0.8517739361411524,0.28491888735161286,0.5073864362032313
1790097304846150656,2.6041508789062524,0.7432389289601573,0.3777642801313713,0.4850678317193655
1790097304856150784,2.614150878906252,0.39508936698712793,0.3937500730318253,0.5113986477871342
1790097304866150656,2.624150878906252,0.09379643839891653,0.3726476123766923,0.6055548565412214
1790097304876150784,2.634150878906252,-0.1365243643522262,0.2972535490989685,0.6871268153190613
1790097304886150656,2.6441508789062524,-0.1077308959431303,0.17467564112301864,0.7369240978815602
1790097304896150784,2.6541508789062522,-0.030838308488517492,-0.05855005995595922,0.8637000028796701
1790097304906150656,2.664150878906252,0.02772477683995105,0.006093558934781668,0.952236783908759
1790097304916150784,2.6741508789062522,0.08841331655219252,0.12284300435453764,1.0654870597894173
1790097304926150656,2.6841508789062525,0.1139230132102966,0.1738623976707458,1.1209046840667725
1790097304936150784,2.6941508789062523,0.13236079091764094,0.1511094053705133,1.1424808240190765
1790097304946150656,2.704150878906252,0.13361098030641155,0.06067344291146598,1.1381760542580814
1790097304956150784,2.7141508789062523,0.11673111998269674,-0.10006776496644343,1.1084097372572013
1790097304966150656,2.7241508789062525,0.10564178788122214,-0.20354230361021936,1.0584961670130058
1790097304976150784,2.7341508789062523,0.12472960489784564,-0.1450493304710007,1.0120663953807567
1790097304986150656,2.744150878906252,0.16672672659297078,-0.012531859187720124,1.0298641521901968
1790097304996150784,2.7541508789062523,0.16326753445866232,0.167287218449213,1.2244068610786079
1790097305006150656,2.7641508789062526,0.1481304615736007,0.1146102175116539,1.323706030845642
1790097305016150784,2.7741508789062523,0.14997099437741332,0.1076482010411739,1.3331487550246983
1790097305026150656,2.784150878906252,0.1928048323116266,0.04457001522468909,1.3989540361461326
1790097305036150784,2.7941508789062524,0.3287251731240233,-0.03067116519888173,1.4016077420411293
1790097305046150656,2.8041508789062526,0.35873332756554216,-0.04817196037503489,1.3639869137114873
1790097305056150784,2.8141508789062524,0.3981404489686251,-0.05443645359093967,1.3606729144803311
1790097305066150656,2.824150878906252,0.4309527277946472,-0.046042613685131,1.3774605989456177
1790097305076150784,2.8341508789062524,0.47958505496135917,-0.0876840351093783,1.4306521539546089
1790097305086150656,2.8441508789062526,0.562474463486985,-0.1952533689787137,1.5249704492360714
1790097305096150784,2.8541508789062524,0.6016558235136119,-0.32803066620066734,1.5854442601907888
1790097305106150656,2.864150878906252,0.6093201637268066,-0.3777326643466949,1.6028631925582886
1790097305116150784,2.8741508789062524,0.608413648319375,-0.4896853269613834,1.6055826945538474
1790097305126150656,2.8841508789062527,0.640475889534413,-0.7851785917377718,1.5800377042001565
1790097305136150784,2.8941508789062524,0.6484143733978271,-0.8480850458145142,1.573542594909668
1790097305146150656,2.9041508789062522,0.6823269835463992,-0.9532141427902385,1.5724120991976478
1790097305156150784,2.9141508789062525,0.6693992009064287,-1.1231831941116208,1.5940122701927786
1790097305166150656,2.9241508789062527,0.5604523420333862,-1.37585711479187,1.5625473260879517
1790097305176150784,2.9341508789062525,0.565361151237721,-1.34912402270013,1.558500873857829
1790097305186150656,2.9441508789062523,0.6056550741195679,-1.129685640335083,1.5252856016159058
1790097305196150784,2.9541508789062525,0.5864820472641488,-1.142514640330962,1.5351540695002241
1790097305206150656,2.9641508789062527,0.5225798487663269,-1.1852726936340332,1.568044900894165
1790097305216150784,2.9741508789062525,0.4384876272463511,-1.2281813094063003,1.524489441867112
1790097305226150656,2.9841508789062523,0.2620905838067599,-1.235754910035647,1.4206243385715929
1790097305236150784,2.9941508789062525,0.2305948436260223,-1.135183334350586,1.3866232633590698
1790097305246150656,3.0041508789062528,0.27383716232043714,-0.8236419874967453,1.298500677636371
1790097305256150784,3.0141508789062526,0.27874995380118267,-0.4995314829195244,1.1759621706980123
1790097305266150656,3.0241508789062523,0.2568612694740295,-0.4626404345035553,1.1447277069091797
1790097305276150784,3.0341508789062526,0.19883918343323187,-0.4582448289107526,1.0735188362582768
1790097305286150656,3.044150878906253,0.13760221858130314,-0.3606792460138682,0.9761461172812183
1790097305296150784,3.0541508789062526,0.16634365258165765,-0.19183445442342673,0.884085622795926
1790097305306150656,3.0641508789062524,0.20081055583412527,-0.05375065525366744,0.8015172455950582
1790097305316150784,3.0741508789062526,0.2037175595760345,-0.0417666807770729,0.7941014170646667
1790097305326150656,3.084150878906253,0.2323453270204707,0.06049220106934455,0.761423081768676
1790097305336150784,3.0941508789062526,0.324054479598999,0.2361688166856765,0.6339830756187439
1790097305346150656,3.1041508789062524,0.3074112992096175,0.21070925210900285,0.6248967994099576
1790097305356150784,3.1141508789062526,0.1975546162375051,0.034658014368566484,0.5519205519891572
1790097305366150656,3.124150878906253,0.1563397087660639,-0.07545854026911887,0.4312570283679089
1790097305376150784,3.1341508789062527,0.19668525223725167,-0.07196070319510489,0.2571559291724085
1790097305386150656,3.1441508789062524,0.2383376053030025,-0.04018325174122464,0.07406399214418798
1790097305396150784,3.1541508789062527,0.26230120851349326,0.029536954700098927,-0.10015646869085901
1790097305406150656,3.164150878906253,0.2475879759442506,0.15917809362473473,-0.24832762896204824
1790097305416150784,3.1741508789062527,0.2084524291367015,0.32658452671247457,-0.3746610665307472
1790097305426150656,3.1841508789062525,0.15647571273442895,0.49320049058412796,-0.49638343968514026
1790097305436150784,3.1941508789062527,0.09454791410632027,0.6290630864274659,-0.6282769726063087
1790097305446150656,3.204150878906253,0.03482645819551837,0.7027463094260992,-0.761149410321143
1790097305456150784,3.2141508789062527,0.004167408036964502,0.7006347707535081,-0.901234604731379
1790097305466150656,3.2241508789062525,0.1519741468778365,0.8743816741958459,-1.1218187571443337
1790097305476150784,3.2341508789062527,0.07363637278603108,0.7500116499494325,-1.2209397143568774
1790097305486150656,3.244150878906253,0.0950030506351665,0.8177620130161877,-1.3935476701084724
1790097305496150784,3.2541508789062528,0.1010952219367027,0.8141067028045654,-1.441675901412964
1790097305506150656,3.2641508789062526,0.09995109981697195,0.8096064867767799,-1.4496847469477456
1790097305516150784,3.274150878906253,0.07443777254668088,0.7511429710728327,-1.5352377634204317
1790097305526150656,3.284150878906253,-0.01964419318605138,0.6179024898031676,-1.6813795703951468
1790097305536150784,3.294150878906253,-0.09069025826880148,0.564024818974731,-1.7525304689305237
1790097305546150656,3.3041508789062526,-0.1304158866405487,0.5483881235122681,-1.793523907661438
1790097305556150784,3.314150878906253,-0.1624882357298218,0.5733624892366905,-1.8561241219472935
1790097305566150656,3.324150878906253,-0.2253529715106437,0.6706617670623907,-2.0020242200868617
1790097305576150784,3.334150878906253,-0.246476873755455,0.7371399402618408,-2.067259788513184
1790097305586150656,3.3441508789062526,-0.2918342397461388,0.7753750663116229,-2.1156159601280695
1790097305596150784,3.354150878906253,-0.40406069118284654,0.8282985144264196,-2.084645245193906
1790097305606150656,3.364150878906253,-0.4443913698196411,0.8422056436538696,-2.0550429821014404
1790097305616150784,3.374150878906253,-0.5149798226921283,0.8383111338758447,-1.9518377604518027
1790097305626150656,3.3841508789062527,-0.5329642295837402,0.8373188972473145,-1.9255433082580569
1790097305636150784,3.394150878906253,-0.594233557242996,0.513918032858877,-1.8159883936898504
1790097305646150656,3.404150878906253,-0.6229757111954802,0.28480174096157673,-1.7524606906201103
1790097305656150784,3.414150878906253,-0.6234965008845132,0.2754316303481677,-1.7497590444967452
1790097305666150656,3.4241508789062527,-0.6146463007545213,0.15475080812770603,-1.7007656135241793
1790097305676150784,3.434150878906253,-0.5268557667732239,0.1799708753824234,-1.59988534450531
1790097305686150656,3.444150878906253,-0.49117653634924396,0.17557958419656075,-1.5823201931521367
1790097305696150784,3.454150878906253,-0.3680354654788971,0.1604237556457519,-1.521696925163269
1790097305706150656,3.4641508789062527,-0.2934569708249967,0.12673631066147667,-1.5269936952904253
1790097305716150784,3.474150878906253,-0.11912729779028966,0.03613725516671568,-1.5322334882011743
1790097305726150656,3.484150878906253,-0.029543585431394848,-0.033367237373420594,-1.5044464920476237
1790097305736150784,3.494150878906253,0.0161874517798423,-0.0674222633242607,-1.4807701110839844
1790097305746150656,3.5041508789062528,0.06133202472346247,-0.0638106987221913,-1.3717008028355497
1790097305756150784,3.514150878906253,0.0925433561205864,-0.0613137930631637,-1.2962942123413086
1790097305766150656,3.5241508789062532,0.08992855992882393,-0.04126701428639933,-1.2357180766457219
1790097305776150784,3.534150878906253,0.09408265363367041,-0.03132231803738944,-1.1782676750586756
1790097305786150656,3.544150878906253,0.16603865941858614,0.025377240950803168,-1.1630122499153153
1790097305796150784,3.554150878906253,0.18701552850492026,0.049020481731016634,-1.1953218122618396
1790097305806150656,3.5641508789062533,0.1878355294466018,0.0504712536931037,-1.1991695165634155
1790097305816150784,3.574150878906253,0.15469940469223775,0.04286834213097973,-1.2049335809230552
1790097305826150656,3.584150878906253,0.1469087600708007,-0.0662005692720413,-1.0605071783065796
1790097305836150784,3.594150878906253,0.15259879828890446,-0.06318312538380946,-1.047144212440728
1790097305846150656,3.6041508789062533,0.19673725175583381,-0.03814976532413509,-0.9438357697015323
1790097305856150784,3.614150878906253,0.24600221786484788,-0.011352605349254561,-0.8332887589807679
1790097305866150656,3.624150878906253,0.29490371280649286,-0.0371521976847971,-0.7496468638904824
1790097305876150784,3.634150878906253,0.35235164963408383,-0.1443217162562793,-0.7033236849240289
1790097305886150656,3.6441508789062533,0.4007313768338217,-0.2697642730370522,-0.6844208491237018
1790097305896150784,3.654150878906253,0.3902878604713745,-0.3531123460918915,-0.6721581344307717
1790097305906150656,3.664150878906253,0.3680354654788971,-0.3801760673522949,-0.6622347831726074
1790097305916150784,3.674150878906253,0.36072441498706803,-0.3813304457218924,-0.6287578480011452
1790097305926150656,3.6841508789062534,0.3154856149999935,-0.2650867332133041,-0.4697978525208176
1790097305936150784,3.694150878906253,0.2971771955490112,-0.212803915143013,-0.4075114727020263
1790097305946150656,3.704150878906253,0.22465146764268967,-0.07868099819587415,-0.3126319247996032
1790097305956150784,3.714150878906253,0.12948345544244216,0.03330529396142646,-0.1984434879431719
1790097305966150656,3.7241508789062534,0.0593465332490619,-0.07844501591983713,-0.05374507008692586
1790097305976150784,3.734150878906253,0.02788968559976412,-0.15149273201703728,0.011941910376341139
1790097305986150656,3.744150878906253,0.02821586809031225,-0.14049258190142067,0.021431568782610353
1790097305996150784,3.754150878906253,0.038023983713921794,0.06619820773645116,0.1831201530372153
1790097306006150656,3.7641508789062534,0.0595576092600822,0.2373905181884765,0.255257785320282
1790097306016150784,3.7741508789062532,0.06161775617185215,0.2657911247724008,0.27173896779383583
1790097306026150656,3.784150878906253,0.04966157081305138,0.3490117547391672,0.35614098705234004
1790097306036150784,3.7941508789062532,-0.01959036082829307,0.3094526827335109,0.4429368164189132
1790097306046150656,3.8041508789062535,-0.0662769302725792,0.2654894888401031,0.463556706905365
1790097306056150784,3.8141508789062533,-0.13208559943317308,0.20175586531432044,0.47037472897033833
1790097306066150656,3.824150878906253,-0.21156398940812993,0.1318210250138295,0.4816112894165253
1790097306076150784,3.8341508789062533,-0.21588880263902196,0.15251717717498967,0.5060878238136555
1790097306086150656,3.8441508789062535,-0.2134911119937896,0.1671430766582489,0.5197546482086182
1790097306096150784,3.8541508789062533,-0.16758181901289276,0.2576245181704918,0.6846715368855868
1790097306106150656,3.864150878906253,-0.12738757166673872,0.3123991518802841,0.8892935871420706
1790097306116150784,3.8741508789062533,-0.1212531775236129,0.3180223405361175,0.9272661209106444
1790097306126150656,3.8841508789062535,-0.1061958416092383,0.18027558777467814,1.1860293317971777
1790097306136150784,3.8941508789062533,-0.12261050811900343,0.03564657995907125,1.2666298565489615
1790097306146150656,3.904150878906253,-0.12330062123483929,0.029524071066824857,1.2686346161350426
1790097306156150784,3.9141508789062534,-0.11760721687810345,-0.028202589914764317,1.2887785666638192
1790097306166150656,3.9241508789062536,-0.0088572856038808,0.1048366576433181,1.345085620880127
1790097306176150784,3.9341508789062534,0.005421785200435007,0.13019201901586216,1.3574964096563604
1790097306186150656,3.944150878906253,0.06572546984533666,0.22738726944220777,1.4198263219000893
1790097306196150784,3.9541508789062534,0.09094581962696544,0.2156002496655515,1.5086937712576025
1790097306206150656,3.9641508789062536,0.0937650576233863,0.1604237556457519,1.591257095336914
1790097306216150784,3.9741508789062534,0.09857162044360977,0.1609892368703457,1.624337584891311
1790097306226150656,3.984150878906253,0.16976197254312347,0.19077101137366828,1.7321795103470232
1790097306236150784,3.9941508789062534,0.2293731421232223,0.2172325551509857,1.7952800989151
1790097306246150656,4.004150878906254,0.26134371591554767,0.1753945279192484,1.797253606934051
1790097306256150784,4.014150878906253,0.31211799530783313,0.03929122004770552,1.7685243706546017
1790097306266150656,4.024150878906253,0.4169403088197565,-0.29761563175723277,1.7148833533691006
1790097306276150784,4.034150878906253,0.49151082209594815,-0.4772750452005995,1.6993913532915417
1790097306286150656,4.044150878906254,0.5012001991271973,-0.49623703956604,1.6987662315368652
1790097306296150784,4.0541508789062535,0.5029441122239534,-0.8159539112341245,1.7615469895763989
1790097306306150656,4.064150878906253,0.44393561092638695,-1.2004572458821046,1.8784882900017432
1790097306316150784,4.074150878906254,0.35739252462260496,-1.6358659233580224,1.9840524724947812
1790097306326150656,4.084150878906254,0.3081724345684051,-1.8401010036468504,1.9919729232788088
1790097306336150784,4.0941508789062535,0.3134412205689396,-1.822618219047063,1.9728137120808376
1790097306346150656,4.104150878906253,0.35798213892601244,-1.6767796081776898,1.8702054516860285
1790097306356150784,4.114150878906253,0.45883393077821744,-1.3484934010743335,1.7951405325563863
1790097306366150656,4.124150878906254,0.5737442293827424,-0.9946655174977009,1.7886240905790336
1790097306376150784,4.1341508789062535,0.6684529926566458,-0.757329615562108,1.7950331612771726
1790097306386150656,4.144150878906253,0.6169982742383141,-0.745038877417547,1.7569975284017547
1790097306396150784,4.154150878906253,0.5305208563804626,-0.8065474629402161,1.7225892543792725
1790097306406150656,4.164150878906254,0.44746411148271575,-0.7726389816540818,1.726399227842849
1790097306416150784,4.174150878906254,0.3249859887158394,-0.6773019509686788,1.7504506366975232
1790097306426150656,4.184150878906253,0.2629747848169315,-0.4127465576110736,1.6615898394415591
1790097306436150784,4.194150878906254,0.2531961798667907,-0.3343625068664551,1.6279079914093018
1790097306446150656,4.204150878906254,0.3152377964591919,0.13121474450874054,1.3914074205090017
1790097306456150784,4.214150878906254,0.29401499405878434,0.2235301236589622,1.2879258212096458
1790097306466150656,4.224150878906253,0.2916795611381531,0.2251735776662826,1.2827792167663574
1790097306476150784,4.234150878906253,0.2741929266676718,0.11582573791962973,1.1298745707472178
1790097306486150656,4.244150878906254,0.3460449576377868,0.1946312040090561,0.7317186594009399
1790097306496150784,4.254150878906254,0.3483778593815161,0.19813055662465004,0.6850606348735138
1790097306506150656,4.264150878906253,0.33267455496839227,0.23084591987248249,0.3321980100847711
1790097306516150784,4.274150878906254,0.245255172252655,0.283204048871994,-0.0941468328237533
1790097306526150656,4.284150878906254,0.21451712411124624,0.29475807277596416,-0.16194494108237506
1790097306536150784,4.294150878906254,0.17010493315841335,0.4090619129282019,-0.37603937721654146
1790097306546150656,4.3041508789062535,0.11457183671697828,0.5667341203096002,-0.6213763445470728
1790097306556150784,4.314150878906253,0.0375671051442623,0.5966450572013855,-0.7489750981330872
1790097306566150656,4.324150878906254,0.03646526382961417,0.7270296508461022,-0.9215969802506703
1790097306576150784,4.334150878906254,0.0357345640659332,0.8134958148002625,-1.0360733270645142
1790097306586150656,4.3441508789062535,0.018499547613153023,0.8665266375573841,-1.0944072407216623
1790097306596150784,4.354150878906254,-0.03265867993502009,0.9169902081783231,-1.1727773208778558
1790097306606150656,4.364150878906254,-0.11360060627087265,0.9206317633206659,-1.2863218664388474
1790097306616150784,4.374150878906254,-0.19537675809782806,0.9314150351328759,-1.44326273295766
1790097306626150656,4.3841508789062535,-0.26339043381009203,0.9769517671820578,-1.6029954332958996
1790097306636150784,4.394150878906253,-0.3826957941055298,1.0016367435455322,-1.7984106540679932
1790097306646150656,4.404150878906254,-0.39034169470568764,1.0077974721436445,-1.8053414710571858
1790097306656150784,4.414150878906254,-0.5008546408031614,1.0991362657948796,-1.90705883385931
1790097306666150656,4.424150878906254,-0.713771312943297,1.273098689843186,-2.1016973114172073
1790097306676150784,4.434150878906254,-0.8109760880470276,1.3125580549240112,-2.163773775100708
1790097306686150656,4.444150878906254,-0.8704247444314553,1.2964190521929793,-2.175418316999897
1790097306696150784,4.454150878906254,-1.0095106158644114,1.2360333620738868,-2.159935293416977
1790097306706150656,4.464150878906254,-1.0412654876708984,1.1928319931030271,-2.1008565425872803
1790097306716150784,4.474150878906253,-1.0583433183542088,1.1197769210911324,-2.0173649876318662
1790097306726150656,4.484150878906254,-1.0862728787681624,0.9237314435361454,-1.8451435721405958
1790097306736150784,4.494150878906254,-1.091502075022126,0.721150273257814,-1.7080144017577663
1790097306746150656,4.504150878906254,-1.0595474378706915,0.5931890276731162,-1.6356929016806105
1790097306756150784,4.514150878906254,-0.9331730262033455,0.5113446721742636,-1.6524557003912839
1790097306766150656,4.524150878906254,-0.8977164030075073,0.4946335554122925,-1.6621917486190796
1790097306776150784,4.534150878906254,-0.8382954703677585,0.47464652880896085,-1.685960121674979
1790097306786150656,4.544150878906254,-0.7046302346445545,0.3622368223436095,-1.6688568085193418
1790097306796150784,4.5541508789062535,-0.6968699346298446,0.3553467591008787,-1.6673874524475736
1790097306806150656,4.564150878906254,-0.611150658436596,0.26044690029645856,-1.6118897900470632
1790097306816150784,4.574150878906254,-0.4584408700466156,0.1066692024469375,-1.482602596282959
1790097306826150656,4.584150878906254,-0.44545655530295075,0.09148219241163523,-1.4750670632940102
1790097306836150784,4.594150878906254,-0.3722480772453925,-0.014578122026616517,-1.4019777458890865
1790097306846150656,4.604150878906254,-0.3191677033901214,-0.1376696974039077,-1.279801368713379
1790097306856150784,4.614150878906254,-0.3269163209300978,-0.18097083041335882,-1.2246494157456578
1790097306866150656,4.624150878906254,-0.3646014209893501,-0.409941874919048,-1.0457817339709834
1790097306876150784,4.6341508789062535,-0.3967452943325043,-0.6135197281837463,-0.9334509968757628
1790097306886150656,4.644150878906254,-0.37941213403675367,-0.6580421562803701,-0.9378692508207109
1790097306896150784,4.654150878906254,-0.23923786140726194,-0.6893917654251291,-0.992688045510575
1790097306906150656,4.664150878906254,-0.07764475039708649,-0.634180541049416,-1.0244672298431396
1790097306916150784,4.6741508789062545,-0.038177952170372,-0.6092438101768494,-1.0244672298431396
1790097306926150656,4.684150878906254,0.09633638320643381,-0.575003756748785,-0.9222363406842606
1790097306936150784,4.694150878906254,0.1298050433397293,-0.5664844512939453,-0.89680016040802
1790097306946150656,4.704150878906254,0.14051695302357417,-0.5907272174257739,-0.7958826694332792
1790097306956150784,4.714150878906254,0.1708650172017821,-0.5128046745376831,-0.6305714780928764
1790097306966150656,4.724150878906254,0.17090134981811364,-0.5096326743793161,-0.6253794827187252
1790097306976150784,4.734150878906254,0.14826558660539468,-0.4691918700011607,-0.5477759020859467
1790097306986150656,4.744150878906254,0.0363454110920429,-0.4626404345035553,-0.3659738600254059
1790097306996150784,4.7541508789062545,0.02015856819181176,-0.4665476054455861,-0.33429788356487883
1790097307006150656,4.764150878906254,-0.05856622839971177,-0.4878798601226216,-0.14453968416701807
1790097307016150784,4.774150878906254,-0.12187151221791043,-0.4800009363991411,0.0962590392509499
1790097307026150656,4.784150878906254,-0.1298050433397293,-0.4284330010414123,0.1660740971565246
1790097307036150784,4.794150878906254,-0.12807209645844392,-0.33976402887709456,0.22817125706645558
1790097307046150656,4.804150878906254,-0.12809678231145677,-0.23731537203712239,0.30914721176091775
1790097307056150784,4.814150878906254,-0.1298050433397293,-0.2341835647821426,0.3193967640399933
1790097307066150656,4.824150878906254,-0.11738084551085304,-0.2341835647821426,0.347451392629734
1790097307076150784,4.834150878906255,-0.10429719325804766,-0.2105258771099672,0.39326154788707746
1790097307086150656,4.844150878906254,-0.1017060652375221,-0.2011978179216385,0.4055262207984924
1790097307096150784,4.854150878906254,-0.07401827264194086,-0.11915990119527017,0.5362741664113698
1790097307106150656,4.864150878906254,-0.051118245294329304,-0.03195383333478484,0.6465523298755436
1790097307116150784,4.874150878906254,-0.0491732060909271,-0.0240521114319562,0.6559736132621765
1790097307126150656,4.884150878906254,0.0143549107015132,0.1848576515913009,0.9119949340820312
1790097307136150784,4.894150878906254,0.018602594770031664,0.19181771291054814,0.9266827141867936
1790097307146150656,4.904150878906254,0.07567583247778961,0.2672248523830761,1.1334192486701475
1790097307156150784,4.914150878906255,0.14603183832636937,0.251596627664763,1.4217901190083249
1790097307166150656,4.9241508789062545,0.1756185889244079,0.2074590027332306,1.484358787536621
1790097307176150784,4.934150878906254,0.20909565500041177,0.15754409996558177,1.4975892654027982
1790097307186150656,4.944150878906254,0.277630090713501,0.0553580336272716,1.5246747732162476
1790097307196150784,4.954150878906254,0.30899280155422154,0.04352823795108817,1.5340285443885433
1790097307206150656,4.9641508789062545,0.37476012284494464,0.029404025883265583,1.5698127776474895
1790097307216150784,4.974150878906254,0.4139616229743264,0.04998740050435207,1.632260593156556
1790097307226150656,4.984150878906254,0.42207432602466033,0.054293884638885584,1.708338862348456
1790097307236150784,4.994150878906255,0.4207548140478924,-0.027935157097383805,1.7091058606366516
1790097307246150656,5.0041508789062545,0.4205683469772339,-0.0613137930631637,1.6975445747375488
1790097307256150784,5.014150878906254,0.5188747516482412,-0.15662611294716233,1.562310856550698
1790097307266150656,5.024150878906254,0.540905237197876,-0.1779856234788894,1.532004952430725
1790097307276150784,5.034150878906254,0.6011411164796101,-0.05292443390152715,1.484389928844188
1790097307286150656,5.044150878906255,0.6551538879859713,0.15372180964935356,1.4855849785104698
1790097307296150784,5.054150878906254,0.7418739795684814,0.2282278090715408,1.504516839981079
1790097307306150656,5.064150878906254,0.74538889203837,0.2121489586587014,1.4977113641695956
1790097307316150784,5.074150878906255,0.7717047956908784,0.08310748399451148,1.4183266701879504
1790097307326150656,5.084150878906255,0.776692271232605,0.0217614341527223,1.2821683883666992
1790097307336150784,5.094150878906254,0.7796801395317113,0.006448602856089693,1.2711506319857422
1790097307346150656,5.104150878906254,0.7797439984436915,-0.0998035622839922,1.2476968635984933
1790097307356150784,5.114150878906254,0.7508890371848451,-0.3379362288794606,1.2569389795368924
1790097307366150656,5.124150878906255,0.7069156305060067,-0.6514525644648388,1.2605976550592979
1790097307376150784,5.134150878906254,0.6850652098655701,-0.8187643885612488,1.2552911043167114
1790097307386150656,5.144150878906254,0.6817051329613819,-0.7926305056569248,1.2231837999331925
1790097307396150784,5.154150878906255,0.676693000349871,-0.7328863424989775,1.1662099598559479
1790097307406150656,5.164150878906255,0.6578204095269301,-0.6939469262996434,1.1250978575719635
1790097307416150784,5.1741508789062545,0.6582627705042713,-0.7675063484296463,1.2243648550435797
1790097307426150656,5.184150878906254,0.6600204706192017,-0.7882220149040222,1.2522368431091309
1790097307436150784,5.194150878906254,0.6297836784151832,-0.9573241255981008,1.339027701313752
1790097307446150656,5.204150878906255,0.6557029162541775,-1.1829313835584965,1.281817541805631
1790097307456150784,5.2141508789062545,0.6583492877072812,-1.1834909460191456,1.2775112025950692
1790097307466150656,5.224150878906254,0.7109640397621253,-1.0493692150726746,1.1859672796097391
1790097307476150784,5.234150878906255,0.740652322769165,-0.7827243804931641,0.9907942414283752
1790097307486150656,5.244150878906255,0.7125631692924561,-0.7836742654189186,0.9701683957407486
1790097307496150784,5.2541508789062545,0.5254465140526955,-0.7722934671994839,0.8416916105877277
1790097307506150656,5.264150878906254,0.26739889226432656,-0.667350211357594,0.6854615770783924
1790097307516150784,5.274150878906254,0.16954195238736966,-0.4564135742800566,0.6721532351519568
1790097307526150656,5.284150878906255,0.1194206401705741,-0.3361950516700744,0.6914027333259583
1790097307536150784,5.294150878906255,0.07558775525453518,-0.24305017933147005,0.7036501560408078
1790097307546150656,5.304150878906254,-0.012202252609322839,-0.010780700010922767,0.6667864906479624
1790097307556150784,5.314150878906255,-0.0461189672350883,0.0932305604219436,0.6333722472190857
1790097307566150656,5.324150878906255,0.01728299326541142,0.2578150954630709,0.5408748827237255
1790097307576150784,5.334150878906255,-0.041347756380578665,0.18043876700621253,0.4834555132082538
1790097307586150656,5.344150878906254,-0.05508131116263592,0.13527795261652178,0.3972013197944176
1790097307596150784,5.354150878906254,0.028546292098201476,0.19048110675846103,0.21559214388925696
1790097307606150656,5.364150878906255,0.08019239230929096,0.2017428616583889,0.10497432089915516
1790097307616150784,5.374150878906255,0.08223908491155177,0.20332361005618194,0.09764839538468366
1790097307626150656,5.384150878906254,0.0870457366108894,0.2850365936756134,-0.086205817759037
1790097307636150784,5.394150878906255,0.07299485679958165,0.28554445762849656,-0.10398102617000793
1790097307646150656,5.404150878906255,-0.025209401438961304,0.2795546405683613,-0.23216802151861782
1790097307656150784,5.414150878906255,-0.07764037887195874,0.23078234269992587,-0.3331618033372116
1790097307666150656,5.4241508789062545,-0.10666317298555708,0.1929249416340533,-0.46234860674574413
1790097307676150784,5.434150878906254,-0.1145338639616966,0.1854684948921203,-0.5547256469726562
1790097307686150656,5.444150878906255,-0.10775277973213412,0.22507002097000187,-0.6767851366376748
1790097307696150784,5.454150878906255,-0.11037072249641536,0.3218999637155115,-0.8740391166823536
1790097307706150656,5.4641508789062545,-0.1212531775236129,0.3681881725788116,-0.9175689220428468
1790097307716150784,5.474150878906255,-0.1975099315266151,0.5184024969094643,-0.9401777204309478
1790097307726150656,5.484150878906255,-0.2428117841482162,0.6076403260231018,-0.9536089301109314
1790097307736150784,5.494150878906255,-0.2963793898519624,0.6493040205892077,-0.9797059622004287
1790097307746150656,5.5041508789062545,-0.3801367045264551,0.7152188344651483,-1.14341112646441
1790097307756150784,5.514150878906254,-0.3955236077308655,0.7273663878440857,-1.1796224117279053
1790097307766150656,5.524150878906255,-0.45934111981140874,0.8772235612852588,-1.3602487363258504
1790097307776150784,5.534150878906255,-0.5155430638687268,1.005192018001232,-1.390867293131163
1790097307786150656,5.544150878906255,-0.5219117718764746,1.0176037911875404,-1.3882880035808247
1790097307796150784,5.554150878906255,-0.6258893609046936,1.2184876203536987,-1.3421077728271484
1790097307806150656,5.564150878906255,-0.6347648604355831,1.223250084031811,-1.353580983659379
1790097307816150784,5.574150878906255,-0.686167431562661,1.2686531110092236,-1.4368411704275454
1790097307826150656,5.584150878906255,-0.7191038845051811,1.317132920784128,-1.5593910742317885
1790097307836150784,5.594150878906254,-0.7452821890052266,1.1414186647100992,-1.6139488749649502
1790097307846150656,5.604150878906255,-0.8033401629547066,0.8888288684214594,-1.5679543537337446
1790097307856150784,5.614150878906255,-0.8213604688644409,0.8220477104187012,-1.524140238761902
1790097307866150656,5.624150878906255,-0.8097351943728144,0.7167559265564384,-1.4759783734064735
1790097307876150784,5.634150878906255,-0.7744871505010485,0.5356711787585644,-1.3901221230685512
1790097307886150656,5.644150878906255,-0.7073912652073356,0.37740764237490965,-1.31772095777298
1790097307896150784,5.654150878906255,-0.6634349913761384,0.25335336443495216,-1.2838593673429255
1790097307906150656,5.664150878906255,-0.6564317345619202,0.2251735776662826,-1.2791905403137207
1790097307916150784,5.6741508789062545,-0.6408692537691276,0.12297978169210957,-1.2423593003381161
1790097307926150656,5.684150878906255,-0.6103024288661648,-0.003598578483064982,-1.1718713378156016
1790097307936150784,5.694150878906255,-0.4965281436831126,-0.021399087382383816,-1.1127622710377583
1790097307946150656,5.704150878906255,-0.4138490259647369,0.1060583516955375,-1.1716814041137695
1790097307956150784,5.714150878906255,-0.40778701355784375,0.11332132875874543,-1.1806600472636266
1790097307966150656,5.724150878906255,-0.3438070844840372,0.17862732555974378,-1.281098268080418
1790097307976150784,5.734150878906255,-0.32108710489832415,0.11290261876013082,-1.3567809697525712
1790097307986150656,5.744150878906255,-0.3430941820651116,-0.053049512686764874,-1.3499567632227005
1790097307996150784,5.7541508789062545,-0.3417690396308899,-0.122398518025875,-1.3146196603775024
1790097308006150656,5.764150878906255,-0.31714706622330735,-0.1567717668823605,-1.314375885999212
1790097308016150784,5.774150878906255,-0.23790947799819465,-0.23157762878472182,-1.3272201900040594
1790097308026150656,5.784150878906255,-0.1604251007734408,-0.2391936240316538,-1.329981678486636
1790097308036150784,5.7941508789062555,-0.1428739468894161,-0.18969449880529066,-1.265634561908557
1790097308046150656,5.804150878906255,-0.17861373105772485,-0.17799599672489222,-1.1626316767474274
1790097308056150784,5.814150878906255,-0.20420350635775336,-0.23530833667994216,-1.0997956032629514
1790097308066150656,5.824150878906255,-0.16075604422545273,-0.2717512298385793,-1.0801876417383172
1790097308076150784,5.834150878906255,-0.04680743442629756,-0.2834024139010997,-1.0614500850140183
1790097308086150656,5.844150878906255,0.08250500987296679,-0.3174236922451986,-1.0141351085324917
1790097308096150784,5.854150878906255,0.0962084457278251,-0.3215347230434418,-1.0085852146148682
1790097308106150656,5.864150878906255,0.09294598615093363,-0.35045889671741065,-0.9658978194116177
1790097308116150784,5.8741508789062555,0.06982165225619087,-0.37266708176023544,-0.9090320916720562
1790097308126150656,5.884150878906255,0.03691077976627791,-0.3792578088706373,-0.8489328738469198
1790097308136150784,5.894150878906255,0.040621344000101,-0.3331408202648163,-0.7673004865646362
1790097308146150656,5.904150878906255,0.06315577276438807,-0.3345395112017924,-0.7525365519483775
1790097308156150784,5.914150878906255,0.16118628434151933,-0.34654011467468965,-0.6909612783631396
1790097308166150656,5.924150878906255,0.25359913207645685,-0.3673638791762364,-0.6351365135579319
1790097308176150784,5.934150878906255,0.296492163127997,-0.36062316712235337,-0.5945771774426016
1790097308186150656,5.944150878906255,0.2965810691836843,-0.3051360528225211,-0.5538645928543402
1790097308196150784,5.954150878906256,0.21008777348346555,-0.24063959842930982,-0.43787851483503626
1790097308206150656,5.964150878906255,0.11770136866884116,-0.1809166550249131,-0.2995096764762565
1790097308216150784,5.974150878906255,0.1157057093124822,-0.11785878288964288,-0.1926079809180317
1790097308226150656,5.984150878906255,0.1230857223272323,-0.099797174334526,-0.1613400280475616
1790097308236150784,5.994150878906255,0.13045491219419658,-0.05902098900581165,-0.10140395685459422
1790097308246150656,6.004150878906255,0.14123451642271515,0.043406903046071095,0.008330048288899924
1790097308256150784,6.014150878906255,0.1426328420639038,0.0578014217317104,0.0231358390301466
1790097308266150656,6.024150878906255,0.1589202061392108,0.13079295516152264,0.05390086598835263
1790097308276150784,6.034150878906256,0.16812310940055403,0.2201008168064745,0.07618656555361243
1790097308286150656,6.0441508789062555,0.1706733805630433,0.25327463966158376,0.09800192538445454
1790097308296150784,6.054150878906255,0.1206423342227935,0.1640888452529907,0.0958266630768776
1790097308306150656,6.064150878906255,0.11667555333533222,0.12782113614874696,0.08534302898514287
1790097308316150784,6.074150878906255,0.09888521347721312,-0.005174381723491577,0.04686545521446403
1790097308326150656,6.0841508789062555,0.07878798736853175,-0.033240757021886856,0.05142352195791204
1790097308336150784,6.094150878906255,0.05119845158005068,-0.02695630118916627,0.11102698119307186
1790097308346150656,6.104150878906255,0.01679421672892679,-0.03490392971933706,0.2088442898978101
1790097308356150784,6.114150878906256,-0.01845952880736445,-0.056309945734885666,0.3223309188357732
1790097308366150656,6.1241508789062555,-0.04279164698224359,-0.06473824570558444,0.4417602375931343
1790097308376150784,6.134150878906255,-0.045157051782665714,-0.02950971489858268,0.5462048325569161
1790097308386150656,6.144150878906255,-0.027046222243483995,0.03174650667769634,0.6148625003968516
1790097308396150784,6.154150878906255,-0.004360315623972426,0.08445424207493533,0.6602697328104986
1790097308406150656,6.164150878906256,0.013176859022956252,0.11504655628455984,0.7290396853207938
1790097308416150784,6.174150878906255,0.0155766047537326,0.118886150419712,0.7402704954147339
1790097308426150656,6.184150878906255,0.04799828673739113,0.07821167672375884,0.8216931405479949
1790097308436150784,6.194150878906256,0.0503547386303771,0.07756795321628991,0.8259370904976844
1790097308446150656,6.204150878906256,0.09581450367646725,0.11457584833777883,0.8777988715149343
1790097308456150784,6.214150878906255,0.11394950146071188,0.19354196058419168,0.9274158920255681
1790097308466150656,6.224150878906255,0.1316375881433487,0.2819823622703552,0.9914051294326782
1790097308476150784,6.234150878906255,0.13808198492371251,0.29718453068800527,1.019826571230085
1790097308486150656,6.244150878906256,0.16194291079532763,0.3274440286139321,1.1305028323000443
1790097308496150784,6.254150878906255,0.19084043254937164,0.23263919298120578,1.2285995780132817
1790097308506150656,6.264150878906255,0.215323656797409,0.1194969937205314,1.2742273807525637
1790097308516150784,6.274150878906256,0.23671119085164244,0.11855342829829826,1.2616464982260653
1790097308526150656,6.284150878906256,0.28958287897121016,0.15108975177697775,1.2276272773618917
1790097308536150784,6.2941508789062555,0.3965601772283016,0.24029474113613242,1.1930198006792452
1790097308546150656,6.304150878906255,0.46510424202075246,0.2280510497112585,1.193262120484789
1790097308556150784,6.314150878906255,0.4947297862566471,0.13727926058122214,1.2090024876227745
1790097308566150656,6.324150878906256,0.5012001991271973,0.1152210608124733,1.212531805038452
1790097308576150784,6.3341508789062555,0.5254297860452906,0.10822140470453193,1.2297617358486042
1790097308586150656,6.344150878906255,0.5528697574406216,0.16082471643127091,1.2441696047159156
1790097308596150784,6.354150878906256,0.5667549208819078,0.16933161049465964,1.2438456545956749
1790097308606150656,6.364150878906256,0.6229472160833788,-0.07222905393328011,1.2900781969809167
1790097308616150784,6.3741508789062555,0.6697940230369568,-0.1504974961280822,1.3249276876449585
1790097308626150656,6.384150878906255,0.6784722881579037,-0.1512968104606205,1.3274398287505949
1790097308636150784,6.394150878906255,0.7321264530855459,-0.15553095374985268,1.3345787583143247
1790097308646150656,6.404150878906256,0.8124577418463258,-0.19521516037004388,1.3240393020358003
1790097308656150784,6.414150878906256,0.8842014074325562,-0.2787754237651825,1.326149344444275
1790097308666150656,6.424150878906255,0.883147583266414,-0.3889007689347355,1.3719910170141807
1790097308676150784,6.434150878906256,0.8817580342292786,-0.5341095924377441,1.4324368238449097
1790097308686150656,6.444150878906256,0.8482860443962396,-0.6446685001836682,1.461175352321112
1790097308696150784,6.454150878906256,0.7653473993173833,-0.9707429779639826,1.5245281161746491
1790097308706150656,6.464150878906255,0.7302678823471069,-1.119301199913025,1.5497194528579712
1790097308716150784,6.474150878906255,0.7212667533489189,-1.1328029373255368,1.557370452030138
1790097308726150656,6.484150878906256,0.7229246561743217,-1.0318672320093425,1.5591291819240847
1790097308736150784,6.494150878906256,0.7241594195365906,-1.005072832107544,1.558882236480713
1790097308746150656,6.504150878906255,0.7174152596753867,-0.8977284338886742,1.5442699266744275
1790097308756150784,6.514150878906256,0.6826667062300446,-0.8272680284578087,1.5118343083371133
1790097308766150656,6.524150878906256,0.5604523420333862,-0.5964159965515137,1.3799039125442505
1790097308776150784,6.534150878906256,0.5578011825250551,-0.6114392419778464,1.3751697066157176
1790097308786150656,6.5441508789062555,0.5221414534925527,-0.7440072853779435,1.3230421646700625
1790097308796150784,6.554150878906255,0.4339971453513678,-0.7083971099377104,1.219231455109124
1790097308806150656,6.564150878906256,0.3521534502506256,-0.547548234462738,1.0555440187454224
1790097308816150784,6.574150878906256,0.30776332523211136,-0.46598933872522563,0.9848171803630162
1790097308826150656,6.5841508789062555,0.2244863659143448,-0.3129828572273254,0.8521319031715393
1790097308836150784,6.594150878906256,0.22333822289516245,-0.25557568526213403,0.8145302175428115
1790097308846150656,6.604150878906256,0.22755692176288736,-0.12464612733969256,0.7072005217312085
1790097308856150784,6.614150878906256,0.22808731314798944,-0.0010995481256492745,0.5645104659791451
1790097308866150656,6.6241508789062555,0.15208161465902453,0.1646466168986839,0.361269947739805
1790097308876150784,6.634150878906255,0.06139176547512224,0.3056284840286957,0.22480455662574103
1790097308886150656,6.644150878906256,-0.0005835500694213736,0.42071123185958004,0.14689977343760874
1790097308896150784,6.654150878906256,-0.0125223686918616,0.4451549351215362,0.1312558054924011
1790097308906150656,6.664150878906256,-0.07228297123434392,0.543293896552867,0.020506801238764555
1790097308916150784,6.674150878906256,-0.10077102700441133,0.5919734328301429,-0.0594765757381128
1790097308926150656,6.684150878906256,-0.1016457749849217,0.5956406681119897,-0.06602431323899856
1790097308936150784,6.694150878906256,-0.10284853053546017,0.6924975553230764,-0.2509072210599207
1790097308946150656,6.704150878906256,-0.1535216073634019,0.6314950220832283,-0.3068317926474219
1790097308956150784,6.714150878906255,-0.1713426560163498,0.6021426916122437,-0.3665847182273865
1790097308966150656,6.724150878906256,-0.18521687432005277,0.5926243277384796,-0.4054647893815448
1790097308976150784,6.734150878906256,-0.2238755226135254,0.5661026835441589,-0.5137988924980164
1790097308986150656,6.744150878906256,-0.2569106179711129,0.57648514241404,-0.5900155614100633
1790097308996150784,6.754150878906256,-0.33672173281528717,0.6000851338068728,-0.7567396174719093
1790097309006150656,6.764150878906256,-0.4052667649885142,0.6188014078018708,-0.8612580070384791
1790097309016150784,6.774150878906256,-0.4388937652111053,0.6284091472625732,-0.9077953696250916
1790097309026150656,6.784150878906256,-0.4754916664668223,0.6584579266573698,-0.9547947974648563
1790097309036150784,6.7941508789062555,-0.5540219370567059,0.7398609533241767,-1.077393587133107
1790097309046150656,6.804150878906256,-0.5794649720191956,0.7682931423187256,-1.119759440422058
1790097309056150784,6.814150878906256,-0.646089476551767,0.8861289686888559,-1.2311316552690996
1790097309066150656,6.824150878906256,-0.7014068373651553,0.9820158889730104,-1.295073935018504
1790097309076150784,6.834150878906256,-0.7071320414543152,0.991863250732422,-1.3005701303482056
1790097309086150656,6.844150878906256,-0.745508751522241,1.0485146129467067,-1.323108848182239
1790097309096150784,6.854150878906256,-0.8076373702461087,1.0441208252574974,-1.3198729350869831
1790097309106150656,6.864150878906256,-0.9410865306854248,0.950936496257782,-1.3060678243637085
1790097309116150784,6.8741508789062555,-0.9478125991824474,0.9434385870097063,-1.3044138614528886
1790097309126150656,6.884150878906256,-0.9835135776241187,0.8928698247656619,-1.2935107036691875
1790097309136150784,6.894150878906256,-1.0023166022812295,0.8149122017018352,-1.2749046549902638
1790097309146150656,6.904150878906256,-1.0049464981668044,0.7266325918536063,-1.2492559310080542
1790097309156150784,6.9141508789062565,-0.9809497212070636,0.6152484320949623,-1.2372098170094636
1790097309166150656,6.924150878906256,-0.9593262875507254,0.5108014353205936,-1.2492473542648739
1790097309176150784,6.934150878906256,-0.9714889815419401,0.46206766074969596,-1.270556231013468
1790097309186150656,6.944150878906256,-0.9789590835571288,0.4396573007106781,-1.2785797119140625
1790097309196150784,6.954150878906256,-0.9871353498842717,0.380328189888571,-1.2777620294341692
1790097309206150656,6.964150878906256,-0.9603928850123741,0.1484638346513348,-1.2398828092982814
1790097309216150784,6.974150878906256,-0.9040670636267945,0.01857057019769557,-1.2052585905057949
1790097309226150656,6.984150878906256,-0.8370182499259019,0.014462061109266192,-1.1883236766849643
1790097309236150784,6.9941508789062565,-0.827468991279602,0.0162638090550899,-1.1863417625427246
1790097309246150656,7.004150878906256,-0.7714996630007183,0.04484388393178923,-1.1934867930632842
1790097309256150784,7.014150878906256,-0.6845307350158691,0.0278699062764644,-1.2119972705841064
1790097309266150656,7.024150878906256,-0.6818667991665412,0.018161355834810523,-1.2083861710221964
1790097309276150784,7.034150878906256,-0.6570425629615784,-0.0723090469837188,-1.17473566532135
1790097309286150656,7.044150878906256,-0.6476739088855563,-0.07592267088532026,-1.1731296073518593
1790097309296150784,7.054150878906256,-0.6142832636833191,-0.0888019204139709,-1.1674054861068726
1790097309306150656,7.064150878906256,-0.6021917834698235,-0.09151208161349347,-1.170532579730951
1790097309316150784,7.074150878906257,-0.5626007557273223,-0.11984793511544528,-1.1819757292057178
1790097309326150656,7.084150878906256,-0.49344830376979437,-0.23654587434887328,-1.186326501730962
1790097309336150784,7.094150878906256,-0.4413371384143829,-0.3319191336631775,-1.1820658445358276
1790097309346150656,7.104150878906256,-0.4094975871419151,-0.3730601380588031,-1.1673981476464865
1790097309356150784,7.114150878906256,-0.33956358776447154,-0.45589581399375,-1.1305515398528565
1790097309366150656,7.124150878906256,-0.2540014189244289,-0.5034018322724472,-1.0741532905058995
1790097309376150784,7.134150878906256,-0.17207035061545217,-0.4869429337691563,-0.9624334109377717
1790097309386150656,7.144150878906256,-0.1548497825860977,-0.4797441661357879,-0.9340618252754213
1790097309396150784,7.154150878906257,-0.14886206372414573,-0.38285199543077525,-0.8366253068348003
1790097309406150656,7.1641508789062565,-0.17255982398196548,-0.3017968188753233,-0.7776064053312584
1790097309416150784,7.174150878906256,-0.17381857874297754,-0.2983875978450708,-0.7745583261222031
1790097309426150656,7.184150878906256,-0.173457080620444,-0.3048908965630565,-0.7199308998161125
1790097309436150784,7.194150878906256,-0.13234579612141745,-0.312649532093691,-0.6552763897896439
1790097309446150656,7.2041508789062565,-0.0900999680161476,-0.2286859452724456,-0.5602232813835144
1790097309456150784,7.214150878906256,-0.07546142455805983,-0.20932528872996536,-0.5481032019488565
1790097309466150656,7.224150878906256,-0.0062247758220604875,-0.14439977933601494,-0.496636666552622
1790097309476150784,7.234150878906257,0.07482125734377322,-0.1199689272370875,-0.43898956100959274
1790097309486150656,7.2441508789062565,0.11162387881006874,-0.11982556230791122,-0.3703014729112151
1790097309496150784,7.254150878906256,0.08940411690737585,-0.18983674320912597,-0.2741217556582526
1790097309506150656,7.264150878906256,0.0687203183770179,-0.2494547516107559,-0.2193705290555954
1790097309516150784,7.274150878906256,0.04660395018915919,-0.25403055000094704,-0.1892465113594184
1790097309526150656,7.284150878906257,0.0018939083638100165,-0.20738655199853168,-0.13804180173267502
1790097309536150784,7.294150878906256,-0.00933067932600076,-0.1190473354738699,-0.07954087494130009
1790097309546150656,7.304150878906256,0.04552033576040878,-0.033603970224813096,0.012124448039444666
1790097309556150784,7.314150878906257,0.06841706180488755,-0.04190030285387933,0.07291294634230037
1790097309566150656,7.324150878906257,0.054040803853734304,-0.08688848481105557,0.12306211149757117
1790097309576150784,7.334150878906256,0.0528382882475853,-0.0900236144661903,0.1263690292835235
1790097309586150656,7.344150878906256,0.04162775552523796,-0.13032120339394018,0.16038621161638958
1790097309596150784,7.354150878906256,0.0711637064814567,-0.1969218850135803,0.1569113880395889
1790097309606150656,7.364150878906257,0.06935594550282863,-0.19149860078066738,0.1594635202703377
1790097309616150784,7.374150878906256,0.0607793033123016,-0.1657686680555343,0.1715717166662216
1790097309626150656,7.384150878906256,0.05553096637207316,-0.12088634206098979,0.2218833635588745
1790097309636150784,7.394150878906257,0.0430647321045398,-0.0142785543575882,0.3413872718811035
1790097309646150656,7.404150878906257,0.035396464120180514,0.014349645779602982,0.41985920885037736
1790097309656150784,7.4141508789062565,0.0247393138706684,0.0541363395750522,0.5289173722267151
1790097309666150656,7.424150878906256,0.03497685644446518,0.11655232052650225,0.5668953398137714
1790097309676150784,7.434150878906256,0.0436755791306495,0.1695864647626876,0.5991647839546204
1790097309686150656,7.444150878906257,0.04731958533271189,0.2266758837385272,0.6105016943336977
1790097309696150784,7.4541508789062565,0.042097872522260785,0.23625876573747143,0.6295347879398895
1790097309706150656,7.464150878906256,0.014944031265659467,0.12046670272970189,0.6576110061790406
1790097309716150784,7.474150878906257,-0.0010566001916912388,-0.06012878043801434,0.735754750431666
1790097309726150656,7.484150878906257,-0.0027488125488162,-0.0875802263617515,0.7488223910331726
1790097309736150784,7.4941508789062565,0.06527120443123337,0.08039963754951007,0.7950316565246239
1790097309746150656,7.504150878906256,0.10946617811313926,0.23544811871252208,0.8215701663675365
1790097309756150784,7.514150878906256,0.1438545286655426,0.2923667728900909,0.8612946271896362
1790097309766150656,7.524150878906257,0.1438545286655426,0.27301595918988997,0.8813861438271194
1790097309776150784,7.534150878906257,0.141126602658416,0.14729293143106165,1.0089170426728358
1790097309786150656,7.544150878906256,0.1310267299413681,0.0828461572527885,1.064706802368164
1790097309796150784,7.554150878906257,0.14452664342891744,0.0734371293619088,1.0810703048372405
1790097309806150656,7.564150878906257,0.20109192116301888,0.07240325403007172,1.1196211051861968
1790097309816150784,7.574150878906257,0.31459674857171344,0.17723019745322213,1.1450381655429323
1790097309826150656,7.584150878906256,0.3955236077308655,0.2697654068470001,1.1642749309539795
1790097309836150784,7.594150878906256,0.4362122390239647,0.23933739713059743,1.1918724112780048
1790097309846150656,7.604150878906257,0.4657710492610931,0.2172325551509857,1.211920976638794
1790097309856150784,7.614150878906257,0.47005550225846915,0.11269173792459611,1.253908641096964
1790097309866150656,7.624150878906256,0.4718795120716095,0.0681858286261558,1.2717839479446411
1790097309876150784,7.634150878906257,0.4754011821131988,0.002280089407054209,1.3120317598479236
1790097309886150656,7.644150878906257,0.48264040366417116,-0.07452314224703993,1.353076637566385
1790097309896150784,7.654150878906257,0.5383682331622287,-0.11966702849929473,1.346903829624851
1790097309906150656,7.6641508789062565,0.5995466113090515,-0.0655897259712219,1.3438639640808103
1790097309916150784,7.674150878906256,0.6032836615690674,-0.0625170385193067,1.346272285179413
1790097309926150656,7.684150878906257,0.659095342196603,-0.027718808682466324,1.3875709075853118
1790097309936150784,7.694150878906257,0.6944818102994308,-0.14584042088616184,1.459228468932029
1790097309946150656,7.7041508789062565,0.7137750387191772,-0.4382065534591675,1.5265072584152222
1790097309956150784,7.714150878906257,0.7128210667130664,-0.5170040044627289,1.5226914076247668
1790097309966150656,7.724150878906257,0.7152828982003574,-0.7169468174308097,1.5120092947077481
1790097309976150784,7.734150878906257,0.7282461196185788,-0.7881521473468186,1.509508988386759
1790097309986150656,7.7441508789062565,0.7351546883583069,-0.8230403065681458,1.5112360715866089
1790097309996150784,7.754150878906256,0.742296172617911,-0.8747312014750418,1.5292599123842108
1790097310006150656,7.764150878906257,0.739680026150869,-1.0853338569255682,1.6036148542685722
1790097310016150784,7.774150878906257,0.7345438003540039,-1.190159559249878,1.640735745429993
1790097310026150656,7.784150878906257,0.6916019622201166,-1.2543462696338392,1.6158746533903552
1790097310036150784,7.794150878906257,0.6765133142471313,-1.276899814605713,1.6071391105651855
1790097310046150656,7.804150878906257,0.5358981449880795,-1.2389811507667585,1.4659973088993923
1790097310056150784,7.814150878906257,0.51341712474823,-1.2329188585281372,1.443432092666626
1790097310066150656,7.824150878906257,0.3234096674848399,-1.2671923533381024,1.386309601316684
1790097310076150784,7.834150878906256,0.3185565155969551,-1.2590726510824233,1.3792642552817795
1790097310086150656,7.844150878906257,0.2800734639167785,-1.0771527290344238,1.2504043579101562
1790097310096150784,7.854150878906257,0.2877535641707903,-1.0431555076254386,1.225418432549799
1790097310106150656,7.864150878906257,0.3142895949166916,-0.8512963798402263,1.0778832728334204
1790097310116150784,7.874150878906257,0.2420799105310154,-0.7310717354152678,0.9527044424144255
1790097310126150656,7.884150878906257,0.1506692027782639,-0.5911610591047067,0.8017329764324599
1790097310136150784,7.894150878906257,0.1316375881433487,-0.5249468684196472,0.7311078310012817
1790097310146150656,7.904150878906257,0.13337157237621725,-0.4691702428227533,0.6857351249013821
1790097310156150784,7.9141508789062565,0.1372605358298667,-0.34994881302088154,0.5934369200146693
1790097310166150656,7.924150878906257,0.11715024115690514,-0.14888699890313462,0.45301955344317807
1790097310176150784,7.934150878906257,0.1023169159889221,-0.046042613685131,0.3823140263557434
1790097310186150656,7.944150878906257,0.04578032962708689,0.1573137932466117,0.231988064894028
1790097310196150784,7.954150878906257,-0.009297515767454682,0.3168126640558529,0.09574918843275808
1790097310206150656,7.964150878906257,-0.0186308417469263,0.3394020199775696,0.0738361626863479
1790097310216150784,7.974150878906257,-0.022482414162349664,0.5953252283869581,-0.10168548853869733
1790097310226150656,7.984150878906257,-0.0229067727923393,0.6235223412513733,-0.1210241168737411
1790097310236150784,7.9941508789062565,-0.08482641963981111,0.6030315709007976,-0.25268576894106726
1790097310246150656,8.004150878906257,-0.09509437197008357,0.5353964019499762,-0.3820482514405384
1790097310256150784,8.014150878906257,-0.1029277667403221,0.5202891230583191,-0.5040253400802612
1790097310266150656,8.024150878906257,-0.10834462748924661,0.5301150600116805,-0.5546666847621394
1790097310276150784,8.034150878906257,-0.1291942000389099,0.5679352283477783,-0.7495859265327454
1790097310286150656,8.044150878906258,-0.1534672679714021,0.59200769370723,-0.8009405179946207
1790097310296150784,8.054150878906256,-0.2031067162752151,0.6412369012832642,-0.9059628248214722
1790097310306150656,8.064150878906258,-0.255952734113965,0.6687608785593699,-0.9516525970198976
1790097310316150784,8.074150878906256,-0.3203893899917602,0.7023216485977173,-1.0073634386062622
1790097310326150656,8.084150878906257,-0.3623742609467836,0.7219145974806344,-1.102529141552362
1790097310336150784,8.094150878906257,-0.3936910629272461,0.7365291118621826,-1.173513889312744
1790097310346150656,8.104150878906257,-0.420011102727861,0.7615755782999238,-1.2172391832008083
1790097310356150784,8.114150878906258,-0.47359016208318694,0.8261414005589516,-1.2715303496211534
1790097310366150656,8.124150878906256,-0.5800538491401581,0.9557347414139535,-1.3427529064715544
1790097310376150784,8.134150878906258,-0.6335694143146821,0.9991079702059034,-1.4055126145702956
1790097310386150656,8.144150878906256,-0.6782714202672226,1.0240145252872843,-1.4886688366127527
1790097310396150784,8.154150878906258,-0.6808879265177037,1.025444947096052,-1.4936095120817445
1790097310406150656,8.164150878906256,-0.7401448489378604,0.9802496723930607,-1.517187017043913
1790097310416150784,8.174150878906257,-0.8280097425268312,0.835654642719519,-1.4433023124356983
1790097310426150656,8.184150878906259,-0.8558673710410839,0.8025629767469379,-1.4002372461781554
1790097310436150784,8.194150878906257,-0.8653414845466614,0.8055548071861267,-1.3708176612854004
1790097310446150656,8.204150878906258,-0.8625386907741626,0.7502464467264165,-1.3502638524420874
1790097310456150784,8.214150878906256,-0.8593170993019709,0.5664608498386485,-1.2991410754491626
1790097310466150656,8.224150878906258,-0.8647306561470032,0.4659237563610077,-1.2914074659347534
1790097310476150784,8.234150878906256,-0.8701092287898904,0.40403292303290306,-1.2845348356165431
1790097310486150656,8.244150878906257,-0.8760620459510038,0.2970494642621142,-1.2615597905564224
1790097310496150784,8.254150878906259,-0.8274157845185418,0.195589071386585,-1.213544575694848
1790097310506150656,8.264150878906257,-0.7963157296180725,0.1530935913324356,-1.1912285089492798
1790097310516150784,8.274150878906259,-0.7434424057190712,0.15847053896976343,-1.1925727048690309
1790097310526150656,8.284150878906257,-0.6655017489432316,0.17838375266469292,-1.2134480491542845
1790097310536150784,8.294150878906258,-0.5708062429472073,0.1176865427359097,-1.2479883135994365
1790097310546150656,8.304150878906256,-0.5573981404304504,0.1066692024469375,-1.2529240846633911
1790097310556150784,8.314150878906258,-0.5323094332886843,-0.06058857072765472,-1.181242180833431
1790097310566150656,8.324150878906256,-0.5281917424632891,-0.06467783086436024,-1.1774061565938876
1790097310576150784,8.334150878906257,-0.4407263100147247,-0.0723090469837188,-1.1228135824203491
1790097310586150656,8.344150878906259,-0.42448066911269416,-0.05675261740959223,-1.123995085323638
1790097310596150784,8.354150878906257,-0.3399364948272705,0.0242048222571611,-1.1301437616348269
1790097310606150656,8.364150878906258,-0.3304159191374176,0.020396592772971987,-1.1268548362551827
1790097310616150784,8.374150878906256,-0.301500352739839,0.0034016614166046165,-1.112225206962082
1790097310626150656,8.384150878906258,-0.2818855495685012,-0.02944132200724333,-1.0999644891526612
1790097310636150784,8.394150878906256,-0.247821008517187,-0.08269306788767226,-1.1013117378088237
1790097310646150656,8.404150878906258,-0.20020682439779006,-0.1258760891311854,-1.100042800311376
1790097310656150784,8.41415087890626,-0.11137761879336168,-0.11669945404988172,-1.0863675082460358
1790097310666150656,8.424150878906257,-0.0656660795211792,-0.1016297116875648,-1.0788326263427734
1790097310676150784,8.434150878906259,-0.05654519492745842,-0.08729689455387549,-1.0579848538024865
1790097310686150656,8.444150878906257,-0.046235307841976,-0.09090458114247518,-1.015082135474571
1790097310696150784,8.454150878906258,-0.03207119003998334,-0.1425496472979006,-0.9687833582510542
1790097310706150656,8.464150878906256,0.004243538296139864,-0.18893108279416038,-0.9265877516656911
1790097310716150784,8.474150878906258,0.0695242199189521,-0.23819384303568322,-0.8938594017212099
1790097310726150656,8.484150878906256,0.19211146235466,-0.3038201630115509,-0.8027296662330627
1790097310736150784,8.494150878906257,0.1930593338862998,-0.3028722903237799,-0.7988907833505607
1790097310746150656,8.504150878906259,0.2015329961160302,-0.2891466380731211,-0.7458813075947599
1790097310756150784,8.514150878906257,0.17916708637359174,-0.2810886142010364,-0.6883921253832999
1790097310766150656,8.524150878906259,0.15291151593765256,-0.31247803903143234,-0.6213893231920341
1790097310776150784,8.534150878906257,0.11956957305013166,-0.2976758496423328,-0.49507693903188077
1790097310786150656,8.544150878906258,0.0864348858594894,-0.2512872815132141,-0.3488701283931732
1790097310796150784,8.554150878906256,0.0905043791063896,-0.22578513089199842,-0.30464831148347615
1790097310806150656,8.564150878906258,0.0949803706193768,-0.18337483577431807,-0.21473746545940478
1790097310816150784,8.57415087890626,0.09645155598565099,-0.146115318812706,-0.14248751437922536
1790097310826150656,8.584150878906257,0.09267530229713407,-0.09517497505818352,-0.06670827062224352
1790097310836150784,8.594150878906259,0.08654516324004069,-0.030092462030402507,0.07017650699991435
1790097310846150656,8.604150878906257,0.08521319180727,-0.0087809292599558,0.1196497082710266
1790097310856150784,8.614150878906258,0.05797628277206,-0.003333547188654266,0.1632287603112753
1790097310866150656,8.624150878906256,0.027120071095340415,-0.00259414251365695,0.20269358715681973
1790097310876150784,8.634150878906258,0.004142833056429065,-0.022617090306469738,0.21383902380622602
1790097310886150656,8.644150878906256,-0.011215872543517491,-0.050159999825465734,0.19733055140792247
1790097310896150784,8.654150878906258,-0.01839534541506035,-0.08082726323595575,0.18242712015485907
1790097310906150656,8.66415087890626,-0.021237631610790463,-0.08365594414089694,0.1973907127131641
1790097310916150784,8.674150878906257,-0.0736070945858955,-0.1095707267522811,0.249760165810585
1790097310926150656,8.684150878906259,-0.07753793667700429,-0.12296470773701922,0.2568939208759974
1790097310936150784,8.694150878906257,-0.08863663167256686,-0.17729244733888996,0.28774005051881213
1790097310946150656,8.704150878906258,-0.08411201064529643,-0.20535323317511686,0.3200033726638294
1790097310956150784,8.714150878906256,-0.06902444116174059,-0.16094918429715838,0.40357980759549306
1790097310966150656,8.724150878906258,-0.0510057471692562,-0.0973537787795066,0.4855472147464752
1790097310976150784,8.73415087890626,-0.04336535251208828,-0.07542917357332604,0.5430162539160758
1790097310986150656,8.744150878906257,-0.03215272991356225,-0.05260383663200264,0.6610597038126029
1790097310996150784,8.754150878906259,-0.019658383263755554,-0.06231911553388422,0.7742569208167768
1790097311006150656,8.764150878906257,0.008129464663152555,-0.06509084748956488,0.8592269044269784
1790097311016150784,8.774150878906259,0.04424180123397632,-0.05509081275250118,0.910656499929415
1790097311026150656,8.784150878906257,0.10608727755751493,0.018828106221425327,0.9369632511488876
1790097311036150784,8.794150878906258,0.13633103741805658,0.028754519618255186,0.9334207958148028
1790097311046150656,8.804150878906256,0.1383569091558456,0.0284807533025741,0.9327637553215028
1790097311056150784,8.814150878906258,0.15381862378907385,0.008515939418109676,0.9256780422376717
1790097311066150656,8.82415087890626,0.1957765519618988,-0.0038941511884331,0.9510892033576964
1790097311076150784,8.834150878906257,0.2078748786481178,0.012930083855218252,0.966401145692189
1790097311086150656,8.844150878906259,0.2739650011062622,0.1048366576433181,1.050046443939209
1790097311096150784,8.854150878906257,0.28546795638097094,0.12716592400755028,1.0696691211830243
1790097311106150656,8.864150878906258,0.3293364123525529,0.19847640015169143,1.1467140262951847
1790097311116150784,8.874150878906256,0.3722760114961046,0.2176132176786128,1.2204210977042564
1790097311126150656,8.884150878906258,0.4217161433149751,0.1810825599626138,1.2600701205360318
1790097311136150784,8.89415087890626,0.47687761029073417,0.11026148218340795,1.2538935829521796
1790097311146150656,8.904150878906258,0.5227461353737559,0.03018195445282168,1.2238639327202374
1790097311156150784,8.91415087890626,0.5626567997236921,-0.03957840125809233,1.1971171304588384
1790097311166150656,8.924150878906257,0.6080026133160457,-0.0895389175453613,1.184765778763364
1790097311176150784,8.934150878906259,0.6598885899522908,-0.09742039967165494,1.1886803701648967
1790097311186150656,8.944150878906257,0.7499038521431728,-0.14410848319411013,1.2491230424294282
1790097311196150784,8.954150878906258,0.7663078904151917,-0.1541625708341598,1.2613996267318726
1790097311206150656,8.964150878906256,0.8115212079339557,-0.21270799941260377,1.3170467432463053
1790097311216150784,8.974150878906258,0.8202706793856196,-0.287459007938915,1.3735766256848132
1790097311226150656,8.98415087890626,0.8426563196167418,-0.43066256251423396,1.4135390330420983
1790097311236150784,8.994150878906257,0.8708483730600257,-0.5710776597567282,1.4301549398245306
1790097311246150656,9.004150878906259,0.9046686974362106,-0.6902700886515301,1.4300342250777516
1790097311256150784,9.014150878906257,0.9308564190617509,-0.7778276907870385,1.4218432953782483
1790097311266150656,9.024150878906259,0.9431008134726467,-0.8408395767715661,1.4064971789980771
1790097311276150784,9.034150878906257,0.9269775660067792,-0.8909379785791575,1.3879723318413424
1790097311286150656,9.044150878906258,0.8850333574716303,-0.9815018106208288,1.3826165535108959
1790097311296150784,9.05415087890626,0.8387481629105302,-1.0975011900755032,1.4055174463558588
1790097311306150656,9.064150878906258,0.771938225502275,-1.1505018909399687,1.440446922577884
1790097311316150784,9.07415087890626,0.7369872331619263,-1.1553412675857544,1.4544273614883425
1790097311326150656,9.084150878906257,0.6786596225946688,-1.1382595768117452,1.347354558200673
1790097311336150784,9.094150878906259,0.6514685750007629,-1.1302964687347412,1.2974395751953125
1790097311346150656,9.104150878906257,0.6185539308718015,-0.9441076508842839,1.2055732631032896
1790097311356150784,9.114150878906258,0.610541820526123,-0.898785412311554,1.183211088180542
1790097311366150656,9.124150878906256,0.5613092663831043,-0.6973279253269387,1.0060870239493174
1790097311376150784,9.134150878906258,0.5573981404304504,-0.681323766708374,0.9920159578323364
1790097311386150656,9.14415087890626,0.49617661445094835,-0.5817970737762466,0.8841879011530956
1790097311396150784,9.154150878906258,0.4153565303109128,-0.499638766458667,0.824110019701681
1790097311406150656,9.16415087890626,0.36680021069563684,-0.34359093063548923,0.751260765972556
1790097311416150784,9.174150878906257,0.3845283389091491,-0.0295497365295887,0.6352047920227051
1790097311426150656,9.184150878906259,0.37540076222233404,-0.00878896871163774,0.6285828177740098
1790097311436150784,9.194150878906257,0.3140111424737978,0.06509997233005078,0.5981122887286817
1790097311446150656,9.204150878906258,0.22952098018665984,0.16353278010624617,0.5311007949160707
1790097311456150784,9.21415087890626,0.2043855710642117,0.2910939005288687,0.42535741635428026
1790097311466150656,9.224150878906258,0.19441793892047984,0.3480907813178607,0.30529646026286716
1790097311476150784,9.23415087890626,0.18979786088055928,0.36226099752083607,0.18103093270008985
1790097311486150656,9.244150878906257,0.17292936399602774,0.4262275312722465,0.0015842407072851339
1790097311496150784,9.254150878906259,0.1652341783046722,0.4549284875392914,-0.0678803995251655
1790097311506150656,9.264150878906257,0.12416813101154761,0.48883185710887306,-0.11945171757489884
1790097311516150784,9.274150878906259,0.06379286995332797,0.49160591558275113,-0.1704045327744635
1790097311526150656,9.284150878906257,0.019885149956511403,0.44121597230173704,-0.23133311422554467
1790097311536150784,9.294150878906258,-0.016822796124338762,0.42832912539877377,-0.354978829804963
1790097311546150656,9.30415087890626,-0.1181989461183548,0.640626072883606,-0.6243622303009033
1790097311556150784,9.314150878906258,-0.12320444074399477,0.6509565597189814,-0.6296872264076161
1790097311566150656,9.32415087890626,-0.18241193473365264,0.7803256563416399,-0.6965880651844341
1790097311576150784,9.334150878906257,-0.24291846369796732,0.8949065741944289,-0.7727312015386957
1790097311586150656,9.344150878906259,-0.3432196013859301,0.8820698947047712,-0.8518202236146999
1790097311596150784,9.354150878906257,-0.4125323241325526,0.9286976010823511,-0.9820992869774796
1790097311606150656,9.364150878906258,-0.48235471547352926,0.9852536150498594,-1.1303703274038424
1790097311616150784,9.37415087890626,-0.5354076027870178,1.046839475631714,-1.2327661514282229
1790097311626150656,9.384150878906258,-0.5967710615718528,1.1556505305970786,-1.2717619772029405
1790097311636150784,9.39415087890626,-0.6545991897583008,1.2581926584243774,-1.3085111379623413
1790097311646150656,9.404150878906258,-0.7254186864839246,1.2959370808394124,-1.3318582581742797
1790097311656150784,9.41415087890626,-0.7657734155654907,1.3174448013305664,-1.345162034034729
1790097311666150656,9.424150878906257,-0.8357994714522059,1.2089275493987237,-1.45275181670725
1790097311676150784,9.434150878906259,-0.8580113053321838,1.1745065450668335,-1.4868786334991455
1790097311686150656,9.444150878906257,-0.9323108014438818,1.1131287187260934,-1.5369499462546419
1790097311696150784,9.454150878906258,-1.0131214979516927,1.0000894188966376,-1.5229615935463328
1790097311706150656,9.46415087890626,-1.0639170800013484,0.7713751719191448,-1.4658913780855252
1790097311716150784,9.474150878906258,-1.0768894282237316,0.6038061994313023,-1.4012331677972392
1790097311726150656,9.48415087890626,-1.055734743665032,0.5156927470084851,-1.335551414382084
1790097311736150784,9.494150878906257,-1.0119448900222778,0.4115583300590515,-1.2602542638778689
1790097311746150656,9.504150878906259,-1.0087643552259309,0.38957860529364535,-1.2519242967183342
1790097311756150784,9.514150878906257,-0.9974181234970878,0.29421576430880875,-1.2117446409828296
1790097311766150656,9.524150878906259,-0.9798278838362503,0.20383381257866176,-1.1668701238639057
1790097311776150784,9.53415087890626,-0.9366026406463536,0.16526029767157804,-1.159100604132696
1790097311786150656,9.544150878906258,-0.8925007863381924,0.1819725476352562,-1.1939819831439826
1790097311796150784,9.55415087890626,-0.8738933801651001,0.1909661293029785,-1.2138298749923706
1790097311806150656,9.564150878906258,-0.8479937382276169,0.19697183965973536,-1.2288441325711552
1790097311816150784,9.57415087890626,-0.831744909286499,0.2007396817207336,-1.238263726234436
1790097311826150656,9.584150878906257,-0.8024945307316844,0.21063980511818872,-1.2261136007390359
1790097311836150784,9.594150878906259,-0.7394089085327142,0.23610787065771494,-1.210562413439552
1790097311846150656,9.604150878906257,-0.5303182832931459,0.23432172246747182,-1.1893595949935036
1790097311856150784,9.614150878906258,-0.4234067127959093,0.20164543425245546,-1.1644257664763664
1790097311866150656,9.62415087890626,-0.4169032573699951,0.1989071369171142,-1.1625187397003174
1790097311876150784,9.634150878906258,-0.3674246370792389,0.065131589770317,-1.048901081085205
1790097311886150656,9.64415087890626,-0.3681184487922168,0.04545256985573221,-1.0359078832719197
1790097311896150784,9.654150878906258,-0.36782028545617235,-0.14010761630357868,-0.9222635556905918
1790097311906150656,9.66415087890626,-0.32271653606160094,-0.21119389562915877,-0.9236879022058275
1790097311916150784,9.674150878906257,-0.2610893434986402,-0.1822136975035001,-0.943488748822398
1790097311926150656,9.684150878906259,-0.20818606966929254,-0.11572132452688605,-0.9386610330111392
1790097311936150784,9.69415087890626,-0.1890572309494018,-0.0710873529314994,-0.9255099296569824
1790097311946150656,9.704150878906258,-0.1930749459397647,-0.06879151029362898,-0.9114479236903813
1790097311956150784,9.71415087890626,-0.1794486502560737,-0.16511010834053352,-0.8582846985450384
1790097311966150656,9.724150878906258,-0.11711688539371928,-0.29662415487239907,-0.7956798568697147
1790097311976150784,9.73415087890626,-0.03415097603551109,-0.34857422664441845,-0.7481147324768876
1790097311986150656,9.744150878906257,-0.0070247435942292,-0.3600181043148041,-0.7337039113044739
1790097311996150784,9.754150878906259,0.08153092301075832,-0.4130567959796947,-0.6967662382479903
1790097312006150656,9.764150878906257,0.1072036921977996,-0.4284330010414123,-0.6860578060150146
1790097312016150784,9.774150878906259,0.09459511440020582,-0.4563911477399749,-0.6729010594171396
1790097312026150656,9.78415087890626,0.07617390295707213,-0.47246781739759797,-0.6509040376873688
1790097312036150784,9.794150878906258,0.0326803289353847,-0.4850741752685636,-0.5611452894981758
1790097312046150656,9.80415087890626,0.03302548709645585,-0.5029424816195002,-0.47641082629986964
1790097312056150784,9.814150878906258,0.0369562581181526,-0.4540885686874389,-0.3775799572467804
1790097312066150656,9.82415087890626,0.03844367343981117,-0.425331881035851,-0.3508064859924731
1790097312076150784,9.834150878906257,0.04041607057981743,-0.27173329108997324,-0.20628833913374847
1790097312086150656,9.844150878906259,0.020094330202968785,-0.14970105877694015,-0.03086077996204746
1790097312096150784,9.85415087890626,0.004787486359121875,-0.1329766193928431,0.12470796089698032
1790097312106150656,9.864150878906258,0.014916956112717802,-0.11227572185526466,0.16819346748909866
1790097312116150784,9.87415087890626,0.0186308417469263,-0.0839151442050933,0.1843995153903961
1790097312126150656,9.884150878906258,0.025935848060783657,-0.059217265866915766,0.19100880605956577
1790097312136150784,9.89415087890626,0.03646594662065451,-0.04940407491500289,0.1952352620193004
1790097312146150656,9.904150878906258,0.029682347523760873,-0.08205641200366698,0.19943132132298586
1790097312156150784,9.91415087890626,0.004199135783841096,-0.06441222615569323,0.2893259824809508
1790097312166150656,9.924150878906257,-0.01120004504432887,-0.024269461598984778,0.3678882040580072
1790097312176150784,9.934150878906259,-0.0131332157179713,-0.0173327904194593,0.3792597949504852
1790097312186150656,9.94415087890626,-0.024568443509307647,-0.004754040284854648,0.39469735007152995
1790097312196150784,9.954150878906258,-0.036922883936366696,0.01133311665318457,0.3841799453411487
1790097312206150656,9.96415087890626,-0.03711124032676606,0.04119916878170992,0.4014746453391782
1790097312216150784,9.974150878906258,-0.017739287881326022,0.10317329565758433,0.5680711486848353
1790097312226150656,9.98415087890626,-0.0021379655227065,0.1359898746013641,0.676742434501648
1790097312236150784,9.994150878906257,0.002139927439251103,0.1373174951668674,0.7058210381603464
1790097312246150656,10.004150878906259,0.020751898099560726,0.13520320981707362,0.8287619304396691
1790097312256150784,10.01415087890626,0.040677754912214883,0.07473348705117704,0.9429305924458412
1790097312266150656,10.024150878906259,0.0546708293259143,-0.0057266931980848,1.0152281522750854
1790097312276150784,10.03415087890626,0.0677293079666769,-0.013146282964663978,1.0217573635411896
1790097312286150656,10.044150878906258,0.0815481096506118,-0.0209978744387626,1.0286667346954346
1790097312296150784,10.05415087890626,0.11757555175554264,-0.0076268658566599895,1.0320095286216089
1790097312306150656,10.064150878906258,0.1408002972602844,0.0009926267666742,1.0341644287109375
1790097312316150784,10.07415087890626,0.19432673518340593,-0.0395982530184504,1.101964577610281
1790097312326150656,10.084150878906257,0.2141019701957702,-0.0545944720506668,1.1270132064819336
1790097312336150784,10.094150878906259,0.30209741262255496,0.018821840081098724,1.2655148982410485
1790097312346150656,10.10415087890626,0.3173351585865021,0.0315349884331226,1.2894985675811768
1790097312356150784,10.114150878906258,0.3917506157443158,0.03391628587953283,1.3877269628969047
1790097312366150656,10.12415087890626,0.4169032573699951,0.0187071971595287,1.3847907781600952
1790097312376150784,10.134150878906258,0.4190906723276727,0.016283303608250733,1.3826033603180727
1790097312386150656,10.14415087890626,0.4427833997721118,-0.012702277392914033,1.3604535719004298
1790097312396150784,10.154150878906258,0.48341428773655787,-0.057889492783009505,1.3570796850308324
1790097312406150656,10.16415087890626,0.5659499764442444,-0.0979646295309066,1.378071427345276
1790097312416150784,10.17415087890626,0.5876224757733179,-0.1021324184499788,1.3841146959875021
1790097312426150656,10.184150878906259,0.6530661825127404,-0.1300840321795077,1.3987344444602623
1790097312436150784,10.19415087890626,0.7249136385563527,-0.1978695710134532,1.3960402962099094
1790097312446150656,10.204150878906258,0.7873910324887995,-0.25397737862584024,1.3849618336764118
1790097312456150784,10.21415087890626,0.8261463703019344,-0.2740250785504397,1.3902158195210064
1790097312466150656,10.224150878906258,0.8562356125477575,-0.28653270750369997,1.396970917954909
1790097312476150784,10.23415087890626,0.8776233530753161,-0.3049012427672767,1.3876755470797317
1790097312486150656,10.244150878906257,0.8919023931486695,-0.3656257738286876,1.3849778980901484
1790097312496150784,10.254150878906259,0.8945857882499695,-0.3820086121559143,1.3854016065597534
1790097312506150656,10.26415087890626,0.8793465857289181,-0.5681451320508564,1.4207784025652634
1790097312516150784,10.274150878906259,0.8361893745055808,-0.8421641728589531,1.4786127436788765
1790097312526150656,10.28415087890626,0.7430956959724426,-1.2689588069915771,1.504516839981079
1790097312536150784,10.294150878906258,0.7412356040751306,-1.2743122447995774,1.5010234896435086
1790097312546150656,10.30415087890626,0.7204487851804503,-1.3314474931741695,1.4469806638017235
1790097312556150784,10.314150878906258,0.7430859961599683,-1.1949355162024125,1.3603426405416945
1790097312566150656,10.32415087890626,0.7730271816253662,-0.8871793150901794,1.2803359031677246
1790097312576150784,10.33415087890626,0.7488920573439729,-0.8930184497906849,1.2688522279079903
1790097312586150656,10.344150878906259,0.6972821354866028,-0.9055047035217284,1.2442958354949951
1790097312596150784,10.35415087890626,0.6068060485075434,-0.888809699708051,1.1589359559717454
1790097312606150656,10.364150878906258,0.4920374751091003,-0.8676321506500244,1.0506572723388672
1790097312616150784,10.37415087890626,0.402277443461885,-0.7125295859363325,0.956770352520711
1790097312626150656,10.384150878906258,0.3326063454151153,-0.5921400785446167,0.883895993232727
1790097312636150784,10.39415087890626,0.28656571519367013,-0.5243347886203502,0.8767805989742983
1790097312646150656,10.404150878906258,0.20204794585225933,-0.288955437808577,0.7376069138872757
1790097312656150784,10.41415087890626,0.1805053651332855,-0.2195232361555099,0.6914027333259583
1790097312666150656,10.42415087890626,0.15132744210542814,-0.08530480963936948,0.6049300243316489
1790097312676150784,10.434150878906259,0.1276028412624904,0.10082490092687285,0.5134753264587462
1790097312686150656,10.44415087890626,-0.016066698453486794,0.17148144812348948,0.3695670172843249
1790097312696150784,10.454150878906258,-0.01832603566818447,0.1748121342791177,0.3605184321764719
1790097312706150656,10.46415087890626,-0.03491692596844689,0.23398713556692208,0.2000646905405346
1790097312716150784,10.474150878906258,-0.033609907654151644,0.3394986796761337,0.002760741297211357
1790097312726150656,10.48415087890626,-0.0351237170398235,0.534338653087616,-0.2419718652963638
1790097312736150784,10.494150878906261,-0.0354854906451024,0.5692498181316787,-0.2929819634973869
1790097312746150656,10.504150878906259,-0.04463702812069111,0.6659787983717054,-0.44608806243213606
1790097312756150784,10.51415087890626,-0.0595576092600822,0.6907155513763428,-0.503414511680603
1790097312766150656,10.524150878906259,-0.08503498077902735,0.7132644796982145,-0.5455839394146619
1790097312776150784,10.53415087890626,-0.14637820011398273,0.7516177089834524,-0.6385901695796367
1790097312786150656,10.544150878906258,-0.23527393146476633,0.8317570215346709,-0.8110192924345133
1790097312796150784,10.55415087890626,-0.275186687707901,0.8770239353179932,-0.8986326456069946
1790097312806150656,10.564150878906258,-0.3574197869969767,0.9243300756323598,-1.0348035972031289
1790097312816150784,10.57415087890626,-0.3888042867183685,0.9423846006393432,-1.0867736339569092
1790097312826150656,10.58415087890626,-0.4725166315732977,1.0586518050971223,-1.2867531328473891
1790097312836150784,10.594150878906259,-0.487761527299881,1.0798252820968628,-1.3231714963912964
1790097312846150656,10.60415087890626,-0.6061121496607181,1.318744203975549,-1.4148359856614674
1790097312856150784,10.614150878906258,-0.613491041206228,1.3286084739377502,-1.417960069363156
1790097312866150656,10.62415087890626,-0.7291225790977478,1.3950223922729492,-1.4215179681777954
1790097312876150784,10.634150878906258,-0.748916005065869,1.3941899658509378,-1.4381666410205514
1790097312886150656,10.64415087890626,-0.8598438501358032,1.3895248174667358,-1.5314704179763794
1790097312896150784,10.654150878906261,-0.8762231396150905,1.3614460215234505,-1.5261220805515416
1790097312906150656,10.66415087890626,-0.9432185470122815,1.1891757326477725,-1.478802533947858
1790097312916150784,10.67415087890626,-0.9899543523788452,0.9949174523353576,-1.412966012954712
1790097312926150656,10.684150878906259,-1.0089326281262834,0.9123062096670739,-1.3699858498926947
1790097312936150784,10.69415087890626,-1.030542745462852,0.7460794886690895,-1.3049737273253696
1790097312946150656,10.704150878906258,-1.029659390449524,0.682774543762207,-1.2920182943344116
1790097312956150784,10.71415087890626,-1.0280952671797665,0.597136123767457,-1.2838064182274254
1790097312966150656,10.724150878906258,-0.9822380197374424,0.4054441123830218,-1.2607709518350099
1790097312976150784,10.73415087890626,-0.9104557037352853,0.2758344697149103,-1.2664287172385071
1790097312986150656,10.744150878906261,-0.8417404269493225,0.20620727582444418,-1.3229495416706893
1790097312996150784,10.754150878906259,-0.8305231928825378,0.195852905511856,-1.3341667652130127
1790097313006150656,10.76415087890626,-0.7606297149218014,0.17505814079176085,-1.4011720587050567
1790097313016150784,10.774150878906259,-0.7358418703079224,0.1036149635910987,-1.389142990112305
1790097313026150656,10.78415087890626,-0.7339361911424759,0.09628223313074818,-1.3858701934604472
1790097313036150784,10.794150878906258,-0.7036482657932859,-0.011040705341482755,-1.3338779500999047
1790097313046150656,10.80415087890626,-0.6613542971791019,-0.0488215943143912,-1.2799048562699589
1790097313056150784,10.814150878906261,-0.5990120768547058,-0.0216087214648723,-1.2517024278640747
1790097313066150656,10.82415087890626,-0.5896678891544692,0.001275025896789881,-1.2547535744857825
1790097313076150784,10.83415087890626,-0.561983547460262,0.07130244166520007,-1.2617039309984386
1790097313086150656,10.844150878906259,-0.5405159487880487,0.062037714481254,-1.2344920407538416
1790097313096150784,10.85415087890626,-0.5144583725184073,-0.03224293438617454,-1.1794919627727973
1790097313106150656,10.864150878906258,-0.4710121176309192,-0.0944069610344129,-1.1471565258600962
1790097313116150784,10.87415087890626,-0.4474456310272217,-0.1120141148567199,-1.136863112449646
1790097313126150656,10.884150878906258,-0.411374465701859,-0.11118489342098502,-1.1082549552170797
1790097313136150784,10.89415087890626,-0.3513690730084569,-0.13790788181436373,-1.049974093146345
1790097313146150656,10.904150878906261,-0.31425513692110346,-0.16701328067448082,-0.9828694140455466
1790097313156150784,10.91415087890626,-0.2629719334996858,-0.19030699969686402,-0.8911166928090469
1790097313166150656,10.92415087890626,-0.21165686734214226,-0.19156516361150513,-0.8333642560671393
1790097313176150784,10.934150878906259,-0.2079934924840927,-0.1914242655038833,-0.8296069502830505
1790097313186150656,10.94415087890626,-0.1648170712521395,-0.21014303133536116,-0.7640069737195107
1790097313196150784,10.954150878906258,-0.17065400163499786,-0.18014311850222534,-0.6872008252091373
1790097313206150656,10.96415087890626,-0.1745479492529021,-0.1918751245836989,-0.6076837872958607
1790097313216150784,10.974150878906261,-0.11240470322937915,-0.23201946664509354,-0.5101513711177296
1790097313226150656,10.98415087890626,-0.07115440280851354,-0.21133755101982193,-0.4536988230098364
1790097313236150784,10.994150878906261,-0.03175014693574098,-0.194040704802459,-0.3841797754891017
1790097313246150656,11.004150878906259,-0.0198525357991457,-0.1853157877922058,-0.3342097997665405
1790097313256150784,11.01415087890626,-0.02245266380825731,-0.20091655408498166,-0.297519108148525
1790097313266150656,11.024150878906259,-0.07395644544731228,-0.2062315161616536,-0.15615747019750856
1790097313276150784,11.03415087890626,-0.11091344767130391,-0.17570602606356348,0.0020336147759366235
1790097313286150656,11.044150878906258,-0.09437635867484516,-0.11881133965369248,0.11575320118618203
1790097313296150784,11.05415087890626,-0.0876565799117088,-0.0961320847272872,0.1501920670270919
1790097313306150656,11.064150878906261,-0.08242608956731856,-0.046204687175796,0.1986929680028024
1790097313316150784,11.07415087890626,-0.07632203843834182,-0.024813886377544864,0.2212161399796489
1790097313326150656,11.08415087890626,-0.08754245258983126,-0.04819702706669742,0.21628136218885852
1790097313336150784,11.094150878906259,-0.08476617664363138,-0.05739126632391298,0.23963789119689674
1790097313346150656,11.10415087890626,-0.08435169898567395,-0.05809430992245152,0.2430761014640006
1790097313356150784,11.114150878906258,-0.0736070945858955,-0.0771958231925964,0.3493282794952392
1790097313366150656,11.12415087890626,-0.07316432054798458,-0.08516574939431372,0.35667832009967754
1790097313376150784,11.134150878906262,-0.06929403802819374,-0.1397249871761812,0.41236500447208024
1790097313386150656,11.14415087890626,-0.061017282950823114,-0.1738819699862235,0.4812702199078422
1790097313396150784,11.154150878906261,-0.0502130310152669,-0.18755866826842046,0.6086871928518964
1790097313406150656,11.16415087890626,-0.035924887140811476,-0.17953781311386427,0.7891803342198684
1790097313416150784,11.17415087890626,-0.0180199947208166,-0.1676012128591537,0.8515210747718811
1790097313426150656,11.184150878906259,0.003227654020021651,-0.14260398151246037,0.8965161079651205
1790097313436150784,11.19415087890626,0.07773336088205315,-0.059970568858280275,1.000694413273809
1790097313446150656,11.204150878906258,0.1181989461183548,-0.0161110963672399,1.0463813543319702
1790097313456150784,11.21415087890626,0.15172827668354943,0.05476736173594368,1.0951898572581609
1790097313466150656,11.224150878906261,0.1664558798074722,0.0859003961086273,1.1166287660598757
1790097313476150784,11.23415087890626,0.1894127264550053,0.09837694293502047,1.1460734854763739
1790097313486150656,11.244150878906261,0.21922825363014709,0.06469784564653237,1.1843151239019845
1790097313496150784,11.254150878906259,0.24847062816176846,-0.004047492308321722,1.2105096396175727
1790097313506150656,11.26415087890626,0.3057290613651275,-0.0979646295309066,1.29499614238739
1790097313516150784,11.274150878906259,0.3062164000273268,-0.09871438212787077,1.2998695363252426
1790097313526150656,11.28415087890626,0.3136700689792633,-0.1101815775036811,1.374406337738037
1790097313536150784,11.294150878906262,0.3300407037571981,-0.1043509391855238,1.3732850520909599
1790097313546150656,11.30415087890626,0.4028537571430206,-0.0784175172448158,1.368297815322876
1790097313556150784,11.314150878906261,0.43180119429731545,-0.10997956070009135,1.372406502868434
1790097313566150656,11.32415087890626,0.5096352480435061,-0.19016562456796826,1.3960774409944612
1790097313576150784,11.33415087890626,0.5503873006061919,-0.19414547380331343,1.4372989659692514
1790097313586150656,11.344150878906259,0.605920527033719,-0.17085674348582963,1.4712626548587153
1790097313596150784,11.35415087890626,0.6361974477767944,-0.1614927500486374,1.483747959136963
1790097313606150656,11.364150878906258,0.6843604821071493,-0.19696167106846907,1.4897217066644703
1790097313616150784,11.37415087890626,0.7523677320988891,-0.2589476126331763,1.5005029167920814
1790097313626150656,11.384150878906262,0.8494290404262834,-0.38030495590702407,1.529441077383997
1790097313636150784,11.39415087890626,0.917888393610847,-0.48732243929691293,1.557166094369376
1790097313646150656,11.404150878906261,0.9281824231147766,-0.505399763584137,1.5619364976882937
1790097313656150784,11.41415087890626,0.9505800145919396,-0.621867435959786,1.5529773955326278
1790097313666150656,11.42415087890626,0.9257391512722539,-0.831346797037254,1.542009264390533
1790097313676150784,11.434150878906259,0.8823262351478187,-1.1461257910361766,1.5670493875388471
1790097313686150656,11.44415087890626,0.8330140790570394,-1.4310084409427795,1.6041452368827378
1790097313696150784,11.454150878906262,0.8085911336493389,-1.551143586714276,1.6144121894656958
1790097313706150656,11.46415087890626,0.8231829115315779,-1.4701459701983228,1.6036791733389344
1790097313716150784,11.474150878906261,0.8437511875408478,-1.2727063211921865,1.575064711294465
1790097313726150656,11.48415087890626,0.858586107452707,-1.100460941141797,1.5181119104488823
1790097313736150784,11.494150878906261,0.8609892129898071,-1.0576056241989136,1.4788612127304075
1790097313746150656,11.504150878906259,0.8114056718341602,-1.051051513270795,1.3680106234062646
1790097313756150784,11.51415087890626,0.7547017931938171,-1.0435562133789062,1.2412415742874146
1790097313766150656,11.524150878906259,0.7144259213381544,-0.9799059829367056,1.1430691980454388
1790097313776150784,11.53415087890626,0.6203982703339193,-0.8715322267917979,0.98715805581359
1790097313786150656,11.544150878906262,0.4502740476692363,-0.649935416352323,0.9114345560730609
1790097313796150784,11.55415087890626,0.3955236077308655,-0.5738146305084229,0.8997780084609985
1790097313806150656,11.564150878906261,0.3604111646834571,-0.40232347029680643,0.8967247482260429
1790097313816150784,11.57415087890626,0.33316613934728323,-0.20355609589397747,0.8136383045719909
1790097313826150656,11.58415087890626,0.250831813486303,-0.2634525591047506,0.7366974735403596
1790097313836150784,11.594150878906259,0.2428117841482162,-0.0912453085184097,0.4733302593231201
1790097313846150656,11.60415087890626,0.23585888276768557,-0.08665733956257599,0.4513836863757801
1790097313856150784,11.614150878906262,0.1530172377824783,-0.0319931246340274,0.189897134900093
1790097313866150656,11.62415087890626,0.13814036440777233,-0.010409465276945841,0.15868009120273663
1790097313876150784,11.634150878906262,0.06097580628753056,0.10718159076532907,-0.004700989885847176
1790097313886150656,11.64415087890626,-0.002459490716024528,0.23829172016453712,-0.15377387285152733
1790097313896150784,11.654150878906261,-0.05157386844908534,0.3617925802815608,-0.3075928141415509
1790097313906150656,11.66415087890626,-0.0839914977550506,0.4146125912666321,-0.4172850251197815
1790097313916150784,11.67415087890626,-0.08522559800561663,0.46274250856494725,-0.5243432688953871
1790097313926150656,11.684150878906259,-0.0864348858594894,0.5099047422409058,-0.6292490363121033
1790097313936150784,11.69415087890626,-0.10061210767576015,0.5424740358552331,-0.6832757548134126
1790097313946150656,11.704150878906262,-0.13636825077109202,0.590840759169242,-0.7633146719934469
1790097313956150784,11.71415087890626,-0.23160296816976916,0.6566221257431847,-0.9118254524429136
1790097313966150656,11.724150878906261,-0.2593046724796295,0.6742226481437683,-0.9542197585105896
1790097313976150784,11.73415087890626,-0.3466245098698081,0.8020078089780958,-1.1863628491830895
1790097313986150656,11.744150878906261,-0.3594835996627807,0.82082599401474,-1.22054922580719
1790097313996150784,11.754150878906259,-0.4056217893560958,0.9124952518170713,-1.3152537953452486
1790097314006150656,11.76415087890626,-0.47431458366014345,0.991478927996986,-1.3833351523693902
1790097314016150784,11.774150878906262,-0.5446910725873543,1.0597922313022632,-1.451413079315813
1790097314026150656,11.78415087890626,-0.6114090178925846,1.0648585472796623,-1.549506634648404
1790097314036150784,11.794150878906262,-0.6905373192908082,1.0602285858912757,-1.6538209454469688
1790097314046150656,11.80415087890626,-0.7957049012184143,1.122584581375122,-1.7012859582901
1790097314056150784,11.814150878906261,-0.8155181251451902,1.1091556110923158,-1.6682639255725622
1790097314066150656,11.82415087890626,-0.8640691131750544,1.0544276126498418,-1.5800509053766585
1790097314076150784,11.83415087890626,-0.9095644133862802,0.9574880247367756,-1.5317473102681756
1790097314086150656,11.844150878906259,-0.9386431574821472,0.8990144729614258,-1.5235294103622437
1790097314096150784,11.85415087890626,-0.9574839000022717,0.8465559187074904,-1.5227905803324493
1790097314106150656,11.864150878906262,-1.0019284794143615,0.7219788041538818,-1.5072585213070748
1790097314116150784,11.87415087890626,-1.0469168737909056,0.5620997392732107,-1.4686225115308982
1790097314126150656,11.884150878906262,-1.0669044241819634,0.40594472489704775,-1.4213254336624386
1790097314136150784,11.89415087890626,-1.045504241396563,0.27430696190989334,-1.390477691838476
1790097314146150656,11.904150878906261,-0.9434091960786916,0.11399030267396451,-1.3922596320467906
1790097314156150784,11.91415087890626,-0.933756411075592,0.0999498814344406,-1.3928080797195437
1790097314166150656,11.92415087890626,-0.8262472748756409,0.0455844774842262,-1.3237823247909546
1790097314176150784,11.934150878906262,-0.8197349681086711,0.03524476184080565,-1.323153952527955
1790097314186150656,11.94415087890626,-0.7449946868981443,-0.07527273358841499,-1.3171575293257591
1790097314196150784,11.954150878906262,-0.6651387298598097,-0.13511864668585338,-1.311481373948885
1790097314206150656,11.96415087890626,-0.5877875945729947,-0.1487304357241779,-1.2769592195358161
1790097314216150784,11.974150878906261,-0.5219168493314159,-0.13997132360833192,-1.2272247052378522
1790097314226150656,11.98415087890626,-0.47057216462968166,-0.09570450263587803,-1.1612523116167122
1790097314236150784,11.994150878906261,-0.43691284051349377,-0.056719739377827594,-1.0837758641974584
1790097314246150656,12.004150878906259,-0.40998515754149767,-0.0795035012100468,-1.0321577323556859
1790097314256150784,12.01415087890626,-0.35981028973909956,-0.09980511437398354,-1.0295390900500447
1790097314266150656,12.024150878906262,-0.31942015947141206,-0.10813932864123131,-1.0323613649834837
1790097314276150784,12.03415087890626,-0.3124483823776245,-0.1144575029611587,-1.029964804649353
1790097314286150656,12.044150878906262,-0.2960811891316734,-0.14625662713433635,-1.015935847053313
1790097314296150784,12.05415087890626,-0.2547131590675028,-0.21052846382667403,-0.9833628637779291
1790097314306150656,12.064150878906261,-0.1841851796528683,-0.26697445867574426,-0.9400157810510812
1790097314316150784,12.07415087890626,-0.03828973545159153,-0.37177488781300194,-0.8286410387725632
1790097314326150656,12.08415087890626,-0.030496275468464316,-0.37724304628077554,-0.8222391230591292
1790097314336150784,12.094150878906262,0.005058309482504709,-0.38691062841898116,-0.7524972308243503
1790097314346150656,12.10415087890626,0.010090326364010213,-0.3581168521465654,-0.6787610855476378
1790097314356150784,12.114150878906262,0.003790205834814751,-0.38705602094624525,-0.6170102293660805
1790097314366150656,12.12415087890626,0.03507611961447877,-0.43624116217211734,-0.559795996231611
1790097314376150784,12.134150878906262,0.1214256221776313,-0.47728563932057616,-0.5027199457683983
1790097314386150656,12.14415087890626,0.1536280810832977,-0.50112384557724,-0.4826456904411316
1790097314396150784,12.154150878906261,0.160844834751789,-0.5027275454314956,-0.46206457136552315
1790097314406150656,12.16415087890626,0.16768414928985978,-0.4728058014460221,-0.3981445463207772
1790097314416150784,12.17415087890626,0.12557211936050244,-0.2956782586213019,-0.22576198754542837
1790097314426150656,12.184150878906262,0.0943759009242057,-0.181650698184967,-0.1198024153709411
1790097314436150784,12.19415087890626,0.061884434541138664,-0.1291644885346906,-0.04148965323075064
1790097314446150656,12.204150878906262,0.06306916556555996,-0.10059911202532318,0.05903264862511111
1790097314456150784,12.21415087890626,0.08100024397207178,-0.0834680166646278,0.12193568500784481
1790097314466150656,12.224150878906261,0.08452001452221392,-0.08439583641611129,0.1667485620355465
1790097314476150784,12.23415087890626,0.08290481982732076,-0.10777051486972025,0.21575239941388746
1790097314486150656,12.244150878906261,0.10327659909158135,-0.1361089377423721,0.3681936385177553
1790097314496150784,12.254150878906263,0.10410144652627273,-0.13461138598793573,0.3755476990872859
1790097314506150656,12.26415087890626,0.115144707262516,-0.098575472831726,0.482492983341217
1790097314516150784,12.274150878906262,0.11900254503215105,-0.0966986871990846,0.49114705106093565
1790097314526150656,12.28415087890626,0.14086079967668277,-0.09918974134585533,0.5477759805756452
1790097314536150784,12.294150878906262,0.1551204420033203,-0.15305489615222312,0.6181149949716783
1790097314546150656,12.30415087890626,0.17392090109881458,-0.18285100268800306,0.6984888248404647
1790097314556150784,12.314150878906261,0.20863728865490058,-0.13774176503671462,0.7771463503301617
1790097314566150656,12.32415087890626,0.26884187131928233,-0.03345370431927402,0.8822022423795686
1790097314576150784,12.33415087890626,0.3075616061687469,0.0321458354592323,0.952921748161316
1790097314586150656,12.344150878906262,0.3181608806378813,0.05626833617085175,0.9956843271928956
1790097314596150784,12.35415087890626,0.34823610647087516,0.09260205592787549,1.1029379973202345
1790097314606150656,12.364150878906262,0.3741782780500096,0.07219575021456556,1.1672725449862094
1790097314616150784,12.37415087890626,0.3796415627002716,0.0602448098361492,1.1764918565750122
1790097314626150656,12.384150878906262,0.3858188827139331,0.023695728163372655,1.1903907763754693
1790097314636150784,12.39415087890626,0.3958049794948187,-0.02342700552882575,1.2040262337105103
1790097314646150656,12.404150878906261,0.4185532622510747,-0.0312536231988096,1.2411553625066407
1790097314656150784,12.414150878906263,0.5500679612159729,0.0810136198997497,1.4025052785873413
1790097314666150656,12.42415087890626,0.5578351181625966,0.08303520883629745,1.4091552449265476
1790097314676150784,12.434150878906262,0.647577755602783,0.0983432380937614,1.4860108136383994
1790097314686150656,12.44415087890626,0.6985175520153258,0.046113001818607335,1.5289078418190927
1790097314696150784,12.454150878906262,0.7109357276241913,-0.038305446336392185,1.5287334122877834
