time,seconds_elapsed,z,y,x
1789115843908984000,0.217984130859375,-0.2486148327589035,-0.04703523963689804,0.2858765125274658
1789115843946685400,0.255685546875,-0.1832541823387146,0.17836740612983704,-0.05497625470161438
1789115843965536000,0.274535888671875,-0.06780404597520828,-0.21501824259757996,-0.10811996459960938
1789115843993812000,0.30281201171875,0.3365768492221832,-0.30908870697021484,0.20219044387340546
1789115844012662500,0.32166259765625,0.3939964771270752,0.22479179501533508,0.33474430441856384
1789115844031513300,0.340513427734375,0.24494975805282593,0.6132906675338745,0.19302773475646973
1789115844050364000,0.359364013671875,-0.04947862774133682,0.08185353130102158,-0.07207997888326645
1789115844069214500,0.37821435546875,-0.25777754187583923,-0.2516690790653229,-0.21501824259757996
1789115844097490400,0.406490478515625,0.1313321590423584,0.8496885299682617,-0.3927747905254364
1789115844116341200,0.42534130859375,0.5534276366233826,1.5039823055267334,-0.41537612676620483
1789115844135191800,0.44419189453125,0.6615476012229919,1.1899304389953613,-0.41354358196258545
1789115844154042400,0.46304248046875,0.4581354558467865,0.5485408306121826,-0.3017585575580597
1789115844172893200,0.48189306640625,0.21746163070201874,0.15393351018428802,-0.01588202826678753
1789115844191743700,0.50074365234375,-0.12644538283348083,-0.2626643180847168,0.3298575282096863
1789115844210594300,0.51959423828125,-0.29626092314720154,-0.4886777997016907,0.5204418897628784
1789115844229444900,0.53844482421875,-0.17958909273147583,-0.18142163753509521,0.4092676639556885
1789115844248295700,0.557295654296875,-0.06719319522380829,0.25533416867256165,0.04581354558467865
1789115844267146200,0.576146240234375,-0.15332266688346863,0.20646637678146362,-0.38544461131095886
1789115844285997000,0.5949970703125,-0.21257483959197998,0.11361759155988693,-0.5155550837516785
1789115844304847600,0.61384765625,-0.13560809195041656,0.23884128034114838,-0.418430358171463
1789115844323698200,0.6326982421875,-0.047646086663007736,0.26755109429359436,-0.3365768492221832
1789115844342549000,0.651549072265625,-0.09956810623407364,0.21501824259757996,-0.31886225938796997
1789115844361399600,0.670399658203125,-0.17286977171897888,0.1582094430923462,-0.3286358118057251
1789115844380250400,0.68925048828125,-0.1710372269153595,0.12400199472904205,-0.09834641218185425
1789115844399101000,0.708100830078125,-0.037261683493852615,0.08063183724880219,0.1985253542661667
1789115844417951500,0.726951416015625,0.0910162404179573,-0.06902574002742767,0.24556060135364532
1789115844436802300,0.74580224609375,0.025655584409832954,-0.13927318155765533,0.15454435348510742
1789115844455652900,0.76465283203125,-0.045202698558568954,-0.05375456064939499,0.10811996459960938
1789115844474503700,0.783503662109375,-0.08368607610464096,0.07391251623630524,0.09040539711713791
1789115844493354200,0.802354248046875,-0.129499614238739,0.13377554714679718,0.10262233763933182
1789115844512205000,0.821205078125,-0.13988402485847473,0.1710372269153595,0.06719319522380829
1789115844531055600,0.8400556640625,-0.05864133685827255,-0.3384093940258026,0.06413896381855011
1789115844549906400,0.858906494140625,0.17409147322177887,-1.1581664085388184,0.18814095854759216
1789115844568757000,0.877757080078125,0.15943112969398499,-1.2846118211746216,0.18630841374397278
1789115844587607800,0.89660791015625,0.04214845970273018,-0.9181034564971924,0.1979145109653473
1789115844606458400,0.915458251953125,0.007330167107284069,-0.6218425035476685,0.0794101431965828
1789115844625309200,0.93430908203125,-0.05619794875383377,-0.6468872427940369,-0.05986303091049194
1789115844644159700,0.95315966796875,-0.1056765764951706,-0.6646018028259277,-0.16065283119678497
1789115844663010600,0.972010498046875,-0.129499614238739,-0.32374903559684753,-0.19180603325366974
1789115844681861000,0.990861083984375,-0.1453816443681717,-0.01832541823387146,-0.0397050715982914
1789115844700712000,1.0097119140625,-0.15454435348510742,0.31092125177383423,0.20035789906978607
1789115844719562500,1.0285625,-0.2101314514875412,0.6395570635795593,0.23945212364196777
1789115844738413300,1.047413330078125,-0.33413344621658325,0.46668729186058044,0.09468132257461548
1789115844757264100,1.06626416015625,-0.45202696323394775,-0.18569757044315338,-0.12339114397764206
1789115844776114700,1.08511474609375,-0.35795649886131287,-0.8044858574867249,-0.22479179501533508
1789115844794965500,1.103965576171875,-0.42392799258232117,-1.0567657947540283,-0.17531315982341766
1789115844813816000,1.122816162109375,-0.5876350402832031,-0.8075400590896606,-0.25472331047058105
1789115844832667000,1.1416669921875,-0.6022953987121582,-0.2883199155330658,-0.4330907166004181
1789115844851517400,1.160517333984375,-0.517998456954956,-0.07085828483104706,-0.5216635465621948
1789115844870368300,1.1793681640625,-0.3054236173629761,-0.21501824259757996,-0.2864873707294464
1789115844889219000,1.198218994140625,-0.11117420345544815,-0.4086568057537079,0.2498365342617035
1789115844908069600,1.217069580078125,-0.0653606578707695,-0.2229592502117157,0.6768187880516052
1789115844926920400,1.23592041015625,-0.08735115826129913,0.10384403169155121,0.7812736630439758
1789115844945771000,1.25477099609375,-0.12155860662460327,0.0390942245721817,0.5955760478973389
1789115844964621800,1.273621826171875,-0.28160059452056885,-0.44103172421455383,0.4679090082645416
1789115844983472600,1.29247265625,-0.43919917941093445,-0.6371136903762817,0.5705313682556152
1789115845002323200,1.3113232421875,-0.35795649886131287,-0.3432961702346802,0.4990622103214264
1789115845021174000,1.330174072265625,-0.2480039894580841,-0.014660334214568138,0.20768806338310242
1789115845040024800,1.34902490234375,-0.337798535823822,0.13866232335567474,0.062306419014930725
1789115845058875400,1.36787548828125,-0.48012593388557434,0.28404396772384644,-0.034818295389413834
1789115845077726200,1.386726318359375,-0.5741963982582092,0.26999449729919434,-0.2211267054080963
1789115845096577000,1.405576904296875,-0.5027272701263428,0.1575985997915268,-0.2864873707294464
1789115845115427600,1.424427490234375,-0.22601348161697388,0.04703523963689804,-0.129499614238739
1789115845134278400,1.4432783203125,-0.11056335270404816,-0.09529217332601547,0.04092676565051079
1789115845153129200,1.462129150390625,-0.17897824943065643,-0.15087927877902985,-0.017714571207761765
1789115845171979800,1.480979736328125,-0.2742704153060913,0.06780404597520828,-0.10689827054738998
1789115845190830600,1.49983056640625,-0.06780404597520828,0.31825143098831177,0.043981000781059265
1789115845209681400,1.518681396484375,0.05619794875383377,0.6120689511299133,0.3671191930770874
1789115845228532200,1.5375322265625,0.0525328628718853,0.7702783942222595,0.5796940326690674
1789115845247382800,1.5563828125,0.021990500390529633,0.7061394453048706,0.5137225389480591
1789115845266233600,1.575233642578125,-0.0024433890357613564,0.29565006494522095,0.40010493993759155
1789115845285084400,1.59408447265625,-0.05619794875383377,0.022601349279284477,0.43981003761291504
1789115845303935000,1.61293505859375,-0.11117420345544815,0.046424392610788345,0.39888325333595276
1789115845322785800,1.631785888671875,-0.237008735537529,0.3042019307613373,0.09284878522157669
1789115845341636600,1.65063671875,-0.30786702036857605,0.41354358196258545,-0.10262233763933182
1789115845360487400,1.6694873046875,-0.3536805510520935,0.1716480851173401,-0.21379654109477997
1789115845379338200,1.688338134765625,-0.393385648727417,-0.19302773475646973,-0.4043808877468109
1789115845398188800,1.707188720703125,-0.5021164417266846,-0.38788801431655884,-0.6273401379585266
1789115845417039600,1.72603955078125,-0.4966188073158264,-0.4214846193790436,-0.679872989654541
1789115845435890400,1.744890380859375,-0.38422292470932007,-0.04092676565051079,-0.41537612676620483
1789115845454741200,1.7637412109375,-0.1985253542661667,0.6047387719154358,-0.07635590434074402
1789115845473591800,1.782591796875,-0.007330167107284069,0.938872218132019,0.0012216945178806782
1789115845492442600,1.801442626953125,0.15515519678592682,0.7715001106262207,-0.09895725548267365
1789115845511293400,1.82029345703125,0.09834641218185425,0.17531315982341766,-0.02993151545524597
1789115845530144300,1.839144287109375,0.034818295389413834,-0.16431790590286255,0.22540263831615448
1789115845548995000,1.8579951171875,0.0916270911693573,-0.12705622613430023,0.35795649886131287
1789115845567846000,1.876845947265625,0.16492876410484314,-0.06047387793660164,0.25655585527420044
1789115845586696400,1.895696533203125,0.12583453953266144,-0.06841489672660828,0.0653606578707695
1789115845605547300,1.91454736328125,0.12766708433628082,0.17286977171897888,-0.051922015845775604
1789115845624398000,1.933398193359375,0.023212196305394173,0.2504473626613617,-0.25350162386894226
1789115845643249000,1.952248779296875,-0.08612946420907974,-0.061084724962711334,-0.37078428268432617
1789115845662099700,1.971099609375,-0.08979454636573792,-0.28037887811660767,-0.45324867963790894
1789115845680950500,1.989950439453125,-0.034818295389413834,-0.26632940769195557,-0.5485408306121826
1789115845699801000,2.008801025390625,0.22662433981895447,-0.021379653364419937,-0.5473191738128662
1789115845718652000,2.02765185546875,0.5686988234519958,0.12339114397764206,-0.3970507085323334
1789115845737502700,2.046502685546875,0.4324798583984375,-0.2864873707294464,-0.40132665634155273
1789115845756353500,2.065353515625,0.20768806338310242,-0.4593571424484253,-0.17836740612983704
1789115845775204400,2.084204345703125,0.3017585575580597,-0.5906893014907837,0.28037887811660767
1789115845794055200,2.10305517578125,0.3927747905254364,-0.6933116316795349,0.5662553906440735
1789115845812906000,2.121906005859375,0.3243598937988281,0.28343313932418823,0.395218163728714
1789115845831756800,2.1407568359375,0.4062134325504303,1.3267602920532227,-0.025655584409832954
1789115845850607600,2.159607666015625,0.6499415040016174,1.3066022396087646,-0.4459185004234314
1789115845869458400,2.17845849609375,0.6279509663581848,0.7317950129508972,-0.3164188861846924
1789115845888309000,2.19730908203125,0.2987042963504791,-0.16859383881092072,0.1453816443681717
1789115845907159800,2.216159912109375,0.26999449729919434,-0.6096255779266357,0.3555130958557129
1789115845926010600,2.2350107421875,0.3903313875198364,-0.6951441764831543,-0.04337015375494957
1789115845944861400,2.253861328125,0.6389462351799011,-0.3151971995830536,-0.6902574300765991
1789115845963712300,2.272712158203125,0.8075400590896606,0.6236750483512878,-1.2082558870315552
1789115845982563000,2.29156298828125,0.8551861643791199,1.2113101482391357,-1.641422986984253
1789115846001414000,2.310413818359375,1.1300674676895142,0.35795649886131287,-1.6713544130325317
1789115846020264700,2.3292646484375,1.3390535116195679,-0.3139754831790924,-1.3421077728271484
1789115846039115500,2.348115478515625,1.5290271043777466,-0.2736595869064331,-1.2650647163391113
1789115846057966300,2.36696630859375,1.644477128982544,0.883895993232727,-1.618210792541504
1789115846076817200,2.385817138671875,1.9334079027175903,2.1936287879943848,-2.318852663040161
1789115846095668000,2.40466796875,1.8087950944900513,2.88510799407959,-3.0494258403778076
1789115846114518800,2.423518798828125,1.4355673789978027,1.899200439453125,-3.5490989685058594
1789115846133369600,2.44236962890625,1.412966012954712,-0.20035789906978607,-4.680464267730713
1789115846152220400,2.461220458984375,0.5234960913658142,1.0561549663543701,-5.5472564697265625
1789115846171071200,2.4800712890625,-0.5106683373451233,4.128869533538818,-5.8129754066467285
1789115846189922000,2.498922119140625,-1.543687343597412,1.8973679542541504,-4.739716529846191
1789115846208772900,2.51777294921875,-2.4727859497070312,-0.2864873707294464,-3.0396523475646973
1789115846227623700,2.536623779296875,-2.298083782196045,-0.5748072862625122,-3.7702255249023438
1789115846246474500,2.555474609375,-1.0702043771743774,-0.9181034564971924,-4.302350044250488
1789115846265325300,2.5743251953125,0.3689517378807068,-1.077534556388855,-4.144140720367432
1789115846284176100,2.593176025390625,0.9077190160751343,-0.9956810474395752,-3.5808629989624023
1789115846303027000,2.61202685546875,0.46424391865730286,-0.786160409450531,-3.1734278202056885
1789115846321877800,2.630877685546875,0.09590301662683487,-0.04947862774133682,-3.0897417068481445
1789115846340728600,2.649728515625,0.4367557764053345,1.63592529296875,-3.3731749057769775
1789115846359579400,2.668579345703125,0.9999569654464722,2.127046585083008,-2.8948814868927
1789115846378430200,2.68743017578125,1.3402752876281738,1.5424656867980957,-1.2888877391815186
1789115846397281000,2.706281005859375,1.0054545402526855,2.5595264434814453,0.08979454636573792
1789115846416131800,2.7251318359375,0.7446228265762329,4.772702217102051,-0.07391251623630524
1789115846444408000,2.753407958984375,0.9064973592758179,3.9858546257019043,0.29687178134918213
1789115846463259000,2.7722587890625,1.728774070739746,2.7678253650665283,-0.19241689145565033
1789115846482110000,2.79110986328125,2.538146734237671,1.8332289457321167,-0.8551861643791199
1789115846500960800,2.809960693359375,2.102001667022705,2.2705955505371094,-0.4831801950931549
1789115846519811600,2.8288115234375,1.0335536003112793,3.123338460922241,0.006719320081174374
1789115846538662400,2.847662353515625,1.014006495475769,3.171595335006714,0.029320668429136276
1789115846557513200,2.86651318359375,1.5778948068618774,1.336610198020935,0.3005368411540985
1789115846576364000,2.885364013671875,1.7568731307983398,-0.07269082218408585,0.5387672781944275
1789115846595214800,2.90421484375,1.7293848991394043,0.17775654792785645,0.17714570462703705
1789115846614065700,2.923065673828125,1.8723231554031372,0.4825693368911743,0.13988402485847473
1789115846632916500,2.94191650390625,1.9303536415100098,-0.1325538605451584,0.29381752014160156
1789115846651767600,2.960767578125,2.0097639560699463,0.04581354558467865,0.26877278089523315
1789115846670618400,2.979618408203125,2.0965042114257812,0.7458444833755493,-0.04337015375494957
1789115846689469200,2.99846923828125,2.0213699340820312,-0.2504473626613617,0.2730487287044525
1789115846708320000,3.017320068359375,1.8106275796890259,-1.0854755640029907,0.469741553068161
1789115846727170800,3.0361708984375,1.1648857593536377,-2.0855088233947754,0.7452336549758911
1789115846746022000,3.05502197265625,0.3799470067024231,-0.8130376935005188,0.3549022674560547
1789115846764872700,3.073872802734375,0.1185043677687645,-0.809983491897583,0.4471401870250702
1789115846783723500,3.0927236328125,0.04092676565051079,-1.5888900756835938,0.22845686972141266
1789115846802574300,3.11157421875,-0.21929416060447693,-1.8601062297821045,-0.13316470384597778
1789115846821425200,3.130425048828125,-0.4355340898036957,-1.5149775743484497,-0.14782503247261047
1789115846840276000,3.14927587890625,-0.40987852215766907,0.6774296164512634,-0.29259583353996277
1789115846859127000,3.168126953125,0.012216945178806782,0.7733326554298401,0.05986303091049194
1789115846877977900,3.186977783203125,0.1710372269153595,0.1441599577665329,0.4825693368911743
1789115846896828700,3.20582861328125,0.09468132257461548,0.4691306948661804,0.577861487865448
1789115846915679500,3.224679443359375,0.028098974376916885,0.23212195932865143,0.7989882230758667
1789115846934530600,3.243530517578125,-0.023212196305394173,0.5833591222763062,0.8716790676116943
1789115846953381400,3.26238134765625,0.12461283802986145,1.3634874820709229,0.3542914092540741
1789115846972232200,3.281232177734375,0.5204418897628784,0.5167768001556396,-0.01710372418165207
1789115846991083000,3.3000830078125,0.6700994372367859,-0.02076880633831024,-0.16065283119678497
1789115847009933800,3.318933837890625,0.9242119193077087,0.16492876410484314,-0.2522799074649811
1789115847028785000,3.337784912109375,1.340886116027832,0.06352811306715012,-0.33352261781692505
1789115847047635700,3.3566357421875,0.7879929542541504,0.30847787857055664,-0.5063923597335815
1789115847066486500,3.375486572265625,0.02748812735080719,-0.055587101727724075,-0.2632751762866974
1789115847085337300,3.39433740234375,-0.5259394645690918,-0.555260181427002,-0.12888877093791962
1789115847104188400,3.4131884765625,-1.2736165523529053,-1.8704906702041626,-0.0036650835536420345
1789115847123039200,3.432039306640625,-2.958409547805786,-3.623011350631714,0.6713211536407471
1789115847141890000,3.45089013671875,-5.825191974639893,-2.81302809715271,0.3683409094810486
1789115847160740900,3.469740966796875,-6.91563081741333,-0.40132665634155273,-0.1844758689403534
1789115847179592000,3.488592041015625,-5.145318984985352,1.6145457029342651,-0.390942245721817
1789115847198442800,3.50744287109375,-2.205845832824707,2.9382517337799072,-0.9663603901863098
1789115847217293600,3.52629345703125,-0.8729007244110107,1.778863549232483,-0.7733326554298401
1789115847236144600,3.54514453125,-0.9657495021820068,0.21990501880645752,-0.9791881442070007
1789115847254995500,3.563995361328125,-1.7293848991394043,-0.8802309036254883,-1.1563338041305542
1789115847273846300,3.58284619140625,-2.0458037853240967,-0.5210527181625366,-0.6328377723693848
1789115847292697000,3.601697021484375,-1.8656039237976074,-0.26755109429359436,-0.34818294644355774
1789115847311548200,3.620548095703125,-1.5125341415405273,-0.2510582208633423,-0.7678350210189819
1789115847330399000,3.63939892578125,-1.3427186012268066,-0.16370706260204315,-0.6371136903762817
1789115847349249800,3.658249755859375,-1.3793694972991943,-0.24617144465446472,-0.31825143098831177
1789115847368100600,3.6771005859375,-1.0243908166885376,0.12522368133068085,-0.08124268800020218
1789115847386951700,3.69595166015625,-0.4422534108161926,0.4825693368911743,-0.1716480851173401
1789115847405802500,3.714802490234375,-0.19119518995285034,1.0622633695602417,-0.15454435348510742
1789115847424653300,3.7336533203125,-0.6175665855407715,2.043360471725464,0.48989951610565186
1789115847443504400,3.75250439453125,-0.5570927262306213,1.395862340927124,0.5809157490730286
1789115847462355200,3.771355224609375,-1.553460955619812,0.05131116881966591,0.550373375415802
1789115847481206000,3.7902060546875,-3.1361660957336426,-2.4825596809387207,0.8032641410827637
1789115847500057000,3.80905712890625,-4.329227447509766,-2.7195682525634766,0.6639909744262695
1789115847518908000,3.827907958984375,-3.539325475692749,-1.1923738718032837,0.5809157490730286
1789115847537758700,3.8467587890625,-1.8625496625900269,-0.18875180184841156,1.0695935487747192
1789115847556609800,3.86560986328125,0.29381752014160156,0.6071822047233582,1.7709225416183472
1789115847575460600,3.884460693359375,0.3280249834060669,1.7868045568466187,2.981621742248535
1789115847594311700,3.903311767578125,-0.45447036623954773,0.5680879354476929,3.2424535751342773
1789115847613162500,3.92216259765625,-2.075735330581665,-0.3139754831790924,1.2876659631729126
1789115847632013300,3.941013427734375,-2.408647060394287,0.2919849753379822,-0.6126797795295715
1789115847650864400,3.959864501953125,-2.012207269668579,0.6438329815864563,0.2504473626613617
1789115847669715200,3.978715087890625,-1.6340928077697754,1.1752700805664062,2.2968621253967285
1789115847688566000,3.99756591796875,-2.9804000854492188,1.3011046648025513,3.0005581378936768
1789115847707417000,4.0164169921875,-5.082401752471924,0.739736020565033,3.1911423206329346
1789115847726268000,4.035267822265625,-3.996239185333252,0.43797749280929565,3.9601991176605225
1789115847745118700,4.05411865234375,-2.5198214054107666,-0.3133646547794342,4.22660493850708
1789115847763969800,4.0729697265625,-0.7995990514755249,0.10262233763933182,3.3792834281921387
1789115847782820600,4.091820556640625,0.420873761177063,1.4496169090270996,2.072681188583374
1789115847801671700,4.110671630859375,-0.08796200156211853,-0.02870982140302658,2.243718385696411
1789115847820522500,4.1295224609375,-0.30908870697021484,0.0525328628718853,2.775766372680664
1789115847839373600,4.14837353515625,-0.30664533376693726,0.7989882230758667,2.6065616607666016
1789115847858224400,4.167224365234375,-0.2339545041322708,-0.005497625097632408,1.7898588180541992
1789115847877075200,4.1860751953125,-0.0787992998957634,0.32008397579193115,1.2180293798446655
1789115847895926300,4.20492626953125,0.09895725548267365,0.5754181146621704,1.1123528480529785
1789115847914777000,4.223777099609375,0.22845686972141266,0.6914790868759155,1.0011786222457886
1789115847933628200,4.242628173828125,0.2754921019077301,0.5638120174407959,0.7989882230758667
1789115847952479000,4.26147900390625,0.2730487287044525,0.34573954343795776,0.46607646346092224
1789115847971330000,4.280330078125,0.18814095854759216,0.20463383197784424,0.009773556143045425
1789115847990180900,4.299180908203125,0.13316470384597778,0.2748812735080719,-0.21807247400283813
1789115848009031700,4.31803173828125,0.11178504675626755,0.19913621246814728,-0.29626092314720154
1789115848027882800,4.3368828125,0.10323318839073181,0.13682979345321655,-0.34512871503829956
1789115848046733600,4.355733642578125,0.08674030750989914,0.053143709897994995,-0.5296045541763306
1789115848065584600,4.374584716796875,-0.09345962852239609,-0.0006108472589403391,-0.5021164417266846
1789115848093860900,4.40286083984375,-0.2761029601097107,-0.1582094430923462,-0.601073682308197
1789115848112712000,4.4217119140625,-0.3506263196468353,-0.35917818546295166,-0.9046648144721985
1789115848131562800,4.440562744140625,-0.29442837834358215,-0.36039987206459045,-1.3072131872177124
1789115848150413800,4.459413818359375,-0.33169007301330566,-0.288930743932724,-1.6200432777404785
1789115848169264600,4.4782646484375,-0.4092676639556885,-0.35856732726097107,-1.8375048637390137
1789115848188115700,4.49711572265625,-0.3683409094810486,-0.8105943202972412,-2.0140397548675537
1789115848206966500,4.515966552734375,-0.3023693859577179,-0.8429692387580872,-2.21134352684021
1789115848225817600,4.534817626953125,-0.29381752014160156,-1.1483927965164185,-2.345118999481201
1789115848244668400,4.55366845703125,-0.4178195297718048,-1.4245721101760864,-2.434302568435669
1789115848263519500,4.57251953125,-0.5216635465621948,-1.3989166021347046,-2.373218059539795
1789115848282370300,4.591370361328125,-0.45019441843032837,-1.2192511558532715,-2.2541027069091797
1789115848301221000,4.61022119140625,-0.3658975064754486,-1.3647091388702393,-2.1264357566833496
1789115848320072200,4.629072265625,-0.5027272701263428,-1.5650670528411865,-1.9144716262817383
1789115848338923000,4.647923095703125,-0.7262973785400391,-1.6988425254821777,-1.7190005779266357
1789115848357774000,4.666774169921875,-0.5619794726371765,-1.8894269466400146,-1.7593164443969727
1789115848376625000,4.685625,-0.28343313932418823,-1.8106275796890259,-1.802075743675232
1789115848395476000,4.70447607421875,-0.25716668367385864,-1.7452670335769653,-1.5638453960418701
1789115848414326800,4.723326904296875,-0.24494975805282593,-1.9346296787261963,-1.3891429901123047
1789115848433177900,4.742177734375,0.1313321590423584,-1.6029396057128906,-1.4789376258850098
1789115848452028700,4.761028564453125,0.40010493993759155,-1.1545013189315796,-1.383034586906433
1789115848470879700,4.779879638671875,0.40010493993759155,-0.8362498879432678,-1.138619303703308
1789115848489730600,4.79873046875,0.2895416021347046,-0.46363306045532227,-0.999346137046814
1789115848508581600,4.81758154296875,0.3286358118057251,-0.28098973631858826,-0.836860716342926
1789115848527432400,4.836432373046875,0.4984513521194458,-0.3836120665073395,-0.6786513328552246
1789115848546283500,4.855283447265625,0.5766398310661316,-0.23212195932865143,-0.3836120665073395
1789115848565134300,4.87413427734375,0.365286648273468,0.05803048983216286,-0.04703523963689804
1789115848583985400,4.8929853515625,0.258999228477478,-0.11911521852016449,0.34451785683631897
1789115848602836200,4.911836181640625,0.37567105889320374,-0.03298575058579445,0.5790832042694092
1789115848621687300,4.930687255859375,0.4318690001964569,0.2767138183116913,0.8472451567649841
1789115848640538000,4.9495380859375,0.4324798583984375,0.6676560640335083,1.290109395980835
1789115848659389200,4.96838916015625,0.4300364851951599,1.132510781288147,1.5644562244415283
1789115848678240000,4.987239990234375,0.4428642690181732,1.4777158498764038,1.6799063682556152
1789115848697091000,5.006091064453125,0.38666632771492004,1.4545036554336548,1.616989016532898
1789115848715942100,5.024942138671875,0.337798535823822,1.207645058631897,1.464888095855713
1789115848734793000,5.04379296875,0.1301104724407196,0.9645278453826904,1.132510781288147
1789115848753643800,5.062643798828125,-0.09345962852239609,1.0866972208023071,0.8674030900001526
1789115848772494800,5.081494873046875,-0.1459924876689911,1.2644537687301636,0.707361102104187
1789115848791346000,5.100345947265625,-0.21562908589839935,0.9413156509399414,0.5522059202194214
1789115848810196700,5.11919677734375,-0.33596599102020264,0.3408527672290802,0.42453885078430176
1789115848829047800,5.1380478515625,-0.33474430441856384,0.28343313932418823,0.4196520745754242
1789115848847898600,5.156898681640625,-0.2608317732810974,0.5656445622444153,0.7128587365150452
1789115848866749700,5.175749755859375,-0.15393351018428802,0.6652126908302307,1.353713870048523
1789115848885600500,5.1946005859375,0.0910162404179573,0.8124268651008606,1.8723231554031372
1789115848904451600,5.21345166015625,0.5118899941444397,0.869235634803772,2.1056668758392334
1789115848923302400,5.232302490234375,0.5809157490730286,0.660936713218689,2.173470973968506
1789115848942153500,5.251153564453125,0.21868331730365753,0.21746163070201874,2.295640468597412
1789115848961004500,5.270004638671875,0.018936265259981155,0.3414636254310608,2.289531946182251
1789115848979855400,5.28885546875,0.054365407675504684,0.6872031688690186,2.0042662620544434
1789115848998706400,5.30770654296875,0.13377554714679718,0.8472451567649841,1.7043402194976807
1789115849017557200,5.32655712890625,0.13744063675403595,0.9816315174102783,1.692123293876648
1789115849036408300,5.345408203125,-0.04703523963689804,0.7763868570327759,1.678073763847351
1789115849055259100,5.364259033203125,-0.1716480851173401,0.3536805510520935,1.783750295639038
1789115849074110200,5.383110107421875,-0.10628741979598999,0.10140064358711243,1.6438663005828857
1789115849092961300,5.401961181640625,0.25472331047058105,0.5137225389480591,1.2742273807525635
1789115849111812000,5.42081201171875,0.7201889157295227,0.80937260389328,1.0408837795257568
1789115849130663200,5.4396630859375,0.8985562920570374,0.7195780873298645,0.6151232123374939
1789115849149514000,5.458513916015625,0.8490777015686035,0.6517740488052368,0.288930743932724
1789115849168365000,5.477364990234375,0.8075400590896606,0.6218425035476685,0.19913621246814728
1789115849187216000,5.4962158203125,0.7177455425262451,0.3567348122596741,0.19119518995285034
1789115849206067000,5.51506689453125,0.288930743932724,0.4049917459487915,0.11361759155988693
1789115849224918000,5.53391796875,0.023823043331503868,0.3286358118057251,-0.208298921585083
1789115849243768800,5.552768798828125,0.16126367449760437,0.14660334587097168,-0.675597071647644
1789115849262620000,5.571619873046875,0.2626643180847168,0.13377554714679718,-1.0463813543319702
1789115849281470700,5.590470703125,0.18997350335121155,0.10689827054738998,-1.3903647661209106
1789115849300321800,5.60932177734375,0.08063183724880219,0.08063183724880219,-1.7697008848190308
1789115849319172900,5.6281728515625,-0.10689827054738998,-0.01954711228609085,-1.9230235815048218
1789115849338023700,5.647023681640625,-0.2211267054080963,-0.16492876410484314,-2.0403060913085938
1789115849356874800,5.665874755859375,-0.3304683566093445,-0.5858024954795837,-1.9999902248382568
1789115849375725600,5.6847255859375,-0.5082249045372009,-0.7293516397476196,-1.987162470817566
1789115849394576600,5.70357666015625,-0.7177455425262451,-0.8050966858863831,-2.048858165740967
1789115849413427700,5.722427734375,-0.7995990514755249,-0.9584193229675293,-2.053133964538574
1789115849432278500,5.741278564453125,-0.9254335761070251,-1.0805888175964355,-2.0940606594085693
1789115849451129600,5.760129638671875,-1.02683424949646,-0.966971218585968,-2.008542060852051
1789115849469980400,5.77898046875,-1.0146173238754272,-0.91566002368927,-1.8711014986038208
1789115849488831500,5.79783154296875,-1.0482138395309448,-0.9608627557754517,-1.8680472373962402
1789115849507682600,5.8166826171875,-1.1288456916809082,-1.1850436925888062,-1.8301746845245361
1789115849526533400,5.835533447265625,-1.2039799690246582,-1.2998830080032349,-1.849721908569336
1789115849545384400,5.854384521484375,-1.009730577468872,-1.4294589757919312,-1.738547682762146
1789115849564235500,5.873235595703125,-0.7733326554298401,-1.6200432777404785,-1.4703856706619263
1789115849583086300,5.89208642578125,-0.7299624681472778,-1.5265836715698242,-1.3285927772521973
1789115849601937400,5.9109375,-0.5051707029342651,-1.5717864036560059,-1.414798617362976
1789115849620788200,5.929788330078125,-0.16248537600040436,-1.4062467813491821,-1.5265836715698242
1789115849639639300,5.948639404296875,0.13560809195041656,-1.1856545209884644,-1.5375789403915405
1789115849658490400,5.967490478515625,0.24067382514476776,-0.8893936276435852,-1.4209071397781372
1789115849677341200,5.986341064453125,0.1557660549879074,-0.8057075142860413,-1.1300674676895142
1789115849696192300,6.005192138671875,0.17409147322177887,-0.8258655071258545,-0.8154810667037964
1789115849715043300,6.024043212890625,0.2229592502117157,-0.5308262705802917,-0.518609344959259
1789115849733894100,6.04289404296875,0.2608317732810974,-0.1429382562637329,-0.06963659077882767
1789115849752745200,6.0617451171875,0.291374146938324,0.06658235192298889,0.3549022674560547
1789115849771596000,6.080595947265625,0.3512371778488159,0.22967857122421265,0.684759795665741
1789115849790447000,6.099447021484375,0.4343124032020569,0.554649293422699,1.1019684076309204
1789115849809298200,6.118298095703125,0.4489727318286896,0.9327637553215027,1.408690094947815
1789115849828149000,6.13714892578125,0.4709632396697998,1.041494607925415,1.395862340927124
1789115849847000000,6.156,0.49234288930892944,1.188708782196045,1.2442958354949951
1789115849865851100,6.17485107421875,0.4068242609500885,1.5760623216629028,1.1404517889022827
1789115849884702000,6.193701904296875,0.2376195788383484,1.2442958354949951,1.1917630434036255
1789115849903553000,6.212552978515625,-0.08246438205242157,0.8722898960113525,1.159998893737793
1789115849922404000,6.231404052734375,-0.3274141252040863,0.8338065147399902,0.9590302109718323
1789115849941255000,6.2502548828125,-0.36101073026657104,0.7598940134048462,0.8790091872215271
1789115849960106000,6.26910595703125,-0.18753011524677277,0.8313631415367126,0.8631271719932556
1789115849978957000,6.28795703125,-0.02504473738372326,1.0524898767471313,0.8539644479751587
1789115849997807900,6.306807861328125,0.06047387793660164,0.9791881442070007,0.9639169573783875
1789115850016659000,6.325658935546875,0.13927318155765533,0.7434011101722717,1.2174185514450073
1789115850035509800,6.344509765625,0.3042019307613373,0.550373375415802,1.3604332208633423
1789115850054360800,6.36336083984375,0.48928865790367126,0.5131117105484009,1.404414176940918
1789115850073212000,6.3822119140625,0.6041279435157776,0.2651077210903168,1.5827815532684326
1789115850092063000,6.40106298828125,0.6255075931549072,0.23028941452503204,1.7880263328552246
1789115850110913800,6.419913818359375,0.4220954477787018,0.5326588153839111,1.8582737445831299
1789115850129764900,6.438764892578125,0.2113531529903412,0.45141613483428955,1.8601062297821045
1789115850148616000,6.457615966796875,0.14660334587097168,0.5632011890411377,1.9779998064041138
1789115850167466800,6.476466796875,0.09468132257461548,0.6297835111618042,2.020759105682373
1789115850186317800,6.49531787109375,-0.0787992998957634,0.6071822047233582,2.0403060913085938
1789115850205169000,6.5141689453125,-0.2229592502117157,0.6401679515838623,2.211954355239868
1789115850224019700,6.533019775390625,-0.17653486132621765,0.46363306045532227,2.2883102893829346
1789115850242870800,6.551870849609375,-0.1185043677687645,0.32191649079322815,1.8900377750396729
1789115850261721600,6.5707216796875,0.08002099394798279,0.5357130169868469,1.4777158498764038
1789115850280572700,6.58957275390625,0.39888325333595276,0.8270871639251709,1.2552911043167114
1789115850299423700,6.608423828125,0.6041279435157776,1.003622055053711,0.9016105532646179
1789115850318274600,6.627274658203125,0.6236750483512878,0.5638120174407959,0.2480039894580841
1789115850337125600,6.646125732421875,0.5418215394020081,0.4355340898036957,-0.1435490995645523
1789115850355976700,6.664976806640625,0.17653486132621765,0.3897205591201782,-0.13988402485847473
1789115850374827500,6.68382763671875,0.182643324136734,0.2919849753379822,-0.2852656841278076
1789115850393678600,6.7026787109375,0.3274141252040863,0.03176405653357506,-0.6328377723693848
1789115850412529700,6.72152978515625,0.3029802441596985,-0.023212196305394173,-0.7440119385719299
1789115850431380700,6.740380615234375,0.0794101431965828,-0.08002099394798279,-0.8655705451965332
1789115850450231600,6.7592314453125,-0.2211267054080963,-0.14110571146011353,-0.9797990322113037
1789115850469082600,6.77808251953125,-0.4031592011451721,-0.10995250940322876,-1.2736165523529053
1789115850487933700,6.79693359375,-0.3921639323234558,-0.21440738439559937,-1.5760623216629028
1789115850506784500,6.815784423828125,-0.3549022674560547,-0.3286358118057251,-1.9285211563110352
1789115850525635600,6.834635498046875,-0.3506263196468353,-0.34512871503829956,-2.098336696624756
1789115850544486700,6.853486572265625,-0.37200596928596497,-0.5296045541763306,-2.211954355239868
1789115850563337500,6.87233740234375,-0.5699204802513123,-0.883895993232727,-2.1355984210968018
1789115850582188500,6.8911884765625,-0.8551861643791199,-1.0054545402526855,-2.0769569873809814
1789115850601039600,6.91003955078125,-0.9773555994033813,-1.035386085510254,-2.0861196517944336
1789115850619890400,6.928890380859375,-1.018282413482666,-1.0909732580184937,-2.055577278137207
1789115850638741500,6.947741455078125,-1.0928057432174683,-1.2913310527801514,-1.9865516424179077
1789115850657592600,6.966592529296875,-1.0616525411605835,-1.557736873626709,-1.903476357460022
1789115850676443400,6.985443359375,-0.9089407324790955,-1.6945666074752808,-1.872934103012085
1789115850695294500,7.00429443359375,-0.6713211536407471,-1.8332289457321167,-1.7409909963607788
1789115850714145500,7.0231455078125,-0.4422534108161926,-1.875988245010376,-1.6334819793701172
1789115850732996400,7.041996337890625,-0.16798299551010132,-1.7403801679611206,-1.5931659936904907
1789115850751847400,7.060847412109375,0.03237490355968475,-1.5888900756835938,-1.5748405456542969
1789115850770698500,7.079698486328125,0.11911521852016449,-1.3506596088409424,-1.465498924255371
1789115850789549600,7.098549560546875,-0.006108472589403391,-1.1483927965164185,-1.3482162952423096
1789115850808400400,7.117400390625,-0.06658235192298889,-1.0072871446609497,-1.1691616773605347
1789115850827251500,7.13625146484375,0.08979454636573792,-0.7281299233436584,-0.9681929349899292
1789115850846102500,7.1551025390625,0.34757208824157715,-0.42698222398757935,-0.6676560640335083
1789115850864953300,7.173953369140625,0.38849884271621704,-0.22540263831615448,-0.20219044387340546
1789115850883804400,7.192804443359375,0.43614494800567627,-0.1588202863931656,0.2602209448814392
1789115850912081000,7.221080810546875,0.5405998229980469,0.20768806338310242,0.8087617754936218
1789115850930932000,7.239931884765625,0.5338805317878723,0.4318690001964569,0.9816315174102783
1789115850949782800,7.25878271484375,0.44958359003067017,0.7159129977226257,0.9950701594352722
1789115851006336000,7.3153359375,0.21501824259757996,0.9871291518211365,1.0219475030899048
1789115851025186800,7.334186767578125,-0.06169557198882103,0.9089407324790955,1.045770525932312
1789115851044038000,7.353037841796875,-0.16065283119678497,0.8399149775505066,1.041494607925415
1789115851062889000,7.371888916015625,-0.17225892841815948,0.6560499668121338,1.0408837795257568
1789115851081739800,7.39073974609375,-0.15515519678592682,0.5955760478973389,1.0702043771743774
1789115851100590800,7.4095908203125,-0.08674030750989914,0.7409577369689941,1.0897514820098877
1789115851119442000,7.42844189453125,0.0012216945178806782,0.9535325765609741,1.060430884361267
1789115851138292700,7.447292724609375,0.10689827054738998,1.0066763162612915,1.1508362293243408
1789115851157143800,7.466143798828125,0.1850867122411728,0.9486457705497742,1.3151541948318481
1789115851175995000,7.484994873046875,0.2767138183116913,0.9474241137504578,1.4135769605636597
1789115851194845700,7.503845703125,0.38605546951293945,0.726908266544342,1.5174208879470825
1789115851213696800,7.52269677734375,0.5809157490730286,0.707361102104187,1.7678682804107666
1789115851232547800,7.5415478515625,0.5796940326690674,0.8729007244110107,1.9566200971603394
1789115851251399000,7.56039892578125,0.3958290219306946,0.7085828185081482,1.9327970743179321
1789115851270249700,7.579249755859375,0.27121618390083313,0.7513421177864075,1.863160490989685
1789115851289100800,7.598100830078125,0.24494975805282593,0.9486457705497742,1.9297428131103516
1789115851307951900,7.616951904296875,0.07085828483104706,0.9449806809425354,2.043360471725464
1789115851326802700,7.635802734375,-0.12216944992542267,0.6994200944900513,2.1661407947540283
1789115851345653800,7.65465380859375,-0.15149012207984924,0.497229665517807,2.06107497215271
1789115851364504800,7.6735048828125,-0.045202698558568954,0.39827242493629456,1.6725761890411377
1789115851383355600,7.692355712890625,0.2901524603366852,0.6322268843650818,1.26872980594635
1789115851402206700,7.711206787109375,0.5289937257766724,0.9517000317573547,1.0262234210968018
1789115851421057800,7.730057861328125,0.5057815313339233,0.7452336549758911,0.7592831254005432
1789115851439908900,7.748908935546875,0.41171106696128845,0.35795649886131287,0.3683409094810486
1789115851458759700,7.767759765625,0.2870981991291046,0.38727715611457825,0.17531315982341766
1789115851477610800,7.78661083984375,0.20768806338310242,0.312142938375473,-0.01588202826678753
1789115851496461800,7.8054619140625,0.25411245226860046,0.08307522535324097,-0.20646637678146362
1789115851515312600,7.824312744140625,0.1453816443681717,0.12339114397764206,-0.3897205591201782
1789115851534163700,7.843163818359375,0.045202698558568954,0.0794101431965828,-0.4599680006504059
1789115851553014800,7.862014892578125,-0.1423274129629135,0.054365407675504684,-0.7660024762153625
1789115851571865900,7.880865966796875,-0.2620534598827362,0.01038440316915512,-0.9510892033576965
1789115851590716700,7.899716552734375,-0.4202629029750824,-0.06352811306715012,-1.475272536277771
1789115851609567700,7.918567626953125,-0.4856235682964325,-0.10201149433851242,-1.890648603439331
1789115851628418800,7.937418701171875,-0.527161180973053,-0.24128466844558716,-2.2131760120391846
1789115851647269600,7.95626953125,-0.4837910234928131,-0.7721109390258789,-2.183244466781616
1789115851666120700,7.97512060546875,-0.6077930331230164,-0.8887827396392822,-1.987162470817566
1789115851684971800,7.9939716796875,-0.758672297000885,-0.7568397521972656,-1.9584527015686035
1789115851703822800,8.01282275390625,-0.869846522808075,-0.9877400398254395,-2.0629074573516846
1789115851722673700,8.031673583984375,-0.971247136592865,-1.2864443063735962,-1.9285211563110352
1789115851741524700,8.050524658203125,-1.0347752571105957,-1.4202961921691895,-1.774587631225586
1789115851760375800,8.069375732421875,-0.9871291518211365,-1.4532819986343384,-1.8607170581817627
1789115851779226600,8.0882265625,-0.8985562920570374,-1.5241402387619019,-1.8753774166107178
1789115851798077700,8.10707763671875,-0.8600729703903198,-1.576673150062561,-1.8087950944900513
1789115851816928800,8.1259287109375,-0.7415685653686523,-1.6860147714614868,-1.654861569404602
1789115851835779800,8.14477978515625,-0.5357130169868469,-1.7464886903762817,-1.6029396057128906
1789115851854630700,8.163630615234375,-0.2907632887363434,-1.6945666074752808,-1.778863549232483
1789115851873481700,8.182481689453125,-0.05741964280605316,-1.585224986076355,-1.8057408332824707
1789115851892332800,8.201332763671875,0.11972606182098389,-1.4746615886688232,-1.6365361213684082
1789115851911183600,8.22018359375,0.24311721324920654,-1.1587772369384766,-1.3531030416488647
1789115851930034700,8.23903466796875,0.395218163728714,-0.6352811455726624,-1.0958600044250488
1789115851948885800,8.2578857421875,0.33230090141296387,-0.29626092314720154,-0.8338065147399902
1789115851967736800,8.27673681640625,0.2211267054080963,-0.26694026589393616,-0.46302223205566406
1789115851986587600,8.295587646484375,0.29320669174194336,-0.19424942135810852,-0.04337015375494957
1789115852005438700,8.314438720703125,0.5051707029342651,-0.014049487188458443,0.3249707520008087
1789115852024289800,8.333289794921875,0.5668662786483765,0.04703523963689804,0.6536065936088562
1789115852043140900,8.352140869140625,0.5125008225440979,0.3836120665073395,0.8356390595436096
1789115852061991700,8.37099169921875,0.3946073353290558,0.7256865501403809,0.9217684864997864
1789115852080842800,8.3898427734375,0.261442631483078,1.0799779891967773,0.9364288449287415
1789115852099693800,8.40869384765625,0.2724378705024719,1.0757020711898804,1.1312891244888306
1789115852118545000,8.427544921875,0.2217375487089157,1.0304993391036987,1.3017154932022095
1789115852137395700,8.446395751953125,0.1044548824429512,0.6517740488052368,1.3230952024459839
1789115852156246800,8.465246826171875,-0.08551861345767975,0.4953971207141876,1.211920976638794
1789115852175097900,8.484097900390625,-0.20402298867702484,0.6981984376907349,1.0830321311950684
1789115852193948700,8.50294873046875,-0.17286977171897888,0.809983491897583,1.1038010120391846
1789115852212799700,8.5217998046875,-0.13682979345321655,0.833195686340332,1.1606098413467407
1789115852231650800,8.54065087890625,0.037261683493852615,0.8069292306900024,1.1648857593536377
1789115852250502000,8.559501953125,0.19363857805728912,1.1160179376602173,1.060430884361267
1789115852269352700,8.578352783203124,0.363454133272171,1.0482138395309448,1.1563338041305542
1789115852288203800,8.597203857421874,0.546097457408905,0.8002098798751831,1.4453409910202026
1789115852307054800,8.616054931640624,0.5436540842056274,0.8979454636573792,1.5119233131408691
1789115852325906000,8.634906005859374,0.46607646346092224,0.6713211536407471,1.6524181365966797
1789115852344756700,8.6537568359375,0.3939964771270752,0.5741963982582092,1.9541767835617065
1789115852363607800,8.67260791015625,0.29626092314720154,0.8484668135643005,1.9798322916030884
1789115852382459000,8.691458984375,0.1985253542661667,0.9138274788856506,1.7128920555114746
1789115852401310000,8.71031005859375,0.23273280262947083,1.0030112266540527,1.6573050022125244
1789115852420160800,8.729160888671874,0.31825143098831177,1.1141854524612427,1.927910327911377
1789115852439011800,8.74801171875,0.2492256760597229,0.7165238261222839,1.991438388824463
1789115852457863000,8.76686279296875,0.0781884491443634,0.09040539711713791,1.9486790895462036
1789115852476713700,8.785713623046876,-0.01038440316915512,0.09345962852239609,1.789247989654541
1789115852495564800,8.804564697265626,0.13988402485847473,0.5393781065940857,1.5021498203277588
1789115852514415900,8.823415771484376,0.37383851408958435,0.4581354558467865,1.1942063570022583
1789115852533267000,8.842266845703126,0.5045598149299622,0.45141613483428955,0.7262973785400391
1789115852552118000,8.861117919921876,0.49234288930892944,0.5210527181625366,0.23945212364196777
1789115852570968800,8.87996875,0.45508119463920593,0.4202629029750824,-0.04947862774133682
1789115852589820000,8.89881982421875,0.3255815804004669,0.45080527663230896,-0.2858765125274658
1789115852608671000,8.9176708984375,0.11178504675626755,0.33413344621658325,-0.3555130958557129
1789115852627521800,8.936521728515626,0.05619794875383377,0.11300674080848694,-0.4190412163734436
1789115852646372900,8.955372802734376,-0.03176405653357506,0.0525328628718853,-0.6694886088371277
1789115852665224000,8.974223876953126,-0.13744063675403595,0.08307522535324097,-0.9217684864997864
1789115852684075000,8.993074951171875,-0.15026842057704926,0.02748812735080719,-1.2363548278808594
1789115852702926000,9.011926025390625,-0.1692046970129013,-0.20585553348064423,-1.5614019632339478
1789115852721777000,9.03077685546875,-0.3133646547794342,-0.14782503247261047,-1.8344507217407227
1789115852740628000,9.0496279296875,-0.4349232614040375,-0.1979145109653473,-2.2504377365112305
1789115852759479000,9.06847900390625,-0.46851983666419983,-0.446529358625412,-2.4062037467956543
1789115852778330000,9.087330078125,-0.4953971207141876,-0.5851916670799255,-2.1410961151123047
1789115852797181000,9.106180908203125,-0.629172682762146,-0.6077930331230164,-2.054966449737549
1789115852816032000,9.125031982421875,-0.8057075142860413,-0.7831062078475952,-1.9859408140182495
1789115852834883000,9.143883056640625,-0.9981244206428528,-1.1264023780822754,-1.8735449314117432
1789115852853734100,9.162734130859375,-1.0280559062957764,-1.4013599157333374,-1.9126391410827637
1789115852872585000,9.1815849609375,-0.9602518677711487,-1.3610440492630005,-1.9010330438613892
1789115852891436000,9.20043603515625,-0.8472451567649841,-1.2852226495742798,-1.8118493556976318
1789115852910287000,9.219287109375,-0.7415685653686523,-1.3292036056518555,-1.7751984596252441
1789115852929138200,9.23813818359375,-0.6707102656364441,-1.334777593612671,-1.829563856124878
1789115852947989000,9.256989013671875,-0.5442649126052856,-1.4172420501708984,-1.903476357460022
1789115852966840000,9.275840087890625,-0.395218163728714,-1.5198643207550049,-1.8857618570327759
1789115852985691100,9.294691162109375,-0.26816195249557495,-1.5064257383346558,-1.766035795211792
1789115853004542200,9.313542236328125,-0.1698155403137207,-1.2009257078170776,-1.580949068069458
1789115853023393300,9.332393310546875,0.043981000781059265,-0.8386932611465454,-1.3402752876281738
1789115853042244000,9.351244140625,0.18936264514923096,-0.42759308218955994,-1.087918996810913
1789115853061095200,9.37009521484375,0.24372805655002594,-0.2754921019077301,-0.8484668135643005
1789115853079946200,9.3889462890625,0.2883199155330658,-0.06780404597520828,-0.5442649126052856
1789115853098797000,9.407797119140625,0.24556060135364532,0.08674030750989914,-0.183865025639534
1789115853117648100,9.426648193359375,0.13560809195041656,0.11483928561210632,0.12522368133068085
1789115853136499200,9.445499267578125,0.056808795779943466,0.4874561131000519,0.3249707520008087
1789115853155350300,9.464350341796875,0.07757759839296341,0.9743013978004456,0.4593571424484253
1789115853174201300,9.483201416015625,-0.03787253051996231,1.1251806020736694,0.5418215394020081
1789115853193052200,9.50205224609375,-0.05008947476744652,1.0024003982543945,0.6774296164512634
1789115853211903200,9.5209033203125,-0.1692046970129013,1.0677610635757446,0.9138274788856506
1789115853230754300,9.53975439453125,-0.2516690790653229,0.9242119193077087,1.1318999528884888
1789115853249605400,9.55860546875,-0.23884128034114838,0.7403468489646912,1.1031901836395264
1789115853268456400,9.57745654296875,-0.22784602642059326,0.7067502737045288,1.136786699295044
1789115853287307300,9.596307373046875,-0.30481278896331787,0.9688037633895874,1.2198619842529297
1789115853306158300,9.615158447265625,-0.2767138183116913,0.9009997248649597,1.3518813848495483
1789115853325009400,9.634009521484375,-0.13927318155765533,1.0555440187454224,1.3604332208633423
1789115853343860500,9.652860595703125,0.0030542362947016954,1.1624423265457153,1.349437952041626
1789115853362711300,9.671711181640624,0.16492876410484314,1.0042328834533691,1.362876534461975
1789115853381562400,9.690562255859374,0.37322768568992615,0.8710681796073914,1.4636664390563965
1789115853400413400,9.709413330078124,0.3701734244823456,0.9510892033576965,1.52475106716156
1789115853419264500,9.728264404296874,0.2473931461572647,0.8936695456504822,1.714113712310791
1789115853438115600,9.747115478515624,0.08918370306491852,0.864959716796875,1.9541767835617065
1789115853456966400,9.76596630859375,0.1453816443681717,0.9761339426040649,1.8711014986038208
1789115853475817500,9.7848173828125,0.1966928243637085,0.8710681796073914,1.793523907661438
1789115853494668500,9.80366845703125,0.06841489672660828,0.7317950129508972,2.0274784564971924
1789115853513519600,9.82251953125,0.07330167293548584,0.6908682584762573,2.163086414337158
1789115853532370700,9.84137060546875,0.17470231652259827,0.38849884271621704,1.9444031715393066
1789115853551221500,9.860221435546874,0.1979145109653473,0.6218425035476685,1.7501537799835205
1789115853570072600,9.879072509765624,0.18875180184841156,0.9730796813964844,1.7599272727966309
1789115853588923600,9.897923583984374,0.24067382514476776,0.9254335761070251,1.5858358144760132
1789115853607774700,9.916774658203124,0.24311721324920654,0.5754181146621704,0.9846857786178589
1789115853626625800,9.935625732421874,0.24250635504722595,0.6688777208328247,0.8057075142860413
1789115853645476600,9.9544765625,0.16187451779842377,0.4746283292770386,0.550373375415802
1789115853664327700,9.97332763671875,0.14782503247261047,0.3029802441596985,0.4960079789161682
1789115853683178800,9.9921787109375,0.07024743407964706,0.314586341381073,0.3164188861846924
1789115853702029800,10.01102978515625,-0.043981000781059265,-0.05741964280605316,0.02870982140302658
1789115853720881000,10.029880859375,-0.16859383881092072,0.0916270911693573,-0.16553960740566254
1789115853739731700,10.048731689453126,-0.129499614238739,0.020157959312200546,-0.3292466700077057
1789115853758582800,10.067582763671876,-0.09834641218185425,-0.04459185153245926,-0.5473191738128662
1789115853777433900,10.086433837890626,-0.2773246467113495,-0.12155860662460327,-0.7336275577545166
1789115853796285000,10.105284912109376,-0.4086568057537079,-0.2901524603366852,-1.0531007051467896
1789115853815136000,10.124135986328126,-0.4563029110431671,-0.2987042963504791,-1.362265706062317
1789115853833986800,10.14298681640625,-0.4056025743484497,-0.42453885078430176,-1.4141877889633179
1789115853852838000,10.161837890625,-0.5656445622444153,-0.7446228265762329,-1.5974419116973877
1789115853871689000,10.18068896484375,-0.8814526200294495,-0.6139014959335327,-1.9108065366744995
1789115853890540000,10.1995400390625,-0.837471604347229,-0.21501824259757996,-2.228447198867798
1789115853909391000,10.21839111328125,-0.8020424246788025,-0.7886037826538086,-2.2455508708953857
1789115853928242000,10.237241943359376,-1.0323318243026733,-1.1129636764526367,-1.8191795349121094
1789115853947093000,10.256093017578126,-1.2400199174880981,-0.9474241137504578,-1.729995846748352
1789115853965944000,10.274944091796876,-1.0445488691329956,-1.1752700805664062,-2.222949504852295
1789115853984795100,10.293795166015625,-0.9559759497642517,-1.6066046953201294,-1.927910327911377
1789115854003646200,10.312646240234375,-1.0512681007385254,-1.7012859582901,-1.4135769605636597
1789115854022497000,10.3314970703125,-1.1099094152450562,-1.5717864036560059,-1.1373976469039917
1789115854041348000,10.35034814453125,-0.739736020565033,-1.530248761177063,-1.2742273807525635
1789115854060199200,10.36919921875,-0.6285618543624878,-1.254069447517395,-1.3586006164550781
1789115854079050200,10.38805029296875,-0.37567105889320374,-1.0848647356033325,-1.2632321119308472
1789115854097901300,10.4069013671875,-0.033596597611904144,-1.058598279953003,-1.0072871446609497
1789115854116752100,10.425752197265625,0.23823043704032898,-1.2723948955535889,-0.6817055344581604
1789115854135603200,10.444603271484375,0.2217375487089157,-1.0421054363250732,-0.42514967918395996
1789115854154454300,10.463454345703125,0.16370706260204315,-0.7916580438613892,-0.22784602642059326
1789115854173305300,10.482305419921875,0.05375456064939499,-0.6529957056045532,-0.0012216945178806782
1789115854192156400,10.501156494140625,-0.01954711228609085,-0.1582094430923462,0.19363857805728912
1789115854211007200,10.52000732421875,0.03237490355968475,0.11056335270404816,0.4056025743484497
1789115854229858300,10.5388583984375,0.08674030750989914,0.08307522535324097,0.43797749280929565
1789115854248709400,10.55770947265625,0.1172826737165451,0.03420744836330414,0.6969767212867737
1789115854267560400,10.576560546875,0.393385648727417,0.12827792763710022,1.1691616773605347
1789115854286411500,10.59541162109375,0.5381564497947693,0.3701734244823456,1.3072131872177124
1789115854305262600,10.6142626953125,0.41354358196258545,0.4453076422214508,1.2442958354949951
1789115854324113400,10.633113525390625,0.17470231652259827,0.258999228477478,1.1227372884750366
1789115854342964500,10.651964599609375,0.02504473738372326,-0.01832541823387146,0.9871291518211365
1789115854361815600,10.670815673828125,0.01038440316915512,-0.1056765764951706,0.8570187091827393
1789115854380666600,10.68966650390625,0.12155860662460327,0.04459185153245926,0.9791881442070007
1789115854399517700,10.708517578125,0.32069480419158936,0.3298575282096863,1.2693406343460083
1789115854418368500,10.727368408203125,0.5369347333908081,0.6261184215545654,1.4202961921691895
1789115854437219600,10.746219482421875,0.7556180357933044,0.5277720093727112,1.5308595895767212
1789115854456070700,10.765070556640625,0.9058864712715149,0.284654825925827,1.7654249668121338
1789115854474921700,10.783921630859375,1.0946383476257324,0.37261682748794556,1.9395164251327515
1789115854493772800,10.802772705078125,1.235133171081543,0.5125008225440979,1.7190005779266357
1789115854512623600,10.82162353515625,1.2913310527801514,0.5632011890411377,1.5943876504898071
1789115854531474700,10.840474609375,1.206423282623291,1.009730577468872,1.7190005779266357
1789115854550325800,10.85932568359375,0.8228112459182739,1.0164498090744019,1.8790425062179565
1789115854569176800,10.8781767578125,0.5015056133270264,0.7928797602653503,1.9101957082748413
1789115854588028000,10.89702783203125,0.4966188073158264,0.45080527663230896,1.572397232055664
1789115854606879000,10.91587890625,0.37689274549484253,0.07513421028852463,1.5943876504898071
1789115854625730000,10.93472998046875,0.25411245226860046,0.09712471067905426,1.7904696464538574
1789115854644580900,10.953580810546875,0.5057815313339233,0.3170297145843506,1.5442981719970703
1789115854663432000,10.972431884765625,0.7794411182403564,0.5497625470161438,1.1618314981460571
1789115854682283000,10.991282958984375,0.7281299233436584,0.5491516590118408,1.0708152055740356
1789115854701134000,11.010134033203125,0.7531746625900269,0.5430431962013245,1.0030112266540527
1789115854719985200,11.028985107421875,0.8893936276435852,0.38788801431655884,0.4752391576766968
1789115854738836000,11.0478359375,0.9028322696685791,0.3432961702346802,0.043981000781059265
1789115854757687000,11.06668701171875,0.6988092660903931,0.3524588644504547,0.19058434665203094
1789115854776538000,11.0855380859375,0.5754181146621704,0.2919849753379822,0.24678228795528412
1789115854795389200,11.10438916015625,0.5442649126052856,0.1447708010673523,0.10017894953489304
1789115854814240300,11.123240234375,0.3115321099758148,0.3243598937988281,-0.15087927877902985
1789115854833091300,11.14209130859375,-0.16737215220928192,0.3939964771270752,-0.5577035546302795
1789115854851942400,11.1609423828125,-0.2907632887363434,0.43981003761291504,-0.9743013978004456
1789115854870793200,11.179793212890624,-0.0787992998957634,0.4874561131000519,-1.687847375869751
1789115854889644300,11.198644287109374,0.1447708010673523,0.08246438205242157,-2.318241596221924
1789115854908495400,11.217495361328124,0.15454435348510742,-0.06963659077882767,-2.3310694694519043
1789115854927346400,11.236346435546874,-0.01588202826678753,-0.4031592011451721,-2.373828887939453
1789115854946197500,11.255197509765624,-0.660936713218689,-0.5625903010368347,-2.049468994140625
1789115854965048300,11.27404833984375,-0.9706363081932068,-0.813648521900177,-1.9230235815048218
1789115854983899400,11.2928994140625,-0.971247136592865,-1.037218689918518,-2.1227705478668213
1789115855002750500,11.31175048828125,-1.0158389806747437,-0.8814526200294495,-2.1209380626678467
1789115855021601500,11.3306015625,-1.0714260339736938,-1.0995250940322876,-1.961506962776184
1789115855040452600,11.34945263671875,-0.9321529269218445,-1.4856568574905396,-2.0763461589813232
1789115855059303700,11.3683037109375,-0.6988092660903931,-1.5265836715698242,-2.0170938968658447
1789115855078154800,11.38715478515625,-0.5253286361694336,-1.3328686952590942,-1.7403801679611206
1789115855097005600,11.406005615234376,-0.38605546951293945,-1.438010811805725,-1.664635181427002
1789115855115856600,11.424856689453126,-0.1960819661617279,-1.715335488319397,-1.705561876296997
1789115855144133000,11.453133056640626,0.0036650835536420345,-1.521696925163269,-1.774587631225586
1789115855162984200,11.471984130859376,0.4819584786891937,-1.3084348440170288,-1.5668995380401611
1789115855181835300,11.490835205078126,0.6633801460266113,-0.8295305967330933,-1.3353121280670166
1789115855210111700,11.51911181640625,0.4056025743484497,-0.6224533319473267,-1.1575555801391602
1789115855276090400,11.58509033203125,0.2596100866794586,0.21868331730365753,0.4489727318286896
1789115855294941400,11.60394140625,0.15332266688346863,0.6175665855407715,0.3042019307613373
1789115855313792500,11.62279248046875,0.21257483959197998,0.6859814524650574,0.41171106696128845
1789115855332643600,11.6416435546875,0.2113531529903412,0.8276980519294739,0.6951441764831543
1789115855351494700,11.66049462890625,0.08735115826129913,0.6193991303443909,0.8215895891189575
1789115855370345700,11.679345703125,0,0.22967857122421265,0.7934905886650085
1789115855389196500,11.698196533203125,-0.1325538605451584,0.12888877093791962,0.893058717250824
1789115855408047600,11.717047607421875,-0.10017894953489304,0.5448757410049438,0.9541434049606323
1789115855426898700,11.735898681640625,0.07330167293548584,0.6273401379585266,1.0983033180236816
1789115855445749800,11.754749755859375,0.2651077210903168,1.0298885107040405,1.0335536003112793
1789115855464600800,11.773600830078125,0.3151971995830536,0.9889616966247559,0.8979454636573792
1789115855483452000,11.792451904296875,0.5051707029342651,0.9071081876754761,0.9449806809425354
1789115855502302700,11.811302734375,0.6108472347259521,1.2791141271591187,0.9290986657142639
1789115855521153800,11.83015380859375,0.41171106696128845,1.2809467315673828,1.0873081684112549
1789115855540004900,11.8490048828125,0.20646637678146362,0.652384877204895,1.4807701110839844
1789115855558856000,11.86785595703125,0.20707722008228302,0.7201889157295227,1.6304277181625366
1789115855577707000,11.88670703125,0.365286648273468,0.9510892033576965,1.6597483158111572
1789115855596558000,11.90555810546875,0.29381752014160156,0.975523054599762,1.719611406326294
1789115855615409200,11.9244091796875,0.12583453953266144,0.869235634803772,1.714113712310791
1789115855634260000,11.943260009765625,0.0922379344701767,0.9663603901863098,1.686625599861145
1789115855653111000,11.962111083984375,0.0787992998957634,0.9382613897323608,1.760538101196289
1789115855671962000,11.980962158203125,0.17592400312423706,0.8173136115074158,1.706783652305603
1789115855690813200,11.999813232421875,0.2516690790653229,1.0091196298599243,1.6945666074752808
1789115855709664300,12.018664306640625,-0.023212196305394173,0.5748072862625122,1.8900377750396729
1789115855728515300,12.037515380859375,-0.23212195932865143,0.11300674080848694,1.9627286195755005
1789115855747366400,12.056366455078125,-0.1960819661617279,0.2870981991291046,1.6493639945983887
1789115855766217200,12.07521728515625,0.07574506103992462,0.6725428104400635,1.243685007095337
1789115855785068300,12.094068359375,0.3799470067024231,0.7317950129508972,1.0115630626678467
1789115855803919400,12.11291943359375,0.4453076422214508,0.3396310806274414,0.6603258848190308
1789115855822770400,12.1317705078125,0.31886225938796997,0.2101314514875412,0.38849884271621704
1789115855841621500,12.15062158203125,0.13316470384597778,0.35795649886131287,0.37078428268432617
1789115855860472600,12.16947265625,0.09651386737823486,0.3054236173629761,0.13682979345321655
1789115855879323600,12.18832373046875,0.16676130890846252,0.12278030067682266,-0.1948602795600891
1789115855898174500,12.207174560546875,0.011606098152697086,0.12705622613430023,-0.46607646346092224
1789115855917025500,12.226025634765625,-0.1575985997915268,0.1313321590423584,-0.7366818189620972
1789115855935876600,12.244876708984375,-0.25655585527420044,-0.009773556143045425,-1.2504043579101562
1789115855954727700,12.263727783203125,-0.37689274549484253,-0.06902574002742767,-1.6340928077697754
1789115855973578800,12.282578857421875,-0.4947862923145294,-0.24250635504722595,-1.9725021123886108
1789115855992429800,12.301429931640625,-0.5002838969230652,-0.35856732726097107,-2.266319751739502
1789115856011281000,12.320281005859375,-0.5509842038154602,-0.6206207871437073,-2.2541027069091797
1789115856030131700,12.339131591796875,-0.6994200944900513,-1.0976924896240234,-2.067183494567871
1789115856048982800,12.357982666015625,-0.8441908955574036,-1.081810474395752,-1.894924521446228
1789115856067833900,12.376833740234375,-0.9327637553215027,-0.8441908955574036,-1.9492899179458618
1789115856086685000,12.395684814453125,-1.0054545402526855,-1.0989142656326294,-2.006709575653076
1789115856105536000,12.414535888671875,-1.0060654878616333,-1.4062467813491821,-1.9083632230758667
1789115856124387000,12.433386962890625,-0.9132166504859924,-1.389753818511963,-1.8686580657958984
1789115856143238000,12.45223779296875,-0.6884248852729797,-1.3035480976104736,-1.8301746845245361
1789115856162089000,12.4710888671875,-0.5369347333908081,-1.4239612817764282,-1.673187017440796
1789115856180940000,12.48993994140625,-0.48806697130203247,-1.5833925008773804,-1.5919443368911743
1789115856199791000,12.508791015625,-0.4422534108161926,-1.4746615886688232,-1.6554723978042603
1789115856218642200,12.52764208984375,-0.24372805655002594,-1.4557254314422607,-1.6670784950256348
1789115856237493200,12.5464931640625,-0.08490777015686035,-1.3604332208633423,-1.6915124654769897
1789115856256344300,12.56534423828125,0.12033691257238388,-1.0940274000167847,-1.756262183189392
1789115856275195100,12.584195068359374,0.14721418917179108,-1.2155860662460327,-1.5241402387619019
1789115856294046200,12.603046142578124,0.03237490355968475,-0.998735249042511,-1.3139324188232422
1789115856312897300,12.621897216796874,0.08857285231351852,-0.3793361485004425,-0.9089407324790955
1789115856331748400,12.640748291015624,0.30786702036857605,-0.0024433890357613564,-0.3384093940258026
1789115856350599400,12.659599365234374,0.3280249834060669,-0.13682979345321655,0.2217375487089157
1789115856369450500,12.678450439453124,0.5094466209411621,-0.2101314514875412,0.6285618543624878
1789115856388301600,12.697301513671874,0.7000309824943542,0.18875180184841156,0.837471604347229
1789115856407152400,12.71615234375,0.6652126908302307,0.5363239049911499,1.1911520957946777
1789115856426003500,12.73500341796875,0.5283828973770142,0.8753440976142883,1.4117443561553955
1789115856444854500,12.7538544921875,0.35917818546295166,1.277281641960144,1.4257938861846924
1789115856463705600,12.77270556640625,0.16676130890846252,1.3695958852767944,1.3708176612854004
1789115856482556700,12.791556640625,0.014049487188458443,1.0109522342681885,1.323706030845642
1789115856501407700,12.81040771484375,-0.05070032179355621,0.7299624681472778,1.1874871253967285
1789115856520258600,12.829258544921874,-0.12583453953266144,0.6774296164512634,1.0317209959030151
1789115856539109600,12.848109619140626,-0.1973036676645279,0.5155550837516785,1.0836430788040161
1789115856557960700,12.866960693359376,-0.11606097966432571,0.6658235192298889,1.248571753501892
1789115856576811800,12.885811767578126,0.036039989441633224,0.9571976661682129,1.295607089996338
1789115856595662800,12.904662841796876,0.20585553348064423,0.9260444641113281,1.2937744855880737
1789115856614514000,12.923513916015626,0.2217375487089157,0.869846522808075,1.3182083368301392
1789115856633365000,12.942364990234376,0.3158080279827118,0.6230642199516296,1.382423758506775
1789115856652215800,12.9612158203125,0.49112120270729065,0.46302223205566406,1.5174208879470825
1789115856671067000,12.98006689453125,0.5332696437835693,0.648108959197998,1.690901517868042
1789115856689918000,12.99891796875,0.37200596928596497,0.7989882230758667,1.8894269466400146
1789115856708769000,13.01776904296875,0.1844758689403534,0.7336275577545166,2.0940606594085693
1789115856727620000,13.0366201171875,0.17470231652259827,0.7751652002334595,2.1258249282836914
1789115856746471200,13.05547119140625,0.1429382562637329,1.0341644287109375,2.061685800552368
1789115856765322200,13.074322265625,-0.0647498071193695,0.8765658140182495,2.1441502571105957
1789115856784173000,13.093173095703126,-0.1820324808359146,0.5387672781944275,2.2253928184509277
1789115856803024100,13.112024169921876,-0.15393351018428802,0.48073679208755493,1.784972071647644
1789115856821875200,13.130875244140626,-0.007330167107284069,0.813648521900177,1.3072131872177124
1789115856840726300,13.149726318359376,0.2089097648859024,0.9932376146316528,1.0317209959030151
1789115856859577300,13.168577392578126,0.27060532569885254,0.6853706240653992,0.5485408306121826
1789115856878428400,13.187428466796876,0.24678228795528412,0.6145123243331909,0.29748260974884033
1789115856897279500,13.206279541015626,0.23090025782585144,0.6157340407371521,0.11239589750766754
1789115856916130300,13.22513037109375,0.1582094430923462,0.33535513281822205,-0.11667182296514511
1789115856934981400,13.2439814453125,-0.04337015375494957,0.33718767762184143,-0.14171656966209412
1789115856953832400,13.26283251953125,-0.06352811306715012,0.1050657257437706,-0.19302773475646973
1789115856972683500,13.28168359375,-0.0397050715982914,-0.129499614238739,-0.49112120270729065
1789115856991534600,13.30053466796875,-0.1582094430923462,-0.09895725548267365,-0.7024743556976318
1789115857010385700,13.3193857421875,-0.3500154912471771,-0.06841489672660828,-1.0103414058685303
1789115857029236500,13.338236572265625,-0.4593571424484253,-0.2779355049133301,-1.2821683883666992
1789115857048087600,13.357087646484375,-0.518609344959259,-0.38544461131095886,-1.5925551652908325
1789115857066938600,13.375938720703125,-0.5815265774726868,-0.41293275356292725,-1.9175258874893188
1789115857085789700,13.394789794921875,-0.610236406326294,-0.45447036623954773,-2.164919137954712
1789115857104640800,13.413640869140625,-0.5998520255088806,-0.3903313875198364,-2.203402519226074
1789115857123491800,13.432491943359375,-0.7171346545219421,-0.5583143830299377,-2.148426055908203
1789115857142343000,13.451343017578125,-0.999346137046814,-0.8893936276435852,-2.0128180980682373
1789115857161193700,13.47019384765625,-1.0506572723388672,-1.2644537687301636,-1.9602851867675781
1789115857180044800,13.489044921875,-1.0213366746902466,-1.3463836908340454,-1.919358491897583
1789115857198895900,13.507895751953125,-0.9736905097961426,-1.4209071397781372,-1.7904696464538574
1789115857217747000,13.526746826171875,-0.8496885299682617,-1.6243191957473755,-1.8258987665176392
1789115857236598000,13.545597900390625,-0.652384877204895,-1.4532819986343384,-1.9083632230758667
1789115857255449000,13.564448974609375,-0.5577035546302795,-1.3084348440170288,-1.8704906702041626
1789115857274300200,13.583300048828125,-0.5070032477378845,-1.4679423570632935,-1.7403801679611206
1789115857293151000,13.60215087890625,-0.30664533376693726,-1.6511964797973633,-1.7049510478973389
1789115857312002000,13.621001953125,-0.11300674080848694,-1.4935978651046753,-1.464888095855713
1789115857330853000,13.63985302734375,0,-1.2919420003890991,-1.1227372884750366
1789115857349704200,13.6587041015625,0.21379654109477997,-0.8490777015686035,-0.8423583507537842
1789115857368555300,13.67755517578125,0.36039987206459045,-0.44958359003067017,-0.6193991303443909
1789115857387406300,13.69640625,0.25289076566696167,-0.5619794726371765,-0.3799470067024231
1789115857406257200,13.715257080078125,0.1710372269153595,-0.6145123243331909,0.04459185153245926
1789115857425108200,13.734108154296875,0.4043808877468109,-0.17897824943065643,0.33352261781692505
1789115857443959300,13.752959228515625,0.5375455617904663,-0.10384403169155121,0.6829272508621216
1789115857462810400,13.771810302734375,0.5265503525733948,0.062306419014930725,0.8466343283653259
1789115857481661400,13.790661376953125,0.4605788290500641,0.6908682584762573,0.7800519466400146
1789115857500512500,13.809512451171875,0.3115321099758148,1.2039799690246582,0.9144383668899536
1789115857519363300,13.82836328125,0.08246438205242157,1.1642749309539795,1.0103414058685303
1789115857538214400,13.84721435546875,-0.0390942245721817,0.6603258848190308,0.9376505613327026
1789115857557065500,13.8660654296875,-0.05131116881966591,0.5717530250549316,0.7971556782722473
1789115857575916500,13.88491650390625,-0.07330167293548584,0.6670452356338501,0.8796200752258301
1789115857594767600,13.903767578125,0.031153209507465363,0.7641699314117432,1.1031901836395264
1789115857613618700,13.92261865234375,0.09651386737823486,1.0133955478668213,1.2833900451660156
1789115857632469500,13.941469482421875,0.021379653364419937,0.9504783153533936,1.474050760269165
1789115857651320600,13.960320556640625,0.007941014133393764,0.7831062078475952,1.63592529296875
1789115857670171600,13.979171630859375,0.14965757727622986,0.864959716796875,1.618821620941162
1789115857689022700,13.998022705078125,0.26999449729919434,0.7189671993255615,1.664635181427002
1789115857707873800,14.016873779296875,0.30481278896331787,0.5198310017585754,1.9395164251327515
1789115857726724600,14.035724609375,0.4159869849681854,0.7415685653686523,1.9859408140182495
1789115857745575700,14.05457568359375,0.49234288930892944,1.018282413482666,1.8112385272979736
1789115857764426800,14.0734267578125,0.41110020875930786,0.9468132257461548,1.890648603439331
1789115857783277800,14.09227783203125,0.26694026589393616,1.0017894506454468,1.9896059036254883
1789115857802129000,14.11112890625,0.2473931461572647,0.9895725846290588,1.8698798418045044
1789115857820980000,14.12997998046875,0.19058434665203094,0.8252546191215515,1.9590635299682617
1789115857839831000,14.1488310546875,-0.01038440316915512,0.6615476012229919,2.1404850482940674
1789115857858681900,14.167681884765624,0.026877280324697495,0.38849884271621704,1.9694479703903198
1789115857877533000,14.186532958984374,0.129499614238739,0.46546560525894165,1.5094798803329468
1789115857896384000,14.205384033203124,0.3292466700077057,0.9590302109718323,1.1911520957946777
1789115857915235000,14.224235107421874,0.4453076422214508,0.8234221339225769,0.9633061289787292
1789115857934086100,14.243086181640624,0.3384093940258026,0.3139754831790924,0.5662553906440735
1789115857952937000,14.26193701171875,0.34879377484321594,0.3939964771270752,0.2522799074649811
1789115857971788000,14.2807880859375,0.3775036036968231,0.21685077250003815,0.02993151545524597
1789115857990639000,14.29963916015625,0.2993151545524597,0.04153761267662048,-0.2107423096895218
1789115858009490200,14.318490234375,0.1820324808359146,0.04459185153245926,-0.4416425824165344
1789115858028341200,14.33734130859375,0.1056765764951706,-0.1966928243637085,-0.6212316751480103
1789115858047192300,14.3561923828125,0.05131116881966591,-0.2644968628883362,-0.8448017835617065
1789115858066043100,14.375043212890626,0.04947862774133682,-0.2919849753379822,-1.0011786222457886
1789115858084894200,14.393894287109376,-0.045202698558568954,-0.38849884271621704,-1.2387982606887817
1789115858103745300,14.412745361328126,-0.12155860662460327,-0.41232189536094666,-1.4545036554336548
1789115858122596400,14.431596435546876,-0.24433889985084534,-0.5473191738128662,-1.6310385465621948
1789115858141447400,14.450447509765626,-0.3151971995830536,-0.633448600769043,-1.7855829000473022
1789115858160298500,14.469298583984376,-0.4318690001964569,-0.6230642199516296,-2.0048770904541016
1789115858179149300,14.4881494140625,-0.4953971207141876,-0.448361873626709,-2.303581476211548
1789115858198000400,14.50700048828125,-0.49234288930892944,-0.5540384650230408,-2.3610010147094727
1789115858216851500,14.5258515625,-0.5173876285552979,-0.6597150564193726,-2.290142774581909
1789115858235702500,14.54470263671875,-0.6206207871437073,-0.9132166504859924,-2.249216079711914
1789115858254553600,14.5635537109375,-0.6719319820404053,-1.1086877584457397,-2.223560333251953
1789115858273404400,14.582404296875,-0.6884248852729797,-1.2736165523529053,-2.1514804363250732
1789115858292255500,14.60125537109375,-0.5961869359016418,-1.4581687450408936,-1.9608960151672363
1789115858311106600,14.6201064453125,-0.4220954477787018,-1.4868786334991455,-1.908974051475525
1789115858329957600,14.63895751953125,-0.2583884000778198,-1.5137559175491333,-2.006098747253418
1789115858348808700,14.65780859375,-0.3164188861846924,-1.3476054668426514,-1.9541767835617065
1789115858367659500,14.676659423828125,-0.38544461131095886,-1.1031901836395264,-1.7629815340042114
1789115858386510600,14.695510498046875,-0.19424942135810852,-0.8405258059501648,-1.5455199480056763
1789115858405361700,14.714361572265625,-0.013438640162348747,-0.41048935055732727,-1.389753818511963
1789115858424212700,14.733212646484375,0.07452336698770523,-0.4581354558467865,-1.1215155124664307
1789115858443063800,14.752063720703125,0.014660334214568138,-0.518609344959259,-0.8808417320251465
1789115858461914600,14.77091455078125,0.07146912813186646,-0.17531315982341766,-0.5381564497947693
1789115858480765700,14.789765625,0.2754921019077301,0.026877280324697495,-0.05925218388438225
1789115858499616800,14.80861669921875,0.3158080279827118,-0.2345653474330902,0.4330907166004181
1789115858518467800,14.8274677734375,0.4825693368911743,0.08246438205242157,0.5424323678016663
1789115858537318700,14.846318603515625,0.5570927262306213,0.5021164417266846,0.5711421966552734
1789115858556169700,14.865169677734375,0.46424391865730286,0.6902574300765991,0.6823163628578186
1789115858575020800,14.884020751953125,0.393385648727417,1.063485026359558,0.6865923404693604
1789115858593872000,14.902871826171875,0.2895416021347046,1.3634874820709229,0.81425940990448
1789115858612723000,14.921722900390625,0.18997350335121155,1.1905412673950195,0.9553651213645935
1789115858631573800,14.94057373046875,-0.034818295389413834,0.8203678727149963,1.1184613704681396
1789115858650424800,14.9594248046875,-0.23212195932865143,0.9242119193077087,1.1141854524612427
1789115858669276000,14.97827587890625,-0.2504473626613617,0.8777875304222107,1.1074661016464233
1789115858688127000,14.997126953125,-0.22601348161697388,0.8814526200294495,1.2595670223236084
1789115858706977800,15.015977783203125,-0.061084724962711334,0.8484668135643005,1.410522699356079
1789115858725828900,15.034828857421875,0.06169557198882103,0.9852966070175171,1.3298144340515137
1789115858744680000,15.053679931640625,0.05375456064939499,0.7262973785400391,1.4496169090270996
1789115858763531000,15.072531005859375,0.007330167107284069,0.6737645268440247,1.5540717840194702
1789115858782382000,15.091382080078125,0.030542362481355667,0.6597150564193726,1.5858358144760132
1789115858801233000,15.11023291015625,0.1588202863931656,0.7574505805969238,1.6951775550842285
1789115858820084000,15.129083984375,0.27060532569885254,0.9052756428718567,1.8002432584762573
1789115858838935000,15.14793505859375,0.3035911023616791,0.9462023973464966,1.91386079788208
1789115858857786000,15.1667861328125,0.1447708010673523,0.9553651213645935,1.9981577396392822
1789115858876637000,15.185636962890625,0.034818295389413834,0.8612946271896362,2.0128180980682373
1789115858895488000,15.204488037109375,-0.05619794875383377,0.8533536195755005,2.249216079711914
1789115858914339000,15.223339111328125,-0.3005368411540985,0.4599680006504059,2.4532389640808105
1789115858933190100,15.242190185546875,-0.38483378291130066,0.3298575282096863,1.8973679542541504
1789115858952041000,15.261041015625,-0.17958909273147583,0.8246437907218933,1.3818128108978271
1789115858970892000,15.27989208984375,0.19119518995285034,0.9846857786178589,1.0891406536102295
1789115858989743000,15.2987431640625,0.5369347333908081,0.9052756428718567,0.6652126908302307
1789115859008594200,15.31759423828125,0.5980194807052612,0.6878139972686768,0.41476529836654663
1789115859027445000,15.336445068359374,0.37322768568992615,0.5662553906440735,0.3817795515060425
1789115859046296000,15.355296142578124,0.19058434665203094,0.2229592502117157,0.30786702036857605
1789115859065147100,15.374147216796874,0.13866232335567474,0.17592400312423706,0.0525328628718853
1789115859083998200,15.392998291015624,0.14171656966209412,0.07635590434074402,-0.1966928243637085
1789115859102849300,15.411849365234374,0.10201149433851242,0.08612946420907974,-0.4086568057537079
1789115859121700000,15.4307001953125,0.10750912129878998,-0.1582094430923462,-0.6450546979904175
1789115859140551200,15.44955126953125,-0.023212196305394173,-0.0916270911693573,-1.003622055053711
1789115859159402200,15.46840234375,-0.2095206081867218,0.004275931045413017,-1.230857253074646
1789115859178253000,15.487253173828124,-0.3542914092540741,-0.022601349279284477,-1.497262954711914
1789115859197104000,15.506104248046874,-0.42698222398757935,-0.4715740978717804,-1.8087950944900513
1789115859215955200,15.524955078125,-0.47829338908195496,-0.32069480419158936,-2.196683168411255
1789115859234806300,15.54380615234375,-0.46607646346092224,-0.3640649616718292,-2.6505424976348877
1789115859253657000,15.562656982421874,-0.5399889945983887,-0.6529957056045532,-2.6291630268096924
1789115859272508200,15.581508056640626,-0.6939224600791931,-0.7977665066719055,-2.347562313079834
1789115859291359200,15.600359130859376,-0.9107732772827148,-0.9578084945678711,-2.0946714878082275
1789115859310210300,15.619210205078126,-1.0054545402526855,-1.0836430788040161,-1.8827075958251953
1789115859329061000,15.63806103515625,-0.9431481957435608,-1.0873081684112549,-1.9957143068313599
1789115859347912200,15.656912109375,-0.8753440976142883,-1.0928057432174683,-2.095282554626465
1789115859366763300,15.67576318359375,-0.9413156509399414,-1.0317209959030151,-1.9590635299682617
1789115859385614300,15.6946142578125,-0.966971218585968,-1.0512681007385254,-1.9547876119613647
1789115859404465200,15.713465087890626,-0.7153021693229675,-1.12823486328125,-2.1288790702819824
1789115859423316200,15.732316162109376,-0.3170297145843506,-1.1960389614105225,-1.932186245918274
1789115859442167300,15.751167236328126,-0.24189551174640656,-1.0928057432174683,-1.7080053091049194
1789115859461018000,15.77001806640625,-0.22540263831615448,-1.0506572723388672,-1.5504066944122314
1789115859479869200,15.788869140625,-0.13682979345321655,-0.7049177289009094,-1.3934189081192017
1789115859498720300,15.80772021484375,-0.09040539711713791,-0.3823903799057007,-1.1245697736740112
1789115859517571000,15.826571044921875,0.12400199472904205,-0.20219044387340546,-0.9339854717254639
1789115859536422100,15.845422119140625,0.22601348161697388,0.014049487188458443,-0.81425940990448
1789115859555273200,15.864273193359375,0.2626643180847168,0.31825143098831177,-0.5961869359016418
1789115859574124300,15.883124267578125,0.237008735537529,0.36162158846855164,-0.13377554714679718
1789115859592975000,15.90197509765625,0.4355340898036957,0.4471401870250702,0.34818294644355774
1789115859611826200,15.920826171875,0.5015056133270264,0.577861487865448,0.7299624681472778
1789115859630677200,15.93967724609375,0.4679090082645416,0.8313631415367126,0.8521319031715393
1789115859649528000,15.958528076171875,0.3292466700077057,0.9132166504859924,0.7953231334686279
1789115859668379100,15.977379150390625,0.1582094430923462,0.832584798336029,0.8191461563110352
1789115859687230200,15.996230224609375,-0.022601349279284477,0.7702783942222595,0.7733326554298401
1789115859706081000,16.0150810546875,-0.11239589750766754,0.7043069005012512,0.9486457705497742
1789115859724932000,16.03393212890625,-0.025655584409832954,0.9718579649925232,1.0549331903457642
1789115859743783200,16.052783203125,0.056808795779943466,0.9443698525428772,0.998735249042511
1789115859762634000,16.071634033203125,0.021379653364419937,1.0054545402526855,0.9608627557754517
1789115859781485000,16.090485107421873,-0.06291726976633072,0.9547542929649353,1.0164498090744019
1789115859800336100,16.109336181640625,-0.0781884491443634,1.0237799882888794,1.1783243417739868
1789115859819187200,16.128187255859373,0.04459185153245926,1.0133955478668213,1.3151541948318481
1789115859838038000,16.1470380859375,0.1575985997915268,0.7855495810508728,1.5381897687911987
1789115859856889000,16.16588916015625,0.22051586210727692,0.9791881442070007,1.5333030223846436
1789115859875740200,16.184740234375,0.2987042963504791,1.0573766231536865,1.673187017440796
1789115859894591000,16.203591064453125,0.3042019307613373,1.1031901836395264,1.7477103471755981
1789115859913442000,16.222442138671877,0.3005368411540985,1.152668833732605,1.8741557598114014
1789115859932293000,16.241293212890625,0.2999260127544403,0.8240329623222351,1.992049217224121
1789115859951144000,16.26014404296875,0.11300674080848694,0.5387672781944275,1.8546086549758911
1789115859969995000,16.2789951171875,-0.07207997888326645,0.7568397521972656,1.8057408332824707
1789115859988846000,16.29784619140625,-0.017714571207761765,1.0250016450881958,1.6579158306121826
1789115860007697000,16.31669677734375,0.1423274129629135,0.9016105532646179,1.4545036554336548
1789115860026548000,16.3355478515625,0.09407047927379608,1.1532796621322632,1.202147364616394
1789115860045399000,16.35439892578125,0.046424392610788345,1.0164498090744019,1.318819284439087
1789115860064249900,16.373249755859376,-0.1441599577665329,0.6181774139404297,1.035996913909912
1789115860083101000,16.392100830078125,-0.13682979345321655,0.5082249045372009,0.8680139780044556
1789115860101952000,16.410951904296876,-0.2480039894580841,0.7195780873298645,0.5656445622444153
1789115860120802800,16.429802734375,-0.15210096538066864,0.7696675658226013,0.418430358171463
1789115860139654000,16.44865380859375,-0.22906772792339325,0.555260181427002,0.031153209507465363
1789115860158505000,16.4675048828125,-0.5302154421806335,0.53143709897995,-0.09040539711713791
1789115860177355800,16.486355712890624,-0.5241069197654724,0.6988092660903931,-0.18691925704479218
1789115860196206800,16.505206787109376,-0.41171106696128845,0.08368607610464096,-0.9009997248649597
1789115860215058000,16.524057861328124,-0.3439069986343384,0.10934165865182877,-1.2504043579101562
1789115860233908700,16.54290869140625,-0.41048935055732727,-0.08429691940546036,-1.5326920747756958
1789115860252759800,16.561759765625,-0.44103172421455383,-0.33718767762184143,-1.5064257383346558
1789115860271610600,16.580610595703124,-0.6597150564193726,-0.19424942135810852,-1.5571260452270508
1789115860290461700,16.599461669921876,-0.8551861643791199,0.16859383881092072,-2.0329761505126953
1789115860309312800,16.618312744140624,-0.9449806809425354,-0.2241809368133545,-2.2394423484802246
1789115860328163600,16.63716357421875,-1.0121738910675049,-0.37078428268432617,-2.183244466781616
1789115860347014700,16.6560146484375,-1.1221264600753784,-0.12094775587320328,-2.291975259780884
1789115860365865700,16.67486572265625,-1.1190721988677979,0.18875180184841156,-2.558915615081787
1789115860384716500,16.693716552734376,-1.3145432472229004,-0.5589252710342407,-2.28342342376709
1789115860403567600,16.712567626953124,-1.5485742092132568,-0.7653915882110596,-1.8582737445831299
1789115860422418400,16.73141845703125,-1.4325132369995117,-0.9443698525428772,-1.8454458713531494
1789115860441269500,16.75026953125,-1.1312891244888306,-0.860683798789978,-1.8930920362472534
1789115860460120600,16.76912060546875,-0.8716790676116943,-0.7153021693229675,-1.8753774166107178
1789115860478971400,16.787971435546876,-0.892447829246521,-0.6536065936088562,-2.067183494567871
1789115860497822500,16.806822509765624,-0.7207997441291809,-0.652384877204895,-1.9156934022903442
1789115860516673300,16.82567333984375,-0.5173876285552979,-0.5363239049911499,-1.5846141576766968
1789115860535524400,16.8445244140625,-0.45019441843032837,-0.41048935055732727,-1.3665416240692139
1789115860554375400,16.86337548828125,-0.5430431962013245,-0.16370706260204315,-1.050046443939209
1789115860573226200,16.882226318359375,-0.5418215394020081,0.03420744836330414,-0.8276980519294739
1789115860592077300,16.901077392578124,-0.4043808877468109,0.09834641218185425,-0.4349232614040375
1789115860610928000,16.91992822265625,-0.39643988013267517,0.1692046970129013,-0.010995250195264816
1789115860629779200,16.938779296875,-0.42514967918395996,0.34573954343795776,0.3310792148113251
1789115860648630300,16.95763037109375,-0.32313820719718933,0.656660795211792,0.6230642199516296
1789115860667481000,16.976481201171875,-0.2596100866794586,0.8893936276435852,0.7611156702041626
1789115860686332200,16.995332275390624,-0.208298921585083,1.2424633502960205,0.8582404255867004
1789115860705183000,17.014182861328123,-0.17348061501979828,1.2387982606887817,1.1874871253967285
1789115860724034000,17.033033935546875,-0.08124268800020218,1.180156946182251,1.2925528287887573
1789115860742884900,17.051884765625,-0.036039989441633224,0.8667922616004944,1.3506596088409424
1789115860761736000,17.07073583984375,-0.11545012891292572,1.0592091083526611,1.5418548583984375
1789115860780586800,17.089586669921875,-0.182643324136734,1.1917630434036255,1.8075734376907349
1789115860799437800,17.108437744140623,-0.19363857805728912,1.142895221710205,2.0922281742095947
1789115860818289000,17.127288818359375,-0.10750912129878998,1.2607887983322144,2.1294898986816406
1789115860837139700,17.1461396484375,0.21440738439559937,1.4850460290908813,2.127657413482666
1789115860855990800,17.16499072265625,0.35856732726097107,1.3384426832199097,2.0806221961975098
1789115860874841600,17.183841552734375,0.2583884000778198,0.762948215007782,1.974334716796875
1789115860893692700,17.202692626953127,0.10628741979598999,0.6126797795295715,1.9120283126831055
1789115860912543500,17.22154345703125,-0.07085828483104706,0.6902574300765991,1.8924812078475952
1789115860931394600,17.24039453125,-0.20402298867702484,0.5528167486190796,1.6658568382263184
1789115860950245400,17.259245361328126,-0.17958909273147583,0.18997350335121155,1.5736188888549805
1789115860969096400,17.278096435546875,-0.14904673397541046,0.13621893525123596,1.3952515125274658
1789115860997373000,17.306373046875,-0.12216944992542267,0.009773556143045425,1.1960389614105225
1789115861016223700,17.3252236328125,-0.006108472589403391,0.19241689145565033,1.1141854524612427
1789115861035074800,17.34407470703125,0.23945212364196777,-0.0659715011715889,1.3390535116195679
1789115861053925600,17.362925537109376,0.2101314514875412,-0.19974705576896667,1.6322602033615112
1789115861072776700,17.381776611328124,0.34573954343795776,-0.4214846193790436,1.6218758821487427
1789115861091627500,17.40062744140625,0.3512371778488159,-0.053143709897994995,1.5033714771270752
1789115861110478600,17.419478515625,0.3823903799057007,0.0012216945178806782,1.475272536277771
1789115861129329400,17.438329345703124,0.3903313875198364,-0.07024743407964706,1.3708176612854004
1789115861148180500,17.457180419921876,0.337798535823822,0.04337015375494957,1.192984700202942
1789115861167031300,17.47603125,0.09712471067905426,0.2877090573310852,0.9358180165290833
1789115861185882400,17.49488232421875,-0.3310792148113251,0.7757760286331177,0.444085955619812
1789115861204733200,17.513733154296876,-0.25594499707221985,1.1044118404388428,0.3408527672290802
1789115861223584300,17.532584228515624,0.03237490355968475,0.8393041491508484,-0.2895416021347046
1789115861242435000,17.55143505859375,0.20524467527866364,0.21379654109477997,-0.5955760478973389
1789115861261286100,17.5702861328125,0.23273280262947083,0.11300674080848694,-1.0347752571105957
1789115861280137000,17.589136962890624,0.015271181240677834,-0.26694026589393616,-1.59988534450531
1789115861298988000,17.607988037109376,-0.2596100866794586,-0.5955760478973389,-2.012207269668579
1789115861317838800,17.6268388671875,-0.41537612676620483,-0.7660024762153625,-1.9211909770965576
1789115861336690000,17.64568994140625,-0.35795649886131287,-0.8710681796073914,-1.9120283126831055
1789115861355540700,17.664540771484376,-0.3671191930770874,-1.3078240156173706,-1.877210021018982
1789115861374391800,17.683391845703124,-0.4324798583984375,-1.3543246984481812,-1.7244981527328491
1789115861393242600,17.70224267578125,-0.4556920528411865,-1.385477900505066,-1.8130710124969482
1789115861412093700,17.72109375,-0.43981003761291504,-1.0708152055740356,-1.9303536415100098
1789115861430944500,17.739944580078124,-0.4709632396697998,-1.0188932418823242,-1.9242452383041382
1789115861449795600,17.758795654296875,-0.5686988234519958,-0.8600729703903198,-1.900422215461731
1789115861468646400,17.777646484375,-0.7995990514755249,-0.6016845703125,-1.9505116939544678
1789115861487497500,17.79649755859375,-0.9132166504859924,-0.7372926473617554,-2.144761085510254
1789115861506348300,17.815348388671875,-0.8729007244110107,-1.166107416152954,-2.2528810501098633
1789115861525199400,17.834199462890624,-0.8729007244110107,-1.13800847530365,-2.3280153274536133
1789115861544050200,17.85305029296875,-0.7171346545219421,-0.8435800671577454,-2.2510485649108887
1789115861572326700,17.88132666015625,-0.33718767762184143,-1.4245721101760864,-1.3799803256988525
1789115861591177500,17.900177490234373,0.291374146938324,-1.6066046953201294,-1.3567681312561035
1789115861610028500,17.919028564453125,0.7421793937683105,-0.5283828973770142,-1.0066763162612915
1789115861628879400,17.93787939453125,0.9889616966247559,-0.2351761907339096,-0.5796940326690674
1789115861647730200,17.956730224609377,0.7684458494186401,-0.22906772792339325,-0.503948986530304
1789115861666581200,17.975581298828125,0.45202696323394775,-0.19241689145565033,-0.39888325333595276
1789115861685432000,17.99443212890625,0.3536805510520935,-0.20768806338310242,0.02076880633831024
1789115861704283100,18.013283203125,0.2852656841278076,0.062306419014930725,0.5265503525733948
1789115861723134000,18.032134033203125,0.3512371778488159,0.2608317732810974,0.8191461563110352
1789115861741985000,18.050985107421877,0.42759308218955994,0.4068242609500885,0.9309312105178833
1789115861760835800,18.0698359375,0.3274141252040863,0.5570927262306213,0.9920159578323364
1789115861779686700,18.088686767578125,0.09468132257461548,0.7391251921653748,0.9895725846290588
1789115861798537700,18.107537841796876,0.011606098152697086,0.7690566778182983,0.9529217481613159
1789115861817388500,18.126388427734376,0.07207997888326645,0.731184184551239,0.9614735841751099
1789115861836239600,18.145239501953125,0.19302773475646973,0.6169557571411133,0.9425373077392578
1789115861855090400,18.16409033203125,0.2736595869064331,0.4214846193790436,0.8118160367012024
1789115861873941500,18.18294140625,0.2736595869064331,0.1954711228609085,0.7953231334686279
1789115861892792300,18.201792236328124,0.21685077250003815,0.0781884491443634,0.948034942150116
1789115861911643100,18.22064306640625,0.16553960740566254,0.0922379344701767,1.1099094152450562
1789115861930494200,18.239494140625,0.367730051279068,0.522885262966156,1.2137534618377686
1789115861949345000,18.258344970703124,0.5870242118835449,0.6084038615226746,1.243685007095337
1789115861968196000,18.277196044921876,0.8258655071258545,0.7134696245193481,1.1288456916809082
1789115861987047000,18.296046875,0.8863393664360046,0.8942803740501404,1.2339115142822266
1789115862005897700,18.314897705078124,0.5100574493408203,0.8631271719932556,1.6175998449325562
1789115862024748800,18.333748779296876,0.04825693368911743,0.43614494800567627,1.9602851867675781
1789115862043599600,18.352599609375,-0.01038440316915512,0.33291175961494446,2.203402519226074
1789115862062450400,18.371450439453124,0.31886225938796997,1.01706063747406,2.205845832824707
1789115862081301500,18.390301513671876,0.3640649616718292,1.2278029918670654,2.2327229976654053
1789115862100152300,18.40915234375,0.20585553348064423,0.8875610828399658,2.0794005393981934
1789115862119003400,18.42800341796875,0.1832541823387146,0.5351021885871887,1.5504066944122314
1789115862137854200,18.446854248046876,0.1563768982887268,0.8796200752258301,1.4496169090270996
1789115862156705000,18.465705078125,0.4318690001964569,1.1777135133743286,1.4160202741622925
1789115862175556000,18.48455615234375,0.7470661997795105,0.8906152844429016,0.9400939345359802
1789115862194407000,18.503406982421875,0.5198310017585754,0.5650337338447571,0.7372926473617554
1789115862213257700,18.5222578125,0.2235700935125351,0.5638120174407959,0.8771766424179077
1789115862232108800,18.54110888671875,0.07207997888326645,0.16859383881092072,0.675597071647644
1789115862250959600,18.559959716796875,0.0647498071193695,0.09407047927379608,0.2730487287044525
1789115862269810400,18.578810546875,0.07696675509214401,0.2480039894580841,0.18936264514923096
1789115862288661500,18.59766162109375,0.05619794875383377,0.054365407675504684,-0.04153761267662048
1789115862307512300,18.61651220703125,-0.07207997888326645,-0.08490777015686035,-0.22601348161697388
1789115862326363100,18.635363037109375,-0.17836740612983704,0.13744063675403595,-0.2907632887363434
1789115862345214200,18.654214111328123,-0.25594499707221985,-0.10323318839073181,-0.6511631608009338
1789115862364065000,18.67306494140625,-0.4446968138217926,-0.04947862774133682,-0.9474241137504578
1789115862382915800,18.691915771484375,-0.6963658928871155,-0.15087927877902985,-1.4025816917419434
1789115862401767000,18.710766845703127,-0.832584798336029,-0.26694026589393616,-1.9156934022903442
1789115862420617700,18.72961767578125,-0.7006418108940125,-0.28404396772384644,-2.2107326984405518
1789115862439468500,18.748468505859375,-0.46485477685928345,-0.4324798583984375,-2.36833119392395
1789115862458319400,18.7673193359375,-0.469741553068161,-0.6151232123374939,-2.2333338260650635
1789115862477170400,18.78617041015625,-0.7214106321334839,-0.6688777208328247,-2.0366411209106445
1789115862496021200,18.805021240234375,-0.7934905886650085,-0.9077190160751343,-2.0335869789123535
1789115862514872000,18.8238720703125,-0.8747332692146301,-1.1141854524612427,-1.993270993232727
1789115862533723100,18.84272314453125,-0.9095515608787537,-1.1899304389953613,-1.997546911239624
1789115862552574000,18.861573974609374,-0.7183563709259033,-1.197871446609497,-2.1227705478668213
1789115862571424800,18.8804248046875,-0.5845808386802673,-1.0946383476257324,-2.1258249282836914
1789115862590275800,18.89927587890625,-0.546097457408905,-1.2522368431091309,-1.909584879875183
1789115862609126700,18.918126708984374,-0.5094466209411621,-1.6847931146621704,-1.9077523946762085
1789115862627977500,18.9369775390625,-0.3042019307613373,-1.7293848991394043,-1.7770310640335083
1789115862646828300,18.955828369140626,-0.02993151545524597,-1.405635952949524,-1.650585651397705
1789115862665679400,18.974679443359374,0.1832541823387146,-0.7983773946762085,-1.5137559175491333
1789115862684530200,18.9935302734375,0.17531315982341766,-0.5729747414588928,-1.2534586191177368
1789115862703381000,19.012381103515626,0.06902574002742767,-0.4593571424484253,-0.9773555994033813
1789115862722231800,19.031231689453126,0.17592400312423706,-0.2620534598827362,-0.7317950129508972
1789115862741083000,19.050082763671874,0.33169007301330566,-0.17348061501979828,-0.4752391576766968
1789115862759933700,19.06893359375,0.36162158846855164,0.038483377546072006,-0.05986303091049194
1789115862778784500,19.087784423828126,0.30786702036857605,0.19424942135810852,0.28221142292022705
1789115862797635600,19.106635498046874,0.2901524603366852,0.07085828483104706,0.5986303091049194
1789115862816486400,19.125486328125,0.3304683566093445,0.5332696437835693,0.786160409450531
1789115862835337200,19.144337158203125,0.3658975064754486,0.9816315174102783,0.9761339426040649
1789115862854188000,19.16318798828125,0.24311721324920654,0.7831062078475952,1.0995250940322876
1789115862873038800,19.182038818359374,0.19363857805728912,0.5296045541763306,0.7977665066719055
1789115862891890000,19.200889892578125,0.1820324808359146,0.49295374751091003,0.6975875496864319
1789115862910740700,19.21974072265625,0.045202698558568954,0.652384877204895,0.91566002368927
1789115862929591600,19.238591552734373,-0.0910162404179573,0.7849387526512146,1.0555440187454224
1789115862948442400,19.2574423828125,-0.20341213047504425,0.6652126908302307,1.1795459985733032
1789115862967293400,19.27629345703125,-0.2351761907339096,0.5131117105484009,1.3457728624343872
1789115862986144300,19.295144287109373,-0.02504473738372326,0.8423583507537842,1.1966497898101807
1789115863004995000,19.3139951171875,0.15271180868148804,1.0133955478668213,0.8814526200294495
1789115863023846000,19.332845947265625,0.3365768492221832,0.9022213816642761,1.0195040702819824
1789115863042696700,19.35169677734375,0.5393781065940857,1.1502254009246826,1.3738718032836914
1789115863061547800,19.3705478515625,0.474017471075058,1.4807701110839844,1.5510175228118896
1789115863080398600,19.389398681640625,0.14965757727622986,1.3970839977264404,1.6279842853546143
1789115863099249400,19.40824951171875,-0.03176405653357506,0.43919917941093445,1.9682261943817139
1789115863118100200,19.427100341796876,-0.18875180184841156,0.45508119463920593,2.6157243251800537
1789115863136951000,19.445950927734376,-0.062306419014930725,0.8295305967330933,3.2015268802642822
1789115863155802000,19.464802001953124,0.029320668429136276,0.7660024762153625,2.6700897216796875
1789115863174653000,19.48365283203125,0.13927318155765533,0.7183563709259033,1.5546826124191284
1789115863193503700,19.502503662109376,0.2510582208633423,0.9126058220863342,0.8502993583679199
1789115863212354600,19.5213544921875,0.39888325333595276,1.0378295183181763,1.0665392875671387
1789115863231205400,19.540205322265624,0.4049917459487915,0.6768187880516052,1.3334795236587524
1789115863250056400,19.559056396484376,0.3365768492221832,0.10017894953489304,1.1459494829177856
1789115863268907300,19.5779072265625,0.28282228112220764,-0.037261683493852615,0.9938485026359558
1789115863287758000,19.596758056640624,0.29565006494522095,-0.05497625470161438,0.8600729703903198
1789115863306609000,19.61560888671875,0.18630841374397278,-0.4679090082645416,0.6328377723693848
1789115863325459700,19.634459716796876,0.08368607610464096,-0.503948986530304,0.3365768492221832
1789115863344310500,19.653310546875,0.046424392610788345,-0.1582094430923462,0.08307522535324097
1789115863363161600,19.67216162109375,-0.07146912813186646,0.028098974376916885,-0.17653486132621765
1789115863382012400,19.691012451171876,-0.09529217332601547,0.1563768982887268,-0.32313820719718933
1789115863400863200,19.70986328125,-0.10140064358711243,0.021379653364419937,-0.5277720093727112
1789115863419714000,19.728714111328124,-0.17592400312423706,-0.14965757727622986,-0.6890357136726379
1789115863476266500,19.7852666015625,-0.5265503525733948,-0.3518480062484741,-1.7159463167190552
1789115863495117300,19.804117431640623,-0.5399889945983887,-0.390942245721817,-1.961506962776184
1789115863513968400,19.822968505859375,-0.6077930331230164,-0.448361873626709,-2.1056668758392334
1789115863532819200,19.841819091796875,-0.6401679515838623,-0.5430431962013245,-2.0763461589813232
1789115863551670000,19.860669921875,-0.6077930331230164,-0.730573296546936,-2.0995583534240723
1789115863570520800,19.879520751953127,-0.679872989654541,-1.1691616773605347,-2.16552996635437
1789115863589371600,19.89837158203125,-0.6792621612548828,-1.3384426832199097,-2.254713535308838
1789115863608222500,19.917222412109375,-0.43797749280929565,-1.2601778507232666,-2.1197164058685303
1789115863627073300,19.9360732421875,-0.14049486815929413,-1.4074684381484985,-1.8686580657958984
1789115863655349500,19.964349609375,-0.18875180184841156,-1.751375436782837,-2.0824546813964844
1789115863683626000,19.9926259765625,-0.2089097648859024,-1.2027583122253418,-1.974334716796875
1789115863702476800,20.011476806640626,-0.3017585575580597,-1.4013599157333374,-1.945624828338623
1789115863730753000,20.0397529296875,-0.07330167293548584,-1.040272831916809,-1.7403801679611206
1789115863749603800,20.058603759765624,0.23273280262947083,-0.6279509663581848,-1.3194301128387451
1789115863768454700,20.07745458984375,0.2895416021347046,-0.5070032477378845,-0.8722898960113525
1789115863787305500,20.096305419921876,0.3243598937988281,-0.2211267054080963,-0.49417543411254883
1789115863806156300,20.11515625,0.38727715611457825,-0.03542914241552353,-0.12278030067682266
1789115863825007000,20.134007080078124,0.4459185004234314,0.1056765764951706,0.1557660549879074
1789115863843858000,20.15285791015625,0.47951510548591614,0.27915719151496887,0.284654825925827
1789115863862708700,20.171708740234376,0.4819584786891937,0.2895416021347046,0.3115321099758148
1789115863881559600,20.1905595703125,0.4575245976448059,0.517998456954956,0.4813476502895355
1789115863900410400,20.209410400390624,0.4727957844734192,0.9364288449287415,0.6175665855407715
1789115863919261200,20.22826123046875,0.4556920528411865,0.9620844125747681,0.6786513328552246
1789115863938112000,20.247112060546876,0.3506263196468353,0.6774296164512634,0.7653915882110596
1789115863956963000,20.265963134765624,0.06841489672660828,0.446529358625412,0.7696675658226013
1789115863975814000,20.28481396484375,-0.17348061501979828,0.183865025639534,0.7696675658226013
1789115863994664400,20.30366455078125,-0.12583453953266144,0.25472331047058105,0.9083298444747925
1789115864013515500,20.322515625,0.11972606182098389,0.7012526392936707,1.1532796621322632
1789115864032366300,20.341366455078123,0.28037887811660767,0.7183563709259033,1.364098310470581
1789115864060642600,20.369642578125,0.2492256760597229,0.893058717250824,1.1893196105957031
1789115864079493400,20.388493408203125,0.2235700935125351,0.5613686442375183,1.271173119544983
1789115864098344200,20.40734423828125,0.2107423096895218,0.3817795515060425,1.6927341222763062
1789115864117195000,20.426195068359377,0.3689517378807068,0.5980194807052612,1.9010330438613892
1789115864136045800,20.4450458984375,0.5467082858085632,0.6383354067802429,1.8106275796890259
1789115864154896600,20.463896728515625,0.5399889945983887,0.4831801950931549,2.0341978073120117
1789115864173747500,20.48274755859375,0.24678228795528412,0.8252546191215515,2.1197164058685303
1789115864192598300,20.501598388671876,0.1453816443681717,0.8423583507537842,2.0592424869537354
1789115864211449000,20.520448974609376,0.21318569779396057,0.5961869359016418,2.066572666168213
1789115864230300000,20.5392998046875,0.10750912129878998,0.7104153633117676,1.8808751106262207
1789115864249150700,20.558150634765624,0.12522368133068085,0.6957550048828125,1.6933449506759644
1789115864268001500,20.57700146484375,0.1588202863931656,0.762948215007782,1.4172420501708984
1789115864286852400,20.595852294921876,0.3384093940258026,0.9327637553215027,1.23940908908844
1789115864305703200,20.614703125,0.4477510452270508,0.7287407517433167,1.1490037441253662
1789115864324554000,20.633553955078124,0.5357130169868469,0.5760289430618286,0.9883508682250977
1789115864343404800,20.65240478515625,0.47890424728393555,0.5943543910980225,0.7715001106262207
1789115864362255600,20.671255615234376,0.34696123003959656,0.4886777997016907,0.5222744345664978
1789115864381106400,20.6901064453125,0.2608317732810974,0.6255075931549072,0.20463383197784424
1789115864399957200,20.708957275390624,0.1575985997915268,0.5662553906440735,-0.2510582208633423
1789115864418807800,20.727807861328124,0.15454435348510742,0.47585001587867737,-0.6914790868759155
1789115864437658600,20.74665869140625,0.15332266688346863,0.32130566239356995,-1.0427162647247314
1789115864456509400,20.765509521484375,0.11239589750766754,0.036039989441633224,-1.3017154932022095
1789115864475360300,20.7843603515625,0.00916270911693573,0.021379653364419937,-1.515588402748108
1789115864494211000,20.803211181640624,-0.20707722008228302,-0.2858765125274658,-1.6090480089187622
1789115864513062000,20.822061767578123,-0.3524588644504547,-0.46241137385368347,-1.5161992311477661
1789115864531912700,20.84091259765625,-0.3426853120326996,-0.20585553348064423,-1.6792954206466675
1789115864550763500,20.859763427734375,-0.5613686442375183,-0.08307522535324097,-2.1178839206695557
1789115864569614300,20.8786142578125,-0.869235634803772,-0.2773246467113495,-2.266319751739502
1789115864588465200,20.897465087890627,-1.0683718919754028,-0.1453816443681717,-2.263265371322632
1789115864607316000,20.91631591796875,-1.1532796621322632,-0.029320668429136276,-2.3603901863098145
1789115864626166800,20.935166748046875,-1.147171139717102,-0.1704263836145401,-2.4617908000946045
1789115864645017600,20.954017578125,-1.0830321311950684,-0.45141613483428955,-2.4092578887939453
1789115864663868200,20.9728681640625,-1.1306782960891724,-0.578472375869751,-2.277925729751587
1789115864682719200,20.99171923828125,-1.0793671607971191,-0.5473191738128662,-2.2162301540374756
1789115864701569800,21.01056982421875,-0.7409577369689941,-0.7947123050689697,-2.223560333251953
1789115864720420600,21.029420654296874,-0.5051707029342651,-0.6511631608009338,-2.0311434268951416
1789115864739271400,21.048271484375,-0.5015056133270264,-0.6774296164512634,-1.9218018054962158
1789115864758122200,21.067122314453126,-0.5644228458404541,-0.5919110178947449,-1.9816648960113525
1789115864776973000,21.08597314453125,-0.6181774139404297,-0.3542914092540741,-1.8320072889328003
1789115864795823900,21.104823974609374,-0.3029802441596985,-0.08002099394798279,-1.4227396249771118
1789115864814674700,21.1236748046875,-0.008551862090826035,0.19241689145565033,-1.1722159385681152
1789115864833525200,21.142525146484374,0.08063183724880219,0.3506263196468353,-0.9193251132965088
1789115864852376000,21.1613759765625,-0.1453816443681717,0.4355340898036957,-0.5741963982582092
1789115864871227000,21.180226806640626,-0.208298921585083,0.3304683566093445,-0.062306419014930725
1789115864890077700,21.19907763671875,0.0018325417768210173,0.517998456954956,0.3500154912471771
1789115864908928500,21.217928466796874,0.15210096538066864,0.6022953987121582,0.786771297454834
1789115864927779300,21.236779296875,0.19180603325366974,0.8637380003929138,0.7886037826538086
1789115864946630100,21.255630126953125,0.2235700935125351,1.0213366746902466,0.7763868570327759
1789115864965480700,21.274480712890625,0.04214845970273018,1.294385313987732,0.8160919547080994
1789115864984331500,21.29333154296875,-0.1172826737165451,1.2723948955535889,0.8582404255867004
1789115865003182300,21.312182373046873,-0.2095206081867218,1.1593880653381348,1.1264023780822754
1789115865022033200,21.331033203125,-0.30481278896331787,0.7207997441291809,1.0995250940322876
1789115865040884000,21.349884033203125,-0.2480039894580841,0.7244648337364197,1.0024003982543945
1789115865059734800,21.36873486328125,-0.11972606182098389,1.2797249555587769,1.339664340019226
1789115865078585300,21.38758544921875,-0.026877280324697495,1.35798978805542,1.7202222347259521
1789115865097436200,21.406436279296877,0.04825693368911743,1.064706802368164,1.7440452575683594
1789115865116287000,21.425286865234376,0.08063183724880219,0.5405998229980469,1.6340928077697754
1789115865135137800,21.4441376953125,0.08368607610464096,0.5839699506759644,1.7495429515838623
1789115865153988600,21.462988525390625,0.11606097966432571,0.8075400590896606,1.9169150590896606
1789115865172839400,21.48183935546875,0.18081079423427582,0.5259394645690918,2.070237636566162
1789115865191690000,21.50068994140625,0.39643988013267517,0.30969956517219543,2.269373893737793
1789115865210540800,21.519540771484376,0.4599680006504059,0.4202629029750824,2.2137868404388428
1789115865229391600,21.5383916015625,0.3549022674560547,0.3793361485004425,1.686625599861145
1789115865248242400,21.557242431640624,0.20524467527866364,0.6426113247871399,1.3078240156173706
1789115865267093000,21.576093017578124,-0.06902574002742767,0.6426113247871399,1.6982316970825195
1789115865285943800,21.59494384765625,-0.01588202826678753,0.17592400312423706,1.8393374681472778
1789115865304794600,21.613794677734376,0.02993151545524597,0.32374903559684753,1.5424656867980957
1789115865323645400,21.6326455078125,-0.04337015375494957,0.6297835111618042,1.3940298557281494
1789115865342496300,21.651496337890624,-0.13744063675403595,1.1318999528884888,1.5833925008773804
1789115865361346800,21.670346923828124,-0.07269082218408585,0.9260444641113281,1.3469945192337036
1789115865380197600,21.68919775390625,0.11545012891292572,0.9419264793395996,0.892447829246521
1789115865399048400,21.70804833984375,0.16798299551010132,0.9785773158073425,0.8167027831077576
1789115865417899300,21.726899169921875,0.08674030750989914,0.7189671993255615,0.367730051279068
1789115865436749800,21.745749755859375,-0.0781884491443634,0.5332696437835693,0.08124268800020218
1789115865455600600,21.7646005859375,-0.12583453953266144,0.4703523814678192,-0.012216945178806782
1789115865474451500,21.783451416015627,-0.05008947476744652,0.261442631483078,-0.6633801460266113
1789115865493302300,21.80230224609375,-0.07146912813186646,0.0018325417768210173,-1.0573766231536865
1789115865512152800,21.82115283203125,-0.3023693859577179,0.183865025639534,-1.4667205810546875
1789115865531003600,21.840003662109375,-0.4837910234928131,0.13560809195041656,-1.926688551902771
1789115865549854500,21.8588544921875,-0.6096255779266357,-0.3506263196468353,-2.238220691680908
1789115865568705000,21.877705078125,-0.7146912813186646,-0.2522799074649811,-2.177135944366455
1789115865587555800,21.896555908203126,-0.7776085734367371,-0.34696123003959656,-2.3457298278808594
1789115865606406700,21.91540673828125,-1.1398409605026245,-0.39643988013267517,-2.2015697956085205
1789115865625257500,21.934257568359374,-1.3512704372406006,-0.2901524603366852,-2.113607883453369
1789115865644108000,21.95310791015625,-1.520475149154663,-0.8081509470939636,-2.2650980949401855
1789115865662958800,21.971958740234374,-1.5742297172546387,-0.8399149775505066,-2.0690159797668457
1789115865681809700,21.9908095703125,-1.2479609251022339,-0.8948912620544434,-2.370163679122925
1789115865700660500,22.009660400390626,-0.9284878373146057,-0.9138274788856506,-2.2296688556671143
1789115865719511000,22.028510986328126,-0.7947123050689697,-1.277281641960144,-1.8930920362472534
1789115865738361900,22.04736181640625,-0.7879929542541504,-1.174659252166748,-1.8778208494186401
1789115865757212400,22.06621240234375,-0.7592831254005432,-0.8441908955574036,-1.7422127723693848
1789115865776063200,22.085063232421874,-0.7372926473617554,-0.6077930331230164,-1.6200432777404785
1789115865794914000,22.1039140625,-0.6316160559654236,-0.4947862923145294,-1.6524181365966797
1789115865813764600,22.1227646484375,-0.3903313875198364,-0.4056025743484497,-1.3500487804412842
1789115865832615400,22.141615478515625,-0.20768806338310242,-0.1960819661617279,-1.0390511751174927
1789115865851466200,22.16046630859375,0.014049487188458443,-0.19058434665203094,-0.7403468489646912
1789115865870316800,22.17931689453125,0.14049486815929413,0.2736595869064331,-0.4031592011451721
1789115865889167600,22.198167724609377,0.04214845970273018,0.5210527181625366,0.16187451779842377
1789115865908018400,22.217018310546877,0.0397050715982914,0.16615045070648193,0.4178195297718048
1789115865926869000,22.235868896484376,0.20707722008228302,0.3689517378807068,0.49112120270729065
1789115865945719800,22.2547197265625,0.1692046970129013,0.8222004175186157,0.7641699314117432
1789115865964570600,22.273570556640625,0.05070032179355621,1.0628741979599,0.9425373077392578
1789115865983421200,22.292421142578124,-0.07574506103992462,0.9541434049606323,1.0048437118530273
1789115866002272000,22.31127197265625,-0.11911521852016449,0.7006418108940125,1.02683424949646
1789115866021122800,22.330122802734376,-0.16737215220928192,0.7195780873298645,1.0720369815826416
1789115866039973400,22.348973388671876,-0.14843589067459106,0.8423583507537842,1.2082558870315552
1789115866058824200,22.36782421875,-0.1716480851173401,0.7928797602653503,1.3592115640640259
1789115866077675000,22.386675048828124,-0.29687178134918213,0.7006418108940125,1.4184637069702148
1789115866096525600,22.405525634765624,-0.2644968628883362,0.5063923597335815,1.4703856706619263
1789115866115376400,22.42437646484375,-0.1441599577665329,0.8588512539863586,1.6310385465621948
1789115866134227200,22.443227294921876,0.13988402485847473,1.0885298252105713,1.890648603439331
1789115866153077800,22.462077880859376,0.48928865790367126,1.4496169090270996,1.778863549232483
1789115866171928600,22.480928466796875,0.8509102463722229,1.2418525218963623,1.951122522354126
1789115866190779100,22.499779052734375,0.9077190160751343,1.1532796621322632,2.2125651836395264
1789115866209630000,22.5186298828125,0.4874561131000519,0.8570187091827393,2.434302568435669
1789115866228480500,22.53748046875,0.12278030067682266,0.786771297454834,2.475229501724243
1789115866247331300,22.556331298828123,0.04825693368911743,0.7751652002334595,2.4911115169525146
1789115866266182100,22.57518212890625,-0.06719319522380829,0.6487197875976562,2.391543388366699
1789115866285032700,22.59403271484375,-0.23028941452503204,0.4556920528411865,2.243107557296753
1789115866303883500,22.612883544921875,-0.25655585527420044,0.2638860046863556,2.0109856128692627
1789115866322734000,22.631734130859375,0.20096874237060547,0.4953971207141876,1.5467416048049927
1789115866341585000,22.6505849609375,0.6206207871437073,0.390942245721817,1.0830321311950684
1789115866360435500,22.669435546875,0.6029062271118164,0.24128466844558716,0.7012526392936707
1789115866379286300,22.688286376953126,0.3115321099758148,0.02504473738372326,0.6108472347259521
1789115866398137000,22.70713720703125,0.022601349279284477,0.0018325417768210173,0.660936713218689
1789115866416987600,22.725987548828126,-0.2638860046863556,0.12278030067682266,0.45263782143592834
1789115866435838500,22.74483837890625,-0.2638860046863556,0.1850867122411728,0.14843589067459106
1789115866454689000,22.76368896484375,-0.14110571146011353,0.21379654109477997,-0.1557660549879074
1789115866473539800,22.782539794921874,-0.1692046970129013,0.23273280262947083,-0.6749862432479858
1789115866492390400,22.801390380859374,-0.07696675509214401,0.182643324136734,-0.7776085734367371
1789115866511241200,22.8202412109375,-0.19241689145565033,0.07574506103992462,-1.197871446609497
1789115866530091800,22.839091796875,-0.1844758689403534,-0.20341213047504425,-1.2644537687301636
1789115866548942600,22.857942626953125,-0.4813476502895355,-0.1948602795600891,-1.6640242338180542
1789115866567793200,22.876793212890625,-0.6823163628578186,-0.05741964280605316,-1.9865516424179077
1789115866586644000,22.89564404296875,-0.6963658928871155,-0.25289076566696167,-2.3402321338653564
1789115866605494800,22.914494873046873,-0.836860716342926,-0.33535513281822205,-2.226003885269165
1789115866624345300,22.933345458984373,-0.7623373866081238,-0.31886225938796997,-2.243107557296753
1789115866643196000,22.95219580078125,-0.8215895891189575,-0.6395570635795593,-2.445908784866333
1789115866662046700,22.971046630859377,-1.1581664085388184,-0.9064973592758179,-2.1893529891967773
1789115866680897500,22.9898974609375,-1.245517611503601,-1.1764918565750122,-1.9590635299682617
1789115866699748000,23.008748046875,-1.0616525411605835,-1.3561573028564453,-2.116051197052002
1789115866718599000,23.027598876953125,-0.7641699314117432,-1.129456639289856,-2.2217278480529785
1789115866737449500,23.046449462890624,-0.660936713218689,-1.1917630434036255,-2.177135944366455
1789115866756300000,23.065300048828124,-0.48806697130203247,-1.5901117324829102,-1.8869835138320923
1789115866775150800,23.08415087890625,-0.40193748474121094,-1.8930920362472534,-1.7324391603469849
1789115866794001400,23.10300146484375,-0.20585553348064423,-1.376926064491272,-1.7202222347259521
1789115866812852200,23.121852294921876,0.10628741979598999,-0.5522059202194214,-1.5412440299987793
1789115866831702800,23.140702880859376,0.04825693368911743,-0.21807247400283813,-1.2369656562805176
1789115866850553600,23.1595537109375,-0.01832541823387146,-0.5937435626983643,-1.0213366746902466
1789115866869404200,23.178404052734376,0.11483928561210632,-0.5723638534545898,-0.6084038615226746
1789115866888255000,23.1972548828125,0.3524588644504547,-0.07574506103992462,-0.09651386737823486
1789115866907105500,23.21610546875,0.32252734899520874,0.11117420345544815,0.1954711228609085
1789115866925956400,23.234956298828124,0.2754921019077301,0.042759306728839874,0.4312581717967987
1789115866944807000,23.253806884765623,0.3280249834060669,0.5253286361694336,0.6108472347259521
1789115866963657700,23.27265771484375,0.26755109429359436,0.9413156509399414,0.7879929542541504
1789115866982508300,23.29150830078125,0.20646637678146362,1.0598199367523193,0.8741224408149719
1789115867001359000,23.310359130859375,0.10323318839073181,0.9260444641113281,0.8625163435935974
1789115867020209700,23.329209716796875,0.08307522535324097,0.6340594291687012,0.8869501948356628
1789115867039060200,23.348060302734375,-0.07574506103992462,0.7794411182403564,0.9168817400932312
1789115867057911000,23.3669111328125,-0.2217375487089157,0.6432221531867981,1.0390511751174927
1789115867076761600,23.38576171875,-0.17836740612983704,0.9370396733283997,1.317597508430481
1789115867095612400,23.4046123046875,0.006108472589403391,1.09219491481781,1.682349681854248
1789115867114463000,23.423462890625,0.0659715011715889,1.2968287467956543,1.8045191764831543
1789115867133313800,23.442313720703126,0.1313321590423584,1.207645058631897,1.4428975582122803
1789115867161589800,23.47058984375,0.365286648273468,0.6951441764831543,1.5785056352615356
1789115867180440300,23.4894404296875,0.4825693368911743,0.7317950129508972,1.984719157218933
1789115867199291000,23.508290771484376,0.3151971995830536,0.8179244995117188,2.0830655097961426
1789115867218141700,23.5271416015625,0.15087927877902985,0.7831062078475952,2.084897994995117
1789115867265268200,23.574268310546874,-0.28404396772384644,0.48012593388557434,2.857008934020996
1789115867284119000,23.593119140625,0.009773556143045425,0.4178195297718048,2.9742915630340576
1789115867302969600,23.611969482421873,0.4043808877468109,0.6322268843650818,2.393375873565674
1789115867331245600,23.64024560546875,0.20707722008228302,0.31031039357185364,1.2840009927749634
1789115867359521500,23.668521484375,0.38544461131095886,0.7550072073936462,1.0726478099822998
1789115867378372400,23.687372314453125,0.39643988013267517,0.6676560640335083,1.0708152055740356
1789115867397223000,23.706222900390625,0.29626092314720154,0.6181774139404297,0.8203678727149963
1789115867425499000,23.734498779296874,0.016492875292897224,0.4446968138217926,0.2211267054080963
1789115867444349400,23.753349365234374,-0.05131116881966591,0.3640649616718292,-0.24678228795528412
1789115867463200300,23.7722001953125,-0.16004198789596558,0.23273280262947083,-0.5454866290092468
1789115867482050800,23.79105078125,-0.32008397579193115,-0.07391251623630524,-0.7525638341903687
1789115867500901400,23.8099013671875,-0.30664533376693726,-0.3127537965774536,-1.0506572723388672
1789115867519752200,23.828752197265626,-0.16615045070648193,-0.4453076422214508,-1.469774842262268
1789115867538602800,23.847602783203126,-0.20402298867702484,-0.679872989654541,-1.6072155237197876
1789115867557453300,23.866453369140626,-0.3946073353290558,-0.7360709309577942,-1.6285951137542725
1789115867576304000,23.88530419921875,-1.0579874515533447,-0.9254335761070251,-1.5931659936904907
1789115867595154700,23.90415478515625,-2.8838863372802734,-0.9620844125747681,-1.7336609363555908
1789115867614005200,23.923005126953125,-2.9742915630340576,-0.8551861643791199,-1.5882792472839355
1789115867632856000,23.94185595703125,-2.6493208408355713,-1.4856568574905396,-1.43312406539917
1789115867651706600,23.96070654296875,-1.8662147521972656,-2.5314273834228516,-1.5919443368911743
