time,seconds_elapsed,z,y,x
1789324023071758300,0.14675830078125,0,0,0
1789324023090609000,0.16560888671875,-0.051688194274902344,-0.15381669998168945,-0.10420495271682739
1789324023109459500,0.18445947265625,-0.10170841217041016,-0.21536970138549805,-0.1459178626537323
1789324023128310000,0.20331005859375,-0.16074275970458984,-0.12336874008178711,-0.0943615734577179
1789324023147160600,0.22216064453125,-0.4676628112792969,0.032919883728027344,0.06470189988613129
1789324023166011100,0.24101123046875,-0.6410017013549805,0.11668562889099121,0.04347890615463257
1789324023184861700,0.25986181640625,-0.6524744033813477,-0.07864499092102051,-0.002432793378829956
1789324023203712300,0.278712158203125,-0.563420295715332,-0.1921079158782959,0.16775751113891602
1789324023222562800,0.297562744140625,-0.07531929016113281,0.005829334259033203,0.23576337099075317
1789324023241413400,0.316413330078125,0.4375457763671875,0.07237458229064941,0.3930048942565918
1789324023260264200,0.33526416015625,0.3706989288330078,-0.242903470993042,0.7023089528083801
1789324023279114800,0.35411474609375,0.2104177474975586,-0.4248659610748291,0.6916100978851318
1789324023297965300,0.37296533203125,-0.03801727294921875,-0.13025999069213867,0.38954198360443115
1789324023316816000,0.39181591796875,-0.2703819274902344,0.8668732643127441,-0.8756045699119568
1789324023335666400,0.41066650390625,-0.32599830627441406,0.9769299030303955,-1.0962337255477905
1789324023354517000,0.42951708984375,0.1706676483154297,0.442413330078125,-0.30776363611221313
1789324023373367600,0.448367431640625,0.7433404922485352,-0.04564476013183594,0.20192356407642365
1789324023392218000,0.467218017578125,1.0841436386108398,-0.61328125,0.11208140850067139
1789324023411068700,0.486068603515625,-0.18872833251953125,-0.39803123474121094,-0.4200451970100403
1789324023429919500,0.50491943359375,-0.8110494613647461,0.345566987991333,-0.276777058839798
1789324023448770000,0.52377001953125,-0.8826460838317871,0.5745182037353516,-0.0032597780227661133
1789324023467620600,0.54262060546875,-0.9932188987731934,0.6920566558837891,0.3951462507247925
1789324023486471200,0.56147119140625,-0.5073871612548828,0.6586105823516846,0.5726804137229919
1789324023505321700,0.58032177734375,0.14140987396240234,0.4745144844055176,0.39063167572021484
1789324023524172300,0.59917236328125,0.13764572143554688,0.20618104934692383,0.41834431886672974
1789324023543022800,0.61802294921875,-0.5011825561523438,0.19398760795593262,0.4242855906486511
1789324023561873700,0.636873779296875,-0.8003387451171875,0.3598001003265381,0.42992842197418213
1789324023580724200,0.65572412109375,-0.5501670837402344,0.41515064239501953,0.26811420917510986
1789324023599574800,0.67457470703125,-0.00112152099609375,0.058641910552978516,0.44235730171203613
1789324023618425300,0.69342529296875,0.45046424865722656,-0.5380055904388428,0.73272705078125
1789324023637276000,0.71227587890625,0.5589828491210938,-0.8681488037109375,0.720594048500061
1789324023656126500,0.73112646484375,0.26117420196533203,-1.4007034301757812,1.0036646127700806
1789324023674977000,0.74997705078125,-0.15968036651611328,-1.822965145111084,1.3658180236816406
1789324023693827800,0.768827880859375,-0.03792381286621094,-2.180521249771118,1.681097149848938
1789324023712678400,0.787678466796875,-0.0704803466796875,-3.069368362426758,2.167569637298584
1789324023731529000,0.806529052734375,-1.0581936836242676,-3.14754581451416,2.451845407485962
1789324023750379500,0.825379638671875,-2.4922971725463867,-2.1053466796875,2.8349084854125977
1789324023769230000,0.84422998046875,-3.1326889991760254,-1.3059813976287842,3.035963296890259
1789324023788081000,0.863080810546875,-2.792311191558838,-1.0428496599197388,3.092635154724121
1789324023806931500,0.881931396484375,-0.8162627220153809,-0.9425338506698608,3.0842928886413574
1789324023825782000,0.900781982421875,1.6626348495483398,-0.7576932311058044,2.7010133266448975
1789324023844632600,0.919632568359375,2.937596321105957,-0.7605705857276917,2.030632495880127
1789324023863483100,0.938483154296875,2.352787971496582,-0.8864262104034424,1.521447777748108
1789324023882334000,0.957333984375,1.7026824951171875,-0.8275136351585388,1.1602085828781128
1789324023901184500,0.9761845703125,1.2728471755981445,-0.4379228353500366,0.47623753547668457
1789324023920035000,0.99503515625,-0.5589075088500977,-0.36109256744384766,-0.03618931770324707
1789324023938885600,1.0138857421875,-2.506399154663086,-0.29009297490119934,-0.2328643798828125
1789324023957736200,1.032736083984375,-2.8703255653381348,-0.008844226598739624,-0.021915674209594727
1789324023976587000,1.0515869140625,-1.5896282196044922,-0.1938539743423462,0.5391666889190674
1789324023995437600,1.0704375,-0.16941452026367188,-0.6101607084274292,1.0148506164550781
1789324024023713500,1.098713623046875,0.3690471649169922,-1.3189010620117188,0.7447562217712402
1789324024042564000,1.117564208984375,-0.7322378158569336,-1.390078067779541,-1.096630334854126
1789324024061414700,1.13641455078125,-1.7473359107971191,-1.9922187328338623,-2.2667973041534424
1789324024080265200,1.15526513671875,-2.3728761672973633,-1.7013022899627686,-2.6631956100463867
1789324024099116000,1.174115966796875,-1.8510937690734863,-1.6170177459716797,-2.7924208641052246
1789324024117966600,1.192966552734375,-0.02830648422241211,-1.3423733711242676,-3.475497245788574
1789324024136817200,1.211817138671875,1.3058199882507324,-1.1863832473754883,-3.6901094913482666
1789324024155667700,1.230667724609375,2.185448169708252,-0.9288654327392578,-3.5992870330810547
1789324024174518500,1.2495185546875,2.831286907196045,-0.603968620300293,-4.638319969177246
1789324024193369000,1.268369140625,3.6309595108032227,0.024143218994140625,-6.129769325256348
1789324024212219600,1.2872197265625,4.443348407745361,0.565706729888916,-7.406652450561523
1789324024240495600,1.31549560546875,4.6323161125183105,1.423752784729004,-7.968736171722412
1789324024268771600,1.343771484375,4.497316360473633,1.916243076324463,-7.292865753173828
1789324024287622100,1.3626220703125,5.761442184448242,2.0484471321105957,-7.077727317810059
1789324024306473000,1.381472900390625,6.440762519836426,2.602174758911133,-5.74063777923584
1789324024325323500,1.400323486328125,5.717469215393066,2.8637032508850098,-4.6161017417907715
1789324024344174000,1.419174072265625,5.420160293579102,2.9293746948242188,-4.053317070007324
1789324024363025000,1.43802490234375,4.940890312194824,3.4210946559906006,-2.222565174102783
1789324024381875500,1.45687548828125,4.24577522277832,3.95295786857605,-1.7222638130187988
1789324024400726000,1.47572607421875,2.925597906112671,4.043928623199463,-1.712442398071289
1789324024419576800,1.494576904296875,1.472367286682129,3.908714532852173,-0.5934944152832031
1789324024438427400,1.513427490234375,0.39336442947387695,3.4955973625183105,0.10616111755371094
1789324024457278000,1.53227783203125,-0.27343273162841797,2.59995174407959,1.470283031463623
1789324024476128800,1.551128662109375,-0.14565706253051758,2.171306610107422,2.474529266357422
1789324024494979300,1.569979248046875,-0.13444757461547852,1.1300873756408691,3.317613124847412
1789324024513830000,1.588829833984375,-0.966964602470398,0.8903398513793945,3.83912992477417
1789324024532680700,1.6076806640625,-1.51398503780365,1.0571985244750977,4.2260894775390625
1789324024551531300,1.62653125,-1.7933573722839355,0.32157421112060547,3.9732539653778076
1789324024570381800,1.6453818359375,-3.052441120147705,-0.29174184799194336,3.1187429428100586
1789324024589232600,1.664232666015625,-2.2003190517425537,-0.8994908332824707,2.078174114227295
1789324024608083200,1.683083251953125,-1.7040703296661377,-2.446791648864746,0.5940074920654297
1789324024626933800,1.701933837890625,-0.758270263671875,-3.447176456451416,-1.2323060035705566
1789324024645784600,1.72078466796875,-0.19939613342285156,-4.120107173919678,-1.729759693145752
1789324024664635100,1.73963525390625,-1.229496955871582,-5.776904106140137,-2.7756714820861816
1789324024683486000,1.75848583984375,-1.193610668182373,-5.5934576988220215,-3.9235405921936035
1789324024702336500,1.77733642578125,-1.9716119766235352,-2.318248748779297,-1.5859160423278809
1789324024721187000,1.79618701171875,-2.304457902908325,-4.632148265838623,-1.188338279724121
1789324024740038000,1.815037841796875,-1.0811965465545654,-4.729841232299805,-0.9869756698608398
1789324024758888400,1.833888427734375,-0.07293891906738281,-2.8169360160827637,-0.9130010604858398
1789324024777739000,1.852739013671875,0.45820140838623047,-1.1540803909301758,-0.6351337432861328
1789324024796589800,1.87158984375,0.14278697967529297,-0.34736204147338867,-0.27266407012939453
1789324024815440400,1.8904404296875,-0.5884408950805664,-0.8895974159240723,-0.7790560722351074
1789324024834291000,1.909291015625,-0.03777885437011719,-0.8655438423156738,-2.7578940391540527
1789324024853141800,1.928141845703125,0.18199872970581055,-0.87164306640625,-3.092763900756836
1789324024871992300,1.946992431640625,0.3184208869934082,-1.6885676383972168,-2.831629753112793
1789324024890843000,1.9658427734375,-0.7925629615783691,-1.0910754203796387,-2.8360328674316406
1789324024909693700,1.984693603515625,-1.3782715797424316,-0.2133774757385254,-2.0321264266967773
1789324024928544300,2.003544189453125,-1.7021784782409668,0.07269525527954102,-0.4146761894226074
1789324024947395000,2.02239501953125,-1.6660819053649902,-0.22951889038085938,0.889739990234375
1789324024966245600,2.04124560546875,-1.5529274940490723,-0.5931997299194336,1.3656158447265625
1789324024985096200,2.06009619140625,-0.573462963104248,-1.2362146377563477,1.3245611190795898
1789324025003947000,2.078947021484375,-0.3291358947753906,-0.7055106163024902,0.769993782043457
1789324025022797600,2.097797607421875,-1.2023820877075195,2.2515177726745605,0.11334562301635742
1789324025041648400,2.1166484375,-1.399806022644043,1.0231373310089111,0.001430511474609375
1789324025060499000,2.1354990234375,-1.144310474395752,-0.31247448921203613,-0.4458742141723633
1789324025079349800,2.154349853515625,-1.4974455833435059,-1.098717212677002,-0.4871683120727539
1789324025098200300,2.173200439453125,-2.1683669090270996,-1.6553034782409668,0.1716461181640625
1789324025117051000,2.19205078125,-2.350253105163574,-1.8402783870697021,0.6975531578063965
1789324025135901700,2.210901611328125,-2.5255885124206543,-1.5496275424957275,1.0369744300842285
1789324025154752300,2.229752197265625,-2.2803478240966797,-1.0845413208007812,1.2905025482177734
1789324025173603000,2.24860302734375,-2.004756450653076,-0.9456877708435059,1.5621728897094727
1789324025192453600,2.26745361328125,-1.8574013710021973,-0.47954773902893066,1.6636502742767334
1789324025211304400,2.286304443359375,-1.6837544441223145,0.012445211410522461,1.766892910003662
1789324025230155000,2.305155029296875,-1.4737544059753418,0.2811460494995117,1.7360670566558838
1789324025249005600,2.324005615234375,-1.0429210662841797,0.6956198215484619,1.6093683242797852
1789324025267856400,2.3428564453125,-0.7469134330749512,1.1559116840362549,1.4604434967041016
1789324025286707000,2.36170703125,-0.7448916435241699,1.692295789718628,1.084334373474121
1789324025305557800,2.380557861328125,-0.9241995811462402,1.7424461841583252,1.1299223899841309
1789324025324408300,2.399408203125,-0.937248706817627,1.538407802581787,0.9883627891540527
1789324025343259100,2.418259033203125,-0.4508638381958008,1.6907575130462646,0.5111336708068848
1789324025362109700,2.437109619140625,-0.007055759429931641,1.285609483718872,0.4229893684387207
1789324025380960300,2.455960205078125,0.426119327545166,1.390775203704834,-0.11992645263671875
1789324025399811000,2.47481103515625,0.5156631469726562,2.0069806575775146,-0.7023811340332031
1789324025418661600,2.49366162109375,0.6139826774597168,2.171043634414673,-0.7034549713134766
1789324025437512400,2.512512451171875,-0.0968008041381836,0.6300458908081055,-0.7732534408569336
1789324025456363000,2.531363037109375,-0.16401004791259766,0.5363616943359375,-1.5958795547485352
1789324025475213800,2.5502138671875,0.3266787528991699,0.8744382858276367,-1.8596577644348145
1789324025494064400,2.569064453125,0.49333953857421875,1.4599566459655762,-1.7252044677734375
1789324025512915200,2.587915283203125,0.0972757339477539,1.3895387649536133,-1.3136169910430908
1789324025531765800,2.606765869140625,-0.8842577934265137,-0.3504829406738281,-1.6226232051849365
1789324025550616600,2.625616455078125,-0.2513856887817383,-1.5076017379760742,-3.6774723529815674
1789324025569467100,2.644467041015625,0.06458854675292969,-2.763857841491699,-4.508938312530518
1789324025588318000,2.66331787109375,0.2602262496948242,-3.425567626953125,-1.5379209518432617
1789324025607168500,2.68216845703125,0.5702657699584961,-3.608684539794922,1.7381155490875244
1789324025626019300,2.701019287109375,1.3596606254577637,-3.718491554260254,2.455716848373413
1789324025644870000,2.719869873046875,1.7176051139831543,-3.916325569152832,2.0430943965911865
1789324025663720700,2.738720703125,1.749795913696289,-3.937230110168457,1.147864580154419
1789324025682571300,2.7575712890625,1.2365994453430176,-3.575974464416504,0.42484474182128906
1789324025701422000,2.776422119140625,0.5933642387390137,-3.0371904373168945,0.23090004920959473
1789324025720272600,2.795272705078125,-0.02032470703125,-2.2919063568115234,0.29537153244018555
1789324025739123500,2.81412353515625,-0.769066333770752,-1.6403155326843262,0.5109226703643799
1789324025757974000,2.83297412109375,-0.9381098747253418,-1.214505672454834,0.33292341232299805
1789324025776824800,2.851824951171875,-0.47830867767333984,-0.7028470039367676,0.03579401969909668
1789324025795675400,2.87067529296875,0.0673985481262207,-0.3111457824707031,0.03625774383544922
1789324025814526200,2.889526123046875,0.3803677558898926,-0.1638627052307129,-0.10325217247009277
1789324025833376800,2.908376708984375,0.37024974822998047,0.5451259613037109,-0.8506243228912354
1789324025852227600,2.9272275390625,0.055512428283691406,0.4564352035522461,-1.1680855751037598
1789324025871078100,2.946078125,-0.1746044158935547,-0.4215879440307617,-0.9298644065856934
1789324025889929000,2.964928955078125,-0.1163020133972168,-1.3150744438171387,-1.0684375762939453
1789324025908779500,2.983779541015625,0.18273639678955078,-2.2391672134399414,-1.438910961151123
1789324025927630300,3.00263037109375,0.356168270111084,-2.6998610496520996,-1.867797613143921
1789324025946481000,3.02148095703125,0.04317522048950195,-2.7940139770507812,-1.9630839824676514
1789324025965331700,3.040331787109375,-0.5154228210449219,-2.2905092239379883,-1.5095164775848389
1789324025984182300,3.059182373046875,-0.8314151763916016,-1.6832261085510254,-0.7772440910339355
1789324026003033000,3.078033203125,-1.174039363861084,-1.5574097633361816,-0.09055233001708984
1789324026021883600,3.096883544921875,-2.05344820022583,-1.6119952201843262,0.18825197219848633
1789324026040734500,3.115734375,-2.9002933502197266,-1.306419849395752,0.018371105194091797
1789324026059585300,3.134585205078125,-2.7775115966796875,-0.9157414436340332,-0.15851283073425293
1789324026078435800,3.153435791015625,-2.3608622550964355,-1.0955770015716553,-0.012676715850830078
1789324026097286400,3.172286376953125,-2.400059223175049,-0.8631765842437744,0.2307133674621582
1789324026116137200,3.19113720703125,-2.9303102493286133,-0.07782530784606934,0.7472339868545532
1789324026134988000,3.209988037109375,-2.9062023162841797,0.1360635757446289,1.1643412113189697
1789324026153838600,3.228838623046875,-2.597217082977295,0.17050528526306152,1.3143727779388428
1789324026172689400,3.247689453125,-2.433462619781494,0.1970369815826416,1.282518744468689
1789324026191540000,3.2665400390625,-2.295266628265381,0.18301057815551758,1.2186037302017212
1789324026210390800,3.285390869140625,-2.2787036895751953,0.4828169345855713,1.3759888410568237
1789324026229241300,3.304241455078125,-2.4521255493164062,0.8645150661468506,1.9751603603363037
1789324026248092200,3.323092041015625,-1.610574722290039,1.090781331062317,2.289245843887329
1789324026266943000,3.34194287109375,-1.7606134414672852,1.0277824401855469,1.7741029262542725
1789324026285793500,3.36079345703125,-2.2792611122131348,0.863410234451294,1.748963475227356
1789324026304644400,3.379644287109375,-2.161210060119629,1.413287878036499,1.3743010759353638
1789324026323495000,3.398494873046875,-1.912308692932129,1.9343440532684326,1.4225621223449707
1789324026342345700,3.417345703125,-1.2318305969238281,2.6230170726776123,1.5506072044372559
1789324026361196300,3.4361962890625,-0.2217559814453125,2.912745475769043,0.7422158718109131
1789324026389472500,3.464472412109375,0.01506948471069336,1.200981616973877,-0.8487796783447266
1789324026408323000,3.483322998046875,-0.0330815315246582,-1.8549699783325195,-1.1836357116699219
1789324026427174000,3.502173828125,0.4340372085571289,-2.8659610748291016,-1.1829233169555664
1789324026446024400,3.5210244140625,-0.04126167297363281,-3.411813259124756,-1.007845401763916
1789324026464875300,3.539875244140625,0.073883056640625,-3.1346468925476074,-0.3006601333618164
1789324026483725800,3.558725830078125,0.967228889465332,-2.2258429527282715,0.16604876518249512
1789324026502576600,3.57757666015625,1.5892624855041504,-0.9866633415222168,0.4978208541870117
1789324026521427500,3.596427490234375,1.8960609436035156,-0.47386932373046875,0.15553832054138184
1789324026540278000,3.615278076171875,2.4664435386657715,-1.1163640022277832,-1.1789684295654297
1789324026559128800,3.63412890625,2.613898754119873,-2.852499008178711,-1.865863561630249
1789324026577979400,3.6529794921875,1.4220848083496094,-4.1554460525512695,-1.6740391254425049
1789324026596830200,3.671830322265625,1.1478996276855469,-3.525991439819336,-0.864403247833252
1789324026615681000,3.690680908203125,1.751176357269287,-1.443014144897461,0.6854739189147949
1789324026634531600,3.709531494140625,2.227780818939209,-0.37481689453125,1.3883661031723022
1789324026653382400,3.72838232421875,2.6021437644958496,-0.25794219970703125,0.5493385791778564
1789324026672233000,3.74723291015625,2.2209720611572266,-0.5843381881713867,-0.13130974769592285
1789324026691083800,3.766083740234375,2.0514450073242188,-0.8463373184204102,-0.44081878662109375
1789324026709934600,3.7849345703125,0.9879660606384277,-1.3732118606567383,-0.36494016647338867
1789324026728785200,3.80378515625,0.2846050262451172,-1.4335517883300781,-0.16499805450439453
1789324026747636000,3.822635986328125,0.20258617401123047,-0.9218425750732422,-0.11923861503601074
1789324026766486500,3.841486572265625,0.3025178909301758,-0.3741569519042969,-0.22540783882141113
1789324026785337300,3.86033740234375,0.5816516876220703,-0.30968618392944336,-0.7363827228546143
1789324026804188200,3.879188232421875,0.8827366828918457,-0.724186897277832,-1.4205958843231201
1789324026823038700,3.898038818359375,0.9388265609741211,-0.8374214172363281,-1.7605793476104736
1789324026841889500,3.9168896484375,0.7402033805847168,-0.7366294860839844,-1.5771772861480713
1789324026860740000,3.935739990234375,0.5375137329101562,-0.7736530303955078,-1.3949553966522217
1789324026879591000,3.9545908203125,0.22902774810791016,-1.2926530838012695,-1.5027668476104736
1789324026907867000,3.982866943359375,0.019362449645996094,-2.3387765884399414,-2.3495731353759766
1789324026926717700,4.0017177734375,-0.21885299682617188,-1.7100491523742676,-1.6003553867340088
1789324026954993700,4.02999365234375,0.08919382095336914,-0.6772699356079102,-0.09849858283996582
1789324026973844500,4.048844482421875,0.11785650253295898,-0.8228983879089355,0.3662116527557373
1789324026992695300,4.0676953125,-0.5441927909851074,-0.5688996315002441,0.37859177589416504
1789324027011545900,4.0865458984375,-2.1229114532470703,-0.29599952697753906,0.5167796611785889
1789324027030396700,4.105396728515625,-2.910003662109375,-0.17650508880615234,0.14112138748168945
1789324027049247200,4.124247314453125,-2.445061683654785,0.5109765529632568,-0.6817982196807861
1789324027068098000,4.14309814453125,-1.787327766418457,0.82431960105896,-0.29166150093078613
1789324027086948900,4.161948974609375,-2.6379141807556152,0.9055569171905518,0.7324309349060059
1789324027105799400,4.18079931640625,-3.0382213592529297,0.3528869152069092,1.7243740558624268
1789324027124650200,4.199650146484375,-1.8867835998535156,0.03081035614013672,2.533984661102295
1789324027143501000,4.2185009765625,-2.4836440086364746,-0.3282303810119629,2.0408143997192383
1789324027162351600,4.2373515625,-3.565666675567627,0.07755327224731445,0.7053754329681396
1789324027181202400,4.256202392578125,-3.3501248359680176,0.6738831996917725,1.0540003776550293
1789324027200053200,4.27505322265625,-2.6196436882019043,0.7511928081512451,2.0603175163269043
1789324027218903800,4.29390380859375,-2.9393882751464844,1.5931349992752075,2.2349979877471924
1789324027237754600,4.312754638671875,-3.639650821685791,1.839680790901184,1.7618385553359985
1789324027256605200,4.331605224609375,-3.1424598693847656,1.879732370376587,1.7659249305725098
1789324027275456000,4.3504560546875,-2.2558603286743164,1.8012850284576416,1.8166882991790771
1789324027294306800,4.369306884765625,-1.8349299430847168,1.617673635482788,1.40692138671875
1789324027313157400,4.388157470703125,-1.3294382095336914,1.5680639743804932,0.9052517414093018
1789324027332008200,4.40700830078125,-1.4373722076416016,1.3255205154418945,0.456113338470459
1789324027350858800,4.425858642578125,-1.2231841087341309,1.0644207000732422,-0.08163619041442871
1789324027369709600,4.44470947265625,-0.37308311462402344,-0.12164783477783203,-1.016024112701416
1789324027388560400,4.463560302734375,0.23741531372070312,-2.025031566619873,-1.1289775371551514
1789324027407411000,4.482410888671875,0.24690008163452148,-2.2417707443237305,-0.76357102394104
1789324027426261800,4.50126171875,-0.39998626708984375,-1.8882546424865723,-0.4658172130584717
1789324027445112600,4.520112548828125,0.04316425323486328,-1.830915927886963,-0.5438363552093506
1789324027463963100,4.538963134765625,0.806431770324707,-2.0331249237060547,-0.7171235084533691
1789324027482814000,4.55781396484375,0.8835043907165527,-1.9979710578918457,-0.8580076694488525
1789324027501664800,4.576664794921875,0.9534096717834473,-1.7963480949401855,-1.112921953201294
1789324027520515300,4.595515380859375,1.543262004852295,-2.281345844268799,-1.259061574935913
1789324027539366100,4.6143662109375,2.7219109535217285,-2.8237924575805664,-1.3982467651367188
1789324027558217000,4.633217041015625,3.0253353118896484,-2.3959245681762695,-1.9260101318359375
1789324027577067500,4.652067626953125,2.5677785873413086,-1.7635459899902344,-1.849255084991455
1789324027595918300,4.67091845703125,1.8514137268066406,-1.2964086532592773,-1.3427834510803223
1789324027614769000,4.689768798828125,1.4959793090820312,-0.7835063934326172,-0.006800651550292969
1789324027633619700,4.70861962890625,1.5635251998901367,0.06926155090332031,-0.06195521354675293
1789324027652470500,4.727470458984375,1.8489298820495605,-0.4202766418457031,-1.1192042827606201
1789324027671321000,4.746321044921875,1.8533778190612793,-1.7795095443725586,-1.4535560607910156
1789324027690172000,4.765171875,0.6449346542358398,-2.186312675476074,-0.5671343803405762
1789324027709022700,4.784022705078125,0.4476466178894043,-1.255185604095459,-0.010770082473754883
1789324027727873300,4.802873291015625,0.5444426536560059,-0.3446207046508789,0.1905355453491211
1789324027746724000,4.82172412109375,0.13766145706176758,0.03336906433105469,0.5133059024810791
1789324027765575000,4.840574951171875,0.04391288757324219,-0.3623518943786621,-0.1589369773864746
1789324027784425500,4.859425537109375,0.13837766647338867,-1.1149282455444336,-0.7994928359985352
1789324027803276300,4.8782763671875,0.3710007667541504,-1.589517593383789,-1.40997314453125
1789324027831552300,4.90655224609375,0.2494978904724121,-1.0186128616333008,-1.4151408672332764
1789324027850403000,4.925403076171875,0.845552921295166,-0.8853673934936523,-1.3491294384002686
1789324027869254000,4.94425390625,0.8485569953918457,-1.8368611335754395,-1.85780930519104
1789324027888104400,4.9631044921875,0.1961531639099121,-2.384354591369629,-2.474687337875366
1789324027906955300,4.981955322265625,-0.7168388366699219,-1.89561128616333,-2.4792051315307617
1789324027925806000,5.00080615234375,-0.41381406784057617,-1.106797218322754,-1.5881364345550537
1789324027944656600,5.01965673828125,0.33367919921875,-1.3125410079956055,0.19892477989196777
1789324027963507500,5.038507568359375,-0.7238540649414062,-0.2147979736328125,1.065405249595642
1789324027982358300,5.057358154296875,-2.652620792388916,-0.24165010452270508,0.5919301509857178
1789324028001208800,5.076208740234375,-2.791196346282959,0.007331132888793945,-0.10303974151611328
1789324028020059600,5.0950595703125,-1.7824773788452148,0.46474385261535645,0.30098867416381836
1789324028038910500,5.113910400390625,-1.6005420684814453,0.5106170177459717,0.6920114755630493
1789324028057761000,5.132760986328125,-2.544954776763916,0.16004490852355957,0.9927796125411987
1789324028076611800,5.15161181640625,-3.1562061309814453,0.331449031829834,1.5689754486083984
1789324028095462700,5.170462646484375,-2.64414119720459,0.20374369621276855,1.8061349391937256
1789324028114313200,5.189313232421875,-3.2585015296936035,0.4126462936401367,1.8181657791137695
1789324028133164000,5.2081640625,-4.103725910186768,1.1001619100570679,1.3246986865997314
1789324028152014800,5.227014892578125,-4.346676349639893,1.2044603824615479,1.791872262954712
1789324028170865400,5.245865478515625,-3.065382957458496,1.533850908279419,2.4898555278778076
1789324028189716200,5.26471630859375,-2.345067024230957,1.5653034448623657,2.439307689666748
1789324028208567000,5.283567138671875,-2.577975273132324,1.5509471893310547,1.9184117317199707
1789324028236843000,5.311843017578125,-2.8115835189819336,1.2390103340148926,1.1502538919448853
1789324028255693800,5.33069384765625,-2.33377742767334,1.3038504123687744,0.9464278221130371
1789324028274544400,5.34954443359375,-1.4948182106018066,1.619032382965088,1.0886189937591553
1789324028293395200,5.368395263671875,-1.289771556854248,1.7904789447784424,0.9192087650299072
1789324028312246000,5.38724609375,-0.6381349563598633,1.5615954399108887,0.6367127895355225
1789324028331096600,5.4060966796875,0.2083735466003418,-0.054515838623046875,0.07441067695617676
1789324028349947400,5.424947509765625,0.7173194885253906,-2.576822280883789,-0.6181409358978271
1789324028368798200,5.443798095703125,0.30284690856933594,-3.633028984069824,-1.0383257865905762
1789324028387648800,5.462648681640625,-1.1625947952270508,-3.921083450317383,-0.869713544845581
1789324028406499600,5.48149951171875,-0.8817214965820312,-3.264369010925293,-0.5285379886627197
1789324028425350400,5.500350341796875,0.17756175994873047,-2.5346336364746094,-0.23238348960876465
1789324028444201000,5.519200927734375,1.643418788909912,-1.628298282623291,-0.5636270046234131
1789324028463051800,5.5380517578125,2.8442130088806152,-1.2052068710327148,-1.6622588634490967
1789324028481902600,5.556902587890625,3.4558467864990234,-1.4386396408081055,-2.563854217529297
1789324028510178600,5.585178466796875,3.059279441833496,-1.9113292694091797,-2.448672294616699
1789324028529029400,5.604029296875,2.4490442276000977,-2.088038444519043,-1.0764927864074707
1789324028547880200,5.622880126953125,2.1576476097106934,-2.4830713272094727,0.3037710189819336
1789324028566730800,5.641730712890625,2.0861124992370605,-2.5584325790405273,0.6986110210418701
1789324028585581600,5.66058154296875,2.144221782684326,-1.539682388305664,-0.7044448852539062
1789324028604432100,5.67943212890625,1.7388076782226562,-0.15277767181396484,-0.6496727466583252
1789324028623283000,5.698282958984375,1.2508602142333984,0.5967288017272949,-0.5260264873504639
1789324028642133800,5.7171337890625,0.8479123115539551,0.3000044822692871,-0.302065372467041
1789324028660984300,5.735984375,0.9366912841796875,-0.5280680656433105,-0.018282175064086914
1789324028679835100,5.754835205078125,0.6587324142456055,-1.2124528884887695,0.2602989673614502
1789324028698686000,5.77368603515625,0.0522160530090332,-1.2829008102416992,0.3057434558868408
1789324028717536500,5.79253662109375,-0.14557504653930664,-1.3724446296691895,-0.04396986961364746
1789324028736387300,5.81138720703125,-0.04089212417602539,-1.5055360794067383,-0.00351715087890625
1789324028755238100,5.830238037109375,0.3417844772338867,-1.6409616470336914,-0.33365750312805176
1789324028774088700,5.849088623046875,0.4388999938964844,-1.3516850471496582,-0.5989596843719482
1789324028792939500,5.867939453125,0.4382767677307129,-0.8412847518920898,-0.7726364135742188
1789324028811790300,5.886790283203125,0.9239931106567383,-0.9903559684753418,-1.0919337272644043
1789324028830641000,5.905640869140625,0.7854456901550293,-1.9228425025939941,-1.5464088916778564
1789324028849491700,5.92449169921875,0.4339637756347656,-2.276986598968506,-1.5867643356323242
1789324028868342500,5.943342529296875,-0.22255325317382812,-1.5259218215942383,-1.7235796451568604
1789324028887193000,5.962193115234375,-0.12736940383911133,-1.5026235580444336,-1.0989294052124023
1789324028906044000,5.9810439453125,0.0835733413696289,-1.7234878540039062,0.29174089431762695
1789324028924894700,5.999894775390625,-1.4388036727905273,-0.2815680503845215,0.6341819763183594
1789324028943745300,6.018745361328125,-1.9820184707641602,-0.24712228775024414,-0.08282780647277832
1789324028962596000,6.03759619140625,-1.517045497894287,-0.07254290580749512,-0.3766462802886963
1789324028981447000,6.056447021484375,-2.1214637756347656,0.6014494895935059,0.8617086410522461
1789324029000297500,6.07529736328125,-3.7465500831604004,0.6044158935546875,1.5092374086380005
1789324029019148300,6.094148193359375,-3.9222264289855957,0.9600162506103516,2.119873523712158
1789324029037999000,6.1129990234375,-3.513078212738037,1.459932565689087,2.602221965789795
1789324029056850000,6.131849853515625,-3.2752857208251953,1.1844252347946167,2.4579880237579346
1789324029075700500,6.150700439453125,-3.845897674560547,1.4025940895080566,1.8605998754501343
1789324029094551300,6.16955126953125,-4.062242031097412,1.977820873260498,1.7759153842926025
1789324029113402000,6.188402099609375,-3.463103771209717,1.7803767919540405,2.009977102279663
1789324029132252700,6.207252685546875,-2.949861526489258,1.5728555917739868,1.7821989059448242
1789324029151103500,6.226103515625,-3.1476054191589355,1.7038081884384155,1.4721323251724243
1789324029169954300,6.244954345703125,-2.684013843536377,1.878026008605957,1.4590507745742798
1789324029188804900,6.263804931640625,-1.7938342094421387,2.03044056892395,1.4198273420333862
1789324029207655700,6.28265576171875,-1.3062334060668945,1.877213954925537,0.892380952835083
1789324029226506200,6.30150634765625,-1.0147385597229004,1.3418221473693848,0.6194400787353516
1789324029245357000,6.320357177734375,-1.385416030883789,1.0132420063018799,-0.18670177459716797
1789324029264208000,6.339207763671875,-1.0684232711791992,0.4162898063659668,-0.6948375701904297
1789324029283058700,6.35805859375,-0.3107295036315918,-2.3503246307373047,-1.3478004932403564
1789324029301909200,6.3769091796875,0.21249055862426758,-3.5697999000549316,-1.101902723312378
1789324029320760000,6.395760009765625,0.28232622146606445,-3.0511398315429688,-0.6687397956848145
1789324029339611000,6.41461083984375,-0.02516651153564453,-2.440147876739502,-0.9773163795471191
1789324029358461400,6.43346142578125,0.33944129943847656,-2.4489474296569824,-1.2297213077545166
1789324029377312300,6.452312255859375,1.2185263633728027,-2.8464889526367188,-1.592134952545166
1789324029396163000,6.4711630859375,2.2948737144470215,-3.5559186935424805,-1.4409809112548828
1789324029415013600,6.490013671875,2.914163589477539,-3.720468521118164,-1.3868074417114258
1789324029433864400,6.508864501953125,2.5495219230651855,-2.2521514892578125,-0.9992706775665283
1789324029452715300,6.52771533203125,2.3469815254211426,-0.5895376205444336,-0.6222150325775146
1789324029471565800,6.54656591796875,2.2780089378356934,-0.42132091522216797,-0.2730143070220947
1789324029490416600,6.565416748046875,1.8107881546020508,-1.2324943542480469,-0.7563323974609375
1789324029509267500,6.584267333984375,1.482027530670166,-1.3856534957885742,-1.13657546043396
1789324029528118000,6.603117919921875,1.3222675323486328,-0.16177082061767578,-0.44799280166625977
1789324029546968800,6.62196875,1.6285533905029297,0.7043728828430176,-0.08208537101745605
1789324029565819600,6.640819580078125,1.468461036682129,0.054320335388183594,-0.08981800079345703
1789324029584670200,6.659670166015625,0.8693327903747559,-0.8584928512573242,-0.3721940517425537
1789324029603521000,6.67852099609375,0.4923396110534668,-1.3123321533203125,-0.4114246368408203
1789324029622371800,6.697371826171875,0.43413448333740234,-1.2050366401672363,-0.6377127170562744
1789324029641222400,6.716222412109375,0.3137545585632324,-1.0583815574645996,-0.5446991920471191
1789324029660073200,6.7350732421875,0.5358166694641113,-1.2576103210449219,-0.445420503616333
1789324029678924000,6.753924072265625,0.6745657920837402,-1.7890691757202148,-0.20038175582885742
1789324029697774600,6.772774658203125,0.5823516845703125,-1.7673602104187012,-0.24438762664794922
1789324029716625400,6.79162548828125,0.2623419761657715,-1.2383766174316406,-0.30984020233154297
1789324029735476200,6.810476318359375,-0.004014015197753906,-1.0291481018066406,-0.40793824195861816
1789324029754326800,6.829326904296875,0.615818977355957,-1.4512653350830078,-0.7279129028320312
1789324029773177600,6.848177490234375,0.9612374305725098,-2.4279747009277344,-1.1461970806121826
1789324029792028400,6.8670283203125,0.7379741668701172,-2.5359997749328613,-1.655632734298706
1789324029810879000,6.88587890625,-0.404721736907959,-1.6280531883239746,-1.6193344593048096
1789324029829729800,6.904729736328125,-0.7407407760620117,-1.1405324935913086,-1.0157604217529297
1789324029848580600,6.92358056640625,-1.376410961151123,-0.7643475532531738,0.3215665817260742
1789324029867431200,6.94243115234375,-2.639911651611328,0.7251677513122559,0.7804520130157471
1789324029886282000,6.961281982421875,-1.9882688522338867,0.3308076858520508,0.006525993347167969
1789324029905132500,6.980132568359375,-1.1338167190551758,-0.09436988830566406,-0.038053274154663086
1789324029923983400,6.9989833984375,-1.7999725341796875,0.2591238021850586,1.0573214292526245
1789324029942834200,7.017834228515625,-3.487358570098877,0.6154778003692627,2.06535005569458
1789324029961684700,7.036684814453125,-3.654325485229492,0.47379136085510254,2.0747787952423096
1789324029980535600,7.05553564453125,-3.212423801422119,0.7471921443939209,2.20866060256958
1789324029999386400,7.074386474609375,-3.6076388359069824,1.3178215026855469,2.184528112411499
1789324030018237000,7.09323681640625,-3.5108609199523926,2.085010051727295,2.1951935291290283
1789324030037086700,7.112086669921875,-3.6628994941711426,2.0788378715515137,2.086577892303467
1789324030055937500,7.1309375,-2.980337619781494,1.7696458101272583,2.023427724838257
1789324030074788400,7.149788330078125,-2.4921178817749023,1.429256796836853,2.1644506454467773
1789324030093639000,7.168638916015625,-2.1547141075134277,1.2252342700958252,1.934887170791626
1789324030112489700,7.18748974609375,-2.259376049041748,1.3008313179016113,1.563704013824463
1789324030131340500,7.206340576171875,-2.2988243103027344,1.3901722431182861,1.0147922039031982
1789324030150191000,7.225191162109375,-2.1394152641296387,1.301851511001587,0.951934814453125
1789324030169042000,7.2440419921875,-1.3455910682678223,1.7709259986877441,0.672767162322998
1789324030187892700,7.262892822265625,-1.1435213088989258,1.2834651470184326,0.27219176292419434
1789324030206743300,7.281743408203125,-0.6758341789245605,-0.3235039710998535,-0.4292151927947998
1789324030225594000,7.300593994140625,-0.38903284072875977,-1.9229340553283691,-0.8049826622009277
1789324030244445000,7.31944482421875,-0.1504230499267578,-2.9579010009765625,-0.9162225723266602
1789324030263295500,7.33829541015625,-0.1051177978515625,-3.6334214210510254,-1.391789436340332
1789324030282146300,7.357146240234375,-0.01054525375366211,-4.257065296173096,-1.6480803489685059
1789324030300996900,7.375996826171875,1.1709356307983398,-4.0254950523376465,-1.3572254180908203
1789324030319847700,7.39484765625,2.4952239990234375,-3.1732964515686035,-1.2966883182525635
1789324030338698500,7.413698486328125,2.95756196975708,-2.2379536628723145,-1.3900525569915771
1789324030357549000,7.432549072265625,2.3914365768432617,-1.4231653213500977,-1.5322470664978027
1789324030376400000,7.45139990234375,2.211862564086914,-0.5027904510498047,-1.0854504108428955
1789324030395250700,7.470250732421875,1.9585151672363281,-0.46242332458496094,-0.20226597785949707
1789324030414101200,7.489101318359375,1.7268295288085938,-0.8043289184570312,0.007031440734863281
1789324030432952000,7.5079521484375,1.3745384216308594,-1.4055423736572266,-0.3137516975402832
1789324030451803000,7.526802978515625,1.614211082458496,-1.5650558471679688,-0.5726957321166992
1789324030470653400,7.5456533203125,2.341151714324951,-1.3900690078735352,-0.4047892093658447
1789324030489504300,7.564504150390625,2.638813018798828,-1.2875890731811523,-0.4010486602783203
1789324030508355000,7.58335498046875,1.6486892700195312,-0.8865585327148438,-0.6552574634552002
1789324030527205600,7.60220556640625,0.669407844543457,-0.47991943359375,-0.6464240550994873
1789324030555481900,7.63048193359375,0.2162179946899414,-0.6758818626403809,-0.3347611427307129
1789324030574332400,7.64933251953125,0.5053563117980957,-1.0127077102661133,-0.31824445724487305
1789324030593183200,7.668183349609375,0.8426508903503418,-1.1733908653259277,-0.3522038459777832
1789324030612034000,7.687033935546875,1.0419268608093262,-1.64030122756958,-0.6320838928222656
1789324030630884600,7.705884521484375,0.910402774810791,-1.894218921661377,-0.4533545970916748
1789324030649735400,7.7247353515625,0.4862346649169922,-1.6868925094604492,-0.5787675380706787
1789324030668586200,7.743586181640625,0.27031421661376953,-1.2490429878234863,-0.6839709281921387
1789324030687436800,7.762436767578125,0.4004788398742676,-1.140329360961914,-1.1235673427581787
1789324030706287600,7.78128759765625,0.3228945732116699,-1.431243896484375,-1.4485673904418945
1789324030725138200,7.80013818359375,-0.14756393432617188,-1.2473335266113281,-1.800633192062378
1789324030743989000,7.818989013671875,-0.6371793746948242,-0.6842336654663086,-1.604430913925171
1789324030762839800,7.83783984375,-0.011577606201171875,-1.1671638488769531,-0.595940113067627
1789324030781690400,7.8566904296875,-1.110785961151123,-0.12895870208740234,0.3903472423553467
1789324030800541200,7.875541259765625,-2.382631301879883,-0.363858699798584,0.12662124633789062
1789324030819392000,7.89439208984375,-2.5396313667297363,-0.017875194549560547,-1.0381238460540771
1789324030838242600,7.91324267578125,-2.2088537216186523,0.21052265167236328,-1.2326960563659668
1789324030857093400,7.93209326171875,-2.7666678428649902,0.9935171604156494,0.7111833095550537
1789324030875944200,7.950944091796875,-3.4822373390197754,1.6372121572494507,1.8052797317504883
1789324030894794800,7.969794677734375,-3.155367374420166,0.6849918365478516,2.118022918701172
1789324030913645600,7.9886455078125,-3.1362223625183105,0.6802282333374023,2.394257068634033
1789324030932496100,8.00749609375,-3.752455711364746,0.8863170146942139,2.167463779449463
1789324030951347000,8.026346923828125,-3.7403650283813477,1.1849058866500854,1.7076139450073242
1789324030970197800,8.04519775390625,-3.31900691986084,1.3384779691696167,1.4497458934783936
1789324030989048300,8.06404833984375,-3.1538310050964355,1.3587558269500732,1.1248208284378052
1789324031007899100,8.082899169921875,-2.88016414642334,1.6824432611465454,1.228983759880066
1789324031026750000,8.10175,-2.2796506881713867,1.7469664812088013,1.5141040086746216
1789324031045600500,8.1206005859375,-1.7998809814453125,1.5602869987487793,0.9791510105133057
1789324031064451300,8.139451416015625,-1.8966832160949707,1.5318748950958252,0.4983518123626709
1789324031083302100,8.15830224609375,-2.170344352722168,1.5962858200073242,0.34048938751220703
1789324031102152700,8.177152587890625,-2.0715789794921875,1.7781381607055664,0.22655320167541504
1789324031121003500,8.19600341796875,-0.9873294830322266,1.3434016704559326,0.22954988479614258
1789324031139854300,8.214854248046874,-0.1919412612915039,-0.6290369033813477,-0.4714546203613281
1789324031158705000,8.233704833984374,0.013522624969482422,-2.568301200866699,-1.236637830734253
1789324031177555700,8.2525556640625,-0.6501278877258301,-3.2351574897766113,-1.7725515365600586
1789324031196406300,8.27140625,-0.8420863151550293,-3.2421393394470215,-1.8638231754302979
1789324031215257000,8.290257080078124,-0.09603404998779297,-3.245328426361084,-1.815922498703003
1789324031234108000,8.30910791015625,0.8528966903686523,-2.5733084678649902,-1.5022873878479004
1789324031252958500,8.32795849609375,1.5968341827392578,-1.7435107231140137,-1.5193533897399902
1789324031271809300,8.346809326171876,2.386106014251709,-1.7292709350585938,-1.6448554992675781
1789324031290659800,8.365659912109376,2.5619568824768066,-2.2756853103637695,-1.3865456581115723
1789324031309510700,8.3845107421875,2.0444273948669434,-2.3128061294555664,-1.2564105987548828
1789324031328361500,8.403361572265625,2.1919775009155273,-1.9073524475097656,-0.434765100479126
1789324031347212000,8.4222119140625,2.1661767959594727,-1.2108068466186523,0.05184054374694824
1789324031366062800,8.441062744140625,1.6629576683044434,-0.5795860290527344,-0.3615126609802246
1789324031384913400,8.459913330078125,1.6774311065673828,-0.2763080596923828,-1.165034532546997
1789324031403764200,8.47876416015625,1.7570853233337402,-0.4419527053833008,-0.7283720970153809
1789324031422615000,8.497614990234375,1.731142520904541,-0.4859905242919922,-0.502518892288208
1789324031441465600,8.516465576171875,1.2364764213562012,-0.8360519409179688,-0.20270752906799316
1789324031460316400,8.53531640625,0.5984706878662109,-0.9982995986938477,-0.2798459529876709
1789324031479167200,8.554167236328125,0.035695552825927734,-1.0144929885864258,-0.21481728553771973
1789324031507443200,8.582443115234375,0.3269362449645996,-1.4221982955932617,-0.6813631057739258
1789324031526294000,8.6012939453125,0.8349637985229492,-1.580329418182373,-1.0646002292633057
1789324031545144600,8.62014453125,1.357022762298584,-1.8998546600341797,-1.2379717826843262
1789324031563995400,8.638995361328124,1.345754623413086,-1.9110713005065918,-0.7732694149017334
1789324031582846000,8.657845947265624,0.9912834167480469,-1.3659076690673828,-0.5543673038482666
1789324031601696800,8.67669677734375,0.5173807144165039,-1.2265758514404297,-0.5476024150848389
1789324031620547300,8.69554736328125,0.17864990234375,-1.5527386665344238,-0.9264802932739258
1789324031639398100,8.714398193359376,-0.11301898956298828,-1.9619355201721191,-1.1564230918884277
1789324031658249000,8.7332490234375,-0.5363755226135254,-1.7746305465698242,-1.333479642868042
1789324031677099500,8.752099609375,-0.942141056060791,-1.8364171981811523,-1.1606385707855225
1789324031695950300,8.770950439453125,-0.6044502258300781,-1.4858989715576172,-0.42363476753234863
1789324031714801000,8.78980078125,-1.35426664352417,0.1231532096862793,0.6389789581298828
1789324031733651700,8.808651611328125,-2.9978604316711426,0.8576953411102295,1.3541220426559448
1789324031752502500,8.82750244140625,-3.426401138305664,1.7978739738464355,0.8466808795928955
1789324031771353000,8.84635302734375,-2.218474864959717,1.7691410779953003,0.7038934230804443
1789324031790204000,8.865203857421875,-1.7585573196411133,0.8791365623474121,1.3833070993423462
1789324031809054500,8.884054443359375,-1.7025604248046875,-0.5050430297851562,1.6897671222686768
1789324031827905300,8.9029052734375,-2.310077667236328,-0.5561003684997559,1.844841718673706
1789324031846756000,8.921756103515625,-2.9009108543395996,0.12513184547424316,1.4652787446975708
1789324031865606700,8.940606689453125,-3.501951217651367,0.9112753868103027,1.7167181968688965
1789324031884457500,8.95945751953125,-2.96279239654541,1.8440313339233398,2.0858078002929688
1789324031903308000,8.97830810546875,-2.9031972885131836,1.546727180480957,1.8507804870605469
1789324031922158800,8.997158935546874,-3.3972558975219727,1.7775825262069702,1.7605115175247192
1789324031941009400,9.016009521484374,-3.881265163421631,2.0704457759857178,1.813979148864746
1789324031959860200,9.034860107421874,-2.493325710296631,1.845089316368103,2.176846981048584
1789324031978711000,9.0537109375,-1.412841796875,1.2823007106781006,1.7167305946350098
1789324032006987000,9.081987060546876,-1.4262752532958984,0.9993634223937988,1.0405714511871338
1789324032025837800,9.100837890625,-1.8523354530334473,1.335688591003418,0.8686189651489258
1789324032044688400,9.1196884765625,-2.030057430267334,1.3461127281188965,0.49071669578552246
1789324032063539200,9.138539306640626,-1.12540864944458,0.7125554084777832,0.2795865535736084
1789324032082389800,9.1573896484375,-0.42883872985839844,-1.6834979057312012,-0.0588994026184082
1789324032101240600,9.176240478515625,0.07913541793823242,-2.792086124420166,-0.3381364345550537
1789324032120091100,9.195091064453125,-0.014685630798339844,-3.29793643951416,-0.6361989974975586
1789324032138942000,9.21394189453125,0.6974067687988281,-3.6008620262145996,-1.0491712093353271
1789324032157792800,9.232792724609375,1.1526598930358887,-3.9746060371398926,-1.4046516418457031
1789324032176643300,9.251643310546875,2.1199698448181152,-3.9300174713134766,-1.491856575012207
1789324032195494100,9.270494140625,2.886880874633789,-3.5606837272644043,-1.138035774230957
1789324032214344700,9.2893447265625,2.8045287132263184,-1.755319595336914,-0.9075965881347656
1789324032233195500,9.308195556640625,3.0692849159240723,-0.19889163970947266,-0.9772748947143555
1789324032252046000,9.327046142578125,2.6457133293151855,0.4953460693359375,-1.042875051498413
1789324032270897000,9.34589697265625,1.9825787544250488,0.40776538848876953,-1.0716056823730469
1789324032289747700,9.364747802734374,1.629319667816162,-0.3887176513671875,-0.968726634979248
1789324032308598300,9.383598388671874,1.7354884147644043,-1.5316762924194336,-0.587327241897583
1789324032327449000,9.402448974609374,2.2063002586364746,-2.199997901916504,-0.3113536834716797
1789324032346299600,9.421299560546874,2.2065415382385254,-1.8497095108032227,0.07043933868408203
1789324032365150500,9.440150390625,1.7366738319396973,-0.8175830841064453,0.20507526397705078
1789324032384001000,9.4590009765625,0.9742093086242676,-0.043535709381103516,-0.25945425033569336
1789324032402851800,9.477851806640626,0.3212461471557617,0.08970165252685547,-0.475421667098999
1789324032421702400,9.496702392578126,0.34925079345703125,-0.17735624313354492,-0.32462644577026367
1789324032440553200,9.51555322265625,0.8028740882873535,-0.8251662254333496,0.03494071960449219
1789324032459403800,9.53440380859375,1.262232780456543,-1.3330130577087402,-0.22703289985656738
1789324032478254600,9.553254638671875,1.233543872833252,-2.1924328804016113,-0.46121954917907715
1789324032497105400,9.57210546875,0.9646306037902832,-2.3740243911743164,-0.7178792953491211
1789324032515956000,9.5909560546875,0.5901989936828613,-1.7706727981567383,-0.6684777736663818
1789324032534806800,9.609806884765625,0.43706178665161133,-1.2699990272521973,-0.751636266708374
1789324032553657300,9.6286572265625,0.5927309989929199,-1.2201595306396484,-1.2990562915802002
1789324032572508200,9.647508056640625,0.6283860206604004,-1.3771443367004395,-1.7722110748291016
1789324032591358700,9.666358642578125,0.3259902000427246,-1.376058578491211,-1.4328367710113525
1789324032610209500,9.68520947265625,-0.3838319778442383,-1.380967140197754,-0.7658920288085938
1789324032629060000,9.70406005859375,-0.41518640518188477,-0.721501350402832,-0.03935098648071289
1789324032647911000,9.722910888671874,-1.0713539123535156,-0.06710290908813477,0.846686601638794
1789324032666761700,9.74176171875,-2.3611202239990234,0.08922433853149414,1.4171644449234009
1789324032685612300,9.7606123046875,-2.6950197219848633,0.9533388614654541,0.7415904998779297
1789324032704463000,9.779463134765624,-1.8622112274169922,0.83428955078125,0.18048691749572754
1789324032723313700,9.798313720703124,-2.3503103256225586,0.6537928581237793,0.8645241260528564
1789324032742164500,9.81716455078125,-3.7365756034851074,0.5345299243927002,1.6007053852081299
1789324032761015000,9.83601513671875,-3.6601195335388184,0.8828370571136475,2.176248788833618
1789324032779865900,9.854865966796876,-3.1315999031066895,1.0068737268447876,2.846741199493408
1789324032798716400,9.87371630859375,-3.564891815185547,1.2791963815689087,2.633399248123169
1789324032817567200,9.892567138671875,-2.825800895690918,1.2990155220031738,2.2509803771972656
1789324032836417800,9.911417724609375,-2.2586469650268555,0.8298797607421875,1.7807389497756958
1789324032855268600,9.9302685546875,-2.6005425453186035,0.9380319118499756,1.5677257776260376
1789324032874119400,9.949119384765625,-3.0052905082702637,1.330666422843933,1.5530900955200195
1789324032892970000,9.967969970703125,-2.8104028701782227,1.5101008415222168,1.52712881565094
1789324032911820500,9.986820556640625,-1.515181064605713,1.2594342231750488,1.8984850645065308
1789324032930671400,10.00567138671875,-1.3506841659545898,1.2235405445098877,1.6059356927871704
1789324032949522200,10.024522216796875,-1.8308420181274414,1.6852960586547852,1.274933099746704
1789324032968372700,10.043372802734375,-1.5396947860717773,1.9600822925567627,0.9079089164733887
1789324032987223600,10.0622236328125,-0.9279694557189941,1.3573908805847168,0.7109215259552002
1789324033006074000,10.08107421875,-0.4720311164855957,0.07217025756835938,-0.16531872749328613
1789324033024925000,10.099925048828124,0.08908414840698242,-2.1478514671325684,-0.9467477798461914
1789324033043775500,10.118775390625,0.0931859016418457,-3.1474366188049316,-1.2055487632751465
1789324033062626300,10.137626220703124,0.10852813720703125,-3.639542579650879,-1.748030185699463
1789324033081476900,10.156476806640624,0.5650796890258789,-3.8168740272521973,-2.1715641021728516
1789324033100327700,10.17532763671875,1.5009031295776367,-3.2241368293762207,-1.881669282913208
1789324033119178200,10.19417822265625,2.3895649909973145,-2.1088390350341797,-1.5363430976867676
1789324033138029000,10.213029052734376,2.564751148223877,-1.353971004486084,-1.4556262493133545
1789324033156879600,10.231879638671876,2.32790470123291,-1.3997697830200195,-1.2676174640655518
1789324033175730400,10.25073046875,1.9839110374450684,-1.6912508010864258,-1.1022131443023682
1789324033194581000,10.2695810546875,1.8749451637268066,-1.902552604675293,0.26226806640625
1789324033213431800,10.288431884765625,1.890739917755127,-1.549880027770996,1.244135856628418
1789324033232282400,10.307282470703125,1.856374740600586,-0.7145204544067383,0.531043291091919
1789324033251133200,10.32613330078125,1.5666899681091309,-0.24808120727539062,-0.6992733478546143
1789324033269983700,10.344983642578125,1.846841812133789,-0.08207511901855469,-0.6161391735076904
1789324033288834600,10.36383447265625,1.8651890754699707,-0.024488449096679688,-0.4994049072265625
1789324033307685400,10.382685302734375,1.7705368995666504,-0.34375953674316406,-0.5577902793884277
1789324033326536000,10.401535888671875,1.3884458541870117,-0.6447386741638184,-0.7498383522033691
1789324033345386500,10.420386474609375,0.6867713928222656,-0.7709403038024902,-0.554408073425293
1789324033364237300,10.4392373046875,0.39394235610961914,-0.8107085227966309,-0.5414793491363525
1789324033383087900,10.458087890625,0.5009908676147461,-1.321718692779541,-0.6905326843261719
1789324033401938700,10.476938720703124,0.7894606590270996,-1.6977558135986328,-1.2102675437927246
1789324033420789200,10.495789306640624,0.792384147644043,-1.8238887786865234,-1.6249547004699707
1789324033439640000,10.51464013671875,0.6533784866333008,-1.5406055450439453,-1.276954174041748
1789324033458490600,10.53349072265625,0.48175954818725586,-1.3199310302734375,-0.8007400035858154
1789324033477341400,10.552341552734376,0.6058173179626465,-1.6212968826293945,-0.468158483505249
1789324033496192000,10.57119189453125,0.6475391387939453,-1.8966460227966309,-0.6883108615875244
1789324033515042800,10.590042724609376,0.5234231948852539,-1.6942205429077148,-1.2474043369293213
1789324033533893400,10.608893310546875,0.3746376037597656,-1.232778549194336,-1.6830053329467773
1789324033552744200,10.627744140625,0.12105035781860352,-1.4209928512573242,-1.4731404781341553
1789324033571594800,10.6465947265625,-0.3437929153442383,-1.2292695045471191,-1.3264775276184082
1789324033590445600,10.665445556640625,-1.6675562858581543,-0.45334529876708984,-0.41294288635253906
1789324033609296100,10.684296142578125,-3.2130126953125,-0.0130462646484375,0.5654411315917969
1789324033628147000,10.70314697265625,-3.961031436920166,1.7274770736694336,0.5806543827056885
1789324033646997500,10.72199755859375,-2.9848413467407227,2.694918155670166,0.8144207000732422
1789324033665848300,10.740848388671875,-2.7675185203552246,1.5120848417282104,1.2205065488815308
1789324033684699000,10.759698974609375,-2.6538686752319336,0.3995547294616699,2.3219618797302246
1789324033703549700,10.7785498046875,-2.898898124694824,0.32648277282714844,2.525080680847168
1789324033722400300,10.797400146484375,-3.780979633331299,0.5291378498077393,2.001192569732666
1789324033741250800,10.816250732421874,-4.028389930725098,0.8189263343811035,1.5369846820831299
1789324033760101600,10.8351015625,-3.5476555824279785,1.075371503829956,1.7992777824401855
1789324033778952200,10.8539521484375,-3.153380870819092,1.1934148073196411,2.1587252616882324
1789324033797803000,10.872802978515624,-2.63460111618042,1.3956137895584106,2.1511635780334473
1789324033816653600,10.891653564453126,-2.4442973136901855,1.656480073928833,1.6490215063095093
1789324033835504400,10.91050439453125,-2.209831714630127,1.5260887145996094,1.1815531253814697
1789324033854355000,10.92935498046875,-1.8044414520263672,1.23228120803833,1.0139806270599365
1789324033873205800,10.948205810546876,-1.5149731636047363,1.3570566177368164,0.8955671787261963
1789324033892056300,10.967056396484375,-1.635148048400879,1.2889232635498047,0.8665673732757568
1789324033910907100,10.9859072265625,-1.614577293395996,1.4483637809753418,0.37331223487854004
1789324033929757700,11.0047578125,-0.988591194152832,1.183598518371582,-0.5437831878662109
1789324033948608300,11.023608154296875,-0.7069234848022461,-0.9196457862854004,-0.7841317653656006
1789324033967459000,11.042458984375,-0.274320125579834,-2.0404720306396484,-0.697033166885376
1789324033986309600,11.0613095703125,-0.6429424285888672,-2.9925408363342285,-0.8046324253082275
1789324034005160400,11.080160400390625,-0.16074657440185547,-3.720168113708496,-1.341116189956665
1789324034024011000,11.099010986328125,0.8611893653869629,-4.316871643066406,-1.7375214099884033
1789324034042861800,11.11786181640625,2.3713207244873047,-4.427349090576172,-1.9863553047180176
1789324034061712400,11.13671240234375,2.9585585594177246,-3.7947678565979004,-2.2659261226654053
1789324034080563000,11.15556298828125,2.39813232421875,-2.26727294921875,-2.0778369903564453
1789324034099413800,11.174413818359374,2.645188808441162,-0.4277172088623047,-1.188122034072876
1789324034118264300,11.193264404296874,2.6935982704162598,0.1345682144165039,-0.6078009605407715
1789324034137115100,11.212115234375,2.057725429534912,-0.3386249542236328,-0.6247148513793945
1789324034155965700,11.230965576171876,1.4722223281860352,-0.7554950714111328,-1.015061378479004
1789324034174816300,11.249816162109376,1.3759231567382812,-0.690028190612793,-1.0165011882781982
1789324034193667000,11.2686669921875,1.718252182006836,-0.21593189239501953,0.15915250778198242
1789324034212517600,11.287517578125,2.0495810508728027,-0.6822271347045898,0.059580326080322266
1789324034231368400,11.306368408203125,1.5461463928222656,-0.9921731948852539,0.003160715103149414
1789324034250219000,11.325218994140625,0.9663920402526855,-0.5106887817382812,-0.5851643085479736
1789324034269069600,11.344069580078125,0.4594154357910156,0.07402181625366211,-0.748197078704834
1789324034287920400,11.36292041015625,0.20819902420043945,-0.012238502502441406,-0.5234942436218262
1789324034306771000,11.38177099609375,0.34404468536376953,-0.967167854309082,-0.2685112953186035
1789324034325621800,11.400621826171875,0.9848794937133789,-1.8790178298950195,-0.4224541187286377
1789324034344472300,11.419472412109375,1.1027626991271973,-2.010828971862793,-0.8680133819580078
1789324034363323000,11.438322998046875,0.9501762390136719,-2.1547226905822754,-0.9199914932250977
1789324034382173700,11.457173583984375,0.7398281097412109,-1.994826316833496,-0.7104175090789795
1789324034401024300,11.476024169921875,0.5869450569152832,-2.092385768890381,-0.39452171325683594
1789324034419874800,11.494874755859374,0.4310736656188965,-2.106893539428711,-0.5480935573577881
1789324034438725600,11.5137255859375,0.2109513282775879,-1.8200955390930176,-1.0086824893951416
1789324034457576200,11.532576171875,0.1804499626159668,-0.9849185943603516,-1.1761713027954102
1789324034476427000,11.551427001953124,-0.11304712295532227,-0.5555820465087891,-1.191246747970581
1789324034495277600,11.570277587890626,-0.4355039596557617,-1.5569677352905273,-1.196770191192627
1789324034514128100,11.589128173828126,-0.802431583404541,-0.9522204399108887,-0.43415141105651855
1789324034532979000,11.60797900390625,-1.249363899230957,-0.5391330718994141,0.4313364028930664
1789324034551829500,11.62682958984375,-2.246823310852051,0.13874340057373047,0.9348006248474121
1789324034570680000,11.64568017578125,-2.994720935821533,1.0401101112365723,0.7478971481323242
1789324034589531000,11.66453076171875,-2.887054443359375,1.484114646911621,1.2432281970977783
1789324034608381400,11.68338134765625,-2.4998159408569336,1.0467419624328613,2.274529218673706
1789324034627232000,11.70223193359375,-2.9989137649536133,0.84732985496521,2.6925132274627686
1789324034646082800,11.721082763671875,-3.7239112854003906,0.9258899688720703,2.388335943222046
1789324034664933400,11.739933349609375,-4.132970333099365,1.5988136529922485,2.246170997619629
1789324034683784000,11.758783935546875,-3.453564167022705,1.4544193744659424,2.2067623138427734
1789324034702634800,11.777634765625,-2.636995792388916,1.338958740234375,2.3661861419677734
1789324034721485300,11.7964853515625,-2.1789259910583496,0.9945540428161621,2.0624241828918457
1789324034740335900,11.8153359375,-2.4414854049682617,1.1907052993774414,2.092428684234619
1789324034759186700,11.834186767578124,-2.6101155281066895,1.5359203815460205,1.4523215293884277
1789324034778037200,11.853037353515624,-2.4566049575805664,1.5173168182373047,1.4338934421539307
1789324034796888000,11.87188818359375,-1.6728839874267578,1.608630895614624,1.3952982425689697
1789324034815738600,11.890738525390624,-2.005214214324951,1.6789648532867432,1.3040575981140137
1789324034834589200,11.909589111328126,-1.5358796119689941,2.1561591625213623,1.157174825668335
1789324034853440000,11.92843994140625,-0.6894426345825195,2.0302162170410156,0.8222663402557373
1789324034872290600,11.94729052734375,-0.2805805206298828,0.15504026412963867,0.07871580123901367
1789324034891141000,11.96614111328125,0.30669641494750977,-2.2056469917297363,-0.6529242992401123
1789324034909992000,11.984991943359375,-0.36383867263793945,-4.3035688400268555,-1.4392833709716797
1789324034928842500,12.003842529296875,-0.5191712379455566,-4.9424920082092285,-2.0323965549468994
1789324034947693000,12.022693115234375,0.44635868072509766,-4.814727306365967,-2.1793227195739746
1789324034966543600,12.041543701171875,1.926438808441162,-3.36525821685791,-1.3994812965393066
1789324034985394400,12.06039453125,2.888479232788086,-1.5808749198913574,-1.5862705707550049
1789324035004245000,12.079244873046875,3.2971243858337402,-1.0606818199157715,-2.141515016555786
1789324035023095600,12.098095458984375,2.6900548934936523,-1.087691307067871,-1.8548896312713623
1789324035041946000,12.116946044921875,2.3503031730651855,-0.8858070373535156,-1.3686680793762207
1789324035060797000,12.135796875,2.0100317001342773,-0.8802700042724609,-0.3771653175354004
1789324035079647500,12.1546474609375,1.7382335662841797,-1.0074844360351562,-0.12708306312561035
1789324035098498000,12.173498046875,1.7000846862792969,-0.8782691955566406,-0.8428058624267578
1789324035117348900,12.192348876953124,1.9718880653381348,-0.9424104690551758,-1.0687036514282227
1789324035136199400,12.211199462890624,2.379018783569336,-0.9261665344238281,-0.9525091648101807
1789324035155050000,12.230050048828126,2.058178424835205,-0.7650728225708008,-0.6150393486022949
1789324035173900500,12.248900634765626,1.5809712409973145,-0.6133050918579102,-0.5677697658538818
1789324035192751400,12.26775146484375,0.7798280715942383,-0.6102352142333984,-0.5589516162872314
1789324035211602000,12.286601806640626,0.2816348075866699,-0.6722431182861328,-0.1558237075805664
1789324035230452500,12.305452392578125,0.2241230010986328,-0.9251461029052734,0.19810771942138672
1789324035249303300,12.32430322265625,0.3791542053222656,-1.344855785369873,0.209136962890625
1789324035268153900,12.34315380859375,0.404940128326416,-1.549687385559082,-0.2025165557861328
1789324035287004400,12.36200439453125,0.36353015899658203,-1.3560261726379395,-0.7804882526397705
1789324035305855000,12.38085498046875,0.2011699676513672,-0.960662841796875,-1.1868557929992676
1789324035324705800,12.399705810546875,0.07474279403686523,-0.6003990173339844,-1.1878416538238525
1789324035343556400,12.418556396484375,0.10946273803710938,-0.9528660774230957,-0.9677464962005615
1789324035362407000,12.437406982421875,0.3067755699157715,-1.3309178352355957,-1.0893487930297852
1789324035381257500,12.456257568359375,0.5427889823913574,-1.5767779350280762,-1.7465741634368896
1789324035400108300,12.4751083984375,0.37599802017211914,-1.8827719688415527,-2.177595615386963
1789324035418958800,12.493958740234374,-0.29575061798095703,-2.2906856536865234,-1.8593776226043701
1789324035437809400,12.512809326171874,-0.8800029754638672,-0.11974096298217773,-0.6286153793334961
1789324035456660000,12.531659912109374,-1.284278392791748,-0.3485684394836426,0.46479320526123047
1789324035475510800,12.5505107421875,-1.9597549438476562,0.3035852909088135,1.0322096347808838
1789324035494361300,12.569361328125,-2.190673351287842,0.796649694442749,0.3936138153076172
1789324035513212000,12.5882119140625,-2.337751865386963,0.7157638072967529,-0.6117370128631592
1789324035532062700,12.607062744140626,-3.3626456260681152,1.3636865615844727,0.381237268447876
1789324035550913300,12.625913330078125,-3.916757106781006,1.0781075954437256,2.2565114498138428
1789324035569763800,12.644763916015625,-3.5861964225769043,1.1219149827957153,3.1270644664764404
1789324035588614400,12.663614501953125,-3.0702767372131348,1.0698070526123047,2.8540894985198975
1789324035607465200,12.68246533203125,-3.087153911590576,0.9092659950256348,1.4155240058898926
1789324035626315800,12.701315673828125,-3.918623924255371,0.9343452453613281,1.4220423698425293
1789324035645166300,12.720166259765625,-3.7236413955688477,1.3942880630493164,1.9269533157348633
1789324035664017000,12.739016845703125,-2.621579647064209,1.6744581460952759,2.205951690673828
1789324035682867500,12.757867431640625,-1.7630643844604492,1.5929081439971924,2.3049416542053223
1789324035701718300,12.77671826171875,-1.539027214050293,1.6464531421661377,1.9977773427963257
1789324035720568800,12.79556884765625,-1.6684269905090332,1.6485822200775146,1.3589568138122559
1789324035739419400,12.81441943359375,-2.0196924209594727,1.2862048149108887,0.9488303661346436
1789324035758270000,12.83327001953125,-1.778914451599121,1.00938081741333,0.6661627292633057
1789324035777120500,12.85212060546875,-1.9305086135864258,0.5834054946899414,0.18813300132751465
1789324035795971300,12.870971435546876,-1.5463037490844727,-1.1929092407226562,-0.4202301502227783
1789324035814822000,12.88982177734375,-0.1518230438232422,-1.4399490356445312,-0.33796262741088867
1789324035833672400,12.90867236328125,0.21651124954223633,-1.2528128623962402,-0.3676481246948242
1789324035852523000,12.92752294921875,0.2883596420288086,-1.264317512512207,-0.8932247161865234
1789324035909075000,12.984074951171875,1.5566353797912598,-4.167652130126953,-2.939194917678833
1789324035927925500,13.002925537109375,2.4637393951416016,-4.778018951416016,-2.2695741653442383
1789324035946776000,13.021776123046875,2.51615571975708,-4.026431083679199,-1.199976921081543
1789324035965626600,13.040626708984375,2.8596601486206055,-1.1890544891357422,-0.32603001594543457
1789324035984477400,13.0594775390625,2.904052734375,0.2444629669189453,-0.587982177734375
1789324036003328000,13.078327880859375,2.1573100090026855,0.2883119583129883,-1.1525681018829346
1789324036022178600,13.097178466796874,1.397387981414795,-0.15586185455322266,-1.3750584125518799
1789324036041029000,13.116029052734374,1.4680752754211426,-0.28246212005615234,-0.6945774555206299
1789324036059879700,13.134879638671874,2.078080177307129,-0.6781749725341797,-0.6199331283569336
1789324036078730200,13.153730224609374,2.123262882232666,-1.3390731811523438,-0.5685067176818848
1789324036097581000,13.1725810546875,1.1926932334899902,-1.0960912704467773,-0.5515687465667725
1789324036116431600,13.191431640625,0.6171088218688965,-0.311495304107666,-0.6318330764770508
1789324036135282200,13.2102822265625,0.10954904556274414,0.019021987915039062,-0.46814393997192383
1789324036154132700,13.2291328125,0.14886856079101562,-0.3442873954772949,-0.31928420066833496
1789324036172983300,13.2479833984375,0.4996962547302246,-1.2807693481445312,-0.40407681465148926
1789324036191833900,13.266833740234375,1.1970582008361816,-2.171328067779541,-0.7460718154907227
1789324036210684700,13.2856845703125,1.2121162414550781,-2.178560733795166,-1.1948297023773193
1789324036229535200,13.30453515625,0.8927130699157715,-1.779397964477539,-1.3436903953552246
1789324036248385800,13.3233857421875,0.6424694061279297,-1.0408411026000977,-1.223109483718872
1789324036267236400,13.342236328125,0.732386589050293,-0.9102153778076172,-1.0008759498596191
1789324036286087000,13.3610869140625,0.5408778190612793,-1.4424314498901367,-0.9987902641296387
1789324036304937500,13.3799375,0.041365623474121094,-1.5737171173095703,-1.0101616382598877
1789324036323788000,13.3987880859375,-0.5526251792907715,-1.2057456970214844,-0.8692643642425537
1789324036342638800,13.417638916015624,-0.882300853729248,-1.3723955154418945,-0.7919671535491943
1789324036361489400,13.436489501953124,-1.0592255592346191,-1.6788482666015625,-0.5031111240386963
1789324036380340000,13.455340087890624,-2.0531702041625977,-0.08768272399902344,0.4568021297454834
1789324036399190500,13.4741904296875,-3.0228447914123535,1.2111234664916992,0.904099702835083
1789324036418041000,13.493041015625,-2.015430450439453,0.978884220123291,0.48610472679138184
1789324036436891600,13.5118916015625,-0.59185791015625,0.45933961868286133,0.3400299549102783
1789324036455742200,13.5307421875,-1.4210915565490723,0.3541078567504883,1.1396028995513916
1789324036474592800,13.5495927734375,-3.1962413787841797,0.2846097946166992,1.2676541805267334
1789324036493443600,13.568443603515625,-4.1675944328308105,0.34177422523498535,1.4742101430892944
1789324036512294100,13.587294189453125,-4.0264105796813965,1.2960655689239502,2.169325590133667
1789324036531144700,13.606144775390625,-3.4261250495910645,1.5841485261917114,2.540832281112671
1789324036549995300,13.624995361328125,-3.051323413848877,1.9942649602890015,2.2986316680908203
1789324036568845800,13.643845703125,-3.3600234985351562,1.7185592651367188,2.319099187850952
1789324036587696400,13.6626962890625,-3.344876766204834,1.527837872505188,2.1141483783721924
1789324036606547000,13.681546875,-2.780303955078125,1.352085828781128,2.010737419128418
1789324036625397500,13.7003974609375,-2.3955321311950684,1.2895960807800293,1.5568945407867432
1789324036644248000,13.719248046875,-2.0499114990234375,1.2948191165924072,1.4866230487823486
1789324036663098600,13.7380986328125,-1.8698444366455078,1.2283134460449219,1.2140803337097168
1789324036681949400,13.756949462890624,-1.4853949546813965,1.413437843322754,0.9961543083190918
1789324036700800000,13.775800048828126,-1.2041573524475098,1.5278592109680176,0.7054905891418457
1789324036719650600,13.794650634765626,-0.5867810249328613,0.7148857116699219,0.2640693187713623
1789324036738501000,13.813501220703126,0.16498136520385742,-1.7943763732910156,-0.4234170913696289
1789324036757351700,13.8323515625,0.26134729385375977,-3.759305477142334,-0.5269637107849121
1789324036776202200,13.8512021484375,-0.05055522918701172,-4.5324015617370605,-1.1452600955963135
1789324036795052800,13.870052734375,0.020783424377441406,-4.307003021240234,-1.6135435104370117
1789324036813903400,13.8889033203125,1.2762980461120605,-3.5651721954345703,-1.5259382724761963
1789324036832754000,13.90775390625,2.634023666381836,-2.207202911376953,-1.462831735610962
1789324036851604500,13.9266044921875,3.2012939453125,-1.233076572418213,-2.0436062812805176
1789324036870455000,13.945455078125,2.986751079559326,-1.0480527877807617,-2.088724136352539
1789324036889305600,13.9643056640625,2.952277660369873,-0.8783502578735352,-1.061107873916626
1789324036908156400,13.983156494140625,2.7466721534729004,-0.8818159103393555,-0.3756425380706787
1789324036927007000,14.002007080078124,2.3230786323547363,-1.376521110534668,-0.09999585151672363
1789324036945857500,14.020857421875,1.8016891479492188,-1.8066377639770508,-0.7985022068023682
1789324036964708000,14.0397080078125,1.8148794174194336,-1.3893308639526367,-0.9768288135528564
1789324036983558700,14.05855859375,2.4770021438598633,-0.4454507827758789,-0.6462612152099609
1789324037002409200,14.0774091796875,2.1751785278320312,0.05467510223388672,-0.5945935249328613
1789324037021259800,14.096259765625,1.263310432434082,0.1473712921142578,-0.44692397117614746
1789324037040110300,14.1151103515625,0.48868465423583984,0.018495559692382812,-0.6043293476104736
1789324037058961000,14.1339609375,0.1363511085510254,-0.21798038482666016,-0.05472755432128906
1789324037077811500,14.1528115234375,0.438901424407959,-0.5279135704040527,0.15552687644958496
1789324037096662000,14.171662109375,0.8373532295227051,-1.155181884765625,-0.11078453063964844
1789324037115512600,14.1905126953125,1.19832181930542,-1.9397330284118652,-0.7372317314147949
1789324037134363100,14.209363037109375,1.4699220657348633,-2.6103906631469727,-1.2668750286102295
1789324037153213700,14.228213623046875,1.1765494346618652,-2.817183017730713,-1.500361442565918
1789324037172064300,14.247064208984375,0.5449724197387695,-2.2824201583862305,-1.6372344493865967
1789324037190914800,14.265914794921875,0.35805654525756836,-1.5882458686828613,-1.0985889434814453
1789324037209765400,14.284765380859374,0.3577303886413574,-1.1942028999328613,-0.40542030334472656
1789324037228616000,14.303615966796874,0.2022705078125,-0.9594898223876953,-0.28386521339416504
1789324037247466500,14.322466552734374,-0.3067631721496582,-0.6991720199584961,-0.5043706893920898
1789324037266317000,14.341317138671876,-0.48854780197143555,-0.9079866409301758,-0.5204684734344482
1789324037285167600,14.360167724609376,-1.0423908233642578,-0.5030312538146973,-0.18172812461853027
1789324037304018200,14.37901806640625,-2.114192008972168,-0.5332202911376953,0.05845785140991211
1789324037322868700,14.39786865234375,-3.2316160202026367,0.4170217514038086,0.03498196601867676
1789324037341719300,14.41671923828125,-2.613861560821533,0.6579699516296387,0.005326747894287109
1789324037360569900,14.43556982421875,-2.3529529571533203,1.3042571544647217,0.9631009101867676
1789324037379420400,14.45442041015625,-3.1108360290527344,1.0763676166534424,1.915443778038025
1789324037398271000,14.47327099609375,-3.335419178009033,0.44768428802490234,2.1793532371520996
1789324037417121500,14.49212158203125,-3.362793445587158,1.1525793075561523,2.3810620307922363
1789324037435972000,14.51097216796875,-2.261410713195801,0.8365232944488525,2.5049452781677246
1789324037454822700,14.52982275390625,-2.5593247413635254,0.4509894847869873,1.847385048866272
1789324037473673200,14.548673095703125,-3.2854723930358887,1.2278003692626953,1.9007372856140137
1789324037492523800,14.567523681640624,-3.4247422218322754,1.7212013006210327,1.9483294486999512
1789324037511374300,14.586374267578124,-2.6905579566955566,1.6132991313934326,2.346442222595215
1789324037530225000,14.605224853515624,-1.9009194374084473,1.437517762184143,2.151029586791992
1789324037549075500,14.624075439453126,-2.027801513671875,1.001307487487793,1.8183211088180542
1789324037567926000,14.642926025390626,-2.176614284515381,1.4975032806396484,1.5173578262329102
1789324037586776600,14.661776611328126,-2.0220823287963867,1.750910997390747,1.29831862449646
1789324037605627100,14.680627197265625,-2.0159554481506348,1.9598798751831055,0.9430208206176758
1789324037624477700,14.699477783203125,-1.5958318710327148,1.754955530166626,0.6562488079071045
1789324037643328300,14.718328369140625,-0.8661599159240723,-0.13666391372680664,0.0014243125915527344
1789324037662178800,14.7371787109375,-0.16107654571533203,-1.9982190132141113,-1.1002717018127441
1789324037681029400,14.756029296875,-0.1659073829650879,-3.195624828338623,-1.889857292175293
1789324037699880000,14.7748798828125,0.1591200828552246,-3.9691848754882812,-2.1749610900878906
1789324037728155600,14.80315576171875,0.7839565277099609,-3.741180896759033,-2.0733935832977295
1789324037747006200,14.822006103515625,2.505415916442871,-3.099656581878662,-1.4984509944915771
1789324037765856800,14.840856689453124,3.8214340209960938,-3.2039995193481445,-1.5101604461669922
1789324037784707300,14.859707275390624,3.444070816040039,-3.4572324752807617,-1.0567865371704102
1789324037803558000,14.878557861328124,3.0172595977783203,-1.9596662521362305,-1.2924561500549316
1789324037822408400,14.897408447265626,2.3912978172302246,0.2462139129638672,-0.46262168884277344
1789324037841259000,14.916259033203126,1.4900016784667969,1.1754379272460938,-0.28389883041381836
1789324037860109300,14.935109375,1.0844507217407227,0.7258133888244629,-0.2483363151550293
1789324037878959900,14.9539599609375,1.5015816688537598,-0.5931148529052734,-0.5793850421905518
1789324037897810400,14.972810546875,1.917884349822998,-1.0268325805664062,-0.376192569732666
1789324037916661000,14.991660888671875,2.267991542816162,-0.7245798110961914,0.06318807601928711
1789324037935511600,15.010511474609375,1.4968023300170898,-0.45575904846191406,0.35474252700805664
1789324037954362000,15.029362060546875,0.7921795845031738,-0.44524145126342773,0.13225889205932617
1789324037973212700,15.048212646484375,0.31630516052246094,-0.8325023651123047,-0.1354506015777588
1789324037992063200,15.067063232421875,0.6366162300109863,-1.364762306213379,-0.8631265163421631
1789324038010913800,15.085913818359375,1.287705898284912,-1.564131736755371,-1.7859790325164795
1789324038029764400,15.104764404296875,1.6300296783447266,-1.5251498222351074,-2.189887046813965
1789324038048614700,15.12361474609375,1.122685432434082,-1.4985218048095703,-2.013559341430664
1789324038067465200,15.14246533203125,0.37975549697875977,-0.9123077392578125,-1.3110132217407227
1789324038086315800,15.161315673828126,-0.012909889221191406,-0.4342217445373535,-0.4538257122039795
1789324038105166300,15.180166259765626,0.13286972045898438,-0.961601734161377,-0.027467012405395508
1789324038124017000,15.199016845703126,0.3449692726135254,-1.7890734672546387,-0.5135149955749512
1789324038142867500,15.217867431640625,0.33829450607299805,-2.3463072776794434,-1.4122684001922607
1789324038161718000,15.236718017578125,0.37146806716918945,-2.2235827445983887,-1.8829786777496338
1789324038180568600,15.255568603515625,0.013290882110595703,-1.7823266983032227,-1.529409408569336
1789324038199419000,15.2744189453125,-0.7626843452453613,-1.541947841644287,-1.1240856647491455
1789324038227694800,15.30269482421875,-2.3646888732910156,0.5404860973358154,-0.03496742248535156
1789324038246545400,15.32154541015625,-2.7309389114379883,1.1349573135375977,0.7833774089813232
1789324038265395700,15.340395751953125,-2.3209047317504883,0.5214128494262695,1.203041672706604
1789324038284246300,15.359246337890625,-1.536850929260254,0.059240102767944336,1.1143641471862793
1789324038303096800,15.378096923828124,-1.78371000289917,-0.2464442253112793,0.7882320880889893
1789324038321947400,15.396947509765624,-3.5154032707214355,0.2337186336517334,0.5108740329742432
1789324038340798000,15.4157978515625,-4.883978366851807,0.8881087303161621,1.2662142515182495
1789324038359648500,15.4346484375,-4.896181106567383,2.2118539810180664,3.208892583847046
1789324038378499000,15.4534990234375,-3.7808237075805664,3.0174076557159424,3.407496452331543
1789324038397349400,15.472349365234376,-3.0136051177978516,2.494652509689331,2.5718982219696045
1789324038416200000,15.491199951171875,-3.341860771179199,2.0394034385681152,1.9669153690338135
1789324038435050500,15.510050537109375,-3.3639450073242188,1.2885268926620483,2.110384941101074
1789324038453901000,15.528901123046875,-2.685997486114502,0.9539375305175781,2.0333523750305176
1789324038472751600,15.547751708984375,-2.782423496246338,0.7803909778594971,1.450162410736084
1789324038491602200,15.566602294921875,-2.299093723297119,0.8830163478851318,1.5283522605895996
1789324038510452500,15.585452392578125,-2.105701446533203,1.2295925617218018,0.8535275459289551
1789324038529303000,15.604302978515625,-1.5515131950378418,0.871229887008667,0.11103320121765137
1789324038548153600,15.623153564453125,-0.5882072448730469,0.015423774719238281,-0.2593863010406494
1789324038567004200,15.642004150390624,-0.7970433235168457,-1.160733699798584,-0.6990158557891846
1789324038585854700,15.660854736328124,-0.49904489517211914,-1.2149357795715332,-0.9305157661437988
1789324038604705000,15.679705078125,-0.49677419662475586,-1.935483455657959,-1.1598420143127441
1789324038623555600,15.6985556640625,0.1449875831604004,-3.1002020835876465,-1.656358003616333
1789324038642406100,15.71740625,0.5696096420288086,-4.094609260559082,-2.100463390350342
1789324038661256700,15.736256591796876,1.5426015853881836,-4.289436340332031,-2.2105355262756348
1789324038680107300,15.755107177734375,2.8197407722473145,-3.765627384185791,-1.950955867767334
1789324038698957800,15.773957763671875,3.354450225830078,-2.6139869689941406,-1.4527251720428467
1789324038717808000,15.79280810546875,2.603456497192383,-1.4081449508666992,-0.9517982006072998
1789324038736658700,15.81165869140625,2.3853602409362793,-0.17610836029052734,-0.6738049983978271
1789324038755509200,15.83050927734375,2.1400818824768066,0.31286191940307617,-0.22368502616882324
1789324038774359600,15.849359619140625,1.9305033683776855,-0.8473348617553711,0.13082265853881836
1789324038793210000,15.868210205078125,1.787339210510254,-1.485814094543457,-0.18268728256225586
1789324038812060700,15.887060791015625,2.140127658843994,-1.2039241790771484,-0.1799778938293457
1789324038830911200,15.9059111328125,2.1009368896484375,-0.2497396469116211,0.3275473117828369
1789324038849761500,15.924761474609374,1.7658419609069824,0.2068796157836914,-0.009911298751831055
1789324038868612000,15.943612060546876,1.2732148170471191,-0.11314582824707031,-0.4079570770263672
1789324038887462700,15.962462646484376,0.8221774101257324,-0.4273991584777832,-0.5570981502532959
1789324038906313200,15.981313232421876,0.751004695892334,-0.6260948181152344,-0.36837005615234375
1789324038925163500,16.00016357421875,1.0178718566894531,-0.8215084075927734,-0.2728309631347656
1789324038944014000,16.01901416015625,1.1853675842285156,-1.431039810180664,-0.7949981689453125
1789324038962864600,16.03786474609375,1.2954320907592773,-2.1168322563171387,-0.8884539604187012
1789324038981715200,16.056715087890623,1.4101471900939941,-2.6272735595703125,-1.0736722946166992
1789324039000565500,16.0755654296875,1.3691596984863281,-2.2301363945007324,-0.9054598808288574
1789324039019416000,16.094416015625,0.8313369750976562,-1.5087766647338867,-0.7330477237701416
1789324039038266600,16.1132666015625,0.27319908142089844,-1.0514822006225586,-0.7914562225341797
1789324039057117200,16.1321171875,-0.11710977554321289,-0.7879743576049805,-0.8925855159759521
1789324039075967500,16.150967529296874,-0.257784366607666,-0.740262508392334,-0.8812294006347656
1789324039094818000,16.169818115234374,-0.040531158447265625,-1.135322093963623,-0.8358635902404785
1789324039113668600,16.188668701171874,0.166595458984375,-2.0420727729797363,-1.0154120922088623
1789324039132519200,16.207519287109374,-0.9778575897216797,-1.3023452758789062,-0.05719923973083496
1789324039151369500,16.226369384765626,-2.0827813148498535,-0.5760273933410645,0.8474068641662598
1789324039170220000,16.245219970703126,-2.488284111022949,0.7923910617828369,1.111640214920044
1789324039189070600,16.264070556640625,-1.0763835906982422,0.41586971282958984,0.2893867492675781
1789324039207921000,16.2829208984375,-1.532362937927246,0.5776691436767578,0.7330427169799805
1789324039226771500,16.301771484375,-2.660846710205078,1.030519723892212,1.8039219379425049
1789324039245622000,16.3206220703125,-3.5819106101989746,0.8007111549377441,2.395134449005127
1789324039264472300,16.339472412109377,-4.117168426513672,0.7437648773193359,2.1980624198913574
1789324039283323000,16.358322998046877,-4.4383015632629395,1.3660637140274048,2.1532297134399414
1789324039302173400,16.37717333984375,-3.924724578857422,2.0375232696533203,3.064856767654419
1789324039321024000,16.39602392578125,-3.6243667602539062,2.0885133743286133,2.9650914669036865
1789324039339874300,16.414874267578124,-3.316333293914795,2.048092842102051,2.560730457305908
1789324039358724900,16.433724853515624,-2.8689866065979004,1.62753164768219,2.399322748184204
1789324039377575400,16.452575439453124,-2.4113388061523438,1.5671731233596802,2.2140932083129883
1789324039396425700,16.47142578125,-2.253047466278076,1.436873197555542,1.9050159454345703
1789324039415276300,16.4902763671875,-1.7917213439941406,1.5899713039398193,1.6953253746032715
1789324039434126600,16.509126708984375,-1.531506061553955,1.6576879024505615,1.1903002262115479
1789324039452977200,16.52797705078125,-1.0086603164672852,1.585644006729126,0.6434953212738037
1789324039471827700,16.54682763671875,0.20652103424072266,0.44310569763183594,-0.03710317611694336
1789324039490678000,16.565677978515627,0.42464685440063477,-2.294266700744629,-0.9919376373291016
1789324039509528600,16.584528564453127,0.13927841186523438,-3.35396146774292,-1.611722707748413
1789324039528379100,16.603379150390627,-0.6196146011352539,-3.735836982727051,-2.0184452533721924
1789324039547229400,16.6222294921875,-0.010221481323242188,-3.5530896186828613,-1.8714022636413574
1789324039566080000,16.641080078125,1.1502032279968262,-2.716187000274658,-1.3865635395050049
1789324039584930600,16.6599306640625,2.234402656555176,-1.5788440704345703,-1.4063658714294434
1789324039603780900,16.67878076171875,3.100681781768799,-1.067434310913086,-1.9642224311828613
1789324039622631400,16.69763134765625,3.006260395050049,-1.3847408294677734,-2.5561611652374268
1789324039641482000,16.71648193359375,2.102755069732666,-1.6675281524658203,-1.8109734058380127
1789324039660332300,16.735332275390626,1.7714405059814453,-1.4188337326049805,-0.64206862449646
1789324039679182800,16.754182861328125,1.8544597625732422,-1.4723634719848633,0.31589531898498535
1789324039698033200,16.773033203125,2.0912084579467773,-1.9734935760498047,0.5771543979644775
1789324039716883700,16.7918837890625,2.2773752212524414,-1.8175649642944336,-0.2984797954559326
1789324039735734300,16.810734375,2.3244824409484863,-0.7967920303344727,-0.8010311126708984
1789324039754584600,16.82958447265625,2.3841657638549805,0.26348876953125,-0.3932521343231201
1789324039773435100,16.84843505859375,1.7356576919555664,0.36647462844848633,-0.3643784523010254
1789324039792285400,16.867285400390625,1.0118961334228516,0.1472606658935547,-0.5104291439056396
1789324039811136000,16.886135986328124,0.36873340606689453,-0.1344766616821289,-0.545741081237793
1789324039829986600,16.904986572265624,-0.007064342498779297,-0.35288524627685547,-0.3262147903442383
1789324039848836900,16.9238369140625,-0.020771503448486328,-0.40110206604003906,-0.5895676612854004
1789324039867687400,16.9426875,0.6371088027954102,-0.8134841918945312,-0.8436737060546875
1789324039886537700,16.961537841796876,1.2598180770874023,-1.720010757446289,-1.2108571529388428
1789324039905388300,16.98038818359375,1.5855722427368164,-2.457221508026123,-1.5598180294036865
1789324039924238600,16.999238525390624,1.0945611000061035,-2.3498382568359375,-1.7229795455932617
1789324039943089200,17.018089111328123,0.5098066329956055,-1.939648151397705,-1.5337393283843994
1789324039961939500,17.036939453125,0.4320187568664551,-1.842308521270752,-1.5402050018310547
1789324039980790000,17.0557900390625,0.1994948387145996,-2.0005760192871094,-1.534233570098877
1789324039999640600,17.074640625,0.25878000259399414,-1.561880111694336,-1.5030596256256104
1789324040018491000,17.093490966796875,-0.3737659454345703,-1.2196693420410156,-1.2332282066345215
1789324040037341400,17.112341552734375,-1.2182426452636719,-0.1420001983642578,-0.5122733116149902
1789324040056191700,17.131191650390626,-2.034688949584961,0.33481311798095703,0.6107213497161865
1789324040075042300,17.150042236328126,-2.8688578605651855,0.6659812927246094,1.4723620414733887
1789324040093892600,17.168892578125,-2.9257774353027344,0.8785405158996582,0.5601174831390381
1789324040112743200,17.1877431640625,-2.043682098388672,0.7123730182647705,-0.32742905616760254
1789324040131593500,17.206593505859374,-2.4748735427856445,0.9212586879730225,0.76151442527771
1789324040150444000,17.225444091796874,-3.0090861320495605,-0.1603684425354004,1.525484561920166
1789324040169294300,17.24429443359375,-3.061452865600586,-0.24676918983459473,2.0133190155029297
1789324040188145000,17.263144775390625,-3.0768566131591797,0.8818032741546631,1.712561011314392
1789324040206995200,17.2819951171875,-3.6299424171447754,1.8202812671661377,1.9561947584152222
1789324040225845800,17.300845703125,-4.153849124908447,1.9159431457519531,1.6063013076782227
1789324040244696000,17.319696044921876,-3.464111804962158,2.0561089515686035,2.1277756690979004
1789324040263546600,17.338546630859376,-3.2069573402404785,1.9793095588684082,1.5611330270767212
1789324040282397000,17.35739697265625,-3.3733277320861816,1.5161166191101074,1.691588282585144
1789324040301247500,17.37624755859375,-2.807736873626709,1.365354299545288,1.8906034231185913
1789324040329523200,17.404523193359374,-2.451669216156006,1.7148845195770264,1.8184138536453247
1789324040348373500,17.42337353515625,-1.7017064094543457,1.6011278629302979,1.5010406970977783
1789324040367224000,17.44222412109375,-1.770097255706787,1.6689143180847168,0.5959994792938232
1789324040386074400,17.461074462890625,-0.8516273498535156,1.2311177253723145,-0.25269627571105957
1789324040404925000,17.479925048828125,-0.6896071434020996,-0.5744972229003906,-0.9169929027557373
1789324040423775200,17.498775146484373,0.022951602935791016,-2.048048973083496,-1.4091994762420654
1789324040442625800,17.517625732421877,-0.32555532455444336,-3.70558500289917,-1.9865546226501465
1789324040461476000,17.53647607421875,0.032915592193603516,-4.776914596557617,-2.7495713233947754
1789324040480326400,17.555326416015625,0.7639226913452148,-4.943591117858887,-2.3666067123413086
1789324040499177000,17.574177001953124,2.16481351852417,-4.092422962188721,-1.9731719493865967
1789324040518027300,17.59302734375,3.772247791290283,-3.24418306350708,-1.7961199283599854
1789324040536877800,17.6118779296875,3.4966588020324707,-1.927689552307129,-1.751434326171875
1789324040555728100,17.63072802734375,2.5817246437072754,-0.08866691589355469,-1.3972060680389404
1789324040574578700,17.64957861328125,2.1276516914367676,0.7623753547668457,-1.0301778316497803
1789324040593429000,17.668428955078124,1.8447375297546387,-0.30552005767822266,0.1778419017791748
1789324040612279300,17.687279296875,1.5098342895507812,-1.6740474700927734,0.45835304260253906
1789324040631129900,17.7061298828125,1.3721213340759277,-1.745774269104004,-0.1477341651916504
1789324040649980200,17.724980224609375,1.6933212280273438,-1.2417583465576172,-0.5086977481842041
1789324040668830700,17.743830810546875,2.2588706016540527,-0.7114391326904297,-0.7855677604675293
1789324040687681000,17.762680908203127,2.040079116821289,-0.45984935760498047,-0.5818750858306885
1789324040706531300,17.78153125,1.4633350372314453,-0.38086938858032227,-0.7226297855377197
1789324040725382000,17.8003818359375,0.6520199775695801,-0.6099505424499512,-1.0309886932373047
1789324040744232200,17.819232177734374,-0.015066146850585938,-0.8792448043823242,-0.6868844032287598
1789324040763082800,17.838082763671874,-0.23122596740722656,-1.0317153930664062,-0.8027980327606201
1789324040781933000,17.85693310546875,0.4124422073364258,-1.0091300010681152,-0.4919278621673584
1789324040800783400,17.875783447265626,0.6192359924316406,-0.7295565605163574,-0.45264291763305664
1789324040819634000,17.894634033203126,0.5588889122009277,-0.8013677597045898,-0.4673633575439453
1789324040838484200,17.913484130859374,0.5249600410461426,-0.9782018661499023,-0.6279857158660889
1789324040857334800,17.932334716796873,0.5202984809875488,-1.4364962577819824,-1.1743028163909912
1789324040876185000,17.95118505859375,0.7280421257019043,-2.023564338684082,-1.667604684829712
1789324040895035400,17.970035400390625,0.9419269561767578,-2.245434284210205,-1.5348870754241943
1789324040913886000,17.988885986328125,0.4671487808227539,-1.9126076698303223,-1.3945178985595703
1789324040932736300,18.007736328125,-0.40511035919189453,-1.64345121383667,-0.9627106189727783
1789324040951586600,18.026586669921876,-1.0785937309265137,-0.584993839263916,0.20384979248046875
1789324040970437000,18.04543701171875,-2.1043496131896973,-0.13581132888793945,0.7911608219146729
1789324040989287400,18.064287353515624,-2.4304847717285156,0.6226511001586914,1.139267921447754
1789324041008137700,18.0831376953125,-1.6255640983581543,0.16047239303588867,0.5335571765899658
1789324041026988300,18.10198828125,-1.131117343902588,-0.4011960029602051,0.10136914253234863
1789324041045838600,18.120838623046875,-2.7529959678649902,0.2593092918395996,0.7813196182250977
1789324041064689000,18.13968896484375,-4.370297908782959,1.3776545524597168,2.2603440284729004
1789324041083539500,18.15853955078125,-3.99835205078125,1.8655558824539185,2.844176769256592
1789324041102389800,18.1773896484375,-2.9281835556030273,1.3654428720474243,2.835113763809204
1789324041121240300,18.196240234375,-3.080920696258545,1.3038753271102905,1.9833498001098633
1789324041140090600,18.215090576171875,-4.021669864654541,0.9627443552017212,1.7472482919692993
1789324041158941000,18.23394091796875,-4.671749114990234,1.1741772890090942,2.352094888687134
1789324041177791200,18.252791259765626,-3.1831393241882324,1.6896110773086548,2.638467788696289
1789324041196641800,18.271641845703126,-1.822434425354004,1.8369883298873901,2.5815908908843994
1789324041215492000,18.2904921875,-1.4401426315307617,1.6876022815704346,1.9884037971496582
1789324041234342400,18.30934228515625,-1.968796730041504,1.5994856357574463,1.4574484825134277
1789324041253193000,18.32819287109375,-2.045581817626953,1.8065385818481445,0.9715828895568848
1789324041272043300,18.347043212890625,-1.4632940292358398,2.0499889850616455,0.6237959861755371
1789324041290893600,18.3658935546875,-0.8245720863342285,0.9883098602294922,0.3124685287475586
1789324041309744000,18.384744140625,-0.3771953582763672,-1.9802064895629883,-0.32344722747802734
1789324041328594400,18.403594482421877,-0.02807331085205078,-2.8192081451416016,-0.6281604766845703
1789324041347444700,18.42244482421875,-0.28999900817871094,-3.023512363433838,-0.8389506340026855
1789324041366295000,18.441294921875,0.44794225692749023,-3.303792953491211,-1.2962522506713867
1789324041385145600,18.4601455078125,0.6776084899902344,-3.7666726112365723,-1.7231857776641846
1789324041403996000,18.478995849609376,1.1238899230957031,-3.1299681663513184,-1.9072210788726807
1789324041422846200,18.49784619140625,2.086132526397705,-2.0985207557678223,-1.847766637802124
1789324041441696500,18.516696533203124,2.80185604095459,-1.9494590759277344,-1.174565076828003
1789324041460547000,18.535547119140624,3.104801654815674,-1.899679183959961,-0.7431745529174805
1789324041479397400,18.5543974609375,2.567575454711914,-1.6945037841796875,-0.9803483486175537
1789324041498247700,18.57324755859375,1.9790101051330566,-1.1671857833862305,-1.159881591796875
1789324041517098000,18.592097900390623,2.0805864334106445,-1.0528573989868164,-0.8989245891571045
1789324041535948500,18.610948486328127,2.4225525856018066,-0.8494386672973633,-0.746849536895752
1789324041554798800,18.629798828125,2.536001682281494,-0.36702632904052734,-1.1853435039520264
1789324041583074300,18.65807421875,2.155416965484619,0.289583683013916,-0.7858819961547852
1789324041601924600,18.676924560546876,1.2823200225830078,0.458590030670166,-0.25652647018432617
1789324041620775200,18.695775146484376,0.8727545738220215,0.16844606399536133,-0.10855484008789062
1789324041639625500,18.71462548828125,0.9053092002868652,-0.6152958869934082,-0.007616996765136719
1789324041658475800,18.733475830078124,0.7395172119140625,-1.4796290397644043,-0.07036519050598145
1789324041677326000,18.752326171875,0.6076769828796387,-2.0507473945617676,-0.4890716075897217
1789324041696176400,18.77117626953125,1.0495634078979492,-2.4656524658203125,-1.1335129737854004
1789324041715026700,18.790026611328123,1.2392840385437012,-2.524035930633545,-1.4858965873718262
1789324041733877200,18.808877197265623,1.0145630836486816,-2.1591172218322754,-1.4919357299804688
1789324041752727600,18.8277275390625,0.5788464546203613,-1.445749282836914,-0.7500393390655518
1789324041771577900,18.846577880859375,0.3617672920227051,-1.158012866973877,-0.2001056671142578
1789324041790428200,18.86542822265625,-0.09239673614501953,-1.1753907203674316,-0.40750885009765625
1789324041809278500,18.884278564453126,-0.45354652404785156,-0.8660411834716797,-1.0189235210418701
1789324041828129000,18.90312890625,-0.5491371154785156,-0.7104730606079102,-1.1124746799468994
1789324041846979300,18.921979248046874,-0.3467082977294922,-1.2729525566101074,-1.1809642314910889
1789324041865829600,18.94082958984375,-0.04860973358154297,-1.4404797554016113,-1.0821821689605713
1789324041884680000,18.959679931640625,-1.345158576965332,-0.7378854751586914,-0.3837733268737793
1789324041903530200,18.9785302734375,-2.5808796882629395,0.591566801071167,0.6284430027008057
1789324041922380500,18.997380615234373,-2.9691386222839355,0.9955363273620605,0.5391147136688232
1789324041941231000,19.016231201171873,-2.880662441253662,1.125739336013794,0.1639862060546875
1789324041960081400,19.035081298828125,-3.6847262382507324,1.7608941793441772,1.1415729522705078
1789324041978931700,19.053931640625,-3.687145233154297,1.2580621242523193,2.4704489707946777
1789324041997782000,19.072781982421876,-3.1730504035949707,0.6288506984710693,2.932814836502075
1789324042016632300,19.09163232421875,-2.2234749794006348,0.41400933265686035,2.3326988220214844
1789324042035482600,19.110482666015624,-3.5134716033935547,1.274737000465393,1.3215199708938599
1789324042054333000,19.1293330078125,-4.435699939727783,1.4347153902053833,1.5884709358215332
1789324042073183200,19.148183349609376,-3.2188706398010254,1.620989441871643,2.259960174560547
1789324042092033800,19.16703369140625,-2.410146713256836,1.4284708499908447,1.7884119749069214
1789324042110884000,19.185884033203124,-2.9917993545532227,1.4267094135284424,1.538338303565979
1789324042129734400,19.204734375,-2.617190361022949,1.7581983804702759,1.9488577842712402
1789324042148584700,19.223584716796875,-2.0723299980163574,1.9104743003845215,1.7493093013763428
1789324042167435000,19.24243505859375,-2.0490379333496094,1.643024206161499,0.9558544158935547
1789324042186285300,19.261285400390626,-1.6451077461242676,1.4719574451446533,0.35939669609069824
1789324042205135600,19.280135498046874,-1.6378145217895508,1.1155149936676025,0.004088163375854492
1789324042223986000,19.29898583984375,-0.8795442581176758,-0.3132505416870117,-0.42708635330200195
1789324042252261400,19.327261474609376,-0.0027837753295898438,-1.5507264137268066,-1.3017551898956299
1789324042271111700,19.346111572265624,-0.021047115325927734,-3.1923012733459473,-2.1560826301574707
1789324042289962000,19.3649619140625,-0.4400959014892578,-4.7940497398376465,-2.9987869262695312
1789324042308812300,19.383812255859375,0.14418792724609375,-4.931267738342285,-2.6158101558685303
1789324042327662800,19.402662841796875,2.42995023727417,-3.8271450996398926,-1.3581995964050293
1789324042346513200,19.42151318359375,3.6760549545288086,-3.085014820098877,-0.7655293941497803
1789324042365363500,19.440363525390627,3.2117085456848145,-2.2338199615478516,-1.1614747047424316
1789324042384213800,19.4592138671875,2.6426615715026855,-1.0724430084228516,-1.4668595790863037
1789324042403064000,19.47806396484375,2.523383617401123,-0.21605587005615234,-1.0149250030517578
1789324042421914400,19.496914306640626,1.919126033782959,-0.2756624221801758,-0.36759018898010254
1789324042440764700,19.5157646484375,1.4184293746948242,-1.066014289855957,-0.48073744773864746
1789324042459615000,19.534614990234374,1.572031021118164,-0.6175565719604492,-0.737473726272583
1789324042478465300,19.55346533203125,1.7626919746398926,-0.03747367858886719,-0.47237133979797363
1789324042497315600,19.572315673828125,2.0491528511047363,-0.04255390167236328,-0.12035894393920898
1789324042516166000,19.591165771484373,1.390324592590332,-0.611638069152832,-0.022810935974121094
1789324042535016200,19.61001611328125,0.8253936767578125,-0.9156012535095215,-0.15647315979003906
1789324042553866500,19.628866455078125,0.5642542839050293,-0.8624358177185059,-0.39695119857788086
1789324042572716800,19.647716796875,0.40871572494506836,-0.6866936683654785,-0.5115275382995605
1789324042591567000,19.666567138671876,0.41088390350341797,-0.724388599395752,-1.082331895828247
1789324042610417400,19.68541748046875,0.9968867301940918,-1.419992446899414,-1.3827588558197021
1789324042629267700,19.704267822265624,1.2698092460632324,-1.8930602073669434,-1.618417739868164
1789324042648118000,19.723117919921876,1.116528034210205,-2.1033759117126465,-1.4234015941619873
1789324042666968300,19.74196826171875,1.031768798828125,-1.9342665672302246,-1.139404058456421
1789324042685818600,19.760818603515624,0.8770885467529297,-2.210695743560791,-0.813650369644165
1789324042704669000,19.7796689453125,0.4525017738342285,-2.4890494346618652,-0.9754800796508789
1789324042723519200,19.798519287109375,-0.07598733901977539,-2.1776576042175293,-1.1872992515563965
1789324042742369500,19.81736962890625,-0.476839542388916,-1.208876609802246,-1.0920820236206055
1789324042761219800,19.8362197265625,-0.3948373794555664,-0.9613895416259766,-0.9012622833251953
1789324042780070100,19.855070068359375,-0.5619831085205078,-0.3702831268310547,-0.01206660270690918
1789324042798920400,19.87392041015625,-2.235229969024658,-0.1370868682861328,0.8998174667358398
1789324042817770500,19.8927705078125,-3.4817848205566406,1.7840111255645752,1.1067588329315186
1789324042836620800,19.911620849609374,-2.4652953147888184,0.7312994003295898,0.0903022289276123
1789324042855471000,19.93047119140625,-2.28334903717041,-0.35515666007995605,0.11521553993225098
1789324042874321400,19.9493212890625,-3.5114364624023438,0.6615159511566162,1.7315247058868408
1789324042893171700,19.968171630859374,-4.3788299560546875,0.6916022300720215,2.6855483055114746
1789324042912022000,19.98702197265625,-3.9642539024353027,1.2893239259719849,3.2989158630371094
1789324042930872300,20.005872314453125,-3.235748291015625,1.8657586574554443,2.98703932762146
1789324042949722600,20.02472265625,-3.33273983001709,1.678291916847229,1.5665799379348755
1789324042968573000,20.043572998046876,-3.534236431121826,1.395432472229004,1.271913766860962
1789324042987423200,20.06242333984375,-2.897066116333008,1.2647202014923096,1.6989891529083252
1789324043006273500,20.0812734375,-2.3901782035827637,1.0316216945648193,1.5424779653549194
1789324043025123800,20.100123779296876,-2.438410758972168,1.0299439430236816,1.7379180192947388
1789324043043974100,20.11897412109375,-1.8152551651000977,1.3663477897644043,1.4164514541625977
1789324043062824200,20.13782421875,-1.6985130310058594,1.5483107566833496,1.0093457698822021
1789324043081674500,20.156674560546875,-1.5736732482910156,1.6581566333770752,0.863300085067749
1789324043100524800,20.17552490234375,-1.1508889198303223,1.8980553150177002,0.46826672554016113
1789324043119375000,20.194375,-1.181413173675537,1.5626213550567627,-0.22469687461853027
1789324043147650600,20.222650634765625,-1.027235507965088,-1.8786277770996094,-0.860419511795044
1789324043166500900,20.2415009765625,-0.7824501991271973,-2.8832778930664062,-1.0206396579742432
1789324043185351200,20.26035107421875,-0.36446189880371094,-3.4447665214538574,-1.0221893787384033
1789324043204201500,20.279201416015624,0.004193305969238281,-3.697174072265625,-1.2665505409240723
1789324043223051500,20.298051513671876,1.0015811920166016,-3.6397876739501953,-1.3014342784881592
1789324043241901800,20.31690185546875,3.150141716003418,-3.119201183319092,-1.268021821975708
1789324043260752100,20.335752197265624,3.8702750205993652,-3.0622005462646484,-1.6564655303955078
1789324043279602400,20.3546025390625,3.0364952087402344,-2.5594210624694824,-1.5789189338684082
1789324043298452700,20.37345263671875,2.8279051780700684,-0.9944953918457031,-1.1237173080444336
1789324043317302800,20.392302734375,2.4702587127685547,0.1550760269165039,-0.9651491641998291
1789324043336153300,20.4111533203125,1.986910343170166,0.19872188568115234,-0.891594648361206
1789324043364428500,20.439428466796876,2.015164852142334,-0.7844362258911133,-1.4505259990692139
1789324043383278800,20.45827880859375,2.0201730728149414,-0.45139598846435547,-0.8991665840148926
1789324043402129200,20.477129150390624,1.9564104080200195,-0.2534980773925781,0.24242520332336426
1789324043420979500,20.4959794921875,1.6938891410827637,-0.8645057678222656,0.20722126960754395
1789324043439829500,20.51482958984375,1.2962126731872559,-1.2867732048034668,0.055951833724975586
1789324043458679800,20.5336796875,0.7637128829956055,-1.0021963119506836,-0.1586320400238037
1789324043477530000,20.552530029296875,0.526362419128418,-0.6087708473205566,-0.4767177104949951
1789324043496380400,20.57138037109375,0.2890133857727051,-0.7773852348327637,-0.9337272644042969
1789324043515230700,20.590230712890627,0.38871192932128906,-1.5977230072021484,-1.1916253566741943
1789324043534080800,20.609080810546875,0.8489375114440918,-2.045515537261963,-1.0355257987976074
1789324043552931000,20.62793115234375,1.215898036956787,-2.3169236183166504,-0.8569836616516113
1789324043571781400,20.646781494140626,0.7836751937866211,-1.7497062683105469,-1.022331714630127
1789324043590631700,20.665631591796874,0.17651081085205078,-1.2280383110046387,-1.020632028579712
1789324043609481700,20.684481689453126,-0.27006101608276367,-0.7479448318481445,-0.8674659729003906
1789324043628332000,20.70333203125,-0.059851646423339844,-0.4252452850341797,-0.5380589962005615
1789324043647182300,20.722182373046873,0.3278980255126953,-0.9057469367980957,-0.6194560527801514
1789324043666032600,20.74103271484375,0.27721118927001953,-1.747016429901123,-1.2505807876586914
1789324043684882700,20.759882568359377,0.1698284149169922,-2.20408296585083,-1.4874906539916992
1789324043703733000,20.77873291015625,-0.6288585662841797,-1.225257396697998,-0.5670356750488281
1789324043722583300,20.797583251953125,-2.002148151397705,-1.066329002380371,0.3809943199157715
1789324043741433600,20.81643359375,-3.295896053314209,0.7115378379821777,0.8442351818084717
1789324043760283600,20.83528369140625,-2.7781386375427246,0.9664826393127441,0.6082963943481445
1789324043779134000,20.854134033203124,-2.370701789855957,1.4636621475219727,0.982783317565918
1789324043797984300,20.872984375,-3.4707484245300293,1.5328328609466553,2.0047640800476074
1789324043816834600,20.89183447265625,-4.220566272735596,1.0830212831497192,2.3423736095428467
1789324043835684600,20.9106845703125,-4.322917938232422,0.861797571182251,2.9185404777526855
1789324043854535000,20.929534912109375,-4.178540229797363,1.5300382375717163,2.924138069152832
1789324043873385200,20.94838525390625,-3.5590996742248535,1.8053104877471924,2.3461978435516357
1789324043892235500,20.967235595703126,-3.434079647064209,1.5824986696243286,2.24489164352417
1789324043911085600,20.98608544921875,-3.0277013778686523,1.5391844511032104,2.267263412475586
1789324043929936000,21.004935791015626,-2.184415817260742,1.327234148979187,2.115123987197876
1789324043948786200,21.0237861328125,-1.721794605255127,1.2404768466949463,1.4470956325531006
1789324043967636200,21.04263623046875,-1.9997010231018066,1.1066575050354004,0.8641107082366943
1789324043986486500,21.061486572265625,-1.9685125350952148,0.9854121208190918,0.8126630783081055
1789324044005336800,21.0803369140625,-1.1140775680541992,1.0140538215637207,0.5761580467224121
1789324044024187000,21.099186767578125,-1.0143327713012695,0.804685115814209,0.2643556594848633
1789324044043037200,21.118037109375,-0.5545954704284668,-0.3216729164123535,0.11914896965026855
1789324044061887500,21.136887451171877,-0.44780826568603516,-1.5666990280151367,-0.3929178714752197
1789324044080737500,21.155737548828125,-0.3569674491882324,-2.113804817199707,-0.8440723419189453
1789324044099587800,21.174587890625,0.0036220550537109375,-2.743682861328125,-1.146568775177002
1789324044118438100,21.193438232421876,0.2779107093811035,-2.969435691833496,-1.7484331130981445
1789324044137288400,21.212288330078124,1.008500576019287,-3.259636402130127,-1.707683801651001
1789324044156138500,21.231138427734376,2.545607566833496,-3.1482596397399902,-1.873572826385498
1789324044174988800,21.24998876953125,3.315868377685547,-2.9979071617126465,-2.0856196880340576
1789324044193838800,21.2688388671875,2.9350085258483887,-2.5915584564208984,-1.8567523956298828
1789324044212689200,21.287689208984375,2.341278553009033,-1.5201454162597656,-1.3916170597076416
1789324044231539500,21.30653955078125,1.724996566772461,-0.45200443267822266,-0.9238846302032471
1789324044250389500,21.325389404296875,1.3645544052124023,-0.10936164855957031,-0.7452421188354492
1789324044269239800,21.34423974609375,1.5107455253601074,-0.031777381896972656,-1.014279842376709
1789324044288090000,21.363090087890626,1.9631094932556152,-0.12947463989257812,-1.337693452835083
1789324044306940200,21.381940185546874,2.348555564880371,-0.055222511291503906,-1.0391628742218018
1789324044325790500,21.40079052734375,2.0411200523376465,0.18839263916015625,-0.3566615581512451
1789324044344640800,21.419640869140625,1.489159107208252,-0.008852005004882812,0.1855916976928711
1789324044363490800,21.43849072265625,1.1702232360839844,-0.5245614051818848,-0.024358749389648438
1789324044382341000,21.457341064453125,0.6925559043884277,-0.8536005020141602,-0.22242379188537598
1789324044401191200,21.476191162109377,0.5025043487548828,-0.903559684753418,-0.6687440872192383
1789324044420041500,21.49504150390625,0.708320140838623,-1.324026107788086,-0.77219557762146
1789324044438891800,21.513891845703125,1.0435190200805664,-1.9930830001831055,-0.8206784725189209
1789324044457741800,21.532741943359376,1.0060014724731445,-2.5787668228149414,-0.8071727752685547
1789324044476592000,21.551592041015624,1.1545114517211914,-2.8098692893981934,-0.8600060939788818
1789324044495442200,21.570442138671876,0.8796901702880859,-2.374070644378662,-0.9515149593353271
1789324044514292500,21.58929248046875,0.22935962677001953,-1.8629722595214844,-0.6427721977233887
1789324044533142800,21.608142822265624,0.28143787384033203,-1.5652685165405273,-0.6945180892944336
1789324044551992800,21.626992919921875,0.34479808807373047,-1.315962314605713,-1.1509983539581299
1789324044570843100,21.645843017578127,-0.11015033721923828,-0.9849405288696289,-1.677659511566162
1789324044589693400,21.664693359375,-0.7442173957824707,-1.252091884613037,-1.8212988376617432
1789324044608543500,21.68354345703125,-1.1314640045166016,-0.5607752799987793,-0.9291517734527588
1789324044627393800,21.702393798828126,-1.7073698043823242,-0.12003374099731445,0.37606120109558105
1789324044646243800,21.721243896484374,-2.6276121139526367,0.7304050922393799,0.9785771369934082
1789324044665094100,21.74009423828125,-2.24776029586792,0.6573057174682617,0.4789609909057617
1789324044683944200,21.758944091796874,-1.894516944885254,0.6526641845703125,0.1599256992340088
1789324044702794500,21.77779443359375,-2.7038774490356445,0.8852527141571045,1.7405059337615967
1789324044721644800,21.796644775390625,-3.371432304382324,0.40604162216186523,2.581101655960083
1789324044740494800,21.815494873046877,-3.3572120666503906,0.46112895011901855,2.6184921264648438
1789324044759345200,21.83434521484375,-3.1347427368164062,0.9201608896255493,2.234309196472168
1789324044778195200,21.8531953125,-3.8107590675354004,1.2413134574890137,2.0109214782714844
1789324044797045500,21.87204541015625,-4.4637064933776855,1.6621110439300537,2.330846071243286
1789324044815895600,21.8908955078125,-3.7686986923217773,1.9770233631134033,2.3424720764160156
1789324044834745900,21.909745849609376,-2.819368362426758,1.6782798767089844,2.4469175338745117
1789324044853596000,21.928595947265624,-2.217111587524414,1.437225103378296,2.4054722785949707
1789324044872446200,21.9474462890625,-2.3774967193603516,1.185185194015503,2.0369491577148438
1789324044891296300,21.966296142578123,-2.579111099243164,1.366075038909912,1.2606196403503418
1789324044910146600,21.985146484375,-2.1310620307922363,1.4752156734466553,0.8531692028045654
1789324044928996600,22.00399658203125,-1.1263728141784668,1.793050765991211,0.7091498374938965
1789324044947847000,22.022846923828126,-0.8094682693481445,1.5293002128601074,0.2654130458831787
1789324044966697000,22.041697021484374,-0.23250675201416016,0.13703632354736328,-0.4492831230163574
1789324044985547300,22.06054736328125,-0.0007224082946777344,-1.5601963996887207,-1.2138118743896484
1789324045004397300,22.079397216796874,-0.3467864990234375,-2.82798433303833,-1.4905548095703125
1789324045023247600,22.09824755859375,-0.22844839096069336,-4.377640247344971,-1.8403820991516113
1789324045042098000,22.117097900390625,-0.23601341247558594,-4.812253475189209,-2.0235278606414795
1789324045060948000,22.135947998046873,0.7647647857666016,-4.078848838806152,-1.2913358211517334
1789324045079798300,22.15479833984375,2.9887428283691406,-1.961160659790039,-1.156360149383545
1789324045098648300,22.1736484375,3.578227996826172,-0.7231221199035645,-1.7710306644439697
1789324045117498600,22.19249853515625,3.0842127799987793,-0.41473817825317383,-2.538682699203491
1789324045136348700,22.2113486328125,2.8062853813171387,-0.3998556137084961,-2.0646886825561523
1789324045155198700,22.23019873046875,2.357795238494873,-0.8465595245361328,-0.7900879383087158
1789324045174049000,22.249049072265624,1.6501126289367676,-1.7003450393676758,-0.39289188385009766
1789324045192899300,22.2678994140625,1.0292129516601562,-2.3241043090820312,-0.7116284370422363
1789324045211749400,22.286749267578124,1.4563403129577637,-1.0855083465576172,-1.2597179412841797
1789324045230599700,22.305599609375,2.0887503623962402,-0.2636594772338867,-1.1562259197235107
1789324045249449700,22.32444970703125,2.5307040214538574,-0.27274608612060547,-1.1976191997528076
1789324045268299800,22.3432998046875,2.3130922317504883,-0.6388936042785645,-1.1417841911315918
1789324045287150000,22.362150146484375,1.373603343963623,-0.6068539619445801,-0.8151404857635498
1789324045306000100,22.381000244140626,0.2905387878417969,-0.4633336067199707,-0.8333861827850342
1789324045324850400,22.399850341796874,-0.5521450042724609,-0.5569248199462891,-0.49811482429504395
1789324045343700500,22.418700439453126,-0.6628179550170898,-0.553947925567627,-0.1254878044128418
1789324045362550800,22.43755078125,0.04652738571166992,-0.7572422027587891,-0.30725598335266113
1789324045381400800,22.45640087890625,0.7086057662963867,-1.3589448928833008,-0.536719560623169
1789324045400251100,22.475251220703125,1.1765165328979492,-2.0236501693725586,-0.9065852165222168
1789324045419101200,22.49410107421875,1.1304097175598145,-2.2836837768554688,-1.1553590297698975
1789324045437951200,22.512951171875,0.8267745971679688,-2.3692054748535156,-1.1603429317474365
1789324045456801500,22.531801513671876,0.5170555114746094,-2.3768038749694824,-1.3458592891693115
1789324045475651600,22.550651611328124,0.11882257461547852,-2.06630802154541,-1.7048592567443848
1789324045494502000,22.569501953125,-0.434323787689209,-1.306126594543457,-1.9679453372955322
1789324045513352000,22.58835205078125,-0.6030855178833008,-1.225313663482666,-1.3578684329986572
1789324045532202200,22.6072021484375,-1.4070549011230469,-0.14642620086669922,0.1384754180908203
1789324045551052300,22.62605224609375,-1.9877328872680664,0.06020545959472656,0.7580595016479492
1789324045569902600,22.644902587890623,-2.1868510246276855,0.9480702877044678,0.28786134719848633
1789324045588752600,22.663752685546875,-2.5973873138427734,0.499361515045166,-0.7080037593841553
1789324045607602700,22.682602783203127,-3.791116237640381,0.4219660758972168,-0.0006043910980224609
1789324045626453000,22.701452880859375,-4.1961798667907715,1.8070472478866577,1.7455990314483643
1789324045654728200,22.729728271484376,-3.2513537406921387,1.0602569580078125,2.4100167751312256
1789324045673578200,22.748578125,-3.197173595428467,0.9451478719711304,2.4962921142578125
1789324045692428500,22.767428466796876,-3.464099884033203,1.0094120502471924,1.8945380449295044
1789324045711278600,22.786278564453124,-3.416935443878174,0.9794095754623413,1.4400814771652222
1789324045730128600,22.805128662109375,-3.0142288208007812,1.100790023803711,1.6985429525375366
1789324045748979000,22.82397900390625,-2.7652153968811035,1.0314841270446777,1.6662949323654175
1789324045767829000,22.8428291015625,-2.3966689109802246,1.5111709833145142,1.3324592113494873
1789324045786679300,22.86167919921875,-2.6560354232788086,1.3654780387878418,1.1090259552001953
1789324045805529300,22.880529296875,-2.6581311225891113,1.4310452938079834,1.1007425785064697
1789324045824379400,22.89937939453125,-2.317013740539551,1.7392120361328125,1.0289874076843262
1789324045843229700,22.918229736328126,-1.6983394622802734,2.311760663986206,1.129899501800537
1789324045862079700,22.937079833984374,-0.8547921180725098,2.349494695663452,0.9931790828704834
1789324045880930000,22.955929931640625,-1.0591092109680176,1.0266070365905762,0.012284517288208008
1789324045899780000,22.974780029296873,-0.6547994613647461,-2.1158294677734375,-1.3107883930206299
1789324045928055300,23.00305517578125,-0.4040522575378418,-3.9416513442993164,-2.542491912841797
1789324045946905300,23.0219052734375,0.15776491165161133,-4.447357654571533,-2.6522674560546875
1789324045975180500,23.0501806640625,0.5878381729125977,-3.7190632820129395,-2.21834397315979
1789324045994030800,23.06903076171875,1.9137611389160156,-2.1782584190368652,-1.7424890995025635
1789324046012881000,23.087880859375,2.7724862098693848,-1.1989502906799316,-2.02573299407959
1789324046031731000,23.10673095703125,2.489377975463867,-1.171198844909668,-2.235114336013794
1789324046050581200,23.125581298828124,1.781114101409912,-1.5840530395507812,-1.9484539031982422
1789324046069431300,23.144431396484375,1.982264518737793,-1.9345645904541016,-1.1382498741149902
1789324046088281300,23.16328125,2.27412748336792,-1.389887809753418,-0.4288794994354248
1789324046107131600,23.182131591796875,2.5354366302490234,-0.07034683227539062,-1.167107105255127
1789324046125981700,23.200981689453126,2.0540285110473633,0.2024974822998047,-1.908942699432373
1789324046144831700,23.219831787109374,1.5369982719421387,0.16440629959106445,-1.33306884765625
1789324046163682000,23.23868212890625,1.2698841094970703,0.09940814971923828,-0.768749475479126
1789324046182532000,23.257531982421874,0.9878945350646973,-0.1251082420349121,-0.5819587707519531
1789324046201382100,23.276382080078125,0.6065816879272461,-0.7448420524597168,-0.643195390701294
1789324046220232400,23.295232421875,0.3154425621032715,-1.7712287902832031,-0.43520283699035645
1789324046239082500,23.31408251953125,0.18384170532226562,-2.3602075576782227,-0.6703858375549316
1789324046257932500,23.3329326171875,0.5621185302734375,-1.9100465774536133,-0.9374587535858154
1789324046276782600,23.351782470703125,0.7592024803161621,-1.3308091163635254,-1.1204593181610107
1789324046295633000,23.3706328125,0.6380243301391602,-1.0094585418701172,-1.021615743637085
1789324046314483000,23.38948291015625,0.4773373603820801,-0.8619880676269531,-0.9294865131378174
1789324046333333000,23.4083330078125,0.28046321868896484,-1.190683364868164,-1.0718443393707275
1789324046352183300,23.427183349609376,-0.06898069381713867,-1.6950573921203613,-1.1953365802764893
1789324046371033300,23.446033447265624,-0.05208301544189453,-2.068159580230713,-1.1208837032318115
1789324046399308500,23.47430859375,0.2508049011230469,-1.9512081146240234,-1.2267651557922363
1789324046418158600,23.49315869140625,-0.03893613815307617,-2.293440341949463,-1.3847362995147705
1789324046437008600,23.512008544921876,-1.0904340744018555,-1.3561573028564453,-0.05792570114135742
1789324046455859000,23.53085888671875,-2.8380308151245117,0.38892650604248047,0.9622006416320801
1789324046474709000,23.549708984375,-3.1030936241149902,1.3570637702941895,0.8544502258300781
1789324046493559000,23.56855908203125,-1.7805204391479492,0.7740280628204346,0.36707210540771484
1789324046512409000,23.5874091796875,-1.7229986190795898,0.05581212043762207,0.6138179302215576
1789324046531259400,23.60625927734375,-2.6336212158203125,-0.08777117729187012,1.5330445766448975
1789324046550109400,23.625109375,-3.189871311187744,0.30551576614379883,2.599876880645752
1789324046568959500,23.64395947265625,-3.3169498443603516,0.13653254508972168,2.5351855754852295
1789324046587809800,23.662809814453126,-3.29476261138916,1.18360435962677,1.6113853454589844
1789324046606659800,23.681659912109374,-3.6987619400024414,1.326733946800232,1.5239719152450562
1789324046625510000,23.700510009765626,-3.472153663635254,1.6170952320098877,1.9034913778305054
1789324046644360000,23.71935986328125,-3.644930362701416,1.9214421510696411,1.8681466579437256
1789324046663210000,23.7382099609375,-2.8291773796081543,2.0325632095336914,2.170474052429199
1789324046682060300,23.757060302734374,-2.248457908630371,1.863120436668396,2.289792537689209
1789324046700910300,23.775910400390625,-1.8686728477478027,1.3015573024749756,2.007798910140991
1789324046719760400,23.794760498046877,-2.319213390350342,1.1151223182678223,1.9411059617996216
1789324046738610400,23.8136103515625,-1.73164701461792,1.4356358051300049,1.6558268070220947
1789324046757460700,23.832460693359376,-1.8656387329101562,1.7753582000732422,0.8038625717163086
1789324046776310800,23.851310791015624,-1.167424201965332,0.698758602142334,0.2362194061279297
1789324046795160800,23.870160888671876,-0.31574535369873047,-1.6264433860778809,-0.3272528648376465
1789324046814011000,23.889010986328124,0.1899418830871582,-1.8752689361572266,-0.8115382194519043
1789324046832861000,23.90786083984375,0.06328105926513672,-1.8478870391845703,-1.0477476119995117
1789324046851711200,23.926711181640623,0.1962451934814453,-2.7780675888061523,-1.3799307346343994
1789324046870561300,23.945561279296875,0.3098564147949219,-3.4032487869262695,-1.7063541412353516
