time,seconds_elapsed,z,y,x
1789214271285361700,0.039361572265625,-0.29301562905311584,-0.20788128674030304,0.6228017807006836
1789214271295393800,0.049393798828125,-0.26149284839630127,-0.37354961037635803,0.641898512840271
1789214271305425700,0.05942578125,-0.16730749607086182,-0.46332183480262756,0.6298485398292542
1789214271315457500,0.06945751953125,-0.05284057930111885,-0.4932757616043091,0.5326125025749207
1789214271325489700,0.07948974609375,-0.08321845531463623,-0.3311222791671753,0.2946614623069763
1789214271335521800,0.089521728515625,-0.17793431878089905,-0.054539140313863754,0.007259510923177004
1789214271345553700,0.0995537109375,-0.2053145319223404,0.17114858329296112,-0.24116681516170502
1789214271355585500,0.10958544921875,-0.22659479081630707,0.26690199971199036,-0.46525824069976807
1789214271365617700,0.11961767578125,-0.20677101612091064,0.3149917721748352,-0.6345514059066772
1789214271375649800,0.12964990234375,-0.19589334726333618,0.23967890441417694,-0.7244437336921692
1789214271385681700,0.139681640625,-0.24327151477336884,0.022878151386976242,-0.7147876620292664
1789214271395713500,0.149713623046875,-0.412811815738678,-0.33769574761390686,-0.6482416391372681
1789214271405745700,0.15974560546875,-0.6732119917869568,-0.6276266574859619,-0.5797035694122314
1789214271415778600,0.169778564453125,-0.988654613494873,-0.5881165266036987,-0.5457333922386169
1789214271425810700,0.179810791015625,-1.2562216520309448,-0.2822868227958679,-0.5676447749137878
1789214271435842800,0.1898427734375,-1.3433562517166138,0.028614867478609085,-0.5879743099212646
1789214271445874700,0.199874755859375,-1.056972622871399,0.1900240033864975,-0.5160420536994934
1789214271455906600,0.209906494140625,-0.8130359053611755,0.3436388671398163,-0.52273029088974
1789214271465938700,0.219938720703125,-0.6524214744567871,0.4279673099517822,-0.567773699760437
1789214271475970800,0.229970703125,-0.5789384841918945,0.4940379559993744,-0.5956151485443115
1789214271486002700,0.240002685546875,-0.5121383666992188,0.46412745118141174,-0.6230611801147461
1789214271496034600,0.25003466796875,-0.3066350221633911,0.10233915597200394,-0.684492826461792
1789214271506066700,0.260066650390625,0.20305325090885162,-0.4221736192703247,-0.6645047664642334
1789214271516098800,0.270098876953125,0.8412619829177856,-0.5195608735084534,-0.715205729007721
1789214271526130700,0.280130615234375,1.4483121633529663,-0.614561140537262,-0.6182432770729065
1789214271536162600,0.29016259765625,1.852466106414795,-0.5555340647697449,-0.3915720283985138
1789214271546194700,0.300194580078125,1.7287079095840454,-0.048641569912433624,-0.22080641984939575
1789214271556226800,0.310226806640625,1.136217474937439,0.3537074625492096,-0.11290550976991653
1789214271566258700,0.3202587890625,0.306638240814209,0.45178529620170593,0.007818507961928844
1789214271576290600,0.33029052734375,-0.45217519998550415,-0.008651811629533768,0.10516050457954407
1789214271586322700,0.34032275390625,-0.9082833528518677,-0.7219818830490112,0.19980312883853912
1789214271596354800,0.350354736328125,-1.06151282787323,-1.2410812377929688,0.3646538555622101
1789214271606386700,0.36038671875,-0.883988618850708,-1.499508261680603,0.7076040506362915
1789214271616418600,0.37041845703125,-0.42657580971717834,-1.3729325532913208,1.1674190759658813
1789214271626451700,0.38045166015625,0.0044259075075387955,-1.0111255645751953,1.4958683252334595
1789214271636483600,0.390483642578125,0.007257646415382624,-0.7836551070213318,1.5062178373336792
1789214271646515700,0.400515625,-0.313589870929718,-0.96982741355896,1.3223998546600342
1789214271656547800,0.4105478515625,-0.6344453692436218,-1.33452308177948,1.0722323656082153
1789214271666579700,0.420579833984375,-0.9297135472297668,-1.6018210649490356,0.7866392135620117
1789214271676611600,0.430611572265625,-1.209000587463379,-1.7500654458999634,0.4612930417060852
1789214271686643700,0.440643798828125,-1.4764485359191895,-1.8243918418884277,0.11587546765804291
1789214271696675800,0.45067578125,-1.6942218542099,-1.7865533828735352,-0.20878304541110992
1789214271706707700,0.460707763671875,-1.872051477432251,-1.5970100164413452,-0.4323607385158539
1789214271716739600,0.470739501953125,-2.020578622817993,-1.4192112684249878,-0.518397867679596
1789214271726771700,0.480771728515625,-2.146545886993408,-1.2040455341339111,-0.4922930598258972
1789214271736803800,0.490803955078125,-1.6436119079589844,-0.8836538791656494,-0.37010374665260315
1789214271746835700,0.500835693359375,-0.5491624474525452,-0.3805451989173889,-0.14449326694011688
1789214271756867600,0.51086767578125,0.6471787691116333,0.13448616862297058,-0.01733478158712387
1789214271766899700,0.520899658203125,0.8598036766052246,0.028598887845873833,0.020299945026636124
1789214271776931800,0.530931884765625,0.5745700597763062,-0.25626614689826965,0.019170764833688736
1789214271786963700,0.540963623046875,0.3830520510673523,-0.13194604218006134,0.15750733017921448
1789214271796995600,0.55099560546875,0.15546070039272308,0.14567837119102478,0.25650501251220703
1789214271807027500,0.56102734375,-0.0898505300283432,0.3475814163684845,0.3358403146266937
1789214271817059800,0.571059814453125,-0.3330754339694977,0.38484808802604675,0.3192405700683594
1789214271827091700,0.581091796875,-0.4903963506221771,0.4005165100097656,0.24326086044311523
1789214271837124600,0.59112451171875,-0.5166612267494202,0.40191495418548584,0.16203151643276215
1789214271847156700,0.60115673828125,-0.43729689717292786,0.3625726103782654,0.08651891350746155
1789214271857188600,0.611188720703125,-0.23364578187465668,0.20786239206790924,0.025004951283335686
1789214271867220700,0.621220703125,-0.0665966048836708,0.03398353233933449,0.013492905534803867
1789214271877252600,0.631252685546875,0.018276741728186607,-0.08166077733039856,0.05766169726848602
1789214271887284700,0.64128466796875,0.01859232597053051,-0.10489951819181442,0.14989708364009857
1789214271897316600,0.651316650390625,0.01392913144081831,-0.029734725132584572,0.2839305102825165
1789214271907348700,0.6613486328125,-0.03801582381129265,0.09495207667350769,0.43734750151634216
1789214271917380600,0.671380615234375,-0.23210594058036804,0.19035662710666656,0.5106382369995117
1789214271927412700,0.681412841796875,-0.3913206160068512,0.17461548745632172,0.4691919982433319
1789214271937444600,0.691444580078125,-0.48814597725868225,0.2594321072101593,0.3044011890888214
1789214271947476700,0.701476806640625,-0.5612915754318237,0.4005514085292816,0.03773539513349533
1789214271957508600,0.711508544921875,-0.5897296071052551,0.47652631998062134,-0.22108951210975647
1789214271967540700,0.721540771484375,-0.5729109048843384,0.520548939704895,-0.3635118901729584
1789214271977572600,0.731572509765625,-0.5403180718421936,0.4599710702896118,-0.3499787747859955
1789214271987604700,0.741604736328125,-0.5580113530158997,0.3136191666126251,-0.24563851952552795
1789214271997636900,0.751636962890625,-0.558368444442749,0.24546009302139282,-0.08673196285963058
1789214272007668700,0.761668701171875,-0.5462359189987183,0.20073843002319336,0.04996809363365173
1789214272017700600,0.77170068359375,-0.4773431122303009,0.1953127682209015,0.12905971705913544
1789214272027732700,0.781732666015625,-0.3703692853450775,0.1257089227437973,0.11335106194019318
1789214272037764900,0.791764892578125,-0.3029548227787018,0.20326736569404602,0.1315724104642868
1789214272047796700,0.801796630859375,-0.3629592955112457,0.3842739164829254,0.16571971774101257
1789214272057829600,0.81182958984375,-0.4198947548866272,0.596916675567627,0.13797251880168915
1789214272067861800,0.82186181640625,-0.3273885250091553,0.6677753925323486,-0.05272872373461723
1789214272077893600,0.8318935546875,-0.260021448135376,0.5437809824943542,-0.15572461485862732
1789214272087925800,0.84192578125,-0.3628873825073242,0.22707310318946838,-0.06502826511859894
1789214272097957600,0.85195751953125,-0.34480318427085876,-0.044560808688402176,0.17962275445461273
1789214272107989800,0.86198974609375,-0.1880551278591156,-0.13074469566345215,0.3168914020061493
1789214272118021600,0.872021728515625,0.1508590131998062,-0.08865077048540115,0.4542974531650543
1789214272128053800,0.8820537109375,0.32322654128074646,-0.22491779923439026,0.5859473943710327
1789214272138085600,0.892085693359375,0.45822614431381226,-0.6334429979324341,0.8063002228736877
1789214272148117800,0.90211767578125,0.4894128441810608,-1.1197394132614136,1.0067387819290161
1789214272158149600,0.912149658203125,0.3981689512729645,-1.3620606660842896,0.9936466813087463
1789214272168181800,0.922181640625,0.29822608828544617,-1.4179977178573608,0.8480594158172607
1789214272178213600,0.932213623046875,0.1525256186723709,-1.2273566722869873,0.6542254686355591
1789214272188245800,0.942245849609375,0.026430275291204453,-0.9875839948654175,0.4692156910896301
1789214272198277600,0.952277587890625,0.03428846597671509,-0.8257983326911926,0.2666833698749542
1789214272208314400,0.962314453125,-0.04404602199792862,-0.6505783200263977,0.11318381130695343
1789214272218346200,0.97234619140625,-0.027349598705768585,-0.5982810258865356,0.05837436020374298
1789214272228378600,0.982378662109375,0.021149227395653725,-0.5684006214141846,0.07560767233371735
1789214272238410500,0.992410400390625,0.06637529283761978,-0.5176149010658264,0.0893314778804779
1789214272248443400,1.002443359375,0.06051900237798691,-0.3463137447834015,0.04465455189347267
1789214272258475500,1.0124755859375,0.07877550274133682,-0.11239072680473328,-0.03604375571012497
1789214272268507400,1.02250732421875,0.09101565927267075,-0.0028490496333688498,-0.06356433033943176
1789214272278539500,1.03253955078125,0.13420253992080688,-0.11687202751636505,0.0178181454539299
1789214272288571400,1.0425712890625,0.20801791548728943,-0.18670304119586945,0.048834651708602905
1789214272298603500,1.052603515625,0.26875048875808716,-0.04189365357160568,-0.11563339084386826
1789214272308635400,1.062635498046875,0.2668229043483734,0.19290393590927124,-0.31777051091194153
1789214272318667500,1.07266748046875,0.21418365836143494,0.3739142119884491,-0.4559187889099121
1789214272328699400,1.082699462890625,0.20441465079784393,0.3466833829879761,-0.45679551362991333
1789214272338731500,1.0927314453125,0.2803158164024353,0.017174193635582924,-0.31125935912132263
1789214272348763400,1.102763427734375,0.3736548125743866,-0.5222828984260559,-0.01543514896184206
1789214272358795500,1.11279541015625,0.3792136311531067,-1.4703214168548584,0.3685750961303711
1789214272368827400,1.122827392578125,-0.3123248815536499,-2.6746318340301514,0.8780546188354492
1789214272378859500,1.132859619140625,-0.26296958327293396,-3.353804588317871,1.5226730108261108
1789214272388891400,1.142891357421875,0.2079494744539261,-3.6282765865325928,1.3380898237228394
1789214272398923500,1.152923583984375,0.6797116994857788,-3.914156436920166,0.5388448238372803
1789214272408955400,1.162955322265625,1.1536097526550293,-3.5051767826080322,-0.25905925035476685
1789214272418987500,1.172987548828125,1.396605372428894,-2.6264488697052,-1.0778262615203857
1789214272429019400,1.183019287109375,1.3949570655822754,-1.8748341798782349,-1.9431397914886475
1789214272439051300,1.19305126953125,1.46780526638031,-1.577743411064148,-2.6880712509155273
1789214272449084400,1.20308447265625,1.671868920326233,-1.6797488927841187,-3.2968051433563232
1789214272459116500,1.213116455078125,1.9252513647079468,-2.1824610233306885,-3.7838351726531982
1789214272469148400,1.2231484375,2.2116663455963135,-3.2284553050994873,-4.100999355316162
1789214272479180300,1.23318017578125,2.432474136352539,-4.63726806640625,-4.274354934692383
1789214272489212400,1.24321240234375,2.468147039413452,-5.772445201873779,-4.248539447784424
1789214272499244500,1.25324462890625,2.308227777481079,-6.211440086364746,-4.023031234741211
1789214272509276400,1.2632763671875,2.1027309894561768,-6.098971843719482,-3.827998161315918
1789214272519308300,1.273308349609375,2.1122119426727295,-6.027897834777832,-3.721019983291626
1789214272529340400,1.28334033203125,2.404127836227417,-6.2888898849487305,-3.6039891242980957
1789214272539372500,1.29337255859375,2.789114475250244,-6.7699384689331055,-3.3636300563812256
1789214272549404400,1.303404296875,3.1352579593658447,-7.417527675628662,-3.0083744525909424
1789214272559436300,1.313436279296875,3.4328620433807373,-8.272079467773438,-2.557163715362549
1789214272569468400,1.323468505859375,3.5827226638793945,-9.027743339538574,-2.0463013648986816
1789214272579500500,1.33350048828125,3.5224931240081787,-8.836960792541504,-1.4234519004821777
1789214272589532400,1.343532470703125,3.08915638923645,-8.246715545654297,-0.7022886276245117
1789214272599564500,1.353564453125,2.5770645141601562,-8.174118041992188,-0.048164598643779755
1789214272609596400,1.363596435546875,2.4234507083892822,-8.640460968017578,0.5009430050849915
1789214272619628500,1.373628662109375,2.5236093997955322,-9.067723274230957,0.9785196781158447
1789214272629660400,1.383660400390625,2.657100200653076,-9.076486587524414,1.4264471530914307
1789214272639692500,1.393692626953125,2.801190137863159,-8.676403999328613,1.770711064338684
1789214272649725400,1.403725341796875,2.9207966327667236,-8.369407653808594,1.932407021522522
1789214272659757300,1.41375732421875,2.9622669219970703,-8.098526000976562,1.9504117965698242
1789214272669789400,1.42378955078125,2.8963623046875,-7.5603532791137695,2.020662546157837
1789214272679821600,1.433821533203125,2.593630790710449,-6.487720489501953,2.118253707885742
1789214272689853400,1.443853515625,2.1340386867523193,-4.650365829467773,2.1550798416137695
1789214272699885300,1.45388525390625,1.7192130088806152,-2.5682742595672607,2.040576934814453
1789214272709917400,1.46391748046875,1.4298828840255737,-0.5303434729576111,1.7387394905090332
1789214272719949600,1.473949462890625,1.426673173904419,1.271905541419983,1.3660883903503418
1789214272729981400,1.4839814453125,1.7904735803604126,2.5384750366210938,1.1097216606140137
1789214272740013300,1.494013427734375,2.15451717376709,3.6811254024505615,0.9050766229629517
1789214272750045400,1.50404541015625,2.4492897987365723,4.519223690032959,0.5923256278038025
1789214272760077600,1.51407763671875,2.261474132537842,4.880252361297607,0.1143883615732193
1789214272770109400,1.524109375,1.7247309684753418,5.0400495529174805,-0.3451664447784424
1789214272780141300,1.534141357421875,1.185832142829895,5.476205825805664,-0.5916966199874878
1789214272790173400,1.54417333984375,0.8760625720024109,5.948885917663574,-0.5706464648246765
1789214272800205600,1.55420556640625,0.7367525696754456,5.969440937042236,-0.4605063498020172
1789214272810237400,1.564237548828125,0.7327642440795898,5.781305313110352,-0.11240030825138092
1789214272820269300,1.574269287109375,0.7371518015861511,5.393947124481201,0.20327802002429962
1789214272830301400,1.584301513671875,0.7809906005859375,4.262678623199463,0.7323226928710938
1789214272840333600,1.59433349609375,0.8744292259216309,2.237082004547119,1.1078510284423828
1789214272850365400,1.604365478515625,0.930518627166748,0.3049146234989166,1.0932235717773438
1789214272860398600,1.614398681640625,0.7395318746566772,-0.8897058963775635,0.7912341952323914
1789214272870430500,1.624430419921875,0.4935876131057739,-1.2918297052383423,0.4029698371887207
1789214272880462300,1.63446240234375,0.33280643820762634,-0.981270968914032,0.14014245569705963
1789214272890494500,1.644494384765625,0.09264418482780457,-0.4446336627006531,0.08752159029245377
1789214272900526600,1.654526611328125,-0.1250564455986023,-0.027728833258152008,0.3236824572086334
1789214272910558500,1.664558349609375,-0.29445958137512207,0.012396481819450855,0.9070122241973877
1789214272920590300,1.67459033203125,-0.16388587653636932,-0.07344119250774384,1.6401867866516113
1789214272930622500,1.68462255859375,0.22453084588050842,0.3263956904411316,1.8913772106170654
1789214272940654600,1.694654541015625,0.48340314626693726,1.146689772605896,1.8010039329528809
1789214272950686500,1.7046865234375,0.5131291151046753,1.126603126525879,1.95145583152771
1789214272960718300,1.71471826171875,0.12914520502090454,1.1587938070297241,2.014000415802002
1789214272970750200,1.724750244140625,-0.07545161247253418,0.06373610347509384,2.1432201862335205
1789214272980782600,1.734782470703125,-0.09496565908193588,-1.0067033767700195,2.059140682220459
1789214272990814500,1.744814453125,0.3070683181285858,-1.524772047996521,1.4000223875045776
1789214273000846300,1.754846435546875,1.1716049909591675,-0.5756169557571411,0.4629806876182556
1789214273010878200,1.764878173828125,1.7866708040237427,-1.6816706657409668,-0.3522392809391022
1789214273020910600,1.77491064453125,1.9096324443817139,-2.269188642501831,-0.4015796482563019
1789214273030942500,1.7849423828125,1.658522129058838,-2.3597283363342285,-0.046247124671936035
1789214273040974300,1.794974365234375,1.1423940658569336,-3.8424935340881348,-0.07859334349632263
1789214273051006200,1.805006103515625,0.5596486330032349,-3.1895244121551514,0.28368842601776123
1789214273061039400,1.815039306640625,-0.06749089062213898,-2.2708070278167725,1.985015869140625
1789214273071071500,1.825071533203125,0.015586682595312595,-2.5221598148345947,2.9559333324432373
1789214273081103400,1.835103271484375,0.22994132339954376,-3.3202877044677734,2.298740863800049
1789214273091135500,1.845135498046875,1.1276912689208984,-1.7581137418746948,1.351481318473816
1789214273101167400,1.85516748046875,1.6342717409133911,-1.5810869932174683,0.5265660881996155
1789214273111199500,1.865199462890625,1.3644425868988037,-1.4417698383331299,0.6080047488212585
1789214273121231400,1.8752314453125,0.7375363707542419,-1.4953793287277222,1.095945954322815
1789214273131263500,1.885263427734375,0.48319488763809204,-1.3926923274993896,1.3350024223327637
1789214273141295400,1.89529541015625,0.8869498372077942,-0.8705916404724121,1.0256816148757935
1789214273151327500,1.905327392578125,1.2396180629730225,-0.8540810942649841,1.2846777439117432
1789214273161359600,1.915359619140625,1.296358346939087,-1.640106439590454,1.1092755794525146
1789214273171391500,1.9253916015625,1.332367181777954,-2.054537534713745,1.2898885011672974
1789214273181423400,1.93542333984375,1.4638389348983765,-2.2771451473236084,1.5555171966552734
1789214273191455500,1.94545556640625,1.626362919807434,-2.501152992248535,1.5920337438583374
1789214273201482500,1.955482421875,1.8784276247024536,-2.093182325363159,0.9924437403678894
1789214273211514400,1.965514404296875,2.127490282058716,-1.0260443687438965,0.5465824007987976
1789214273221546500,1.97554638671875,2.0625317096710205,-0.3159595727920532,0.8714707493782043
1789214273231578400,1.985578369140625,1.7351088523864746,-0.3159957826137543,0.8365108966827393
1789214273241610500,1.995610595703125,1.356799840927124,0.16396816074848175,0.7822121977806091
1789214273251642400,2.005642333984375,1.139277458190918,-0.11812450736761093,0.782886803150177
1789214273261674500,2.015674560546875,0.9781801104545593,-0.5650942921638489,0.743523120880127
1789214273271706400,2.025706298828125,0.9645178318023682,-1.206996202468872,0.9003905057907104
1789214273281739500,2.035739501953125,1.0402637720108032,-1.7259310483932495,1.2859458923339844
1789214273291771400,2.045771484375,1.1094797849655151,-1.855839729309082,1.9786138534545898
1789214273301803300,2.05580322265625,1.2793726921081543,-1.4367955923080444,1.8610427379608154
1789214273311835600,2.065835693359375,1.5560556650161743,-0.4949663281440735,1.3364711999893188
1789214273321867500,2.075867431640625,1.427013635635376,0.10294982045888901,1.3488281965255737
1789214273331899400,2.0858994140625,0.8733327984809875,0.2409079521894455,1.6514352560043335
1789214273341931300,2.09593115234375,0.5176101326942444,0.3618679344654083,1.0357728004455566
1789214273351963600,2.105963623046875,0.3481771647930145,0.5898731350898743,0.8345302939414978
1789214273361995500,2.11599560546875,-0.24226562678813934,-0.043663591146469116,2.3252995014190674
1789214273372027400,2.12602734375,0.05904707312583923,-1.181889295578003,1.980479121208191
1789214273382059300,2.136059326171875,0.9300240278244019,-0.04434509575366974,-0.380313515663147
1789214273392091400,2.14609130859375,1.0405057668685913,0.5464987754821777,-0.32478100061416626
1789214273402123500,2.15612353515625,0.4304930567741394,-0.6120293140411377,0.18686363101005554
1789214273412155400,2.1661552734375,0.0583016574382782,-0.7358769178390503,0.3690022826194763
1789214273422187300,2.176187255859375,0.032345157116651535,-0.15967461466789246,0.261920303106308
1789214273432219400,2.186219482421875,0.12158821523189545,0.6153897047042847,0.25977325439453125
1789214273442251500,2.19625146484375,0.13524223864078522,0.9921603798866272,0.29284918308258057
1789214273452283400,2.206283447265625,0.07185395061969757,0.923132061958313,0.26206862926483154
1789214273462315300,2.216315185546875,-0.05042748898267746,0.4363733232021332,0.19386401772499084
1789214273472347400,2.226347412109375,-0.094499871134758,-0.07327208667993546,0.0631352961063385
1789214273482379500,2.236379638671875,-0.10353970527648926,-0.8060973286628723,-0.3134910762310028
1789214273492412400,2.246412353515625,-0.006125270389020443,-0.8461036086082458,-0.5082967877388
1789214273502444500,2.256444580078125,0.06321731954813004,-0.8412483930587769,-0.9176946878433228
1789214273512476400,2.266476318359375,-0.011665711179375648,-0.8037869930267334,-1.3887759447097778
1789214273522508300,2.27650830078125,-0.19262617826461792,-0.6886695027351379,-1.7254966497421265
1789214273532540400,2.28654052734375,-0.27172231674194336,-0.6710222959518433,-1.8718211650848389
1789214273542572500,2.296572509765625,-0.4111105799674988,-0.4681735932826996,-2.103440523147583
1789214273552604400,2.3066044921875,-0.5353789925575256,-0.21587903797626495,-2.178684949874878
1789214273562636300,2.31663623046875,-0.6431629657745361,-0.19696952402591705,-1.9754729270935059
1789214273572668400,2.32666845703125,-0.8113455772399902,-0.3202917277812958,-1.6238467693328857
1789214273582700500,2.336700439453125,-0.9065634608268738,-0.36302879452705383,-1.3067806959152222
1789214273592732400,2.346732421875,-0.8474274277687073,-0.2109346091747284,-1.2151316404342651
1789214273602764300,2.356764404296875,-0.5602214932441711,-0.198000967502594,-1.1438814401626587
1789214273612796700,2.366796630859375,-0.251423180103302,-0.2007719874382019,-1.0104237794876099
1789214273622828500,2.37682861328125,0.031793348491191864,-0.2416301965713501,-0.8226680159568787
1789214273632860400,2.3868603515625,0.18214210867881775,-0.2625804841518402,-0.6238361597061157
1789214273642892300,2.396892333984375,0.24249891936779022,-0.3537026643753052,-0.17606636881828308
1789214273652924400,2.40692431640625,0.227027028799057,-0.27801376581192017,0.21803033351898193
1789214273662956500,2.41695654296875,0.14647412300109863,0.019812587648630142,0.3949241638183594
1789214273672988400,2.426988525390625,0.939800500869751,0.47824805974960327,0.5016415119171143
1789214273683020300,2.437020263671875,1.5189205408096313,0.8423112630844116,0.6835463643074036
1789214273693052400,2.447052490234375,2.0036492347717285,1.002699375152588,0.8468692302703857
1789214273703084500,2.45708447265625,2.288651943206787,1.0799440145492554,0.9960339665412903
1789214273713117400,2.467117431640625,2.2973110675811768,1.431718111038208,1.1397324800491333
1789214273723149600,2.477149658203125,2.0165274143218994,2.123688220977783,1.2731600999832153
1789214273733181400,2.487181396484375,1.6256054639816284,3.2619266510009766,1.5417252779006958
1789214273743213300,2.49721337890625,0.674549400806427,3.6207666397094727,1.4253517389297485
1789214273753245400,2.507245361328125,0.04075169190764427,2.8334527015686035,1.4387799501419067
1789214273763277600,2.517277587890625,-0.1412476748228073,1.1342182159423828,1.402877926826477
1789214273773309400,2.527309326171875,-0.21208375692367554,-0.20030513405799866,1.1343910694122314
1789214273783341300,2.53734130859375,0.06425568461418152,-1.126440405845642,0.6279198527336121
1789214273793373400,2.54737353515625,0.4320819079875946,-1.747657060623169,0.07881971448659897
1789214273803405600,2.557405517578125,0.5211079120635986,-2.0219168663024902,-0.49402517080307007
1789214273813437400,2.5674375,0.14986060559749603,-1.4944480657577515,-0.9139545559883118
1789214273823469300,2.57746923828125,-0.06149691715836525,-0.5775772929191589,-1.3386051654815674
1789214273833501400,2.58750146484375,-0.10826548933982849,0.23346015810966492,-1.6651082038879395
1789214273843533600,2.597533447265625,-0.1447012573480606,0.7355730533599854,-1.8524527549743652
1789214273853565400,2.6075654296875,-0.11284292489290237,0.7731478810310364,-1.9231029748916626
1789214273863597300,2.617597412109375,-0.12694889307022095,0.3906170129776001,-1.6559653282165527
1789214273873629400,2.62762939453125,-0.3004271984100342,0.05896957591176033,-1.3184181451797485
1789214273883661600,2.63766162109375,-0.2964133024215698,-0.016622653231024742,-1.0477983951568604
1789214273893693400,2.647693359375,-0.3616335690021515,-0.24896028637886047,-0.9257147908210754
1789214273903726300,2.657726318359375,-0.5537438988685608,-0.6225022077560425,-0.8436675667762756
1789214273913758500,2.667758544921875,-0.4732080399990082,-1.0020564794540405,-0.7663989067077637
1789214273923790300,2.677790283203125,-0.5639099478721619,-1.3755708932876587,-0.8507883548736572
1789214273933822500,2.687822509765625,-0.40022704005241394,-1.3315653800964355,-0.7266672253608704
1789214273943854300,2.697854248046875,-0.2802729308605194,-1.2720139026641846,-0.7362369894981384
1789214273953886500,2.707886474609375,-0.2723955810070038,-1.2910232543945312,-0.732517659664154
1789214273963918300,2.71791845703125,-0.3829689621925354,-1.4009963274002075,-0.6557900905609131
1789214273973950500,2.727950439453125,-0.4301724135875702,-1.6538219451904297,-0.3984621465206146
1789214273983982300,2.737982421875,-0.5069447159767151,-1.7958848476409912,-0.23038393259048462
1789214273994014500,2.748014404296875,-0.7364910840988159,-1.9481457471847534,-0.15251336991786957
1789214274004046300,2.75804638671875,-1.1047468185424805,-1.8414571285247803,-0.19548507034778595
1789214274014078500,2.768078369140625,-1.4485670328140259,-1.7609611749649048,-0.3523774743080139
1789214274024110300,2.7781103515625,-1.467132806777954,-1.466490387916565,-0.6233911514282227
1789214274034142500,2.788142578125,-1.3360788822174072,-1.1815189123153687,-0.8086901903152466
1789214274044174300,2.79817431640625,-1.1370635032653809,-0.7111918330192566,-0.9841288328170776
1789214274054206500,2.80820654296875,-0.9551142454147339,-0.6067506670951843,-1.185832142829895
1789214274064238600,2.818238525390625,-1.1072475910186768,-0.606109082698822,-1.255172848701477
1789214274074270500,2.8282705078125,-1.3286598920822144,-0.14351189136505127,-1.0386842489242554
1789214274084302300,2.83830224609375,-1.220518708229065,-0.03260534629225731,-0.6601627469062805
1789214274094335200,2.848335205078125,-0.8267245292663574,-0.061947524547576904,-0.5453882217407227
1789214274104367600,2.85836767578125,-0.02882339246571064,0.01985812745988369,-0.27670642733573914
1789214274114399500,2.8683994140625,-0.016275908797979355,0.05932244658470154,-0.08679241687059402
1789214274124431400,2.878431396484375,0.07590381801128387,0.3331177830696106,-0.09771057963371277
1789214274134463500,2.88846337890625,0.3529958724975586,0.4393560588359833,-0.057736001908779144
1789214274144495400,2.898495361328125,0.6153920888900757,0.43064671754837036,0.05368266999721527
1789214274154527500,2.908527587890625,0.9619529247283936,0.1829937845468521,0.3018043339252472
1789214274164559400,2.918559326171875,1.2933121919631958,-0.04784981533885002,0.5458465814590454
1789214274174591500,2.928591552734375,1.4586689472198486,0.40270137786865234,0.37967461347579956
1789214274184623400,2.938623291015625,1.2738006114959717,-0.12119513750076294,0.3933353126049042
1789214274194655500,2.948655517578125,0.6832006573677063,-0.21726787090301514,0.3309217393398285
1789214274204687600,2.9586875,0.4170704782009125,-0.25149214267730713,0.24705080687999725
1789214274214719700,2.9687197265625,0.447931170463562,-0.22811652719974518,0.18384680151939392
1789214274224751600,2.978751708984375,0.45058396458625793,-0.05017182230949402,-0.30724143981933594
1789214274234783700,2.98878369140625,0.13305605947971344,-0.060022056102752686,-0.7725854516029358
1789214274244815600,2.998815673828125,-0.2565430998802185,-0.0866030678153038,-1.2393091917037964
1789214274254847700,3.00884765625,-0.1895534247159958,-0.5059305429458618,-1.7302768230438232
1789214274264879600,3.018879638671875,0.32562682032585144,-0.9958230257034302,-1.9561560153961182
1789214274274911700,3.028911865234375,1.8097729682922363,-1.716783881187439,-1.4160195589065552
1789214274284943600,3.038943603515625,3.643592119216919,-3.069840431213379,0.05493275821208954
1789214274294976800,3.048976806640625,4.5893425941467285,-4.837331295013428,1.6101500988006592
1789214274305007600,3.059007568359375,2.707611322402954,-3.6503262519836426,3.133514881134033
1789214274315040500,3.06904052734375,-0.342541366815567,-1.4361066818237305,3.6576695442199707
1789214274325072600,3.07907275390625,-1.9579051733016968,-0.8077799081802368,3.0896661281585693
1789214274335104800,3.089104736328125,-2.331286668777466,-0.3445078432559967,2.2943766117095947
1789214274345136600,3.09913671875,-1.9471800327301025,0.2981627285480499,1.198772668838501
1789214274355168500,3.10916845703125,-1.178663730621338,-0.23094986379146576,0.06408178061246872
1789214274365200600,3.11920068359375,-0.6700944900512695,-0.43885406851768494,-1.0011980533599854
1789214274375232800,3.129232666015625,-0.4321359694004059,-0.09177625924348831,-2.061408042907715
1789214274385264600,3.1392646484375,-0.2522706091403961,-0.9482597708702087,-2.8014724254608154
1789214274395296500,3.149296630859375,-0.11414015293121338,-2.1723406314849854,-2.8753087520599365
1789214274405328600,3.15932861328125,-0.11707655340433121,-1.7251217365264893,-2.430790424346924
1789214274415360800,3.16936083984375,-0.4156973361968994,0.666020393371582,-2.056128740310669
1789214274425392600,3.179392578125,-0.9700747728347778,2.382681131362915,-1.554659128189087
1789214274435424500,3.189424560546875,-1.4030579328536987,3.2160258293151855,-0.5432187914848328
1789214274445456600,3.19945654296875,-1.6659646034240723,2.91587233543396,0.4276333749294281
1789214274455488800,3.20948876953125,-1.8879148960113525,2.72310733795166,0.5696141719818115
1789214274465520600,3.219520751953125,-2.1518144607543945,2.621204137802124,0.2182585597038269
1789214274475552800,3.229552734375,-2.3228256702423096,3.2932934761047363,-0.10120624303817749
1789214274485584600,3.239584716796875,-2.214498281478882,3.35941219329834,-0.026820162311196327
1789214274495616800,3.24961669921875,-1.7969369888305664,1.7976025342941284,0.20276802778244019
1789214274505648600,3.259648681640625,-0.9559973478317261,-0.37021908164024353,-0.3037894368171692
1789214274515680800,3.2696806640625,-0.5767783522605896,-0.30679428577423096,0.4219357967376709
1789214274525712600,3.279712646484375,-0.8746028542518616,-0.5094600319862366,0.6541927456855774
1789214274535744800,3.289744873046875,-1.4433081150054932,-0.3957950174808502,0.698906421661377
1789214274545776600,3.299776611328125,-1.4311193227767944,0.522277295589447,0.7654670476913452
1789214274555808800,3.309808837890625,-0.9063639640808105,1.5036824941635132,0.9747340083122253
1789214274565841700,3.319841552734375,-0.43923595547676086,0.9984928369522095,1.2673741579055786
1789214274575873500,3.32987353515625,0.2714743912220001,0.9176062345504761,1.0711190700531006
1789214274585905700,3.33990576171875,1.040940761566162,1.1459089517593384,1.2248674631118774
1789214274595937800,3.349937744140625,1.324461579322815,0.7547779083251953,1.188917875289917
1789214274605969700,3.3599697265625,0.9629796147346497,0.6262719035148621,0.9209551811218262
1789214274616001500,3.37000146484375,0.5248568654060364,0.33379846811294556,0.6682936549186707
1789214274626033700,3.38003369140625,0.5236911773681641,0.1896255910396576,0.36128470301628113
1789214274636065800,3.390065673828125,0.46840688586235046,0.19843026995658875,0.10044697672128677
1789214274646097700,3.40009765625,0.46458977460861206,0.20234617590904236,0.0983492061495781
1789214274656129500,3.410129638671875,0.48405030369758606,0.2219206839799881,0.346874862909317
1789214274666161700,3.42016162109375,0.5660088062286377,0.18552352488040924,0.49789392948150635
1789214274676193800,3.43019384765625,0.6426268815994263,0.29242467880249023,0.48407718539237976
1789214274686225700,3.4402255859375,0.7293761968612671,0.44929471611976624,0.3491300344467163
1789214274696257500,3.450257568359375,0.6946637034416199,0.5669321417808533,0.2693241536617279
1789214274706289700,3.46028955078125,0.5933986306190491,0.7801826000213623,0.2368903011083603
1789214274716321800,3.47032177734375,0.4445963501930237,0.573009192943573,0.1393299251794815
1789214274726353700,3.480353759765625,0.37104305624961853,0.2305610328912735,0.12438107281923294
1789214274736385500,3.490385498046875,0.37216079235076904,0.1293870210647583,0.08034384250640869
1789214274746417700,3.500417724609375,0.4036047160625458,0.1607968658208847,0.11234944313764572
1789214274756449800,3.51044970703125,0.5114409327507019,0.2732485830783844,0.256281316280365
1789214274766481700,3.520481689453125,0.671342134475708,0.39085882902145386,0.43036949634552
1789214274776513500,3.530513427734375,0.9765838384628296,0.21618077158927917,0.5141581296920776
1789214274786545700,3.540545654296875,1.0126222372055054,-2.0508522987365723,-1.8988556861877441
1789214274796577800,3.550577880859375,0.5282832980155945,-2.3459858894348145,-0.3583480417728424
1789214274806609700,3.560609619140625,0.8678901195526123,-0.3484381437301636,-0.10962449759244919
1789214274816641500,3.5706416015625,0.9731829762458801,-0.9424735307693481,-0.08608854562044144
1789214274826674700,3.5806748046875,0.5848040580749512,-1.8498106002807617,0.15034529566764832
1789214274836706600,3.59070654296875,0.5913743376731873,-1.7918996810913086,-0.3990568518638611
1789214274846738700,3.60073876953125,0.18478316068649292,-1.9332245588302612,-0.5358852744102478
1789214274856770800,3.610770751953125,0.3789619505405426,-1.0346977710723877,-0.3854427635669708
1789214274866802700,3.620802734375,0.5726480484008789,0.0037023264449089766,-0.47791624069213867
1789214274876834600,3.63083447265625,1.297237753868103,0.1453382819890976,-0.48895877599716187
1789214274886866700,3.64086669921875,1.2356188297271729,0.2725875973701477,-0.5327650904655457
1789214274896898800,3.65089892578125,1.1724241971969604,0.31787437200546265,-0.5111010670661926
1789214274906930700,3.6609306640625,1.0564844608306885,0.19509918987751007,-0.500080406665802
1789214274916962600,3.670962646484375,1.0838913917541504,-0.2526993751525879,-0.49907931685447693
1789214274926994700,3.68099462890625,1.644540548324585,-2.5638368129730225,0.35470935702323914
1789214274937026800,3.69102685546875,1.5405734777450562,-3.369044065475464,0.005789712071418762
1789214274947058700,3.70105859375,0.6581614017486572,-0.06034776195883751,-0.9230476021766663
1789214274957090600,3.711090576171875,0.3025508224964142,0.1003686785697937,-0.5018404722213745
1789214274967122700,3.721122802734375,0.0940183773636818,-0.2339898645877838,-0.2213510274887085
1789214274977154800,3.73115478515625,0.02545449323952198,-0.19932055473327637,-0.10200013220310211
1789214274987186700,3.741186767578125,0.11943238973617554,-0.4912368357181549,-0.1519533097743988
1789214274997218600,3.751218505859375,0.21424171328544617,-0.024876853451132774,-0.4178326725959778
1789214275007250700,3.761250732421875,0.21478846669197083,0.08863985538482666,-0.6720907688140869
1789214275017282800,3.77128271484375,0.2070293426513672,0.06573507189750671,-0.8167992234230042
1789214275027314700,3.781314697265625,0.17920251190662384,0.2306356132030487,-0.885330319404602
1789214275037346600,3.7913466796875,0.07491152733564377,0.15713076293468475,-0.9329577684402466
1789214275047378700,3.801378662109375,-0.00592526700347662,0.17716892063617706,-0.9955971837043762
1789214275057410800,3.811410888671875,-0.09795452654361725,0.2921708822250366,-1.06032133102417
1789214275067442700,3.821442626953125,-0.365186482667923,0.30657830834388733,-1.1126644611358643
1789214275077474600,3.831474609375,-0.6516501903533936,0.3605070412158966,-1.118156909942627
1789214275087507700,3.8415078125,-0.9298578500747681,0.51585453748703,-1.0655752420425415
1789214275097539600,3.85153955078125,-0.517501175403595,0.4602307081222534,-1.4712516069412231
1789214275107571700,3.86157177734375,0.1539781093597412,0.46513599157333374,-1.7407320737838745
1789214275117603800,3.871603759765625,0.4205685257911682,0.5424675345420837,-1.5768630504608154
1789214275127635700,3.8816357421875,0.44515135884284973,0.353263258934021,-1.389514684677124
1789214275137667600,3.89166748046875,0.34586846828460693,0.2418251484632492,-1.446583867073059
1789214275147699700,3.90169970703125,0.3035265803337097,0.25212332606315613,-1.5146262645721436
1789214275157731800,3.91173193359375,0.34586071968078613,0.2174777239561081,-1.4997354745864868
1789214275167763700,3.921763671875,0.3023156523704529,-0.1463146060705185,-1.603816270828247
1789214275177795600,3.931795654296875,0.18111705780029297,-0.5964487195014954,-1.6090062856674194
1789214275187827700,3.94182763671875,-0.10973554849624634,-0.14683978259563446,-1.3785629272460938
1789214275197859800,3.95185986328125,-0.34979796409606934,0.23489639163017273,-1.3900691270828247
1789214275207891500,3.961891357421875,-0.4761127531528473,0.2616688907146454,-1.494350552558899
1789214275217923600,3.971923583984375,-0.5335435271263123,0.12420450896024704,-1.6459949016571045
1789214275227955500,3.98195556640625,-0.5717713832855225,0.1474698781967163,-1.7471956014633179
1789214275237987600,3.991987548828125,-0.6244175434112549,0.23092935979366302,-1.7631911039352417
1789214275248019500,4.00201953125,-0.7305748462677002,0.24608327448368073,-1.7993134260177612
1789214275258051600,4.012051513671875,-0.7971469759941101,0.15039722621440887,-1.9268138408660889
1789214275268083500,4.02208349609375,-0.765404999256134,-0.13240331411361694,-2.078449249267578
1789214275278115600,4.032115478515625,-0.6899203658103943,-0.3968014121055603,-2.1151649951934814
1789214275288147500,4.0421474609375,-0.6965969204902649,-0.5255790948867798,-2.104605197906494
1789214275298179600,4.0521796875,-0.826008141040802,-0.5311927795410156,-2.179811477661133
1789214275308211500,4.06221142578125,-0.9467228651046753,-0.5066967606544495,-2.3141841888427734
1789214275318243600,4.07224365234375,-0.9630587100982666,-0.6233349442481995,-2.4736266136169434
1789214275328275500,4.082275390625,-0.956009030342102,-0.8086254596710205,-2.605323553085327
1789214275338307600,4.0923076171875,-0.9551778435707092,-1.0094258785247803,-2.614027976989746
1789214275348340500,4.102340576171875,-0.9564295411109924,-1.0362991094589233,-2.4742841720581055
1789214275358372400,4.112372314453125,-0.9263337254524231,-0.719223141670227,-2.3230040073394775
1789214275368404700,4.12240478515625,-0.9808475375175476,-0.5351265072822571,-2.1364636421203613
1789214275378436600,4.1324365234375,-1.0776702165603638,-0.5244699120521545,-1.8680123090744019
1789214275388468500,4.142468505859375,-1.1059165000915527,-0.21213649213314056,-1.7496211528778076
1789214275398500400,4.152500244140625,-0.9965793490409851,-0.20991700887680054,-1.5457831621170044
1789214275408532700,4.16253271484375,-0.8641409277915955,-0.17846988141536713,-1.4069498777389526
1789214275418564600,4.172564697265625,-0.7197291254997253,-0.13989292085170746,-1.080701470375061
1789214275428596500,4.182596435546875,-0.5905213356018066,0.014545919373631477,-0.7698096036911011
1789214275438628600,4.192628662109375,-0.5140318870544434,0.2904840409755707,-0.5737016201019287
1789214275448660700,4.20266064453125,-0.44680386781692505,0.38593384623527527,-0.34537017345428467
1789214275458692600,4.212692626953125,-0.3363202214241028,0.3899395167827606,-0.082823246717453
1789214275468724500,4.222724365234375,-0.20329666137695312,0.3527522087097168,0.18872889876365662
1789214275478756600,4.232756591796875,-0.008700280450284481,0.25516653060913086,0.512999415397644
1789214275488788500,4.24278857421875,0.20205695927143097,0.17435875535011292,0.7662332653999329
1789214275498820600,4.252820556640625,0.44895437359809875,0.13946841657161713,1.000445008277893
1789214275508852500,4.2628525390625,0.691741943359375,0.1455199122428894,1.1990299224853516
1789214275518884600,4.272884521484375,0.9266011118888855,0.13390587270259857,1.3597679138183594
1789214275528916500,4.28291650390625,1.1158250570297241,0.0572824627161026,1.4987868070602417
1789214275538948600,4.292948486328125,1.269760251045227,0.006205698009580374,1.6363921165466309
1789214275548980500,4.30298046875,1.379429578781128,-0.042392730712890625,1.79084050655365
1789214275559012600,4.3130126953125,1.4688867330551147,-0.030297718942165375,1.9169175624847412
1789214275569044500,4.32304443359375,1.5553241968154907,0.07501352578401566,1.9870837926864624
1789214275579076600,4.33307666015625,1.592462420463562,0.2045038789510727,1.9977407455444336
1789214275589108500,4.3431083984375,1.5893704891204834,0.15221136808395386,2.0512776374816895
1789214275599140600,4.353140625,1.5691124200820923,0.12388679385185242,2.1221916675567627
1789214275609172500,4.36317236328125,1.5460203886032104,0.155970960855484,2.1695516109466553
1789214275619204600,4.37320458984375,1.4929255247116089,0.07711795717477798,2.194949150085449
1789214275629236500,4.383236572265625,1.380016565322876,-0.08200778067111969,2.246880054473877
1789214275639268600,4.3932685546875,1.258837342262268,-0.08243495225906372,2.280134439468384
1789214275649301500,4.403301513671875,1.2273523807525635,-0.05424113571643829,2.2174265384674072
1789214275659333400,4.41333349609375,1.2751257419586182,-0.19054198265075684,2.1113359928131104
1789214275669365800,4.42336572265625,1.2743369340896606,-0.4401720464229584,2.1149327754974365
1789214275679397600,4.433397705078125,1.2692651748657227,-0.5252384543418884,2.127269983291626
1789214275689429500,4.443429443359375,1.2783823013305664,-0.6126514077186584,2.021413803100586
1789214275699461400,4.45346142578125,1.1639331579208374,-0.8271176218986511,1.7925885915756226
1789214275709493800,4.46349365234375,0.8788639307022095,-1.0844143629074097,1.595657467842102
1789214275719525600,4.473525634765625,0.5479698777198792,-1.244872808456421,1.5294594764709473
1789214275729557500,4.4835576171875,0.2717159390449524,-1.2840737104415894,1.5370268821716309
1789214275739589400,4.49358935546875,0.07972785085439682,-1.1989463567733765,1.542608618736267
1789214275749621500,4.50362158203125,-0.014844725839793682,-0.9128871560096741,1.5155367851257324
1789214275759653600,4.513653564453125,-0.0570497028529644,-0.6178640127182007,1.4799822568893433
1789214275769685500,4.523685546875,-0.051543883979320526,-0.4445449709892273,1.3745026588439941
1789214275779717400,4.53371728515625,-0.02984977513551712,-0.4344326853752136,1.1366949081420898
1789214275789749500,4.54374951171875,-0.09303326904773712,-0.3073218762874603,0.8485193252563477
1789214275799781600,4.55378173828125,-0.20587299764156342,-0.0539947934448719,0.623824954032898
1789214275809813500,4.5638134765625,-0.4192822277545929,0.16916824877262115,0.4422631561756134
1789214275819845600,4.573845703125,-0.5448305606842041,0.2968694865703583,0.25082290172576904
1789214275829877500,4.58387744140625,-0.6025398969650269,0.31713107228279114,0.0675651952624321
1789214275839909600,4.59390966796875,-0.6386380195617676,0.18572832643985748,-0.05920260399580002
1789214275849941500,4.60394140625,-0.6329526901245117,-0.021096495911478996,-0.18775604665279388
1789214275859973600,4.6139736328125,-0.6099288463592529,-0.200595423579216,-0.33936449885368347
1789214275870005500,4.624005615234375,-0.5866182446479797,-0.1913987249135971,-0.5031417012214661
1789214275880037600,4.63403759765625,-0.5332876443862915,-0.03391961753368378,-0.6436293125152588
1789214275890069500,4.644069580078125,-0.4666321575641632,0.13049516081809998,-0.7542029619216919
1789214275900101600,4.6541015625,-0.42972660064697266,0.2674444913864136,-0.8586800694465637
1789214275910133500,4.664133544921875,-0.38176122307777405,0.3777933716773987,-0.9376057982444763
1789214275920165600,4.67416552734375,-0.34396642446517944,0.3304697871208191,-0.9596620798110962
1789214275930197500,4.684197509765625,-0.318895161151886,0.23375709354877472,-0.9180776476860046
1789214275940229600,4.694229736328125,-0.3007909953594208,0.15732251107692719,-0.869262158870697
1789214275950261500,4.704261474609375,-0.29470089077949524,0.13684546947479248,-0.888694167137146
1789214275960293600,4.714293701171875,-0.28233689069747925,0.1649271696805954,-0.9980313181877136
1789214275970325500,4.724325439453125,-0.2686423659324646,0.2204977571964264,-1.1751000881195068
1789214275980357600,4.734357666015625,-0.24016866087913513,0.3424052894115448,-1.3371801376342773
1789214275990390500,4.744390625,-0.26687511801719666,0.5524272322654724,-1.467079997062683
1789214276000422400,4.75442236328125,-0.2965853214263916,0.6139073371887207,-1.5805081129074097
1789214276010454500,4.76445458984375,-0.31242048740386963,0.48796167969703674,-1.64020574092865
1789214276020486700,4.774486572265625,-0.3411853015422821,0.2919767200946808,-1.5869017839431763
1789214276030518500,4.7845185546875,-0.3474929928779602,-0.07846817374229431,-1.407841444015503
1789214276040550400,4.79455029296875,-0.3899717330932617,-0.30274948477745056,-1.1299747228622437
1789214276050582500,4.80458251953125,-0.48321327567100525,-0.1136338859796524,-0.9286463856697083
1789214276060614700,4.81461474609375,-0.6098918318748474,0.3345883786678314,-0.8613193035125732
1789214276070646500,4.824646484375,-0.8513635993003845,0.7547262907028198,-0.8796325325965881
1789214276080678400,4.834678466796875,-0.997999906539917,0.9059445261955261,-0.9616831541061401
1789214276090710500,4.84471044921875,-1.0543856620788574,0.7387688755989075,-1.0145448446273804
1789214276100742700,4.85474267578125,-1.0632702112197876,0.4333362579345703,-1.0464630126953125
1789214276110774500,4.8647744140625,-0.9829596877098083,0.035644013434648514,-1.1498568058013916
1789214276120806400,4.874806396484375,-0.8912489414215088,-0.2800675928592682,-1.2638605833053589
1789214276130838500,4.884838623046875,-0.881517767906189,-0.4517674446105957,-1.2649160623550415
1789214276140870700,4.89487060546875,-0.9385147094726562,-0.43380337953567505,-1.1623384952545166
1789214276150902500,4.904902587890625,-1.0681425333023071,-0.22671116888523102,-1.0685670375823975
1789214276160934400,4.914934326171875,-1.2019459009170532,0.053521014750003815,-1.0710029602050781
1789214276170966500,4.924966552734375,-1.2915526628494263,0.17176616191864014,-1.134204626083374
1789214276180998700,4.93499853515625,-1.318835973739624,0.015092133544385433,-1.1769787073135376
1789214276191030500,4.945030517578125,-1.308673620223999,-0.3175659775733948,-1.1602215766906738
1789214276201062400,4.9550625,-1.2319250106811523,-0.5890763401985168,-1.170752763748169
1789214276211094500,4.965094482421875,-1.1487390995025635,-0.574128270149231,-1.2221970558166504
1789214276221127000,4.975126953125,-1.1148316860198975,-0.2704213559627533,-1.2660950422286987
1789214276231158800,4.98515869140625,-1.1335278749465942,0.01968422159552574,-1.1940280199050903
1789214276241190700,4.995190673828125,-1.0968657732009888,0.17228707671165466,-1.0768028497695923
1789214276251222500,5.005222412109375,-0.9788177013397217,0.27469921112060547,-1.0460811853408813
1789214276261255000,5.0152548828125,-0.9096042513847351,0.12320475280284882,-0.9680028557777405
1789214276271286800,5.025286865234375,-0.8909051418304443,-0.0028394623659551144,-0.8237743377685547
1789214276281318700,5.035318603515625,-0.8264853954315186,0.1240985095500946,-0.6825066804885864
1789214276291350500,5.0453505859375,-0.6277973651885986,0.27153509855270386,-0.6133006811141968
1789214276301382700,5.055382568359375,-0.3828941285610199,0.057070475071668625,-0.4291953146457672
1789214276311414800,5.065414794921875,-0.23303724825382233,0.09249930828809738,-0.2618212103843689
1789214276321446700,5.07544677734375,-0.08729761838912964,0.3005627691745758,-0.10840077698230743
1789214276331479800,5.085479736328125,0.07967831939458847,0.43180519342422485,0.05891231819987297
1789214276341511700,5.09551171875,0.19255825877189636,0.4576623737812042,0.242609441280365
1789214276351543600,5.10554345703125,0.27490267157554626,0.497504323720932,0.3993833363056183
1789214276361575700,5.11557568359375,0.4155047833919525,0.5137429237365723,0.508307695388794
1789214276371607800,5.12560791015625,0.6038920283317566,0.4169516861438751,0.6631627678871155
1789214276381639700,5.1356396484375,0.7829920053482056,0.36402374505996704,0.8324918746948242
1789214276391671600,5.145671630859375,0.9227725267410278,0.3428526818752289,0.9013711214065552
1789214276401703700,5.15570361328125,1.0836516618728638,0.23004572093486786,0.9366129636764526
1789214276411735800,5.16573583984375,1.2633916139602661,0.11464695632457733,0.9910173416137695
1789214276421767700,5.175767578125,1.4398846626281738,0.013096360489726067,1.069376826286316
1789214276431799600,5.185799560546875,1.5674620866775513,-0.033002156764268875,1.158339262008667
1789214276441831700,5.195831787109375,1.6510893106460571,-0.03230733796954155,1.2519373893737793
1789214276451863800,5.20586376953125,1.6786847114562988,-0.024271517992019653,1.3456345796585083
1789214276461895700,5.215895751953125,1.6545569896697998,-0.012526444159448147,1.4201399087905884
1789214276471927600,5.225927490234375,1.5647144317626953,0.006338856182992458,1.4970451593399048
1789214276481959700,5.235959716796875,1.4671891927719116,0.05282246693968773,1.554348349571228
1789214276491991800,5.24599169921875,1.4256635904312134,0.005401955917477608,1.6199569702148438
1789214276502023700,5.256023681640625,1.4623068571090698,-0.10271120071411133,1.6878483295440674
1789214276512055600,5.2660556640625,1.5676714181900024,-0.1949484497308731,1.6878031492233276
1789214276522087700,5.276087646484375,1.6673535108566284,-0.23871563374996185,1.70333731174469
1789214276532119800,5.286119873046875,1.7290363311767578,-0.25179389119148254,1.7204267978668213
1789214276542151700,5.296151611328125,1.7377264499664307,-0.3358618915081024,1.7028614282608032
1789214276552183600,5.30618359375,1.6655281782150269,-0.5101106762886047,1.666406512260437
1789214276562215700,5.316215576171875,1.5258597135543823,-0.5683380365371704,1.5925079584121704
1789214276572247800,5.326247802734375,1.3695324659347534,-0.6341298222541809,1.5469272136688232
1789214276582279700,5.33627978515625,1.243947148323059,-0.7795762419700623,1.5641263723373413
1789214276592311600,5.3463115234375,1.1800850629806519,-0.8570963144302368,1.490688443183899
1789214276602343700,5.35634375,1.1472322940826416,-0.9117339849472046,1.3808690309524536
1789214276612375800,5.366375732421875,1.1351710557937622,-0.9503577947616577,1.2980518341064453
1789214276622407700,5.37640771484375,1.0965973138809204,-1.020778775215149,1.2624115943908691
1789214276632439600,5.386439453125,0.9739661812782288,-1.139132022857666,1.2553629875183105
1789214276642471700,5.3964716796875,0.8011693954467773,-1.1859564781188965,1.2351129055023193
1789214276652503800,5.40650390625,0.6307427883148193,-1.1288671493530273,1.1910535097122192
1789214276662535700,5.41653564453125,0.48083531856536865,-1.011370301246643,1.1553434133529663
1789214276672567600,5.426567626953125,0.33199605345726013,-0.8706717491149902,1.1405600309371948
1789214276682599700,5.436599609375,0.24533705413341522,-0.7061736583709717,1.1322705745697021
1789214276692631800,5.4466318359375,0.18036285042762756,-0.5736667513847351,1.0432517528533936
1789214276702663700,5.45666357421875,0.0770934522151947,-0.3710441291332245,0.9530127048492432
1789214276712695600,5.466695556640625,-0.13021446764469147,-0.050457581877708435,0.8701391220092773
1789214276722727700,5.476727783203125,-0.33682355284690857,0.20755718648433685,0.7012137770652771
1789214276732759800,5.486759765625,-0.49804094433784485,0.26655125617980957,0.5501057505607605
1789214276742791700,5.496791748046875,-0.5268688797950745,0.23994308710098267,0.4539203643798828
1789214276752824800,5.506824951171875,-0.4716458320617676,0.22772450745105743,0.3600998520851135
1789214276762856700,5.516856689453125,-0.35990703105926514,0.20539550483226776,0.1478525847196579
1789214276772888600,5.526888671875,-0.2681334614753723,0.033243972808122635,-0.1603097766637802
1789214276782920700,5.536920654296875,-0.30102720856666565,-0.1431739330291748,-0.4854561686515808
1789214276792952800,5.546952880859375,-0.3843074440956116,-0.09792576730251312,-0.7623716592788696
1789214276802984700,5.556984619140625,-0.4497722089290619,0.062298793345689774,-1.0021342039108276
1789214276813016600,5.5670166015625,-0.4480036199092865,0.20806239545345306,-1.2131510972976685
1789214276823048700,5.577048583984375,-0.39617636799812317,0.23859792947769165,-1.424098253250122
1789214276833080800,5.587080810546875,-0.36996978521347046,0.3079091012477875,-1.5603526830673218
1789214276843112700,5.59711279296875,-0.3891568183898926,0.643168568611145,-1.5575380325317383
1789214276853144600,5.60714453125,-0.3968650698661804,0.93344646692276,-1.6265586614608765
1789214276863176700,5.6171767578125,-0.3536318242549896,0.8504536151885986,-1.9066236019134521
1789214276873208800,5.627208740234375,-0.26504310965538025,0.3890409469604492,-2.239107847213745
1789214276883240700,5.63724072265625,-0.16977305710315704,-0.14742301404476166,-2.4178354740142822
1789214276893272600,5.6472724609375,-0.14071956276893616,-0.3654376268386841,-2.392242193222046
1789214276903304700,5.6573046875,-0.2530471682548523,-0.14182505011558533,-1.976944088935852
1789214276913336800,5.6673369140625,-0.4106525182723999,-0.04862106591463089,-1.378301978111267
1789214276923368700,5.67736865234375,-0.5136545300483704,-0.1968507468700409,-0.7921247482299805
1789214276933400600,5.687400634765625,-0.5306894183158875,-0.36842116713523865,-0.343177855014801
1789214276943432400,5.697432373046875,-0.52309250831604,-0.3290085196495056,-0.10152182728052139
1789214276953464800,5.70746484375,-0.533776581287384,-0.19875596463680267,-0.12068620324134827
1789214276963496700,5.71749658203125,-0.622401773929596,0.10555944591760635,-0.21105657517910004
1789214276973528600,5.727528564453125,-0.7758795022964478,0.5260826945304871,-0.34852656722068787
1789214276983560700,5.737560791015625,-0.8978237509727478,0.8895434737205505,-0.577413022518158
1789214276993592800,5.7475927734375,-0.9970904588699341,0.818757951259613,-0.7425619959831238
1789214277003624700,5.757624755859375,-1.1326885223388672,0.26519864797592163,-0.9552244544029236
1789214277013656600,5.767656494140625,-1.1491862535476685,-0.2078551948070526,-1.1707831621170044
1789214277023688700,5.777688720703125,-1.098193883895874,-0.45039886236190796,-1.4109294414520264
1789214277033720800,5.787720947265625,-1.0221062898635864,-0.39557474851608276,-1.6125311851501465
1789214277043752700,5.797752685546875,-0.9497988224029541,-0.11800440400838852,-1.71035897731781
1789214277053784600,5.80778466796875,-0.8852366209030151,0.07818561792373657,-1.7089837789535522
1789214277063816700,5.817816650390625,-0.8476585745811462,0.09231209009885788,-1.6464934349060059
1789214277073848800,5.827848876953125,-0.8412899374961853,-0.07101691514253616,-1.5955168008804321
1789214277083880700,5.837880615234375,-0.8748420476913452,-0.20003509521484375,-1.5738201141357422
1789214277093912600,5.84791259765625,-0.9339125156402588,-0.20658592879772186,-1.5898430347442627
1789214277103944700,5.85794482421875,-1.080720067024231,-0.13988493382930756,-1.6164370775222778
1789214277113976800,5.867976806640625,-1.2126104831695557,-0.08141815662384033,-1.6857889890670776
1789214277124008700,5.8780087890625,-1.4101312160491943,0.18756429851055145,-1.775191307067871
1789214277134040600,5.88804052734375,-1.6525681018829346,0.26370593905448914,-1.752121925354004
1789214277144072700,5.89807275390625,-1.8152263164520264,0.36594095826148987,-1.4688944816589355
1789214277154104800,5.908104736328125,-1.5768376588821411,0.21286380290985107,-1.342810034751892
1789214277164136700,5.91813671875,-1.095868468284607,-0.8648120164871216,-1.2991507053375244
1789214277174168600,5.92816845703125,-0.9467361569404602,-1.234268069267273,-1.1542632579803467
1789214277184200700,5.93820068359375,-1.0184322595596313,-0.6321345567703247,-0.9058542847633362
1789214277194232600,5.948232666015625,-0.9488986730575562,0.0851346030831337,-0.6447529196739197
1789214277204264700,5.9582646484375,-0.6574044823646545,0.15172986686229706,-0.3783486485481262
1789214277214296600,5.968296630859375,-0.4189349412918091,0.056532785296440125,-0.051969725638628006
1789214277224328400,5.978328369140625,-0.31666797399520874,0.2615666389465332,0.2589828372001648
1789214277234360600,5.988360595703125,-0.2174830585718155,0.4694444537162781,0.6527674198150635
1789214277244392700,5.998392822265625,-0.026991404592990875,0.6784163117408752,1.0591479539871216
1789214277254424600,6.008424560546875,0.2548930048942566,0.9229522943496704,1.2620195150375366
1789214277264456400,6.01845654296875,0.5607629418373108,0.986645519733429,1.3735135793685913
1789214277274488600,6.028488525390625,0.8171606063842773,0.9448993802070618,1.5433048009872437
1789214277284520700,6.038520751953125,1.0386003255844116,1.0066149234771729,1.732773780822754
1789214277294552600,6.048552490234375,1.1845487356185913,1.1208760738372803,1.7655189037322998
1789214277304584400,6.05858447265625,1.3106191158294678,1.0975615978240967,1.7302030324935913
1789214277314616300,6.0686162109375,1.4445619583129883,0.9433997869491577,1.7657932043075562
1789214277324648700,6.078648681640625,1.5923229455947876,0.8495193719863892,1.8812061548233032
1789214277334680600,6.0886806640625,1.7405821084976196,0.7972404360771179,2.013305902481079
1789214277344712400,6.09871240234375,1.850960612297058,0.753825843334198,2.1006102561950684
1789214277354744600,6.10874462890625,1.9414947032928467,0.6339857578277588,2.1341793537139893
1789214277364776700,6.118776611328125,2.0416786670684814,0.29543083906173706,2.216670513153076
1789214277374808600,6.12880859375,2.113330364227295,-0.0856001228094101,2.3474056720733643
1789214277384841500,6.138841552734375,2.1291542053222656,-0.19954000413417816,2.354736089706421
1789214277394872600,6.14887255859375,2.0579938888549805,-0.11783742159605026,2.232931613922119
1789214277404905500,6.158905517578125,1.8974237442016602,-0.13177640736103058,2.0901243686676025
1789214277414937600,6.1689375,1.712154746055603,-0.17641498148441315,1.9909584522247314
1789214277424969700,6.1789697265625,1.494191288948059,-0.24733228981494904,1.9588828086853027
1789214277435001600,6.189001708984375,1.3080013990402222,-0.42350253462791443,1.9907331466674805
1789214277445033500,6.199033447265625,1.193459153175354,-0.6835429072380066,1.9232935905456543
1789214277455065600,6.209065673828125,1.141762375831604,-1.0381255149841309,1.8240879774093628
1789214277465097700,6.21909765625,1.06600022315979,-1.1844584941864014,1.8126057386398315
1789214277475129600,6.229129638671875,0.9184105396270752,-1.1074155569076538,1.8992046117782593
1789214277485161500,6.239161376953125,0.7587414979934692,-1.176574945449829,1.9474741220474243
1789214277495193600,6.249193603515625,0.5661459565162659,-1.1159428358078003,1.8723958730697632
1789214277505225700,6.259225830078125,0.30107489228248596,-0.8513196706771851,1.7865456342697144
1789214277515257600,6.269257568359375,0.002469815546646714,-0.33615538477897644,1.743602991104126
1789214277525289500,6.27928955078125,-0.14260348677635193,-0.020322848111391068,1.5967341661453247
1789214277535321600,6.289321533203125,-0.2434033304452896,0.018609104678034782,1.2919830083847046
1789214277545353700,6.299353759765625,-0.3644599914550781,0.055805742740631104,0.9555855989456177
1789214277555385600,6.309385498046875,-0.46746891736984253,0.05908329412341118,0.5870912075042725
1789214277565417500,6.31941748046875,-0.45386630296707153,-0.009043828584253788,0.25773885846138
1789214277575449300,6.329449462890625,-0.32882583141326904,-0.46957895159721375,-0.06689088046550751
1789214277585481700,6.339481689453125,-0.19329409301280975,-0.9115787148475647,-0.49551519751548767
1789214277595513600,6.349513671875,-0.20419786870479584,-0.8712019920349121,-0.9200528860092163
1789214277605545500,6.35954541015625,-0.3785390555858612,-0.45913776755332947,-1.3977491855621338
1789214277615577300,6.369577392578125,-0.6172869205474854,0.23800776898860931,-1.835591197013855
1789214277625609700,6.379609619140625,-0.7893921136856079,1.2194185256958008,-2.0315935611724854
1789214277635641600,6.3896416015625,-0.9462496042251587,1.9674768447875977,-1.9984352588653564
1789214277645673500,6.399673583984375,-1.025719404220581,2.2832555770874023,-1.7717323303222656
1789214277655705300,6.409705322265625,-1.016700029373169,1.9417405128479004,-1.3722987174987793
1789214277665737700,6.41973779296875,-0.9266911149024963,0.9399712085723877,-0.9526838064193726
1789214277675769600,6.42976953125,-0.6886867880821228,0.22790692746639252,-0.792534351348877
1789214277685801500,6.439801513671875,-0.3994011878967285,0.22288820147514343,-1.0192245244979858
1789214277695833300,6.449833251953125,-0.21609394252300262,0.41359052062034607,-1.5666530132293701
1789214277705865700,6.45986572265625,-0.06253448128700256,0.38688406348228455,-2.0261080265045166
1789214277715897600,6.469897705078125,0.08006500452756882,-0.07284437865018845,-2.294306516647339
1789214277725929500,6.479929443359375,0.08445629477500916,-0.4999544322490692,-2.263970375061035
1789214277735961600,6.489961669921875,-0.186979740858078,-0.3517175614833832,-1.911205530166626
1789214277745993700,6.49999365234375,-0.5516123175621033,-0.15199778974056244,-1.5582871437072754
1789214277756025600,6.510025634765625,-0.720790684223175,-0.3776354491710663,-1.3756805658340454
1789214277766057500,6.520057373046875,-0.6806690692901611,-0.8996216654777527,-1.1802895069122314
1789214277776089600,6.530089599609375,-0.7233137488365173,-0.964074432849884,-1.0137923955917358
1789214277786121700,6.540121826171875,-0.8840922713279724,-0.22666296362876892,-0.9107725620269775
1789214277796153600,6.550153564453125,-1.1091234683990479,0.5359912514686584,-1.045893669128418
1789214277806185500,6.560185546875,-1.4816440343856812,0.9670553207397461,-1.4295116662979126
1789214277816217600,6.570217529296875,-1.6576553583145142,0.800073504447937,-1.839478850364685
1789214277826249500,6.58024951171875,-1.5167213678359985,0.2702362835407257,-1.9975823163986206
1789214277836281600,6.590281494140625,-1.4385967254638672,-0.2285090684890747,-1.9293770790100098
1789214277846313500,6.6003134765625,-1.5050452947616577,-0.3736742436885834,-1.7832564115524292
1789214277856345600,6.610345703125,-1.6019315719604492,-0.27793893218040466,-1.706473469734192
1789214277866377500,6.62037744140625,-1.4871783256530762,-0.5344042778015137,-1.6833438873291016
1789214277876409600,6.63040966796875,-1.2739238739013672,-0.7862167954444885,-1.610831618309021
1789214277886441500,6.64044140625,-1.1296948194503784,-0.6897310018539429,-1.5352306365966797
1789214277896473600,6.6504736328125,-1.0398930311203003,-0.576677680015564,-1.5579720735549927
1789214277906505500,6.66050537109375,-1.0519832372665405,-0.37055835127830505,-1.614570140838623
1789214277916537600,6.67053759765625,-1.1789875030517578,0.08861348778009415,-1.581115484237671
1789214277926569500,6.680569580078125,-1.4161622524261475,0.6925039291381836,-1.4419461488723755
1789214277936601600,6.6906015625,-1.6932446956634521,1.0066399574279785,-1.205938458442688
1789214277946633500,6.700633544921875,-1.7070212364196777,0.9659061431884766,-0.836471438407898
1789214277956665600,6.71066552734375,-1.3565257787704468,0.45995959639549255,-0.44401127099990845
1789214277966697500,6.720697509765625,-1.059273362159729,-0.03338831663131714,-0.214847594499588
1789214277976729600,6.7307294921875,-1.0001884698867798,0.1552865207195282,-0.20419974625110626
1789214277986761500,6.740761474609375,-0.9188517928123474,0.5483850836753845,-0.4001535475254059
1789214277996793600,6.750793701171875,-0.6771270632743835,0.4706178307533264,-0.5185217261314392
1789214278006825500,6.760825439453125,-0.4061403274536133,0.14903582632541656,-0.31419333815574646
1789214278016857600,6.770857666015625,-0.3418601453304291,0.19582729041576385,0.08137980848550797
1789214278026889500,6.780889404296875,-0.32504546642303467,0.44263866543769836,0.5180894732475281
1789214278036921600,6.790921630859375,-0.11066233366727829,0.5829923152923584,0.8461477756500244
1789214278046953500,6.800953369140625,0.24386246502399445,0.5433887243270874,1.0180606842041016
1789214278056985600,6.810985595703125,0.5731341242790222,0.4272024631500244,1.1790655851364136
1789214278067017500,6.821017578125,0.8197311162948608,0.34140631556510925,1.3821438550949097
1789214278077049600,6.831049560546875,1.000315546989441,0.4095017611980438,1.556295394897461
1789214278087081700,6.841081787109375,1.1835253238677979,0.7086399793624878,1.6958916187286377
1789214278097113600,6.851113525390625,1.4589883089065552,0.9820747375488281,1.7483888864517212
1789214278107145500,6.8611455078125,1.7054667472839355,0.9576956033706665,1.7578381299972534
1789214278117177600,6.871177490234375,1.8780646324157715,0.7069390416145325,1.816680669784546
1789214278127209700,6.881209716796875,2.029021978378296,0.506584882736206,1.9047455787658691
1789214278137241600,6.89124169921875,2.1321496963500977,0.5261428952217102,1.9522606134414673
1789214278147273500,6.9012734375,2.132885456085205,0.7145029306411743,1.8946244716644287
1789214278157305600,6.9113056640625,2.0975193977355957,0.6685455441474915,1.8063851594924927
1789214278167337700,6.921337646484375,2.062532663345337,0.3494352400302887,1.6921045780181885
1789214278177369600,6.93136962890625,2.036606788635254,-0.12293071299791336,1.642500877380371
1789214278187401500,6.9414013671875,2.039764642715454,-0.4869723320007324,1.6424832344055176
1789214278197433300,6.951433349609375,2.042680025100708,-0.7129902839660645,1.6592638492584229
1789214278207465700,6.9614658203125,2.029358148574829,-0.8164828419685364,1.6948317289352417
1789214278217497600,6.97149755859375,1.9832382202148438,-0.8137339353561401,1.7221301794052124
1789214278227529700,6.98152978515625,1.8806074857711792,-0.8128465414047241,1.6834248304367065
1789214278237561600,6.9915615234375,1.7256306409835815,-0.9259302616119385,1.582290768623352
1789214278247593700,7.00159375,1.5445122718811035,-1.0624300241470337,1.4621691703796387
1789214278257625600,7.01162548828125,1.3131104707717896,-1.1758137941360474,1.3762683868408203
1789214278267657700,7.02165771484375,1.037302017211914,-1.1608428955078125,1.3844456672668457
1789214278277689600,7.031689697265625,0.7576219439506531,-1.0199859142303467,1.4435502290725708
1789214278287721700,7.0417216796875,0.520774781703949,-0.8665872812271118,1.4321001768112183
1789214278297753600,7.051753662109375,0.35013723373413086,-0.7253620028495789,1.3707393407821655
1789214278307785700,7.06178564453125,0.2515616714954376,-0.5787112712860107,1.2902405261993408
1789214278317817600,7.071817626953125,0.18826605379581451,-0.39936497807502747,1.160428524017334
1789214278327849700,7.081849609375,0.09624291211366653,-0.09907704591751099,0.9845315217971802
1789214278337881600,7.091881591796875,-0.103782057762146,0.18565161526203156,0.7458968162536621
1789214278347913700,7.101913818359375,-0.33866381645202637,0.5104081630706787,0.5777717232704163
1789214278357945600,7.111945556640625,-0.4401310384273529,0.6608706116676331,0.4096921682357788
1789214278367977700,7.121977783203125,-0.44252124428749084,0.5253540873527527,0.15503458678722382
1789214278378009900,7.132009765625,-0.3655300438404083,0.17786027491092682,-0.15406040847301483
1789214278388041700,7.142041748046875,-0.31587913632392883,-0.08696126192808151,-0.4269827604293823
1789214278398073600,7.152073486328125,-0.34255069494247437,-0.2214287966489792,-0.6429765820503235
1789214278408105700,7.162105712890625,-0.4087659418582916,-0.2864448130130768,-0.8855644464492798
1789214278418137900,7.172137939453125,-0.45111605525016785,-0.20595049858093262,-1.1663588285446167
1789214278428169700,7.182169677734375,-0.46953099966049194,0.07208138704299927,-1.343780517578125
1789214278438201600,7.19220166015625,-0.4779426157474518,0.39039677381515503,-1.361121654510498
1789214278448233700,7.202233642578125,-0.4990966320037842,0.5440611839294434,-1.3565173149108887
1789214278458265900,7.212265869140625,-0.49497324228286743,0.5212283134460449,-1.4431616067886353
1789214278468297700,7.222297607421875,-0.43570274114608765,0.34219568967819214,-1.6066086292266846
1789214278478329600,7.23232958984375,-0.3686691224575043,0.07843782007694244,-1.7163887023925781
1789214278488361500,7.242361572265625,-0.3659862279891968,-0.048176318407058716,-1.7045674324035645
1789214278498393900,7.252393798828125,-0.42122524976730347,-0.11391831189393997,-1.6889184713363647
1789214278508425700,7.26242578125,-0.5089548230171204,-0.21250347793102264,-1.7523444890975952
1789214278518457600,7.27245751953125,-0.5354288220405579,-0.26029977202415466,-1.6986408233642578
1789214278528489500,7.282489501953125,-0.48864665627479553,-0.25969788432121277,-1.4452109336853027
1789214278538521900,7.29252197265625,-0.47726190090179443,-0.31445565819740295,-1.1037750244140625
1789214278548553700,7.3025537109375,-0.5813776254653931,-0.32610753178596497,-0.87314772605896
1789214278558585600,7.312585693359375,-0.7801210880279541,-0.11860654503107071,-0.8758708238601685
1789214278568617500,7.322617431640625,-1.0122292041778564,0.3948405385017395,-0.9736021757125854
1789214278578649900,7.33264990234375,-1.2041075229644775,1.0104546546936035,-1.0498849153518677
1789214278588681700,7.342681640625,-1.3010090589523315,1.1478972434997559,-1.159021019935608
1789214278598713600,7.352713623046875,-1.2801480293273926,0.5206218957901001,-1.341769814491272
1789214278608745500,7.362745361328125,-1.2003405094146729,-0.2527211904525757,-1.6111879348754883
1789214278618777900,7.37277783203125,-1.1505318880081177,-0.22706004977226257,-1.8193728923797607
1789214278628809700,7.382809814453125,-1.2914162874221802,0.12603090703487396,-1.9113149642944336
1789214278638841600,7.392841552734375,-1.5121474266052246,0.30338117480278015,-1.8755676746368408
1789214278648873500,7.40287353515625,-1.5779908895492554,0.23205134272575378,-1.7052103281021118
1789214278658905900,7.41290576171875,-1.4751094579696655,-0.010628676041960716,-1.5597172975540161
1789214278668937700,7.422937744140625,-1.3740239143371582,0.0238784346729517,-1.5331536531448364
1789214278678969600,7.432969482421875,-1.3589812517166138,0.19931763410568237,-1.6542915105819702
1789214278689001700,7.443001708984375,-1.4897749423980713,0.08750374615192413,-1.6388448476791382
1789214278699033900,7.453033935546875,-1.9231083393096924,0.10668596625328064,-1.1985715627670288
1789214278709065700,7.463065673828125,-2.1564245223999023,0.6568852066993713,-0.8791289329528809
1789214278719097600,7.47309765625,-1.8288140296936035,0.5696395039558411,-0.9506757855415344
1789214278729129700,7.483129638671875,-1.3535816669464111,-0.16017688810825348,-1.0950777530670166
1789214278739161900,7.493161865234375,-1.1439043283462524,-0.503441572189331,-0.8885266780853271
1789214278749193700,7.50319384765625,-1.060102939605713,-0.15808923542499542,-0.30757859349250793
1789214278759225600,7.5132255859375,-0.9225149750709534,0.23385509848594666,-0.023137010633945465
1789214278769257700,7.5232578125,-0.6384782195091248,0.37390196323394775,-0.2010771781206131
1789214278779289600,7.53328955078125,-0.32966312766075134,0.06559658795595169,-0.28455689549446106
1789214278789321700,7.54332177734375,-0.12030111253261566,-0.09719179570674896,-0.038236867636442184
1789214278799353600,7.553353515625,0.07523856312036514,-0.01925225742161274,0.2584230303764343
1789214278809385700,7.5633857421875,0.30304643511772156,0.1284535825252533,0.5532775521278381
1789214278819417600,7.57341748046875,0.611710250377655,0.4361128509044647,0.7529153227806091
1789214278829448700,7.58344873046875,0.994785726070404,0.6871626973152161,0.9356275796890259
1789214278839481600,7.593481689453125,1.3972615003585815,0.818088710308075,1.2158446311950684
1789214278849513700,7.603513671875,1.7004001140594482,0.8347494602203369,1.5010840892791748
1789214278859544800,7.613544921875,1.871436595916748,0.9202547669410706,1.743668794631958
1789214278869576700,7.62357666015625,1.8917721509933472,1.3453829288482666,1.8285839557647705
1789214278879608600,7.633608642578125,1.8333038091659546,1.6477720737457275,1.7529191970825195
1789214278889640400,7.643640380859375,1.8026697635650635,1.3783533573150635,1.6831673383712769
1789214278899672800,7.6536728515625,1.8849678039550781,0.9297491908073425,1.6826099157333374
1789214278909704700,7.66370458984375,2.038604974746704,0.5763722658157349,1.7266831398010254
1789214278919736600,7.673736572265625,2.0989551544189453,0.5414717793464661,1.7583611011505127
1789214278929768700,7.683768798828125,2.101330518722534,0.6577765345573425,1.6735533475875854
1789214278939800800,7.69380078125,2.0877153873443604,0.346347838640213,1.5953348875045776
1789214278949832700,7.703832763671875,2.0232298374176025,-0.23573370277881622,1.6058522462844849
1789214278959864600,7.713864501953125,1.9503071308135986,-0.7669917345046997,1.683226227760315
1789214278969896700,7.723896728515625,1.8816287517547607,-1.0509816408157349,1.733521580696106
1789214278979928800,7.7339287109375,1.7981418371200562,-1.1364920139312744,1.7043242454528809
1789214278989960700,7.743960693359375,1.6944082975387573,-1.150410771369934,1.6727831363677979
1789214278999992600,7.75399267578125,1.54448664188385,-1.1101330518722534,1.6584383249282837
1789214279010024700,7.764024658203125,1.326610803604126,-1.035271406173706,1.6284418106079102
1789214279020056800,7.774056884765625,1.044176697731018,-1.031836986541748,1.587358832359314
1789214279030088700,7.784088623046875,0.7427865266799927,-1.0587702989578247,1.5707212686538696
1789214279040120600,7.79412060546875,0.50105220079422,-0.9741851091384888,1.6071255207061768
1789214279050152700,7.804152587890625,0.3550843298435211,-0.8516546487808228,1.6857713460922241
1789214279060184800,7.814184814453125,0.25316116213798523,-0.6870034337043762,1.7249635457992554
1789214279070216700,7.824216796875,0.1980840563774109,-0.4664257764816284,1.7308664321899414
1789214279080248600,7.83424853515625,0.21520684659481049,-0.3530065417289734,1.6957062482833862
1789214279090280700,7.84428076171875,0.30123254656791687,-0.4507719576358795,1.4915931224822998
1789214279100312800,7.854312744140625,0.2670053243637085,-0.4554128050804138,1.1606991291046143
1789214279110344700,7.8643447265625,0.05329997465014458,-0.19833998382091522,0.8745256066322327
1789214279120376600,7.87437646484375,-0.2316606640815735,0.15071946382522583,0.5736212134361267
1789214279130408700,7.88440869140625,-0.4820321500301361,0.17350813746452332,0.14841903746128082
1789214279140440600,7.894440673828125,-0.6597992181777954,0.0634588673710823,-0.23864400386810303
1789214279150472700,7.90447265625,-0.7355565428733826,0.07669664174318314,-0.4513067305088043
1789214279160504600,7.914504638671875,-0.7264972925186157,0.08340594172477722,-0.6230374574661255
1789214279170536700,7.92453662109375,-0.6784879565238953,0.15613234043121338,-0.8622604608535767
1789214279180568600,7.934568603515625,-0.6154764890670776,0.3022304177284241,-1.07017183303833
1789214279190600700,7.9446005859375,-0.5789893269538879,0.43977630138397217,-1.0981923341751099
1789214279200632600,7.954632568359375,-0.5210605263710022,0.4900687634944916,-1.0367408990859985
1789214279210665200,7.964665283203125,-0.45836225152015686,0.4343391954898834,-1.0290944576263428
1789214279220697000,7.974697021484375,-0.4007090628147125,0.3748910427093506,-1.108877182006836
1789214279230729200,7.984729248046875,-0.368507981300354,0.3812815845012665,-1.146392583847046
1789214279240761300,7.99476123046875,-0.3405810296535492,0.3387378454208374,-1.1174464225769043
1789214279250793200,8.004793212890625,-0.32817813754081726,0.18856565654277802,-1.1112213134765625
1789214279260825000,8.0148251953125,-0.3273778557777405,-0.0054365769028663635,-1.1231580972671509
1789214279270857200,8.024857177734376,-0.3390584886074066,-0.11618998646736145,-1.1217952966690063
1789214279280889300,8.034889404296875,-0.36698731780052185,-0.015802664682269096,-1.1648938655853271
1789214279290921200,8.044921142578126,-0.39524292945861816,0.2350311577320099,-1.254123330116272
1789214279300953000,8.054953125,-0.35914352536201477,0.4750046133995056,-1.2768433094024658
1789214279310985200,8.064985107421874,-0.29424014687538147,0.3859349191188812,-1.2302323579788208
1789214279321017300,8.075017333984375,-0.33876660466194153,0.15938407182693481,-1.172685980796814
1789214279331049200,8.08504931640625,-0.5438963174819946,0.2781165838241577,-1.1470147371292114
1789214279341081000,8.0950810546875,-0.8479326367378235,0.6964384317398071,-1.099085807800293
1789214279351113200,8.10511328125,-1.2227758169174194,0.9912242889404297,-1.2142895460128784
1789214279361145300,8.115145263671875,-1.4656312465667725,0.8361486792564392,-1.3361009359359741
1789214279371177200,8.12517724609375,-1.5654520988464355,0.4663008749485016,-1.2961924076080322
1789214279381209000,8.135208984375,-1.6686909198760986,0.2596909701824188,-1.260331392288208
1789214279391241200,8.1452412109375,-1.7122602462768555,0.2696690261363983,-1.311446189880371
1789214279401273300,8.1552734375,-1.6358692646026611,0.15060308575630188,-1.4722838401794434
1789214279411305200,8.16530517578125,-1.459619164466858,-0.2711617350578308,-1.7211195230484009
1789214279421336000,8.175336181640626,-1.2957069873809814,-0.7385579347610474,-1.9188557863235474
1789214279431368200,8.1853681640625,-1.173080325126648,-1.0442405939102173,-2.0574827194213867
1789214279441400300,8.195400390625,-1.2040438652038574,-0.8633629679679871,-2.105816602706909
1789214279451432200,8.20543212890625,-1.2815253734588623,-0.4790334403514862,-2.071526050567627
1789214279461464000,8.215464111328124,-1.3940902948379517,0.039388950914144516,-1.8676799535751343
1789214279471496400,8.225496337890625,-1.4690393209457397,0.3959585130214691,-1.449670433998108
1789214279481528300,8.2355283203125,-1.4327117204666138,0.2907143831253052,-0.8901983499526978
1789214279491560200,8.245560302734376,-1.2173641920089722,0.18539462983608246,-0.6972869634628296
1789214279501592000,8.255592041015625,-0.9670228362083435,-0.09858276695013046,-0.7276459336280823
1789214279511624400,8.26562451171875,-0.8357313871383667,-0.22272709012031555,-0.6025463342666626
1789214279521656300,8.27565625,-0.7802073955535889,0.033912960439920425,-0.37332430481910706
1789214279531688200,8.285688232421874,-0.6209362149238586,0.228672593832016,-0.3202823996543884
1789214279541720000,8.295719970703125,-0.4593851566314697,-0.06767544895410538,-0.26840856671333313
1789214279551752400,8.30575244140625,-0.3285227417945862,-0.23810124397277832,0.01173548586666584
1789214279561784300,8.315784423828125,-0.15403777360916138,-0.10680288076400757,0.42935243248939514
1789214279571816200,8.325816162109374,0.08817646652460098,0.09263459593057632,0.8023965954780579
1789214279581848000,8.33584814453125,0.4102253317832947,0.32906949520111084,1.0414294004440308
1789214279591880400,8.34588037109375,0.7977328300476074,0.5667755603790283,1.1167694330215454
1789214279601912300,8.355912353515626,1.1964083909988403,0.6533842086791992,1.1745187044143677
1789214279611944200,8.365944091796875,1.4901890754699707,0.6461254954338074,1.358722448348999
1789214279621976000,8.37597607421875,1.6487926244735718,0.6900391578674316,1.5067448616027832
1789214279632008200,8.38600830078125,1.7196539640426636,0.7222588658332825,1.550164818763733
1789214279642040300,8.396040283203124,1.7950587272644043,0.7709094882011414,1.5578632354736328
1789214279652072200,8.406072265625,1.888415813446045,0.8512235283851624,1.4829380512237549
1789214279662104000,8.41610400390625,1.9445557594299316,0.7573769092559814,1.3606503009796143
1789214279672136200,8.42613623046875,1.9390283823013306,0.3231833875179291,1.353436827659607
1789214279682168300,8.436168212890625,1.920465350151062,-0.028964806348085403,1.4430290460586548
1789214279692200200,8.4462001953125,1.9031039476394653,-0.06565731018781662,1.48835289478302
1789214279702232000,8.456232177734375,1.874748706817627,0.08979327231645584,1.432927131652832
1789214279712264200,8.46626416015625,1.8589458465576172,0.11465387791395187,1.3684003353118896
1789214279722296300,8.47629638671875,1.831705927848816,-0.13828463852405548,1.3983672857284546
1789214279732328200,8.486328125,1.7749055624008179,-0.4451063573360443,1.4706742763519287
1789214279742360000,8.496360107421875,1.6716039180755615,-0.6910942792892456,1.5323938131332397
1789214279752392200,8.50639208984375,1.5022825002670288,-0.9095800518989563,1.6864027976989746
1789214279762424300,8.51642431640625,1.2803916931152344,-1.014357089996338,1.8172450065612793
1789214279772456200,8.526456298828125,1.054713249206543,-0.9688193798065186,1.8358538150787354
1789214279782488000,8.536488037109375,0.870763897895813,-0.8446705341339111,1.7913053035736084
1789214279792520200,8.546520263671875,0.7130347490310669,-0.8085485100746155,1.736791968345642
1789214279802552300,8.55655224609375,0.6237240433692932,-0.8715122938156128,1.6789275407791138
1789214279812584200,8.566584228515625,0.6061975359916687,-0.9311572313308716,1.573171615600586
1789214279822616300,8.5766162109375,0.5585450530052185,-0.8407213091850281,1.4280884265899658
1789214279832648200,8.586648193359375,0.433766633272171,-0.5247854590415955,1.278196930885315
1789214279842679300,8.59667919921875,0.33235159516334534,-0.345083624124527,1.1283237934112549
1789214279852711200,8.606711181640625,0.2959935665130615,-0.39529699087142944,0.9854177832603455
1789214279862743000,8.616742919921874,0.2587953507900238,-0.39774656295776367,0.8031073808670044
1789214279872775400,8.626775390625,0.03117443062365055,-0.14789491891860962,0.6787214875221252
1789214279882807300,8.636807373046874,-0.1845458745956421,0.23814626038074493,0.5565407276153564
1789214279892839200,8.646839111328125,-0.2857116460800171,0.3522067666053772,0.3504461646080017
1789214279902871000,8.65687109375,-0.3282492458820343,0.29230430722236633,0.15172640979290009
1789214279912903400,8.6669033203125,-0.28182077407836914,0.20838703215122223,-0.0531923808157444
1789214279922935300,8.676935302734375,-0.1515037715435028,0.10815177112817764,-0.33509862422943115
1789214279932967200,8.68696728515625,-0.09510494023561478,0.02587154507637024,-0.6650541424751282
1789214279942999000,8.6969990234375,-0.16053162515163422,0.09303353726863861,-0.8984645009040833
1789214279953031400,8.707031494140624,-0.2581050395965576,0.3130093216896057,-0.9532361626625061
1789214279963063300,8.717063232421875,-0.31640803813934326,0.4991607964038849,-0.8971512913703918
1789214279973095200,8.72709521484375,-0.32534825801849365,0.5331286191940308,-0.8941115736961365
1789214279983127000,8.737126953125,-0.31592121720314026,0.4477921724319458,-0.9981855154037476
1789214279993159200,8.7471591796875,-0.29347607493400574,0.3594215512275696,-1.13651704788208
1789214280003191300,8.75719140625,-0.2392304241657257,0.3042885363101959,-1.2238950729370117
1789214280013223200,8.76722314453125,-0.15451714396476746,0.2035699039697647,-1.2402063608169556
1789214280023255000,8.777255126953126,-0.0760984942317009,-0.0003499393642414361,-1.1541261672973633
1789214280033287200,8.787287109375,-0.07443562150001526,-0.1618615984916687,-0.971624493598938
1789214280043319300,8.7973193359375,-0.14852209389209747,-0.2054746001958847,-0.8917152881622314
1789214280053351200,8.80735107421875,-0.23447588086128235,-0.08844677358865738,-1.0385254621505737
1789214280063383300,8.81738330078125,-0.2630758285522461,0.26014822721481323,-1.320708990097046
1789214280073415200,8.827415283203125,-0.2530096173286438,0.6074971556663513,-1.6125363111495972
1789214280083447300,8.837447265625,-0.2493312656879425,0.7577526569366455,-1.768945336341858
1789214280093479200,8.847479248046875,-0.18968844413757324,0.587724506855011,-1.7006895542144775
1789214280103511300,8.85751123046875,-0.1435299962759018,0.40981975197792053,-1.316665530204773
1789214280113543200,8.867543212890626,-0.23843175172805786,0.32406488060951233,-0.8213422894477844
1789214280123575300,8.8775751953125,-0.45087930560112,0.2671981453895569,-0.499262273311615
1789214280133607200,8.887607177734376,-0.7027099132537842,0.39242663979530334,-0.3682326078414917
1789214280143639300,8.897639404296875,-0.8621938824653625,0.5731239914894104,-0.38636767864227295
1789214280153670400,8.90767041015625,-0.9304416179656982,0.54572993516922,-0.5333797335624695
1789214280163702300,8.917702392578125,-0.9361527562141418,0.35635465383529663,-0.7735582590103149
1789214280173734100,8.927734130859376,-0.8250225186347961,0.03555213660001755,-1.0439503192901611
1789214280183766000,8.93776611328125,-0.7528607249259949,-0.12738725543022156,-1.3212789297103882
1789214280193798400,8.94779833984375,-0.7509704232215881,-0.16403287649154663,-1.5014725923538208
1789214280203830300,8.957830322265625,-0.8121245503425598,-0.27443447709083557,-1.5645368099212646
1789214280213861400,8.967861328125,-0.9115912318229675,-0.3523918688297272,-1.5611906051635742
1789214280223893500,8.9778935546875,-0.9733930826187134,-0.35448911786079407,-1.5639839172363281
1789214280233925400,8.98792529296875,-0.9942427277565002,-0.25204795598983765,-1.625412940979004
1789214280243957200,8.997957275390625,-0.9554361701011658,-0.2245098054409027,-1.7390114068984985
1789214280253989400,9.0079892578125,-0.9206153750419617,-0.31828954815864563,-1.8324912786483765
1789214280264021500,9.018021484375,-0.8799763321876526,-0.4304371476173401,-1.8980554342269897
1789214280274053400,9.028053466796875,-0.8488095998764038,-0.5890440940856934,-1.9723477363586426
1789214280284085200,9.038085205078126,-0.861708402633667,-0.7922413945198059,-1.959311604499817
1789214280294117400,9.048117431640625,-0.9080713391304016,-0.6819444894790649,-1.7722258567810059
1789214280304149500,9.0581494140625,-1.03579580783844,0.04133385792374611,-1.427044153213501
1789214280314181400,9.068181396484375,-1.0794891119003296,0.6616522669792175,-1.1147198677062988
1789214280324213200,9.078213134765624,-1.002169132232666,0.6291283965110779,-0.9749252200126648
1789214280334245400,9.088245361328125,-0.7986401915550232,0.11824275553226471,-0.9527762532234192
1789214280344277500,9.098277587890625,-0.7006872892379761,-0.27717167139053345,-0.8353409767150879
1789214280354309400,9.108309326171875,-0.7290816307067871,-0.07268219441175461,-0.4723992347717285
1789214280364341200,9.11834130859375,-0.7681613564491272,0.5226594805717468,-0.1950238198041916
1789214280374373400,9.128373291015626,-0.71504145860672,0.6692638397216797,-0.05068261921405792
1789214280384405200,9.1384052734375,-0.5326969027519226,0.47219496965408325,0.03774045407772064
1789214280394437400,9.148437255859376,-0.2807784080505371,0.29955554008483887,0.18652060627937317
1789214280404469200,9.15846923828125,-0.10414477437734604,0.22683501243591309,0.600425124168396
1789214280414501400,9.16850146484375,-0.0642402395606041,0.2777591645717621,0.9372486472129822
1789214280424533200,9.178533203125,0.0630498081445694,0.5573706030845642,1.2303175926208496
1789214280434565400,9.1885654296875,0.3434114158153534,0.8007206320762634,1.3064017295837402
1789214280444596200,9.19859619140625,0.549851655960083,0.6665199995040894,1.3287158012390137
1789214280454628400,9.20862841796875,0.6926138997077942,0.5835840702056885,1.4056001901626587
1789214280464660500,9.218660400390625,0.7945607900619507,0.6287249326705933,1.4791345596313477
1789214280474692400,9.2286923828125,0.9209850430488586,0.7863385081291199,1.476578950881958
1789214280484724200,9.23872412109375,1.0295900106430054,0.5902531743049622,1.4419595003128052
1789214280494756400,9.24875634765625,1.1573504209518433,0.2604542374610901,1.5296014547348022
1789214280504788500,9.25878857421875,1.3757117986679077,0.16214017570018768,1.6580313444137573
1789214280514820400,9.2688203125,1.6240571737289429,0.2000281661748886,1.707448124885559
1789214280524852200,9.278852294921874,1.8116563558578491,0.2121620625257492,1.6534125804901123
1789214280534884400,9.28888427734375,1.9198251962661743,0.06189985200762749,1.647297739982605
1789214280544916500,9.29891650390625,1.9642906188964844,-0.09421251714229584,1.6745193004608154
1789214280554948400,9.3089482421875,1.961013913154602,-0.05967984348535538,1.6795179843902588
1789214280564980200,9.318980224609374,1.9182651042938232,-0.0008820389630272985,1.6758664846420288
1789214280575012400,9.329012451171875,1.8353747129440308,-0.0010926949325948954,1.6476178169250488
1789214280585044500,9.33904443359375,1.7205016613006592,-0.006179865449666977,1.5734184980392456
1789214280595076400,9.349076416015626,1.6092283725738525,-0.07898110151290894,1.5075854063034058
1789214280605108200,9.359108154296875,1.551889419555664,-0.1997557282447815,1.4073584079742432
1789214280615140400,9.369140380859376,1.5076637268066406,-0.4904506802558899,1.2938337326049805
1789214280625172500,9.37917236328125,1.4956040382385254,-0.7650622725486755,1.2422103881835938
1789214280635204400,9.389204345703124,1.493681788444519,-0.9961791038513184,1.1831377744674683
1789214280645236200,9.399236328125,1.5084559917449951,-1.1562957763671875,1.0834746360778809
1789214280655268400,9.409268310546874,1.4161641597747803,-1.2656302452087402,1.0674452781677246
1789214280665300500,9.419300537109375,1.1855988502502441,-1.0067611932754517,1.1468442678451538
1789214280675331300,9.429331298828124,0.8653134703636169,-0.6752090454101562,1.1691831350326538
1789214280685363200,9.43936328125,0.5493712425231934,-0.4599417746067047,1.0933527946472168
1789214280695395300,9.449395263671875,0.38235002756118774,-0.5162186026573181,1.0101348161697388
1789214280705427500,9.459427490234376,0.29945436120033264,-0.6689178943634033,0.9732098579406738
1789214280715459300,9.469459228515625,0.26009124517440796,-0.5219295024871826,0.9902277588844299
1789214280725491200,9.4794912109375,0.17704534530639648,-0.28711459040641785,0.936651885509491
1789214280735523600,9.489523681640625,0.12197171151638031,-0.1116759330034256,0.7927919030189514
1789214280745555500,9.499555419921874,0.03223783150315285,0.10913367569446564,0.6277411580085754
1789214280755587300,9.50958740234375,-0.13261529803276062,0.2302103042602539,0.4607899785041809
1789214280765619200,9.519619140625,-0.3322266936302185,0.30362993478775024,0.3198094367980957
1789214280775651300,9.5296513671875,-0.3557807505130768,0.4513722360134125,0.2729969024658203
1789214280785683500,9.539683349609374,-0.27256229519844055,0.5339670181274414,0.23097196221351624
1789214280795715300,9.54971533203125,-0.16815465688705444,0.3332362771034241,0.1488850861787796
1789214280805747200,9.559747314453125,-0.1320781409740448,-0.04140176996588707,-0.02707502618432045
1789214280815779300,9.569779296875,-0.21084192395210266,-0.22805580496788025,-0.2094554901123047
1789214280825811500,9.5798115234375,-0.30823320150375366,-0.18444068729877472,-0.3593080937862396
1789214280835843300,9.58984326171875,-0.4006773829460144,-0.10529286414384842,-0.5334758758544922
1789214280845875200,9.599875244140625,-0.5067793130874634,-0.04277516156435013,-0.7272940874099731
1789214280855907300,9.6099072265625,-0.5716168880462646,0.1178925484418869,-0.8950508832931519
1789214280865939500,9.619939453125,-0.5378192663192749,0.1448296159505844,-1.0688143968582153
1789214280875971300,9.629971435546874,-0.47284796833992004,-0.17748743295669556,-1.2893071174621582
1789214280886003200,9.640003173828125,-0.5024258494377136,-0.16327813267707825,-1.376598834991455
1789214280896034300,9.650034423828124,-0.5476636290550232,0.388752281665802,-1.2409007549285889
1789214280906066400,9.66006640625,-0.6300042867660522,0.8295451402664185,-1.1672163009643555
1789214280916098300,9.670098388671875,-0.6994542479515076,0.7852191925048828,-1.3050975799560547
1789214280926130200,9.680130126953125,-0.6613827347755432,0.4147881269454956,-1.4628381729125977
1789214280936162300,9.690162353515625,-0.5241577625274658,-0.0604068860411644,-1.4804128408432007
1789214280946194400,9.7001943359375,-0.43572643399238586,-0.4131167232990265,-1.4117730855941772
1789214280956226300,9.710226318359375,-0.42819395661354065,-0.4786651134490967,-1.3746699094772339
1789214280966258200,9.720258056640626,-0.4438413679599762,-0.3445294201374054,-1.336983561515808
1789214280976290600,9.73029052734375,-0.36597850918769836,-0.1990332007408142,-1.1944408416748047
1789214280986322400,9.740322509765624,-0.2708730399608612,-0.16316469013690948,-0.8624010682106018
1789214280996354300,9.750354248046875,-0.3269123435020447,0.13552294671535492,-0.46307843923568726
1789214281006386200,9.76038623046875,-0.5676972270011902,0.6906269192695618,-0.21983702480793
1789214281016418600,9.77041845703125,-0.8942878842353821,1.2805516719818115,-0.24374288320541382
1789214281026450400,9.780450439453125,-1.048050045967102,1.4157929420471191,-0.5541433691978455
1789214281036482300,9.790482421875,-0.999788224697113,0.8933523297309875,-0.9128490686416626
1789214281046514200,9.80051416015625,-0.986713707447052,-0.11576654762029648,-1.2702463865280151
1789214281056546600,9.810546630859376,-0.9416990876197815,-0.642575204372406,-1.452884554862976
1789214281066578400,9.820578369140625,-0.9275659322738647,-0.723642885684967,-1.4707660675048828
1789214281076610300,9.8306103515625,-1.1122406721115112,-0.5037561058998108,-1.3208245038986206
1789214281086642200,9.84064208984375,-1.4009572267532349,-0.09158691018819809,-1.0783003568649292
1789214281096674600,9.850674560546874,-1.5494409799575806,0.16839833557605743,-0.9620139598846436
1789214281106705400,9.860705322265625,-1.4536185264587402,-0.15046647191047668,-1.140407919883728
1789214281116737300,9.8707373046875,-1.2374516725540161,-0.737461268901825,-1.4899059534072876
1789214281126769400,9.880769287109375,-1.058377981185913,-0.9082756042480469,-1.740238070487976
1789214281136801300,9.89080126953125,-1.0151340961456299,-0.660129964351654,-1.8260136842727661
1789214281146833400,9.90083349609375,-1.1317590475082397,-0.367159366607666,-1.8334468603134155
1789214281156865300,9.910865234375,-1.3775309324264526,-0.24197721481323242,-1.7629351615905762
1789214281166897400,9.9208974609375,-1.5233020782470703,-0.07191626727581024,-1.5736615657806396
1789214281176929300,9.93092919921875,-1.5644664764404297,0.3209359347820282,-1.368209958076477
1789214281186961400,9.94096142578125,-1.5665006637573242,0.6644349694252014,-1.1752958297729492
1789214281196993300,9.9509931640625,-1.4460349082946777,0.5365006923675537,-0.8289405703544617
1789214281207029200,9.961029296875,-1.1998406648635864,0.11676470190286636,-0.4139612317085266
1789214281217061600,9.9710615234375,-0.9333167672157288,0.036443229764699936,-0.3787100315093994
1789214281227093500,9.981093505859375,-0.7281537652015686,0.3231804668903351,-0.47539156675338745
1789214281237125400,9.99112548828125,-0.6480847597122192,0.3228587508201599,-0.19909605383872986
1789214281247157200,10.0011572265625,-0.6175833344459534,0.4394410252571106,0.2578701674938202
1789214281257189600,10.011189697265625,-0.553585946559906,0.5772407054901123,0.6122562289237976
1789214281267221500,10.021221435546876,-0.4149114489555359,0.5106523633003235,0.5384466648101807
1789214281277253400,10.03125341796875,-0.07862849533557892,0.2624553143978119,0.3631180226802826
1789214281287285200,10.04128515625,0.19157075881958008,0.0692102313041687,0.5899061560630798
1789214281297317600,10.051317626953125,0.3165276050567627,0.17061248421669006,1.006890892982483
1789214281307349500,10.061349609375,0.44960737228393555,0.5244011878967285,1.2807655334472656
1789214281317380400,10.07138037109375,0.6995794177055359,0.790291965007782,1.314583420753479
1789214281327412500,10.08141259765625,1.0337810516357422,0.729845404624939,1.313981056213379
1789214281337444600,10.091444580078125,1.317044973373413,0.5846458673477173,1.288418173789978
1789214281347476500,10.1014765625,1.5043363571166992,0.38107144832611084,1.3227510452270508
1789214281357508400,10.11150830078125,1.6032743453979492,0.24149838089942932,1.416788101196289
1789214281367540500,10.12154052734375,1.6566978693008423,0.09277015179395676,1.553162693977356
1789214281377572600,10.131572509765626,1.7169394493103027,0.20955349504947662,1.5805538892745972
1789214281387604500,10.1416044921875,1.79231858253479,0.47683846950531006,1.521864414215088
1789214281397636400,10.15163623046875,1.8428962230682373,0.5766183137893677,1.5420397520065308
1789214281407668500,10.16166845703125,1.8715766668319702,0.4975743591785431,1.5578160285949707
1789214281417700600,10.17170068359375,1.8879928588867188,0.40856698155403137,1.4845378398895264
1789214281427732500,10.181732421875,1.8841052055358887,0.32181239128112793,1.4603822231292725
1789214281437764400,10.191764404296874,1.8281139135360718,0.2944478690624237,1.4756748676300049
1789214281447796200,10.201796142578125,1.7735356092453003,0.2817901372909546,1.4986661672592163
1789214281457828600,10.21182861328125,1.725154995918274,0.10113274306058884,1.520781397819519
1789214281467860500,10.221860595703125,1.6764857769012451,-0.20070886611938477,1.5161287784576416
1789214281477892400,10.231892333984375,1.615930199623108,-0.44880470633506775,1.4325417280197144
1789214281487924200,10.24192431640625,1.56794011592865,-0.5843454599380493,1.368007779121399
1789214281497956600,10.25195654296875,1.5188441276550293,-0.7280278205871582,1.4026752710342407
1789214281507987500,10.261987548828126,1.436818242073059,-0.8705348968505859,1.4291036128997803
1789214281518019300,10.272019287109375,1.2839384078979492,-1.0518900156021118,1.3098711967468262
1789214281528051500,10.282051513671876,1.070193886756897,-1.0380959510803223,1.1543575525283813
1789214281538083300,10.292083251953125,0.8180034756660461,-0.9113523364067078,1.0523481369018555
1789214281548115500,10.302115478515624,0.5426299571990967,-0.821744441986084,1.0330710411071777
1789214281558147300,10.312147216796875,0.38077718019485474,-0.7549949884414673,1.0733226537704468
1789214281568179500,10.322179443359374,0.3621661961078644,-0.692180871963501,1.1093932390213013
1789214281578211600,10.332211669921875,0.3413887619972229,-0.5906688570976257,1.124555230140686
1789214281588243500,10.342243408203124,0.2762739360332489,-0.4313274323940277,1.105381727218628
1789214281598275300,10.352275390625,0.19530238211154938,-0.27196547389030457,1.0271282196044922
1789214281608307500,10.362307373046875,0.1009678915143013,0.027155455201864243,0.9451140761375427
1789214281618339600,10.372339599609376,0.024815334007143974,0.13372184336185455,0.7699201107025146
1789214281628371500,10.382371337890625,0.02522333152592182,-0.05360889807343483,0.4717009663581848
1789214281638403300,10.3924033203125,0.1209743544459343,-0.16798953711986542,0.1960403472185135
1789214281648435500,10.402435546875,0.06439390033483505,-0.05308319255709648,0.03864113613963127
1789214281658467600,10.412467529296874,-0.1503775268793106,0.08930138498544693,0.0015017564874142408
1789214281668499500,10.42249951171875,-0.2909383773803711,0.0600564144551754,-0.07604869455099106
1789214281678530600,10.432530517578124,-0.3136010766029358,-0.005065598525106907,-0.24141740798950195
1789214281688562400,10.4425625,-0.3918900191783905,-0.027183683589100838,-0.41285547614097595
1789214281698594300,10.45259423828125,-0.45504555106163025,0.02906068041920662,-0.6264061331748962
1789214281708626400,10.46262646484375,-0.4827762544155121,0.2206743210554123,-0.8536885380744934
1789214281718658600,10.472658447265625,-0.47241681814193726,0.5614414811134338,-0.9903553128242493
1789214281728690400,10.4826904296875,-0.39423757791519165,0.7337576150894165,-0.9970614314079285
1789214281738722300,10.492722412109375,-0.2888203561306,0.5701321959495544,-0.9599294662475586
1789214281748754400,10.50275439453125,-0.21426914632320404,0.2791650593280792,-0.9691056609153748
1789214281758786600,10.51278662109375,-0.19782866537570953,0.2978258430957794,-0.9623225927352905
1789214281768818400,10.522818359375,-0.2577609717845917,0.5622268319129944,-0.9735089540481567
1789214281778850300,10.532850341796875,-0.32357460260391235,0.7056162357330322,-1.063511848449707
1789214281788882400,10.54288232421875,-0.3387144207954407,0.4222140908241272,-1.221778392791748
1789214281798914600,10.55291455078125,-0.293977826833725,-0.1787756085395813,-1.3553905487060547
1789214281808946400,10.562946533203124,-0.25889626145362854,-0.7077321410179138,-1.457295536994934
1789214281818978600,10.572978515625,-0.28611457347869873,-0.8607105016708374,-1.4507793188095093
1789214281829010400,10.583010498046875,-0.364699125289917,-0.6150714159011841,-1.3249967098236084
1789214281839042300,10.593042236328126,-0.40289101004600525,-0.16543103754520416,-1.126071572303772
1789214281849073400,10.603073486328125,-0.40334612131118774,0.24276204407215118,-0.9246676564216614
1789214281859105300,10.613105224609376,-0.4769657552242279,0.6061727404594421,-0.7853832244873047
1789214281869137400,10.623137451171875,-0.6193047761917114,1.0406097173690796,-0.7973592281341553
1789214281879169500,10.63316943359375,-0.8144314289093018,1.3388302326202393,-0.9544710516929626
1789214281889201400,10.643201416015625,-1.0743026733398438,1.3573790788650513,-1.1913411617279053
1789214281899233300,10.6532333984375,-1.2390841245651245,1.0008788108825684,-1.294013500213623
1789214281909265400,10.663265380859375,-1.2802797555923462,0.3442053198814392,-1.304796814918518
1789214281919297500,10.673297607421874,-1.2721850872039795,-0.15304067730903625,-1.3631643056869507
1789214281929329400,10.683329345703125,-1.2397321462631226,-0.20716330409049988,-1.4886889457702637
1789214281939361300,10.693361328125,-1.1730332374572754,0.01828606240451336,-1.5912402868270874
1789214281949393400,10.703393310546875,-1.0475168228149414,0.10442867130041122,-1.5430331230163574
1789214281959425500,10.713425537109375,-1.0160516500473022,-0.2275436818599701,-1.3557276725769043
1789214281969457400,10.72345751953125,-1.0388280153274536,-0.507783055305481,-1.1973958015441895
1789214281979489300,10.7334892578125,-1.064884901046753,-0.3003305196762085,-1.2401504516601562
1789214281989521400,10.743521484375,-1.1991777420043945,0.20942646265029907,-1.3821851015090942
1789214281999553500,10.753553466796875,-1.3704783916473389,0.3784298598766327,-1.4827420711517334
1789214282009584400,10.76358447265625,-1.5061651468276978,0.13385367393493652,-1.4978837966918945
1789214282019616300,10.7736162109375,-1.5032808780670166,-0.4124818444252014,-1.485391616821289
1789214282029648600,10.783648681640624,-1.3928742408752441,-0.8773406147956848,-1.4388395547866821
1789214282039680500,10.793680419921875,-1.2679277658462524,-0.8703942894935608,-1.3119196891784668
1789214282049712400,10.80371240234375,-1.180825114250183,-0.40806472301483154,-1.1591304540634155
1789214282059744300,10.813744140625,-1.1675442457199097,0.16214336454868317,-0.9877680540084839
1789214282069776600,10.823776611328125,-1.1854076385498047,0.3644796907901764,-0.7263833284378052
1789214282079808500,10.83380859375,-1.0549845695495605,0.16444779932498932,-0.5974623560905457
1789214282089840400,10.84384033203125,-0.8564398288726807,-0.10789317637681961,-0.6062547564506531
1789214282099872300,10.853872314453126,-0.7680090665817261,-0.14508076012134552,-0.48250433802604675
1789214282109904600,10.863904541015625,-0.799927294254303,0.13047438859939575,-0.06700566411018372
1789214282119936500,10.8739365234375,-0.7304009795188904,0.3504890501499176,0.5131890177726746
1789214282129968400,10.883968505859375,-0.5774473547935486,0.5118675231933594,0.6889392733573914
1789214282140000300,10.894000244140624,-0.35634052753448486,0.39148202538490295,0.5934944748878479
1789214282150032600,10.90403271484375,-0.12786608934402466,0.34992632269859314,0.8097405433654785
1789214282160064500,10.914064453125,0.1167612373828888,0.4865131974220276,1.1189297437667847
1789214282170096400,10.924096435546875,0.3799539804458618,0.7440767884254456,1.2943460941314697
1789214282180127500,10.93412744140625,0.694209098815918,0.8999588489532471,1.3476390838623047
1789214282190159400,10.944159423828125,0.9904261231422424,0.8400313258171082,1.3711881637573242
1789214282200191500,10.95419140625,1.2095614671707153,0.7045912146568298,1.421628713607788
1789214282210219800,10.9642197265625,1.387935996055603,0.6698832511901855,1.446465015411377
1789214282220252200,10.974252197265624,1.4954783916473389,0.744644045829773,1.3470228910446167
1789214282230284000,10.984283935546875,1.564274787902832,0.7138384580612183,1.3230656385421753
1789214282240316000,10.99431591796875,1.6540110111236572,0.8075141310691833,1.35807204246521
1789214282250347800,11.00434765625,1.7651735544204712,0.8405618071556091,1.3110052347183228
1789214282260380000,11.0143798828125,1.8256200551986694,0.525193452835083,1.2175897359848022
1789214282270412000,11.024412109375,1.8414530754089355,0.15969112515449524,1.178012490272522
1789214282280444000,11.03444384765625,1.8772060871124268,0.08145225048065186,1.2049431800842285
1789214282290475800,11.044475830078126,1.9420145750045776,0.3112258017063141,1.1773382425308228
1789214282300508000,11.0545078125,1.9679564237594604,0.2507360875606537,1.1034579277038574
1789214282310540000,11.0645400390625,1.9733000993728638,-0.2823512554168701,1.143328070640564
1789214282320572000,11.074572021484375,1.9859181642532349,-0.9057296514511108,1.2496720552444458
1789214282330603000,11.08460302734375,1.9862112998962402,-1.190167784690857,1.2953530550003052
1789214282340635000,11.094634765625,1.9241786003112793,-1.1392273902893066,1.2474422454833984
1789214282350667000,11.1046669921875,1.7759708166122437,-0.9898282885551453,1.2747186422348022
1789214282360699000,11.114698974609375,1.5711363554000854,-0.8756822347640991,1.351883888244629
1789214282370730800,11.124730712890624,1.3530619144439697,-0.9305907487869263,1.3565322160720825
1789214282380763000,11.134762939453125,1.1839444637298584,-1.1222598552703857,1.258087158203125
1789214282390795000,11.144794921875,1.0647329092025757,-1.1825149059295654,1.161420226097107
1789214282400827000,11.154826904296876,0.9150174260139465,-1.1050105094909668,1.1518099308013916
1789214282410858800,11.164858642578125,0.758450448513031,-1.03468656539917,1.155746340751648
1789214282420891100,11.17489111328125,0.611560046672821,-0.891295313835144,1.1862108707427979
1789214282430923000,11.184923095703125,0.4864279627799988,-0.6670198440551758,1.2787532806396484
1789214282440955000,11.194954833984376,0.3124540448188782,-0.4136198163032532,1.314048171043396
1789214282450986800,11.20498681640625,0.11386744678020477,-0.17446501553058624,1.2830196619033813
1789214282461019100,11.21501904296875,-0.04466467350721359,0.12008512765169144,1.1922264099121094
1789214282471050000,11.225050048828125,-0.14829812943935394,0.21366141736507416,1.0212717056274414
1789214282481081900,11.235081787109374,-0.16466937959194183,0.21419404447078705,0.790876030921936
1789214282491114000,11.245114013671875,-0.04662502557039261,0.11000107228755951,0.5432949662208557
1789214282501145900,11.255145751953124,0.030166691169142723,-0.0008751147543080151,0.29599571228027344
1789214282511178000,11.265177978515625,-0.1371554583311081,-0.01152616087347269,0.09138557314872742
1789214282521209900,11.2752099609375,-0.3408941924571991,0.16985908150672913,-0.050927627831697464
1789214282531242000,11.285241943359376,-0.4121694564819336,0.2776001989841461,-0.17994126677513123
1789214282541273900,11.29527392578125,-0.38979223370552063,0.06662989407777786,-0.35268455743789673
1789214282551306000,11.305305908203126,-0.4393693804740906,-0.0852978527545929,-0.5481842756271362
1789214282561337900,11.315337890625,-0.5275959372520447,-0.006056561134755611,-0.7815037965774536
1789214282571370000,11.325369873046874,-0.6039687395095825,0.1956866830587387,-1.00889253616333
1789214282581401900,11.33540185546875,-0.6039753556251526,0.35497885942459106,-1.1883573532104492
1789214282591434000,11.34543408203125,-0.5756489038467407,0.3275810480117798,-1.2427688837051392
1789214282601465900,11.3554658203125,-0.573001503944397,0.18757468461990356,-1.2116069793701172
1789214282611497000,11.3654970703125,-0.5746944546699524,0.16464300453662872,-1.2417657375335693
1789214282621528800,11.37552880859375,-0.5343723297119141,0.26397305727005005,-1.3668665885925293
1789214282631561000,11.38556103515625,-0.48050323128700256,0.3357239365577698,-1.5229982137680054
1789214282641593000,11.395593017578125,-0.40189123153686523,0.2586435377597809,-1.5873560905456543
1789214282651625000,11.405625,-0.30677032470703125,-0.0697721540927887,-1.5076607465744019
1789214282661656800,11.41565673828125,-0.2745543420314789,-0.3853684663772583,-1.3890798091888428
1789214282671689000,11.42568896484375,-0.3016493320465088,-0.5012977123260498,-1.2990833520889282
1789214282681721000,11.43572119140625,-0.38752028346061707,-0.29218044877052307,-1.2613897323608398
1789214282691753000,11.4457529296875,-0.4065845310688019,0.12838487327098846,-1.2700167894363403
1789214282701784800,11.455784912109374,-0.35793444514274597,0.3546361029148102,-1.1632472276687622
1789214282711817000,11.46581689453125,-0.3755914568901062,0.21385130286216736,-0.9884434342384338
1789214282721849000,11.47584912109375,-0.47510820627212524,0.045229796320199966,-0.9229405522346497
1789214282731881000,11.485880859375,-0.7092440128326416,0.28777211904525757,-0.9248178601264954
1789214282741911800,11.495911865234374,-0.9590349197387695,0.8151733875274658,-0.9457598924636841
1789214282751944000,11.50594384765625,-1.1417640447616577,0.9102117419242859,-1.0342910289764404
1789214282761976000,11.51597607421875,-1.2395004034042358,0.28946030139923096,-1.0921818017959595
1789214282772008000,11.526008056640626,-1.1201375722885132,-0.41647496819496155,-1.0706807374954224
1789214282782039800,11.536039794921875,-0.9640853404998779,-0.7504777312278748,-1.2148696184158325
1789214282792072000,11.546072021484376,-0.972365140914917,-0.5748768448829651,-1.4879558086395264
1789214282802104000,11.55610400390625,-1.0934287309646606,-0.10641884803771973,-1.6663414239883423
1789214282812136000,11.566135986328124,-1.1396355628967285,0.1609681099653244,-1.6725202798843384
1789214282822167800,11.576167724609375,-1.2794605493545532,0.0742822214961052,-1.5482633113861084
1789214282832200000,11.586199951171874,-1.3509215116500854,-0.22543498873710632,-1.4741467237472534
1789214282842232000,11.596232177734375,-1.2074649333953857,-0.4372316598892212,-1.561655044555664
1789214282852264000,11.606263916015624,-1.0499978065490723,-0.47323545813560486,-1.7494022846221924
1789214282862295800,11.6162958984375,-1.0211302042007446,-0.31283220648765564,-1.8549686670303345
1789214282872328000,11.626327880859375,-1.0752267837524414,-0.18004433810710907,-1.7606743574142456
1789214282882359000,11.636359130859375,-1.1339284181594849,-0.1847623884677887,-1.5185048580169678
1789214282892391000,11.646390869140625,-1.242470383644104,0.06047745794057846,-1.257257342338562
1789214282902422800,11.6564228515625,-1.4229050874710083,0.3866100311279297,-1.0096073150634766
1789214282912455000,11.666454833984375,-1.5163602828979492,0.4683360457420349,-0.7674028873443604
1789214282922487000,11.676487060546876,-1.4158037900924683,0.38750219345092773,-0.5426470041275024
1789214282932519000,11.686518798828125,-1.1633473634719849,0.21785855293273926,-0.29048481583595276
1789214282942550800,11.69655078125,-0.9309383034706116,0.017055949196219444,-0.12389611452817917
1789214282952583000,11.7065830078125,-0.7833885550498962,0.014112623408436775,0.01901843212544918
1789214282962615000,11.716614990234374,-0.6672137379646301,0.21843566000461578,0.344814658164978
1789214282972647000,11.72664697265625,-0.5672469139099121,0.47467172145843506,0.6305984854698181
1789214282982678800,11.7366787109375,-0.4432471990585327,0.4803024232387543,0.6422585844993591
1789214282992711000,11.7467109375,-0.2004406899213791,0.24721725285053253,0.6767390370368958
1789214283002743000,11.756742919921875,0.026098977774381638,0.060207948088645935,0.9404156804084778
1789214283012774000,11.76677392578125,0.189539834856987,0.1959652453660965,1.2948830127716064
1789214283022806000,11.776805908203125,0.35112980008125305,0.5916121602058411,1.4818626642227173
1789214283032838000,11.786837890625,0.5282095074653625,0.8551636338233948,1.504577398300171
1789214283042870000,11.7968701171875,0.7386655211448669,0.9061727523803711,1.5403563976287842
1789214283052902000,11.80690185546875,0.9977540969848633,0.9296432137489319,1.5727026462554932
1789214283062934000,11.81693408203125,1.2499713897705078,0.8724819421768188,1.544254183769226
1789214283072966000,11.8269658203125,1.3934532403945923,0.6699122786521912,1.5634536743164062
1789214283082998000,11.836998046875,1.4743726253509521,0.5769996643066406,1.666216254234314
1789214283093030000,11.84702978515625,1.567491054534912,0.7078170776367188,1.7289502620697021
1789214283103062000,11.85706201171875,1.6694387197494507,0.8369532227516174,1.6589066982269287
1789214283113094000,11.867093994140625,1.772979736328125,0.755459725856781,1.4948680400848389
1789214283123126000,11.8771259765625,1.835224986076355,0.542306661605835,1.366673231124878
1789214283133157000,11.8871572265625,1.9003835916519165,0.48559945821762085,1.3086936473846436
1789214283143189000,11.89718896484375,1.9458138942718506,0.49262967705726624,1.2696455717086792
1789214283153220900,11.907220947265625,1.9585882425308228,0.2524314522743225,1.1710026264190674
1789214283163252700,11.917252685546876,1.943766474723816,-0.22335559129714966,1.1026099920272827
1789214283173285000,11.92728515625,1.9623966217041016,-0.6661681532859802,1.1343878507614136
1789214283183317000,11.93731689453125,2.038350820541382,-0.9663090705871582,1.1356302499771118
1789214283193348900,11.947348876953125,2.066941738128662,-1.021902322769165,1.157586693763733
1789214283203380700,11.957380615234374,1.9790834188461304,-0.9021940231323242,1.2206406593322754
1789214283213412900,11.967412841796875,1.7775132656097412,-0.7682023644447327,1.2460435628890991
1789214283223444700,11.97744482421875,1.4754855632781982,-0.7686375379562378,1.204304575920105
1789214283233476600,11.9874765625,1.1620514392852783,-0.9164842963218689,1.1567327976226807
1789214283243508500,11.997508544921875,0.9172371625900269,-1.0346215963363647,1.1760289669036865
1789214283253540900,12.007540771484376,0.7222990989685059,-0.977977454662323,1.2535128593444824
1789214283263571700,12.01757177734375,0.5640279650688171,-0.8352363109588623,1.3250377178192139
1789214283273603600,12.027603515625,0.4493061602115631,-0.6917731165885925,1.396252155303955
1789214283283635700,12.0376357421875,0.3893725275993347,-0.6356440782546997,1.4525694847106934
1789214283293667800,12.047667724609376,0.32816776633262634,-0.5923730134963989,1.4186904430389404
1789214283303699700,12.05769970703125,0.25234195590019226,-0.5375475883483887,1.2218137979507446
1789214283313731600,12.067731689453124,0.1721011847257614,-0.3834584355354309,0.9273331761360168
1789214283323763700,12.077763671875,0.03056296892464161,-0.23685941100120544,0.6879099607467651
1789214283333795800,12.0877958984375,-0.08810322731733322,-0.08091029524803162,0.5070109963417053
1789214283343827700,12.09782763671875,-0.128793403506279,-0.03935486450791359,0.4014376997947693
1789214283353859600,12.107859619140624,-0.2777559757232666,-0.07052050530910492,0.2945442795753479
1789214283363890700,12.117890625,-0.501269519329071,0.0036597158759832382,0.1671604961156845
1789214283373922600,12.127922607421874,-0.6021273732185364,0.26205772161483765,0.002132925670593977
1789214283383954700,12.13795458984375,-0.5286723375320435,0.3346421718597412,-0.18195542693138123
1789214283393986800,12.14798681640625,-0.47172731161117554,0.1598929911851883,-0.34667912125587463
1789214283404018700,12.158018798828126,-0.4461287558078766,-0.09139595925807953,-0.5146763920783997
1789214283414050600,12.168050537109375,-0.43710756301879883,-0.1774647980928421,-0.6779451966285706
1789214283424082700,12.178082763671876,-0.45279330015182495,-0.062182147055864334,-0.7894951701164246
1789214283434114800,12.18811474609375,-0.47705844044685364,0.14793966710567474,-0.8517995476722717
1789214283444146700,12.198146728515624,-0.47522059082984924,0.3150538206100464,-0.9153321981430054
1789214283454178600,12.208178466796875,-0.45955002307891846,0.3177414834499359,-0.9858036637306213
1789214283464210700,12.218210693359374,-0.46455249190330505,0.22685924172401428,-1.0404269695281982
1789214283474241800,12.22824169921875,-0.5316774845123291,0.26678189635276794,-1.0485880374908447
1789214283484273700,12.238273681640624,-0.6009020805358887,0.3225063979625702,-1.1304413080215454
1789214283494305500,12.248305419921875,-0.5489723086357117,0.1069437637925148,-1.2817820310592651
1789214283504337700,12.258337646484375,-0.3943060338497162,-0.31395500898361206,-1.4000672101974487
1789214283514369800,12.268369873046876,-0.2532852590084076,-0.6461752653121948,-1.5086008310317993
1789214283524401700,12.278401611328125,-0.25686588883399963,-0.6933518648147583,-1.5561708211898804
1789214283534433500,12.28843359375,-0.42319759726524353,-0.3675724267959595,-1.4566351175308228
1789214283544465700,12.298465576171875,-0.5960918664932251,0.14321282505989075,-1.2441105842590332
1789214283554497800,12.308497802734376,-0.5448137521743774,0.39793112874031067,-0.9588623642921448
1789214283564529700,12.31852978515625,-0.5210639834403992,0.2641126215457916,-0.6221399903297424
1789214283574561500,12.3285615234375,-0.6582790613174438,0.19597403705120087,-0.5206836462020874
1789214283584592600,12.338592529296875,-0.8034756779670715,0.4566594064235687,-0.6033492684364319
1789214283594624800,12.348624755859374,-0.9552345871925354,0.9139460325241089,-0.7590222358703613
1789214283604656600,12.35865673828125,-1.049560308456421,1.1678025722503662,-0.8897860646247864
1789214283614688500,12.3686884765625,-1.043649673461914,0.8627827167510986,-0.8810471892356873
1789214283624720600,12.378720703125,-1.0446406602859497,0.05525926128029823,-0.837361752986908
1789214283634752800,12.388752685546875,-1.0410670042037964,-0.6646754741668701,-1.018546223640442
1789214283644784600,12.39878466796875,-1.0046769380569458,-0.6346014738082886,-1.3608572483062744
1789214283654816500,12.40881640625,-0.9859451055526733,-0.23951804637908936,-1.6149994134902954
1789214283664848600,12.4188486328125,-0.8859527111053467,0.07427476346492767,-1.5890676975250244
1789214283674880800,12.428880859375,-0.9138098955154419,0.041917890310287476,-1.3699476718902588
1789214283684912600,12.43891259765625,-1.0310760736465454,-0.013646570034325123,-1.2325546741485596
1789214283694943700,12.44894384765625,-1.0531255006790161,-0.019642410799860954,-1.3158955574035645
1789214283704975600,12.4589755859375,-1.0716837644577026,-0.14437821507453918,-1.510021686553955
1789214283715007700,12.4690078125,-1.1723426580429077,-0.23151898384094238,-1.6693061590194702
1789214283725039600,12.47903955078125,-1.1919105052947998,-0.420809805393219,-1.7398178577423096
1789214283735071700,12.48907177734375,-1.2380945682525635,-0.5267913937568665,-1.6505918502807617
1789214283745103600,12.499103515625,-1.2857142686843872,-0.4115135073661804,-1.4330848455429077
1789214283755135700,12.5091357421875,-1.2257369756698608,0.06160770356655121,-1.2468760013580322
1789214283765167600,12.519167724609375,-1.2013291120529175,0.6158237457275391,-1.0619146823883057
1789214283775199700,12.52919970703125,-1.2198750972747803,0.6525719165802002,-0.6861421465873718
1789214283785231600,12.539231689453125,-1.171032428741455,0.5995678305625916,-0.39602404832839966
