time,seconds_elapsed,z,y,x
1790096749765576448,0.174576416015625,8.7505521774292,3.986143350601196,1.4676976203918457
1790096749775576576,0.18457641601562502,8.311352822223077,3.755687695079859,1.7964876291372798
1790096749785576448,0.19457641601562503,7.813877619192778,3.4659417271706694,2.128430435985397
1790096749795576576,0.20457641601562504,7.527985235394391,3.3243429270173737,2.2651648494500827
1790096749805576448,0.21457641601562505,7.551346255151512,3.3791353188410738,2.086048496840869
1790096749815576576,0.22457641601562506,7.80809165497105,3.612841071518384,1.6377464027622846
1790096749825576448,0.23457641601562507,8.144689300955038,3.8431857947332517,1.1560156626995877
1790096749835576576,0.24457641601562508,8.418855179792143,3.9181251521741736,0.8337402306932215
1790096749845576448,0.2545764160156251,8.577873064785603,3.8911245565036516,0.6445069554586281
1790096749855576576,0.2645764160156251,8.657049858907557,3.818242988634342,0.5376552327005072
1790096749865576448,0.2745764160156251,8.76695240917863,3.7162930320748626,0.4789752050967942
1790096749875576576,0.2845764160156251,9.052979122863436,3.6638646512094417,0.4589105174792544
1790096749885576448,0.2945764160156251,9.54978055561247,3.7194821336978903,0.4450971242153281
1790096749895576576,0.30457641601562513,9.98107935468349,3.825362616172437,0.41407800730358213
1790096749905576448,0.31457641601562514,10.114710291615735,3.849398127790252,0.40300190903398836
1790096749915576576,0.32457641601562515,9.99576936905912,3.6638311474742706,0.5289710485148857
1790096749925576448,0.33457641601562516,9.712913699670018,3.3525170819866146,0.8113260578967212
1790096749935576576,0.34457641601562516,9.405742929135595,3.126573582005042,1.0695292620585894
1790096749945576448,0.3545764160156252,9.317038009463737,3.1344667248576483,1.1057308946239959
1790096749955576576,0.3645764160156252,9.288152383479758,3.2990931030753634,0.958143504488437
1790096749965576448,0.3745764160156252,9.157055552993562,3.433509880739821,0.7736275209274244
1790096749975576576,0.3845764160156252,9.053767092022305,3.4422709712337496,0.7095063769564177
1790096749985576448,0.3945764160156252,8.927423381091598,3.397710125082803,0.760395259738746
1790096749995576576,0.4045764160156252,8.684041862273395,3.3708787372823563,0.90215077432873
1790096750005576448,0.4145764160156252,8.369194116743072,3.4315178789767686,1.0518211161062188
1790096750015576576,0.42457641601562524,8.124297818598873,3.5668203097821642,1.1502731436909528
1790096750025576448,0.43457641601562524,8.02078437197551,3.7473147390790986,1.1392579315055114
1790096750035576576,0.44457641601562525,8.11213993437085,3.9465171411351805,1.028639342957162
1790096750045576448,0.45457641601562526,8.339607141897904,4.0940130110069335,0.8991313347841507
1790096750055576576,0.46457641601562527,8.476343485387204,4.134638972624622,0.8330729060161167
1790096750065576448,0.4745764160156253,8.443279234988179,4.073679542640303,0.959977183608129
1790096750075576576,0.4845764160156253,8.302630272202084,3.962757279466522,1.2645573188525034
1790096750085576448,0.4945764160156253,8.150047073343504,3.9185181786159418,1.504181854754347
1790096750095576576,0.5045764160156253,8.309384905329614,4.035396533111071,1.3928399600953143
1790096750105576448,0.5145764160156253,8.532917801946658,4.2087783443961735,1.0339525117154047
1790096750115576576,0.5245764160156253,8.551533703753252,4.236534232097374,0.7509091967981937
1790096750125576448,0.5345764160156253,8.378187154124886,4.1894131186822845,0.5994001493451848
1790096750135576576,0.5445764160156253,8.14572646574046,4.1704621144571155,0.527350370438104
1790096750145576448,0.5545764160156254,8.029408116996429,4.237767674150448,0.6077469822132302
1790096750155576576,0.5645764160156254,8.175560527018154,4.359769260771263,0.8565271709837372
1790096750165576448,0.5745764160156254,8.558730283409677,4.528231436352267,1.1415915106714438
1790096750175576576,0.5845764160156254,9.137442811126826,4.637241527567451,1.3257348385820744
1790096750185576448,0.5945764160156254,9.699454750048604,4.647395124969182,1.447384026994034
1790096750195576576,0.6045764160156254,10.086922884938398,4.560171109152341,1.5045073707497079
1790096750205576448,0.6145764160156254,10.283717902148636,4.396305148854881,1.3785690861313094
1790096750215576576,0.6245764160156254,10.145323582016147,4.26410293249362,1.140617900129843
1790096750225576448,0.6345764160156254,9.73185757870173,4.219998112214917,0.9205628536702675
1790096750235576576,0.6445764160156254,9.27887550786837,4.228500509777072,0.7594859113763817
1790096750245576448,0.6545764160156254,8.897844134219067,4.256951732583137,0.6713748328064101
1790096750255576576,0.6645764160156254,8.646738294528811,4.2921111080690375,0.6420131124785688
1790096750265576448,0.6745764160156255,8.561169330001158,4.352951776508968,0.5617977758842932
1790096750275576576,0.6845764160156255,8.625770944280818,4.481918182712918,0.42589457324326857
1790096750285576448,0.6945764160156255,8.740808354594865,4.58625483850036,0.3373286254663467
1790096750295576576,0.7045764160156255,8.806188025979285,4.544010112386319,0.3378741348488484
1790096750305576448,0.7145764160156255,8.808992094204417,4.345222305158531,0.41804367895186767
1790096750315576576,0.7245764160156255,8.711500186964123,4.146863892585292,0.5114778118815773
1790096750325576448,0.7345764160156255,8.53556765518569,4.1251262994805655,0.5526908040556129
1790096750335576576,0.7445764160156255,8.389860079048267,4.25730406187632,0.5614913608999456
1790096750345576448,0.7545764160156255,8.336435616511922,4.421224752082189,0.5931526906874254
1790096750355576576,0.7645764160156255,8.465791915680157,4.524673712003485,0.7340021174270899
1790096750365576448,0.7745764160156255,8.791038284212856,4.523106581211953,0.9814725232414698
1790096750375576576,0.7845764160156256,9.21126551671463,4.446751713805228,1.1935313482211285
1790096750385576448,0.7945764160156256,9.605426980196205,4.351671276422016,1.2739074372031283
1790096750395576576,0.8045764160156256,9.816349875077911,4.23127413611126,1.2153313636100482
1790096750405576448,0.8145764160156256,9.814186605002131,4.104086284941742,1.0733781609883761
1790096750415576576,0.8245764160156256,9.641718743907104,3.990849806401572,0.9416470563355129
1790096750425576448,0.8345764160156256,9.33452360167917,3.943266216200473,0.8867946791362389
1790096750435576576,0.8445764160156256,9.01687589110378,3.9596428768525533,0.9454019086436946
1790096750445576448,0.8545764160156256,8.831657553670077,4.025083802988175,1.037015805862573
1790096750455576576,0.8645764160156256,8.933942939810882,4.0904611664735215,1.1207774930621448
1790096750465576448,0.8745764160156256,9.249402877195287,4.075096293314018,1.2456179107159675
1790096750475576576,0.8845764160156256,9.533959039521644,3.987256733662901,1.3770799158089457
1790096750485576448,0.8945764160156257,9.685548410842708,3.900434463990072,1.476163745911355
1790096750495576576,0.9045764160156257,9.652744704880277,3.825975677133519,1.6109138375621002
1790096750505576448,0.9145764160156257,9.416327019449136,3.768269445031022,1.7082540304510763
1790096750515576576,0.9245764160156257,9.022909606759674,3.8547904669389568,1.729431488099602
1790096750525576448,0.9345764160156257,8.622166318266778,3.9711707828792773,1.7446620125107521
1790096750535576576,0.9445764160156257,8.308111255016371,3.9302367252131436,1.6762357356170932
1790096750545576448,0.9545764160156257,8.07894908044693,3.8631041692763017,1.5262884746135303
1790096750555576576,0.9645764160156257,7.751571634821654,3.830436986309663,1.4404830347963657
1790096750565576448,0.9745764160156257,7.3172359020355024,3.7219675982156737,1.252596356390112
1790096750575576576,0.9845764160156257,7.059052887250871,3.628110450481968,0.9767800980503737
1790096750585576448,0.9945764160156257,7.180936527141058,3.5795050053916326,0.6590200005124496
1790096750595576576,1.0045764160156256,7.584956371318969,3.635959923571483,0.571273092107651
1790096750605576448,1.0145764160156259,8.183301071232835,3.7365556699467977,0.6327677690012294
1790096750615576576,1.0245764160156257,8.60762372358247,3.918888722468352,0.530274492745492
1790096750625576448,1.0345764160156259,8.824468231645788,4.0014548180418865,0.44848909972862394
1790096750635576576,1.0445764160156257,8.890612168597354,4.020203327928854,0.33930481748702046
1790096750645576448,1.054576416015626,8.710837999493865,4.053220988647551,0.15205321994981916
1790096750655576576,1.0645764160156257,8.372489289357356,4.1192524432703825,-0.0009398143287500937
1790096750665576448,1.074576416015626,8.076045354948338,4.215230477408907,-0.009664872422426689
1790096750675576576,1.0845764160156257,7.825836977879994,4.269511885367731,0.09758435284253864
1790096750685576448,1.094576416015626,7.560041970187289,4.2654835086908545,0.29698209425380284
1790096750695576576,1.1045764160156257,7.21699330202192,4.218783649735049,0.557449492311228
1790096750705576448,1.114576416015626,6.900657733614879,4.143976397910774,0.8670895658636365
1790096750715576576,1.1245764160156257,6.8068437574318015,3.900206492328257,1.1995572511191475
1790096750725576448,1.134576416015626,7.057623580099343,3.440785537841352,1.4503027850454397
1790096750735576576,1.1445764160156258,7.557403465531474,2.9317620588297584,1.6053825747157668
1790096750745576448,1.154576416015626,7.977311052187713,2.439668188055282,1.7129558441982426
1790096750755576576,1.1645764160156258,8.109407296316189,1.9191673203986976,1.795613062853823
1790096750765576448,1.174576416015626,7.937010977886993,1.2728389786727488,1.9017112879192382
1790096750775576576,1.1845764160156258,7.865118524948585,0.8598690361533142,1.942065832618591
1790096750785576448,1.194576416015626,8.083933924490049,0.7814717020643073,1.7378125709425016
1790096750795576576,1.2045764160156258,8.31951307372334,0.9223737185095903,1.3765230010995073
1790096750805576448,1.214576416015626,7.786537786268599,0.7951153398921079,1.4398763976309332
1790096750815576576,1.2245764160156258,6.928602474213124,0.3878828162859412,1.7826931180283245
1790096750825576448,1.234576416015626,7.336847295986243,0.5816255849341585,1.068925157760016
1790096750835576576,1.2445764160156259,8.129963666594323,1.4161369121930778,-0.36756092749935365
1790096750845576448,1.254576416015626,7.962269574037065,2.121962304246373,-1.4662023923394978
1790096750855576576,1.2645764160156259,7.357996336992787,2.0441681871120863,-2.1755520600310616
1790096750865576448,1.274576416015626,6.90249635026538,1.256687865788829,-2.5570548800414628
1790096750875576576,1.2845764160156259,6.832915538526426,0.24957819047814034,-2.6835565749978576
1790096750885576448,1.2945764160156261,6.87783145052407,-0.45600809587146357,-2.8371491989844224
1790096750895576576,1.304576416015626,6.9209847328237455,-0.6946817302944839,-2.8827713134714266
1790096750905576448,1.3145764160156261,6.407861423092227,-0.7626824862291232,-2.757057470305978
1790096750915576576,1.324576416015626,5.723287372228935,-0.8018147202287255,-2.5431314603588944
1790096750925576448,1.3345764160156262,5.62924872968702,-0.9085626775753703,-2.2936835236266413
1790096750935576576,1.344576416015626,5.4069572516849345,-1.163831581498152,-2.173051758466026
1790096750945576448,1.3545764160156262,4.602641986705584,-1.5512482314347407,-2.11405873298645
1790096750955576576,1.364576416015626,3.96750008048164,-1.8602148863557684,-1.9881677958259063
1790096750965576448,1.3745764160156262,5.624647865891916,-2.4555899314968723,-1.3527220049269224
1790096750975576576,1.384576416015626,7.230088735015848,-3.691895349579763,-0.6553607102495624
1790096750985576448,1.3945764160156262,7.844456550776278,-4.725957203854973,-0.35666630742388633
1790096750995576576,1.404576416015626,8.494901803301168,-5.135031978881063,-0.3769412529561015
1790096751005576448,1.4145764160156262,8.761426379093397,-5.354505359258932,-0.5323726169666739
1790096751015576576,1.424576416015626,8.884001125597425,-5.760990238335479,-0.570074153562105
1790096751025576448,1.4345764160156262,9.08484792680949,-6.228801793366275,-0.6152931922632773
1790096751035576576,1.444576416015626,9.32477329027405,-6.337935030877169,-1.0117287411973728
1790096751045576448,1.4545764160156263,9.655367214181883,-5.9780972853909455,-1.5665261167206228
1790096751055576576,1.464576416015626,10.005907956248098,-6.008820603108793,-1.8937715698531792
1790096751065576448,1.4745764160156263,10.34501401407776,-6.5605211151598235,-2.0977630901517217
1790096751075576576,1.484576416015626,10.380457303072768,-6.800832358195029,-2.4162156483330395
1790096751085576448,1.4945764160156263,10.00181940919553,-6.8289260545634285,-2.7347970892785884
1790096751095576576,1.504576416015626,9.761000763628758,-7.327925158906756,-3.262842777500328
1790096751105576448,1.5145764160156263,11.854365791049437,-7.592833625205,-4.324797233575914
1790096751115576576,1.524576416015626,20.252275501498637,-6.963560782298631,-6.349463881561195
1790096751125576448,1.5345764160156263,21.992011030756608,-6.45168978575566,-7.293778601826687
1790096751135576576,1.5445764160156261,19.284099371276582,-5.157070465712631,-7.070210780173579
1790096751145576448,1.5545764160156264,15.739872177664827,-3.855743300871102,-6.641886670143984
1790096751155576576,1.5645764160156261,12.951337410073219,-3.699704090657546,-5.913299324789551
1790096751165576448,1.5745764160156264,10.243908213012617,-5.183738039528797,-5.099111863190311
1790096751175576576,1.5845764160156262,7.7320627306404734,-6.929287612572667,-4.89849017611233
1790096751185576448,1.5945764160156264,5.8114014305292585,-7.648756027481064,-5.294091016008697
1790096751195576576,1.6045764160156262,4.2410875334326725,-7.769434819595709,-6.255387216959373
1790096751205576448,1.6145764160156264,3.306480581414333,-7.96693828832035,-7.5390965419694105
1790096751215576576,1.6245764160156262,3.203512452747912,-8.33050327019949,-8.792193392934815
1790096751225576448,1.6345764160156264,2.1993659260560827,-8.681978691417495,-9.409808738775954
1790096751235576576,1.6445764160156262,1.950602089922464,-8.526966892914334,-10.065655866118487
1790096751245576448,1.6545764160156264,3.1568615220977847,-8.114363546622625,-10.59907032361604
1790096751255576576,1.6645764160156262,3.346622656758181,-7.820562967883894,-9.777314091669695
1790096751265576448,1.6745764160156265,2.946301751560429,-7.287915464986455,-8.796212516493139
1790096751275576576,1.6845764160156262,4.147503399571235,-7.116984089048828,-7.801890937209373
1790096751285576448,1.6945764160156265,5.449251930436747,-6.751044304164385,-7.939061877907461
1790096751295576576,1.7045764160156263,6.569399095866732,-6.20740152979305,-9.86954361433319
1790096751305576448,1.7145764160156265,7.472535909318354,-5.488254425100083,-13.030417732302483
1790096751315576576,1.7245764160156263,8.176501531540069,-4.637668453258516,-15.47794234593053
1790096751325576448,1.7345764160156265,9.144190738178512,-3.7219989695830065,-15.798901243719255
1790096751335576576,1.7445764160156263,9.856445201596202,-2.704388632313555,-14.50624582833539
1790096751345576448,1.7545764160156265,9.51539693917696,-1.7684918862764178,-13.20332682827071
1790096751355576576,1.7645764160156263,8.20584842593143,-1.214588443539013,-12.100332483168616
1790096751365576448,1.7745764160156265,6.8837343266328945,-1.1738632741045003,-10.480503579638134
1790096751375576576,1.7845764160156263,6.325243401029049,-1.4808903131750724,-8.47498080754556
1790096751385576448,1.7945764160156266,6.242051425166271,-1.6109608508796536,-7.37579518441883
1790096751395576576,1.8045764160156264,6.030189959208137,-1.5922661949087027,-7.729541693793478
1790096751405576448,1.8145764160156266,5.441921032693579,-1.866256346507746,-8.589439708837016
1790096751415576576,1.8245764160156264,4.709341707330802,-2.4827676766897087,-9.70951772638944
1790096751425576448,1.8345764160156266,4.131098577567395,-2.997984330478956,-10.175455977331325
1790096751435576576,1.8445764160156264,3.40682867015385,-3.024222879123826,-10.344911801762773
1790096751445576448,1.8545764160156266,2.9365122378166078,-3.752484612254037,-9.334210797190641
1790096751455576576,1.8645764160156264,3.3070953152576283,-5.213597396985376,-6.748698388114823
1790096751465576448,1.8745764160156266,3.997600357144326,-4.396042172291021,-5.630663666759191
1790096751475576576,1.8845764160156264,4.343326013761208,-3.3799815232879804,-6.828582500830329
1790096751485576448,1.8945764160156267,4.355885781464197,-4.648513816927685,-6.762970755387507
1790096751495576576,1.9045764160156264,3.6279136991293313,-4.7091441444082065,-6.415101778090006
1790096751505576448,1.9145764160156267,3.9055239912323767,-5.031476029606595,-5.152174621766903
1790096751515576576,1.9245764160156265,4.383264203032202,-5.644802749204893,-3.565876759520763
1790096751525576448,1.9345764160156267,4.433274632743136,-6.751440917172871,-2.305487320530436
1790096751535576576,1.9445764160156265,5.123729382361697,-8.174295983392525,-1.6149917975727304
1790096751545576448,1.9545764160156267,5.485688003181337,-7.957717797129395,-2.028533161271674
1790096751555576576,1.9645764160156265,4.5872354524116865,-7.516991278986282,-3.0796134989350517
1790096751565576448,1.9745764160156267,4.444935335541161,-8.736207204938523,-2.9791946476587894
1790096751575576576,1.9845764160156265,3.8945107259522413,-10.180404034778887,-2.410576997506237
1790096751585576448,1.9945764160156267,3.3609434203823176,-10.78029579630921,-1.6420873310782906
1790096751595576576,2.0045764160156265,3.786163694445942,-11.286155746871877,-0.6719195578327889
1790096751605576448,2.0145764160156268,4.1098356172109005,-11.93175634807164,0.09315774529639152
1790096751615576576,2.0245764160156265,4.2535392302177275,-12.240065453491635,0.20187619588839334
1790096751625576448,2.0345764160156268,4.225926026033145,-12.75542960940409,-1.2744743028684162
1790096751635576576,2.0445764160156266,4.732029260478604,-13.30059836322113,-3.887861463216425
1790096751645576448,2.054576416015627,6.0086107684555605,-13.511235104852055,-6.6994320277387525
1790096751655576576,2.0645764160156266,7.562574901409628,-13.370976021053231,-9.182546025750966
1790096751665576448,2.074576416015627,8.818167605695056,-13.043993759258937,-10.930958613350269
1790096751675576576,2.0845764160156266,9.31449083280331,-12.230081999372748,-11.443033725972667
1790096751685576448,2.094576416015627,8.975826746674308,-10.9270727520871,-10.860011296982101
1790096751695576576,2.1045764160156266,8.218818724348253,-8.965879359613822,-9.993087781027816
1790096751705576448,2.114576416015627,7.062577421249391,-7.061104844351618,-8.915341689295596
1790096751715576576,2.1245764160156266,6.034670513396248,-5.987445587477067,-7.77662438740661
1790096751725576448,2.134576416015627,5.0571150344392795,-5.4824134278156444,-6.621053219607029
1790096751735576576,2.1445764160156267,4.7055370950290865,-5.299951770755771,-5.666058646233815
1790096751745576448,2.154576416015627,4.909556443243466,-4.995266377893379,-4.901132690715253
1790096751755576576,2.1645764160156267,5.339575297312207,-4.622727569838028,-4.083392833785791
1790096751765576448,2.174576416015627,5.974912481506666,-4.6692220171068595,-3.5141802128517265
1790096751775576576,2.1845764160156267,6.450523081058293,-5.914304957264501,-3.522238118514411
1790096751785576448,2.194576416015627,7.191327518330205,-7.062611462553739,-4.119800469293206
1790096751795576576,2.204576416015627,8.467801474304839,-7.205277752084119,-5.359113139103191
1790096751805576448,2.214576416015627,8.865896161721745,-7.56983647784416,-6.279543334124103
1790096751815576576,2.2245764160156267,8.779881801677734,-7.839214548098483,-6.213103616372469
1790096751825576448,2.234576416015627,7.439160775719262,-7.520653019028833,-5.535049984459959
1790096751835576576,2.244576416015627,5.485092868338213,-6.486387094265042,-4.76526167613029
1790096751845576448,2.254576416015627,4.5174921545665025,-5.061136955196809,-4.057316963586484
1790096751855576576,2.2645764160156268,5.834024396211947,-1.2594554091419337,-2.8767283750341535
1790096751865576448,2.274576416015627,7.712236878749463,0.13433142056454964,-2.529335506207338
1790096751875576576,2.284576416015627,9.208023353563128,-0.9606954897666433,-3.0281116993062405
1790096751885576448,2.294576416015627,9.541686730884896,-2.52232574584841,-3.667183201313957
1790096751895576576,2.304576416015627,8.636866677554698,-3.6105518613811025,-4.518946157703925
1790096751905576448,2.314576416015627,8.050297834857204,-4.487544948034307,-5.104691277196177
1790096751915576576,2.3245764160156273,5.501158440005841,2.5492107046751884,-6.316897077094362
1790096751925576448,2.334576416015627,5.5940284266622715,2.352023901118898,-6.388723579560873
1790096751935576576,2.344576416015627,8.223257581978485,-4.8150167782106585,-6.906769150476114
1790096751945576448,2.354576416015627,7.9469330228014785,-4.706823695965406,-9.253741108761146
1790096751955576576,2.3645764160156273,7.658606181062139,-2.7696778548747694,-10.462716117568455
1790096751965576448,2.374576416015627,8.637240154408635,-2.2524304221563045,-10.384370714371132
1790096751975576576,2.384576416015627,9.92112194236764,-1.6451771378513098,-9.73914430690443
1790096751985576448,2.394576416015627,10.449096070877228,-1.9999703121262211,-8.741004790607425
1790096751995576576,2.4045764160156273,9.934325895338631,-3.7607166122158113,-7.478646370139883
1790096752005576448,2.414576416015627,9.126746934195703,-5.742318983422453,-7.035573328585866
1790096752015576576,2.424576416015627,8.373557787304478,-7.6215743117495265,-7.4122263268899236
1790096752025576448,2.434576416015627,8.179646982982055,-8.471654267662048,-7.627828883129387
1790096752035576576,2.4445764160156274,8.487881135176192,-8.728560601447617,-6.840197207855763
1790096752045576448,2.454576416015627,7.811995129238048,-9.597145681275215,-4.252170738732411
1790096752055576576,2.464576416015627,7.437930790664329,-8.104578870470776,-4.0993170212367245
1790096752065576448,2.474576416015627,7.131078772727451,-7.1194869240247645,-4.015319732287004
1790096752075576576,2.4845764160156274,7.524481123913955,-7.152828319722517,-3.0345741697456594
1790096752085576448,2.494576416015627,6.879948352397266,-6.236968126914542,-2.0613361938193098
1790096752095576576,2.504576416015627,7.168739855953262,-5.336226262356952,-2.241909839735923
1790096752105576448,2.514576416015627,6.992054786104029,-4.576543838661029,-2.560217262926061
1790096752115576576,2.5245764160156274,6.378987957575703,-4.412736137358,-2.569877537127034
1790096752125576448,2.534576416015627,5.5693139271856875,-3.899715640328029,-2.7508710331016637
1790096752135576576,2.544576416015627,5.498015915313346,-3.191124216838796,-2.8758173646781584
1790096752145576448,2.5545764160156272,6.595665944743683,-2.067071989903169,-3.1369520663227792
1790096752155576576,2.5645764160156275,7.669344670461778,-1.2063380303152451,-3.3999614067477313
1790096752165576448,2.5745764160156273,7.745371861026717,-0.5285029840016839,-3.634688125932495
1790096752175576576,2.584576416015627,6.775351672702101,-0.08813805087944987,-3.503276110658669
1790096752185576448,2.5945764160156273,5.653838526862446,-0.2526371243167986,-3.1311540892930325
1790096752195576576,2.6045764160156275,5.939726944465379,-1.062811164717647,-2.2728405239776275
1790096752205576448,2.6145764160156273,7.096611735630187,-0.6021678707798053,-2.4209562820502395
1790096752215576576,2.624576416015627,8.719422589278404,0.7643286452425315,-3.308964846113438
1790096752225576448,2.6345764160156273,9.440644330193837,1.3451211836439816,-4.097486925175939
1790096752235576576,2.6445764160156275,9.705088399222042,0.8903232568076537,-5.010541385273421
1790096752245576448,2.6545764160156273,8.471376832475505,0.3116270597171732,-6.159366600861484
1790096752255576576,2.664576416015627,6.109428574093027,0.06039749805827482,-6.8556429388238875
1790096752265576448,2.6745764160156273,4.234419283143531,-0.5508178727305487,-6.810973412055884
1790096752275576576,2.6845764160156276,4.205570271000958,-1.5331684534268901,-5.85146819130204
1790096752285576448,2.6945764160156274,4.8146254560241415,-1.3172652132118707,-4.843921020406611
1790096752295576576,2.704576416015627,6.742962290359474,-1.0784704565944283,-3.4099977772191523
1790096752305576448,2.7145764160156274,8.684588612347248,-1.2021128955980462,-2.92922022894655
1790096752315576576,2.7245764160156276,8.563401697460327,-0.7250919046023019,-3.0862659303428392
1790096752325576448,2.7345764160156274,7.531860784372504,-0.04779093929579126,-3.4943912868990457
1790096752335576576,2.744576416015627,6.272061302316308,0.2192259648326199,-3.745730432318385
1790096752345576448,2.7545764160156274,5.044260617705192,0.17878742052139152,-4.289065506136756
1790096752355576576,2.7645764160156276,5.527949322829738,1.2022033280380882,-8.006439210405846
1790096752365576448,2.7745764160156274,7.232820238823887,-0.2306792656310488,-8.09803193322686
1790096752375576576,2.784576416015627,9.73336868819715,-0.7017430681448946,-6.777008988751383
1790096752385576448,2.7945764160156275,11.335022713692474,0.16188399630760308,-5.677116869891905
1790096752395576576,2.8045764160156277,9.221564747513826,0.31924967043312674,-5.002212050466907
1790096752405576448,2.8145764160156275,6.168453062266936,-0.1877720335895677,-5.297082506079938
1790096752415576576,2.8245764160156273,6.196553127931223,-0.01074566479165888,-5.557621208858459
1790096752425576448,2.8345764160156275,8.212823261853128,0.4233101062533379,-5.693771411556768
1790096752435576576,2.8445764160156277,9.20927260209835,0.5498413481323438,-4.793821577041998
1790096752445576448,2.8545764160156275,8.663205354833483,0.017122817719826128,-2.5777193670709346
1790096752455576576,2.8645764160156273,6.961962229795657,-0.5704859918618359,-1.6433791085124485
1790096752465576448,2.8745764160156275,5.217318696830397,-1.0436360420119986,-2.159872516762716
1790096752475576576,2.8845764160156278,4.762264693855748,-0.9073114382419993,-3.3025130074219167
1790096752485576448,2.8945764160156275,5.660866219403072,-0.7039748797976343,-3.6026844928313677
1790096752495576576,2.9045764160156273,6.945461588310509,-0.5250386369585351,-2.8324411685010302
1790096752505576448,2.9145764160156276,7.099649062162352,-0.8411527014766065,-0.4500421018726932
1790096752515576576,2.924576416015628,6.875606164188746,-1.3188207007542334,1.8142610984223138
1790096752525576448,2.9345764160156276,7.708989537008586,-0.6500571046635425,-0.7092181928628603
1790096752535576576,2.9445764160156274,8.234694792925499,-1.6173123848743984,-3.9738422293439593
1790096752545576448,2.9545764160156276,8.551257368734664,-3.327845143727031,-5.794828010330177
1790096752555576576,2.964576416015628,9.132161188308563,-3.8198350346745316,-6.105447441027728
1790096752565576448,2.9745764160156276,9.67478290277276,-2.906099720477775,-5.989469928440021
1790096752575576576,2.9845764160156274,9.837036258931299,-2.3832400137821383,-5.662794656909141
1790096752585576448,2.9945764160156276,8.388663096019279,-2.75589798827583,-5.507470815549283
1790096752595576576,3.004576416015628,7.894649720432575,-2.811439737647149,-4.6539027320011
1790096752605576448,3.0145764160156276,7.722391547183939,-1.9234051353539998,-3.264600560047625
1790096752615576576,3.0245764160156274,8.794486571616822,-1.5967220751721727,-0.9627714368310396
1790096752625576448,3.0345764160156277,9.101631159462704,-1.3709025856641373,-0.0880362045821872
1790096752635576576,3.044576416015628,8.884818911706617,-2.2811262320748185,-2.3314843626420885
1790096752645576448,3.0545764160156277,8.07916479255679,-3.534406869519332,-4.053107388039294
1790096752655576576,3.0645764160156275,7.692497381463773,-4.976798642599121,-3.239685281172852
1790096752665576448,3.0745764160156277,8.557322060841162,-5.354773296255574,-2.2780246384140783
1790096752675576576,3.084576416015628,10.032104613564691,-5.645657781787903,-2.239856065236635
1790096752685576448,3.0945764160156277,10.89082034688283,-6.221312480823904,-2.4013258472127963
1790096752695576576,3.1045764160156275,10.881501403438651,-6.658165268518847,-2.5610994788422623
1790096752705576448,3.1145764160156277,9.87270108298238,-7.019028507262502,-3.424642899595451
1790096752715576576,3.124576416015628,8.483785871210406,-6.880143513613992,-3.881591452523597
1790096752725576448,3.1345764160156278,7.417879344792775,-6.687162938742256,-3.1699940919633987
1790096752735576576,3.1445764160156275,7.789922402455521,-5.859907196321975,-2.7273053586991303
1790096752745576448,3.1545764160156278,8.815358830913803,-5.56139405835605,-2.3477109555570346
1790096752755576576,3.164576416015628,9.607568121874158,-5.621716478692373,-2.61941440059587
1790096752765576448,3.174576416015628,9.75922378408115,-6.495129544177688,-3.5358316292946816
1790096752775576576,3.1845764160156276,9.246973826821057,-8.05945524809194,-4.351786143592634
1790096752785576448,3.194576416015628,9.412297375623043,-9.39794580897701,-4.856453550627376
1790096752795576576,3.204576416015628,8.88977416899783,-8.799397123529737,-4.637790851140705
1790096752805576448,3.214576416015628,7.834692481686902,-8.04215419345222,-3.837519128154912
1790096752815576576,3.2245764160156276,6.941200735679321,-7.149284356469625,-3.4443556004718965
1790096752825576448,3.234576416015628,6.76199804462632,-6.38102264617935,-3.2084821545437903
1790096752835576576,3.244576416015628,6.332599703913597,-6.047759116432259,-2.551669587010835
1790096752845576448,3.254576416015628,5.516887322508312,-6.318409659405649,-1.6592700974847459
1790096752855576576,3.2645764160156276,5.2960618770483725,-7.191073001403897,-1.5527162431466848
1790096752865576448,3.274576416015628,5.909179386103975,-8.068872636856213,-2.012052634345987
1790096752875576576,3.284576416015628,7.110628779243437,-8.859574159015471,-2.144672822113744
1790096752885576448,3.294576416015628,8.149378567191771,-9.059400641439657,-2.3431794947832514
1790096752895576576,3.3045764160156277,8.619184969954167,-8.868719208246421,-2.2983441322711413
1790096752905576448,3.314576416015628,8.441446714381092,-6.615759248597714,-2.519972007887868
1790096752915576576,3.324576416015628,7.0280760141679055,-2.5109627231130713,-2.577653897725067
1790096752925576448,3.334576416015628,6.11889264369425,0.5009554483401637,-2.0682055345644224
1790096752935576576,3.3445764160156277,7.873248230155006,0.5118063480853453,-2.3627638653998173
1790096752945576448,3.354576416015628,9.53903430242592,-1.801975513863434,-2.6050999599417537
1790096752955576576,3.364576416015628,9.301720535568743,-4.609837826617096,-2.845022830098488
1790096752965576448,3.374576416015628,8.601093626800225,-6.5478712107479025,-3.193785797688361
1790096752975576576,3.3845764160156278,8.600753492107671,-7.689674671786079,-3.8281591258491288
1790096752985576448,3.394576416015628,9.386476929576894,-8.0560177694387,-4.45613875716012
1790096752995576576,3.404576416015628,9.875632091434351,-8.409561452393962,-4.5919006792753425
1790096753005576448,3.414576416015628,9.335031327165877,-8.393924531938804,-3.9518136152626093
1790096753015576576,3.424576416015628,8.388946101998116,-8.437856507077221,-3.1265452470641604
1790096753025576448,3.434576416015628,8.005121156101609,-8.023216906510083,-2.963028203505553
1790096753035576576,3.4445764160156283,7.430594391837542,-7.461520615899811,-2.817777643577628
1790096753045576448,3.454576416015628,6.7725015091284595,-7.0357978994116275,-2.748356420718202
1790096753055576576,3.464576416015628,6.7454588778042694,-6.4000018038897055,-3.1188538300119273
1790096753065576448,3.474576416015628,7.208976017055329,-5.951082924264412,-3.5554190925319937
1790096753075576576,3.4845764160156283,7.616889407306954,-6.091397414137291,-3.3270515108810192
1790096753085576448,3.494576416015628,7.9903270846173,-6.767120963901772,-2.6426390616640556
1790096753095576576,3.504576416015628,8.475861457596453,-7.2382509567374544,-2.231375654676405
1790096753105576448,3.514576416015628,8.8987554913264,-7.340595583408034,-2.4526168881783086
1790096753115576576,3.5245764160156283,8.96259388425936,-6.943513379396894,-2.861566282096815
1790096753125576448,3.534576416015628,8.803353420134153,-6.413274015439632,-3.14305429610896
1790096753135576576,3.544576416015628,8.376657653923058,-6.092025992599193,-3.284661719077174
1790096753145576448,3.554576416015628,7.921312602279815,-5.929085500553161,-3.25586845156584
1790096753155576576,3.5645764160156284,7.403853902838807,-5.916047279132672,-3.0678813153305198
1790096753165576448,3.574576416015628,6.939344014269445,-5.786304917357293,-2.7487355209489426
1790096753175576576,3.584576416015628,6.801017331371845,-5.192656453600137,-2.763312521701123
1790096753185576448,3.594576416015628,6.652896512403727,-4.655273303007314,-2.9212960190490707
1790096753195576576,3.6045764160156284,6.507190839134592,-4.549447943132417,-2.9390313581863317
1790096753205576448,3.614576416015628,6.789329822898628,-4.452709965541342,-3.1674409961375276
1790096753215576576,3.624576416015628,7.25329238880451,-4.635897334609834,-3.3362749535913614
1790096753225576448,3.634576416015628,7.687551646474624,-4.9082011254233215,-3.293242254573539
1790096753235576576,3.6445764160156284,7.950217283292005,-5.151847097116264,-3.0825218980044613
1790096753245576448,3.654576416015628,8.064231796430722,-5.364883657015409,-2.9836025156217074
1790096753255576576,3.664576416015628,8.366054586386104,-5.282214490570281,-3.5007292727505455
1790096753265576448,3.6745764160156282,8.668447904000669,-5.165332203857903,-4.049984075229626
1790096753275576576,3.6845764160156285,8.693505982166373,-5.272589471079563,-4.118841977939541
1790096753285576448,3.6945764160156283,8.964063594144472,-5.341319800349495,-3.93988702896801
1790096753295576576,3.704576416015628,9.673738223776605,-5.159019042579041,-3.993347995947172
1790096753305576448,3.7145764160156283,10.282735067870062,-4.853611371406601,-4.106646075146167
1790096753315576576,3.7245764160156285,10.351451345752281,-4.5757097303812,-3.9908116264735143
1790096753325576448,3.7345764160156283,9.83577861436612,-4.626364797717394,-3.6862995340434255
1790096753335576576,3.744576416015628,9.209551501329509,-4.334668525022791,-3.652626478273783
1790096753345576448,3.7545764160156283,8.472504933320828,-3.9278159996390745,-3.6428310469571112
1790096753355576576,3.7645764160156285,8.02072007310723,-3.7013150263781642,-3.3807322229958423
1790096753365576448,3.7745764160156283,8.355596224837608,-3.3907526565072503,-3.419494565735547
1790096753375576576,3.784576416015628,8.981390093124647,-3.666816505456344,-4.443948814577894
1790096753385576448,3.7945764160156283,9.482171718989884,-4.108831888874348,-4.914907390655766
1790096753395576576,3.8045764160156286,10.18231756724047,-4.682476350531474,-4.973827799353653
1790096753405576448,3.8145764160156284,10.603024706282548,-5.041219013220311,-4.796885003194182
1790096753415576576,3.824576416015628,10.035766402676167,-4.998713342280834,-4.855298214013096
1790096753425576448,3.8345764160156284,8.782073906537061,-5.016450839178327,-4.875691868523986
1790096753435576576,3.8445764160156286,7.8848015872355015,-4.722261461139816,-4.806741766741755
1790096753445576448,3.8545764160156284,7.381221446605538,-4.239235959945824,-4.673308764193088
1790096753455576576,3.864576416015628,7.189387155540577,-3.8332970453268596,-4.272387277341572
1790096753465576448,3.8745764160156284,7.315699208468574,-3.619312263461966,-3.516405411685869
1790096753475576576,3.8845764160156286,7.868740800908705,-3.6433128295059602,-2.7548359933029136
1790096753485576448,3.8945764160156284,8.373473734743504,-3.4846219687974616,-2.475820720589415
1790096753495576576,3.904576416015628,8.31445286693902,-3.259830318820219,-2.4289267344715535
1790096753505576448,3.9145764160156284,8.26537095657504,-3.148446846119427,-2.3545928808482235
1790096753515576576,3.9245764160156287,8.093727534796107,-3.1022409545443033,-2.0191969930674856
1790096753525576448,3.9345764160156285,7.851727199981661,-2.495751836071113,-1.8603168379741097
1790096753535576576,3.9445764160156283,7.562776174745268,-1.8866335281957112,-1.8549031612756393
1790096753545576448,3.9545764160156285,6.966271028167463,-1.4652930195214002,-2.018280366612416
1790096753555576576,3.9645764160156287,6.333005457657934,-1.442057558206371,-1.9169224408956185
1790096753565576448,3.9745764160156285,6.1494872669393725,-1.2773294310810843,-1.7979071140289309
1790096753575576576,3.9845764160156283,6.721105807848689,-0.7330197339121558,-1.7755458640692448
1790096753585576448,3.9945764160156285,7.568694454189531,-0.3637299985117476,-1.6799614677031585
1790096753595576576,4.004576416015628,9.06731160547714,-0.23980809924080182,-1.7992452314161693
1790096753605576448,4.014576416015628,10.698733714097974,-0.3559749567013619,-2.198941897248206
1790096753615576576,4.024576416015628,9.618080721836783,-0.8624502194359283,-2.169314443975332
1790096753625576448,4.0345764160156286,7.305510785417239,-1.3580694605132646,-1.5088097991673677
1790096753635576576,4.044576416015628,6.856824494233394,-1.118068190789815,-0.9985044364395366
1790096753645576448,4.054576416015628,7.689491558742148,-0.6539131589145883,-0.5429585378763229
1790096753655576576,4.064576416015628,8.27284032023823,-0.3920727859568145,0.11743387206979639
1790096753665576448,4.074576416015629,8.471314265688456,0.03235637435051064,0.8602430131257666
1790096753675576576,4.084576416015628,10.199254814599227,0.944187642142182,0.7481015748600923
1790096753685576448,4.094576416015628,10.509884396959272,1.7185717042593436,0.04579051548361723
1790096753695576576,4.104576416015628,9.545898012148697,1.5241811061119852,-1.0266034047151118
1790096753705576448,4.114576416015629,9.501027776910325,1.0112262600659832,-1.5146452883062815
1790096753715576576,4.124576416015628,10.643332019601436,0.41105435494220743,-2.0609552304767336
1790096753725576448,4.134576416015628,10.33635963389502,0.0547704152432741,-2.0896975031048903
1790096753735576576,4.144576416015628,8.673799442622693,0.009054377227694187,-1.782786166015415
1790096753745576448,4.154576416015629,7.591542134588189,0.04049355505115061,-1.347111263847767
1790096753755576576,4.1645764160156284,8.371808907480327,0.09992330825270859,-1.1219634374165879
1790096753765576448,4.174576416015628,9.214880641889872,0.18099091295563616,-0.795297893630167
1790096753775576576,4.184576416015628,9.238285482267674,0.5861303739046163,-1.0147100031655882
1790096753785576448,4.194576416015628,8.387115350568326,0.8756020989976578,-1.5463566615836766
1790096753795576576,4.2045764160156285,7.1183914382556495,0.783793289064612,-2.0702699216008758
1790096753805576448,4.214576416015628,5.970685969865641,0.48043706394704966,-1.9212614176868756
1790096753815576576,4.224576416015628,5.680898465841034,0.08269475210165378,-1.5927641876247396
1790096753825576448,4.234576416015629,6.106348530821741,-0.24391939954236358,-1.3493942991718477
1790096753835576576,4.2445764160156285,6.282348960151768,-0.35826815715482613,-1.3165274357184489
1790096753845576448,4.254576416015628,5.5472950994145425,-0.19896323487295056,-1.195341082213971
1790096753855576576,4.264576416015628,4.745897438130084,-0.23487242764220345,-0.8581647347457951
1790096753865576448,4.274576416015628,5.369509930569014,-0.10572308611746273,-0.46030866702551027
1790096753875576576,4.2845764160156286,7.603432689432767,0.39426454860107846,-0.731311530161404
1790096753885576448,4.294576416015628,9.182805677699982,0.8612275912418091,-1.4364043210053985
1790096753895576576,4.304576416015628,8.66250934788983,1.059065550139619,-1.702084677467401
1790096753905576448,4.314576416015629,7.573813737613886,0.8888370115723936,-1.8260477367270536
1790096753915576576,4.324576416015629,9.100645039644643,0.5356276151864677,-2.1674030902470736
1790096753925576448,4.334576416015628,11.951425858815945,0.17682197655225493,-2.827343670182393
1790096753935576576,4.344576416015628,12.631367378255364,-0.23676234252392606,-3.5221634256116836
1790096753945576448,4.354576416015628,11.116919698840384,-0.7164071938144724,-4.124228146100449
1790096753955576576,4.364576416015629,9.332616489225297,-1.4063013361733059,-4.572298851855596
1790096753965576448,4.374576416015628,8.81932617389143,-2.3724389338113294,-4.703433569079469
1790096753975576576,4.384576416015628,8.84851997638592,-3.414645899630206,-4.299041940629082
1790096753985576448,4.394576416015629,10.048102984025274,-4.196479771335708,-3.7468522617710556
1790096753995576576,4.404576416015629,12.293750556970853,-4.475063283096903,-3.6093324756990426
1790096754005576448,4.4145764160156284,12.969248759515022,-4.42340405648679,-3.798893394707422
1790096754015576576,4.424576416015628,10.828975501381624,-4.548990008566239,-4.061172493700092
1790096754025576448,4.434576416015628,9.39822631336578,-4.976414805843646,-3.9947982025894566
1790096754035576576,4.444576416015629,9.221081198450472,-5.375461206507947,-3.3700689185746695
1790096754045576448,4.4545764160156285,9.083656439448033,-5.463408706800087,-3.0743855245031324
1790096754055576576,4.464576416015628,8.81350152485708,-5.144766937182572,-3.162654607267046
1790096754065576448,4.474576416015629,8.10227146737984,-4.595652681986098,-3.409500184072457
1790096754075576576,4.484576416015629,7.417232541004647,-4.046489449438404,-3.6492678506994047
1790096754085576448,4.4945764160156285,7.260607440926922,-3.8505619296568856,-3.7203553128630977
1790096754095576576,4.504576416015628,7.708353183451875,-4.065799263356063,-3.482418229698272
1790096754105576448,4.514576416015628,7.905681415314363,-4.338183856857089,-3.0970616002128946
1790096754115576576,4.524576416015629,7.410013195073103,-4.4915602359460625,-2.852579950008023
1790096754125576448,4.5345764160156286,6.721582475950392,-4.4928639185480685,-2.8029551171116824
1790096754135576576,4.544576416015628,6.482162328154315,-4.468056624778749,-2.8717802052348564
1790096754145576448,4.554576416015629,6.658471623025391,-4.407214485144709,-2.922589050417473
1790096754155576576,4.564576416015629,6.865918611387885,-4.274883884072126,-2.851569785533528
1790096754165576448,4.574576416015629,7.142630680875016,-4.167915235313237,-2.7401397993062173
1790096754175576576,4.584576416015628,7.861955579319813,-4.092972420892737,-2.6714453586918028
1790096754185576448,4.594576416015628,8.41783571859557,-4.431172267926013,-2.6665970935697065
1790096754195576576,4.604576416015629,8.36727296928462,-5.252329573444276,-2.8043182410825427
1790096754205576448,4.614576416015629,8.186917931397774,-6.313696716515712,-3.1446393097214376
1790096754215576576,4.624576416015628,7.70356633686581,-7.229005703858683,-3.357880102004591
1790096754225576448,4.634576416015629,7.819778995914389,-7.608941842162783,-3.453135413908622
1790096754235576576,4.644576416015629,8.603165603382799,-7.313317918489522,-3.351529179708252
1790096754245576448,4.654576416015629,9.381169728794926,-6.8233892529168925,-3.2155962591730454
1790096754255576576,4.6645764160156284,9.296259314381958,-6.57939774425079,-3.64153826504115
1790096754265576448,4.674576416015628,8.57656051905633,-7.167748328130635,-3.9969163138206225
1790096754275576576,4.684576416015629,8.071615471397374,-7.964795828477208,-4.137742690509394
1790096754285576448,4.694576416015629,8.298507700408786,-8.3640478844039,-3.883563479596565
1790096754295576576,4.7045764160156285,9.08853771385809,-8.222821831039271,-3.564851976892572
1790096754305576448,4.714576416015629,9.937637323248067,-7.980947036218969,-3.194202197903583
1790096754315576576,4.724576416015629,10.255227515659776,-8.142324522438422,-2.8871793451340113
1790096754325576448,4.734576416015629,10.10979954776243,-8.50268620969509,-2.4649619638121427
1790096754335576576,4.7445764160156285,9.232987020112335,-8.114299757942092,-2.775877394563658
1790096754345576448,4.754576416015628,7.896255529473823,-7.404305635173554,-2.7675252746610837
1790096754355576576,4.764576416015629,7.469646325555502,-6.397215830776416,-2.1256938028072305
1790096754365576448,4.774576416015629,7.28924189801408,-5.384253360317514,-1.8314658603827154
1790096754375576576,4.7845764160156286,6.99830328892993,-4.553585510987765,-1.8834596488777495
1790096754385576448,4.794576416015629,6.623007244473491,-4.061893753082767,-2.134806826936635
1790096754395576576,4.804576416015629,6.450367190621141,-4.101746650175773,-2.5246535713024176
1790096754405576448,4.814576416015629,6.602945768398923,-4.500902940169279,-2.9250902633364486
1790096754415576576,4.824576416015629,7.107437539108879,-4.811731785130621,-3.1117844599881956
1790096754425576448,4.834576416015628,7.597146784546125,-5.0101798103746935,-3.0968344670754124
1790096754435576576,4.844576416015629,7.730449875987205,-5.444039205803438,-2.836165652717438
1790096754445576448,4.854576416015629,7.555119185294321,-5.923877384003875,-2.408254687001876
1790096754455576576,4.864576416015629,7.556722086163303,-6.075992673951907,-2.4479273223286153
1790096754465576448,4.874576416015629,8.236837988074832,-5.6901373142114355,-3.346556974968823
1790096754475576576,4.884576416015629,8.903557880624408,-5.400392229309807,-4.066900392718885
1790096754485576448,4.894576416015629,9.450049838931083,-5.474953528717746,-4.290941357742327
1790096754495576576,4.904576416015629,10.049687540425474,-6.389998433010591,-4.384469831293365
1790096754505576448,4.9145764160156284,10.283681998216233,-7.664193922278734,-4.384660222536471
1790096754515576576,4.924576416015629,10.362425818340823,-8.244427893020566,-4.465517093912409
1790096754525576448,4.934576416015629,9.812649388310696,-8.004417873658188,-4.3777236955518815
1790096754535576576,4.944576416015629,9.240120423120802,-6.91567299550592,-4.489269766823579
1790096754545576448,4.954576416015629,8.46427915274761,-5.8913203519753825,-4.382406830827664
1790096754555576576,4.964576416015629,7.612357484541115,-5.393988818617868,-4.0313645134232665
1790096754565576448,4.974576416015629,7.237678304221294,-5.23118000723359,-3.4877335781383945
1790096754575576576,4.984576416015629,7.481416849455286,-5.3105079124853525,-3.1475546653754
1790096754585576448,4.9945764160156285,7.874328572897604,-5.587889509704305,-2.8106190390322667
1790096754595576576,5.004576416015629,8.249096344739488,-5.8558962023086645,-2.4941261946519555
1790096754605576448,5.014576416015629,8.670551163315823,-5.870542345893633,-2.3624388379753323
1790096754615576576,5.024576416015629,8.947061753236635,-5.758872246224128,-2.4755265716814367
1790096754625576448,5.034576416015629,9.033277450758556,-5.7064566577538995,-2.711380861587961
1790096754635576576,5.044576416015629,9.078437206878608,-5.555994479170952,-2.971244074896993
1790096754645576448,5.054576416015629,9.17647768566184,-5.200667964489483,-3.6608027464294968
1790096754655576576,5.064576416015629,9.089556489705442,-4.921917284349128,-4.216733506171295
1790096754665576448,5.074576416015629,8.225575034649038,-5.256361715147471,-4.768794123416729
1790096754675576576,5.084576416015629,7.577636567292117,-5.788380283072298,-4.425117538196815
1790096754685576448,5.094576416015629,7.472194413513861,-6.066642872628421,-4.195864788826979
1790096754695576576,5.104576416015629,8.069287645212201,-5.662786950857676,-4.502706327050939
1790096754705576448,5.1145764160156295,8.228462003951385,-5.334739716501918,-4.574943099877793
1790096754715576576,5.124576416015629,8.129828774528525,-5.325012419558607,-4.522882867743942
1790096754725576448,5.134576416015629,7.967820509160937,-5.378439080134207,-3.790407809648811
1790096754735576576,5.144576416015629,7.863847343960516,-4.822991048841786,-3.298466581200185
1790096754745576448,5.154576416015629,7.681474048025263,-4.169320037458495,-2.8843794897445005
1790096754755576576,5.164576416015629,7.482103318385866,-3.4843849958520092,-2.6564657285167437
1790096754765576448,5.174576416015629,7.831957176108084,-2.9327483330200055,-2.616850614547729
1790096754775576576,5.184576416015629,8.933896701192158,-2.256267899816532,-2.811793504705353
1790096754785576448,5.19457641601563,10.323678342845456,-1.8544416141807303,-3.103894670292928
1790096754795576576,5.204576416015629,11.413829683671233,-1.8973164319560343,-3.242900701212641
1790096754805576448,5.214576416015629,11.718322645867605,-2.1572918938962027,-3.299917748233139
1790096754815576576,5.224576416015629,11.095043893207311,-2.7052894254357325,-3.3237101871905925
1790096754825576448,5.234576416015629,9.831415583944208,-3.439120213870255,-3.2641185525475414
1790096754835576576,5.244576416015629,9.005407828365529,-3.6011986254534296,-3.4254534511300347
1790096754845576448,5.254576416015629,8.723214678144178,-3.413369662197651,-3.315358083116118
1790096754855576576,5.264576416015629,8.072067467501823,-3.199504619328677,-2.6920175509573343
1790096754865576448,5.27457641601563,6.677128019688278,-2.6625767222511505,-2.074168839952885
1790096754875576576,5.284576416015629,5.706000003330698,-1.7631485299824976,-1.428143887882779
1790096754885576448,5.294576416015629,6.143552603488384,-0.40087771776052616,-1.0559252477159848
1790096754895576576,5.304576416015629,7.653219742837651,0.5100230117305841,-0.56980408330954
1790096754905576448,5.314576416015629,9.402701720954555,1.1659714218962365,-0.4973743943254151
1790096754915576576,5.3245764160156295,9.499445863624295,1.4455452146839876,-0.8514542590119568
1790096754925576448,5.334576416015629,8.201947228224281,0.7191519824146062,-1.4333519188677304
1790096754935576576,5.344576416015629,6.807906333050723,0.0682296238841879,-2.016556296808499
1790096754945576448,5.35457641601563,6.231436873491267,-0.16313688743724156,-2.106624650274627
1790096754955576576,5.3645764160156295,6.443156550925567,-0.007633236730460541,-1.7638684719219861
1790096754965576448,5.374576416015629,7.493065502380507,0.39342649124163165,-0.9878578402584094
1790096754975576576,5.384576416015629,8.984654394490592,0.9050291563131712,-0.5527685571051545
1790096754985576448,5.394576416015629,8.336268529469056,1.1610013152058536,-0.9628329912453231
1790096754995576576,5.4045764160156295,6.475340800444811,0.9182927537816696,-1.5729689770304032
1790096755005576448,5.414576416015629,6.099383795654388,0.5440281579636681,-1.5295718852395541
1790096755015576576,5.424576416015629,6.77868983852377,0.3693343514624692,-0.881651946157322
1790096755025576448,5.43457641601563,6.505259491624066,0.30900259879826814,-0.3291848745760424
1790096755035576576,5.44457641601563,4.983890683401899,0.3459846423433079,-0.10251029121496044
1790096755045576448,5.454576416015629,4.638604441660353,0.791350694411687,0.038490041122398226
1790096755055576576,5.464576416015629,5.459453371002477,0.7083414167527811,-0.16280105761201621
1790096755065576448,5.474576416015629,6.468853163553007,0.42745916912030646,-0.061127600722862295
1790096755075576576,5.48457641601563,8.091544687657871,0.4334966236131927,0.01656470972492756
1790096755085576448,5.494576416015629,9.797717227749882,0.6784531021387092,-0.4746918874339383
1790096755095576576,5.504576416015629,9.630724786285022,0.806621409870428,-1.2563616007315215
1790096755105576448,5.51457641601563,7.9309825841880315,0.8975160362986432,-2.003255317256609
1790096755115576576,5.52457641601563,6.835623863807682,0.8323450960578819,-2.6332066814180743
1790096755125576448,5.534576416015629,7.142274503750226,0.37434139256933874,-2.7903712670131036
1790096755135576576,5.544576416015629,7.95439433187061,-0.24654217739205714,-2.7981012945473758
1790096755145576448,5.554576416015629,8.515911819372437,-0.8021150350662327,-2.5947617123179954
1790096755155576576,5.56457641601563,9.160889798846192,-0.9728859505654284,-2.6273781765437407
1790096755165576448,5.5745764160156295,9.364167381347517,-1.027163179618964,-2.729386777015339
1790096755175576576,5.584576416015629,9.60403876119267,-0.9419537506095426,-2.952349141453639
1790096755185576448,5.59457641601563,9.605476899346977,-0.9947523571845053,-3.484695884675256
1790096755195576576,5.60457641601563,8.298999566297677,-1.0808019748102586,-3.6796043879502585
1790096755205576448,5.6145764160156295,7.232886456220509,-1.42001551331973,-3.697560445263695
1790096755215576576,5.624576416015629,7.2760299512960716,-1.7141692746272905,-3.365293815195049
1790096755225576448,5.634576416015629,8.19372999532592,-1.7835307590815208,-3.129708923279214
1790096755235576576,5.64457641601563,8.27629521178985,-1.751851735859736,-3.1015045147861047
1790096755245576448,5.6545764160156295,8.284712402598236,-1.7125080871537548,-3.015081271619749
1790096755255576576,5.664576416015629,9.388393557756906,-1.7637305457209,-2.7239404665721962
1790096755265576448,5.67457641601563,10.193901151525074,-1.9774637657817649,-2.533769254454705
1790096755275576576,5.68457641601563,9.207647490008478,-2.2708778589998397,-2.7908255636072594
1790096755285576448,5.69457641601563,8.513359337690897,-2.744230138280494,-3.2485791415912524
1790096755295576576,5.704576416015629,9.427703583497431,-3.2923345479347557,-3.6689389538069324
1790096755305576448,5.714576416015629,9.114806235695934,-3.858128377445591,-4.0911269511987065
1790096755315576576,5.72457641601563,7.356548337681042,-4.440919849682055,-4.528167209326587
1790096755325576448,5.73457641601563,7.284854703657241,-5.248530711763995,-4.647214708565128
1790096755335576576,5.744576416015629,9.352611126833786,-5.931648594087747,-4.487217687151901
1790096755345576448,5.75457641601563,10.419447121179774,-6.3736895463037255,-4.193384861186412
1790096755355576576,5.76457641601563,9.333094817874038,-6.371356783668706,-4.546307596373061
1790096755365576448,5.77457641601563,8.681255677700063,-6.2681790941545374,-5.0319260007551305
1790096755375576576,5.784576416015629,7.999584117845342,-6.392126560211182,-4.79672856937225
1790096755385576448,5.794576416015629,6.900778639144086,-6.35776682398454,-3.9200010451148986
1790096755395576576,5.80457641601563,7.822442637610003,-6.120621521789929,-3.1439758016401163
1790096755405576448,5.81457641601563,10.289887468471601,-5.735581363997925,-2.9150953398872534
1790096755415576576,5.8245764160156295,10.521561750760016,-5.387162273393298,-3.3909557702703474
1790096755425576448,5.83457641601563,8.473456225117916,-5.465019275374844,-4.406163516033482
1790096755435576576,5.84457641601563,7.469850083998148,-6.467663867324223,-4.875838069426798
1790096755445576448,5.85457641601563,7.464087755190294,-7.498645605358355,-4.570314937587232
1790096755455576576,5.8645764160156295,7.686835603060699,-7.456250324664438,-4.034387815230619
1790096755465576448,5.874576416015629,8.87646491852006,-6.5048035932843975,-3.733303727567278
1790096755475576576,5.88457641601563,9.275143953041598,-5.824955069167336,-3.2054841823994256
1790096755485576448,5.89457641601563,8.29501112492062,-5.62317330252297,-2.9555449775689158
1790096755495576576,5.9045764160156295,7.16150786207868,-5.867708370680176,-3.235516865085047
1790096755505576448,5.91457641601563,6.491410866140527,-6.015234498907826,-3.442041457337025
1790096755515576576,5.92457641601563,6.0832198142682365,-5.964545773482941,-3.111937788519313
1790096755525576448,5.93457641601563,6.642843821490715,-5.721729134158369,-2.801672981315695
1790096755535576576,5.94457641601563,7.739376627634304,-5.384525503090512,-2.4207641797531827
1790096755545576448,5.954576416015629,7.981335306599733,-5.402552915873195,-1.91067915218419
1790096755555576576,5.96457641601563,7.9376443861832175,-5.961365628868448,-2.060635548927959
1790096755565576448,5.97457641601563,8.736717593833932,-6.797913260659087,-2.5143066222112687
1790096755575576576,5.98457641601563,9.417854701296475,-7.416219804188924,-3.020740521778673
1790096755585576448,5.99457641601563,9.616803998936286,-7.728109441655276,-3.4369745588509875
1790096755595576576,6.00457641601563,9.758476644722146,-7.8363459214741455,-3.824061512058045
1790096755605576448,6.01457641601563,9.898085717776988,-7.530649785308555,-3.922259294075846
1790096755615576576,6.02457641601563,9.471302708941636,-6.8666394590658095,-3.6832495498314892
1790096755625576448,6.034576416015629,8.696881687639896,-6.2180048778015165,-3.460049846678548
1790096755635576576,6.04457641601563,8.281817869014859,-5.79524843582228,-3.586328522117433
1790096755645576448,6.05457641601563,8.08650822735908,-5.64865437946018,-3.7137009014675804
1790096755655576576,6.06457641601563,7.880094323458271,-5.703620460261318,-3.8506561691667254
1790096755665576448,6.07457641601563,8.031006743038555,-5.885384454658364,-3.5286654828355934
1790096755675576576,6.08457641601563,8.523098335523246,-6.38935312690059,-3.3847165207638756
1790096755685576448,6.09457641601563,8.767344512435692,-7.29927617808895,-3.2743747720074112
1790096755695576576,6.10457641601563,8.989403128719731,-7.594023254502965,-3.361257235933772
1790096755705576448,6.1145764160156295,9.084136189898175,-7.417849309763364,-3.5628212551106646
1790096755715576576,6.12457641601563,8.942853847832486,-6.7145596835774555,-3.7017572761765405
1790096755725576448,6.13457641601563,8.42854806407445,-6.080400361167646,-3.910569043967415
1790096755735576576,6.14457641601563,8.050495056820603,-5.77635238046497,-4.182277157960747
1790096755745576448,6.15457641601563,7.786216431701778,-5.667881139721306,-4.31879679638197
1790096755755576576,6.16457641601563,7.426330828085392,-5.644860575037386,-4.1081514811261375
1790096755765576448,6.17457641601563,6.912972340303181,-5.693149208892915,-3.5926071834696813
1790096755775576576,6.18457641601563,6.532393365080214,-5.686495572085365,-3.0347027524897157
1790096755785576448,6.19457641601563,6.751290965489907,-5.325896857887468,-2.886055064150132
1790096755795576576,6.20457641601563,7.263610713178173,-5.019849341190186,-3.573636381093576
1790096755805576448,6.21457641601563,7.467876627106197,-5.389910014266125,-3.9973090677958028
1790096755815576576,6.22457641601563,7.932093599083647,-5.91788401734259,-3.8578189375707526
1790096755825576448,6.2345764160156305,8.624827052929149,-6.402437686920411,-3.544095927697472
1790096755835576576,6.24457641601563,9.396939113940741,-6.712215281005991,-3.614504047653065
1790096755845576448,6.25457641601563,9.995462277037705,-6.767936214774954,-4.270814015424734
1790096755855576576,6.26457641601563,9.963882347564699,-6.653243541717529,-5.252838663101605
1790096755865576448,6.27457641601563,9.44085539975156,-6.63244613259077,-5.73956666085732
1790096755875576576,6.28457641601563,9.139673511551504,-6.377996102950033,-5.780693138673914
1790096755885576448,6.29457641601563,9.032955548479805,-5.776020738961456,-5.812238803943456
1790096755895576576,6.30457641601563,8.96375160111567,-5.1970250603879835,-5.600037536483621
1790096755905576448,6.314576416015631,8.804752607970329,-4.931657282301402,-5.294955237607514
1790096755915576576,6.32457641601563,8.497931141406236,-4.757526852547119,-4.89293234378714
1790096755925576448,6.33457641601563,8.406479540622417,-4.296739925843518,-4.478599310507716
1790096755935576576,6.34457641601563,8.917552489241862,-3.745898343404375,-4.128625983192574
1790096755945576448,6.35457641601563,10.240591125417957,-3.3928513183344564,-3.8850845095314748
1790096755955576576,6.36457641601563,11.549848170959153,-3.2099826515780707,-3.8441429018699615
1790096755965576448,6.37457641601563,11.590700193255254,-3.4204560765206744,-3.9348690412539753
1790096755975576576,6.38457641601563,10.145423829262816,-3.722296928594511,-4.191273061753415
1790096755985576448,6.394576416015631,7.994884225766421,-4.108570576850533,-4.456897920521382
1790096755995576576,6.40457641601563,6.233231068348165,-4.244356833211013,-4.321980956896866
1790096756005576448,6.41457641601563,5.438502508902282,-4.17289447907914,-3.6897441242980866
1790096756015576576,6.42457641601563,5.573232735799743,-3.415156354115623,-2.6155178400183785
1790096756025576448,6.43457641601563,5.9460701082163,-2.1288538935733747,-2.060651179364453
1790096756035576576,6.4445764160156305,6.88574227906205,-1.0524246719003818,-1.5587158190929886
1790096756045576448,6.45457641601563,8.259986610828149,-0.25271452683596385,-1.6115202065855703
1790096756055576576,6.46457641601563,9.129410941655655,0.23212471037707838,-1.7228530408132565
1790096756065576448,6.474576416015631,8.927266588052657,0.4602436652295899,-1.9513223221128173
1790096756075576576,6.4845764160156305,7.873976334015671,-0.013021352375881201,-2.166349644452406
1790096756085576448,6.49457641601563,6.8732328246210095,-0.7664813762488475,-2.3221921476419802
1790096756095576576,6.50457641601563,6.290135649736552,-1.2076028371295495,-2.0479393369368566
1790096756105576448,6.51457641601563,6.2604282207307715,-1.040594771986998,-1.2018916261024502
1790096756115576576,6.5245764160156305,6.729594015000421,-0.5127675141927408,-0.4416098441687638
1790096756125576448,6.53457641601563,7.334435806572115,0.2863802519695827,-0.540564681319412
1790096756135576576,6.54457641601563,5.973359073871448,0.7741008922926357,-0.8101445438176906
1790096756145576448,6.554576416015631,4.271069752548831,0.8963568793635062,-0.9358322122156203
1790096756155576576,6.564576416015631,3.880757039331296,0.9095886415888285,-0.5199921746335268
1790096756165576448,6.57457641601563,4.130352015928938,1.0993994168237793,0.5515259974206461
1790096756175576576,6.58457641601563,6.799243664990122,1.730941386063151,1.6476236532613875
1790096756185576448,6.59457641601563,10.661204917426963,2.394095625084358,1.0716098416738025
1790096756195576576,6.604576416015631,11.327848790737622,2.7635010745691844,-0.08722727682639778
1790096756205576448,6.61457641601563,8.253319414559583,2.849231261504105,-1.5563876690479113
1790096756215576576,6.62457641601563,5.2117868447766424,2.327262514478886,-2.709209179879038
1790096756225576448,6.634576416015631,6.0712103696374085,1.34548937172717,-2.707569404703847
1790096756235576576,6.644576416015631,8.75507537305443,0.3311276740500459,-1.942821936815779
1790096756245576448,6.65457641601563,9.709261703490649,-0.362554719414489,-1.4646987951068138
1790096756255576576,6.66457641601563,7.838392892426286,-0.499310946380025,-1.1589901875852275
1790096756265576448,6.67457641601563,5.868035483246744,-0.25031337680568566,-1.1549742127691913
1790096756275576576,6.684576416015631,5.806744267201133,0.04123133573825771,-1.2659674017972802
1790096756285576448,6.6945764160156305,6.7652400136139,-0.13821511708785894,-1.2765686340979714
1790096756295576576,6.70457641601563,7.335714431724344,-0.495421056795773,-1.034563443877304
1790096756305576448,6.714576416015631,7.1572689890646455,-0.5142054216081541,-1.1692716454433771
1790096756315576576,6.724576416015631,6.482460665123832,-0.23976382429384918,-1.5863414072115347
1790096756325576448,6.7345764160156305,5.9985558267515255,-0.18963202928607115,-2.0882550254015544
1790096756335576576,6.74457641601563,6.663381200845997,-0.42085865448217574,-2.4371267605032236
1790096756345576448,6.75457641601563,7.920507430857792,-0.7149804205885333,-2.4286428050762683
1790096756355576576,6.764576416015631,8.701842667383014,-0.9667794591250451,-2.3285294118429722
1790096756365576448,6.7745764160156305,9.056351746451023,-1.2747677706212195,-2.3192012747953346
1790096756375576576,6.78457641601563,8.935899551097672,-1.450825118950681,-2.770906137944941
1790096756385576448,6.794576416015631,8.063306188981727,-1.6507995558128972,-3.2589893984674814
1790096756395576576,6.804576416015631,7.635273004460881,-2.228216304497532,-3.403629786194229
1790096756405576448,6.814576416015631,8.615500985326552,-2.9865166335121236,-3.389403185718588
1790096756415576576,6.82457641601563,10.33465527807779,-3.690760094797899,-3.7136785898704576
1790096756425576448,6.83457641601563,11.185547250887463,-4.163204867158895,-4.367852050188444
1790096756435576576,6.844576416015631,9.241128316080356,-4.534949827774902,-5.150297200436276
1790096756445576448,6.854576416015631,6.52715653438908,-4.992605909348456,-5.259902161319969
1790096756455576576,6.86457641601563,6.230960523890179,-5.3998640382311205,-4.64849278864504
1790096756465576448,6.874576416015631,8.069477354731225,-5.607792172583937,-3.84654779145166
1790096756475576576,6.884576416015631,10.210457466301426,-5.380281612097373,-3.310873347449078
1790096756485576448,6.894576416015631,10.667736129319197,-4.930554220798475,-3.145303522931282
1790096756495576576,6.90457641601563,9.887999792723438,-4.571895769178852,-4.14236009874975
1790096756505576448,6.91457641601563,8.607396620302888,-5.12604615712472,-4.982821827038691
1790096756515576576,6.924576416015631,7.273194902556427,-6.41707550656259,-5.213659216374987
1790096756525576448,6.934576416015631,7.421351590062748,-7.308511565249375,-4.791738806908756
1790096756535576576,6.9445764160156305,8.007777136716046,-7.620692487820141,-3.9837150165937834
1790096756545576448,6.954576416015631,7.977047455060508,-7.301812395348868,-3.5225151685566876
1790096756555576576,6.964576416015631,7.736800527428175,-6.606425797916275,-3.494629536570356
1790096756565576448,6.974576416015631,7.61000406438574,-5.845373760245386,-3.7473227224108174
1790096756575576576,6.9845764160156305,6.961381046491556,-5.482543506625749,-3.737696240759547
1790096756585576448,6.99457641601563,6.61579378280266,-5.5123280002343344,-3.568686046404124
1790096756595576576,7.004576416015631,7.597968356006573,-5.529102317733154,-3.333976304872716
1790096756605576448,7.014576416015631,8.996693020415979,-5.420055309968411,-3.373034881711984
1790096756615576576,7.0245764160156305,9.467590029091292,-5.580362517839269,-3.6086157792988662
1790096756625576448,7.034576416015631,9.229466667924939,-6.2453968270471,-4.172459741674229
1790096756635576576,7.044576416015631,9.42947442628557,-6.855673828387156,-5.193095054444367
1790096756645576448,7.054576416015631,10.227571715947501,-7.302543262344996,-5.965689490507571
1790096756655576576,7.064576416015631,11.073009180518598,-7.875000892975486,-5.928634274061697
1790096756665576448,7.07457641601563,11.071297548346353,-8.679198011188618,-5.43936814479787
1790096756675576576,7.084576416015631,10.296228763902626,-9.37210259263399,-5.1052980889062205
1790096756685576448,7.094576416015631,9.065365570431943,-8.958938664259222,-4.4757264189676915
1790096756695576576,7.104576416015631,7.710570371176958,-8.470066855137587,-3.8366973056478924
1790096756705576448,7.114576416015631,6.332910576696232,-7.961708658193754,-2.882920971708763
1790096756715576576,7.124576416015631,5.951900179571402,-7.157637913630102,-1.6935475049342026
1790096756725576448,7.134576416015631,6.25537433713202,-6.155518016861588,-1.1668460819190913
1790096756735576576,7.144576416015631,6.33010562205361,-5.423626428995072,-0.8586646301762849
1790096756745576448,7.15457641601563,6.3317843543255785,-5.04349536976756,-0.9476777166017538
1790096756755576576,7.164576416015631,6.642169592409234,-4.997289167183272,-1.2542004384368322
1790096756765576448,7.174576416015631,7.084372585927257,-5.27808221047878,-1.7215965855189705
1790096756775576576,7.184576416015631,7.709635093901616,-5.677645626825633,-2.587982021528883
1790096756785576448,7.194576416015631,8.470182212063811,-5.8305919729268965,-3.40280232208241
1790096756795576576,7.204576416015631,9.065184596856728,-5.986642048975262,-3.3638061619003143
1790096756805576448,7.214576416015631,9.152431371359441,-6.4354079187345326,-3.2089402177944977
1790096756815576576,7.224576416015631,8.661758453232448,-6.578937370460396,-3.169934644009946
1790096756825576448,7.2345764160156305,8.096928439650052,-6.283030056823559,-3.5048498368209833
1790096756835576576,7.244576416015631,7.109074174958105,-5.991844457499193,-3.553652670558571
1790096756845576448,7.254576416015631,7.300093409818347,-5.4057467833598905,-4.24284058484207
1790096756855576576,7.264576416015631,7.584683444121808,-4.430842991657537,-4.887715323470134
1790096756865576448,7.274576416015631,7.300147689740216,-4.412058159656943,-4.931642325267537
1790096756875576576,7.284576416015631,7.502041608471555,-5.793097301230545,-4.825524879362046
1790096756885576448,7.294576416015631,8.403209330828867,-7.105345378664061,-4.8876762273433725
1790096756895576576,7.304576416015631,9.720877765909117,-7.767412787399359,-5.538127862504073
1790096756905576448,7.314576416015631,10.692611865508482,-7.437023526242941,-6.553100988057054
1790096756915576576,7.324576416015631,10.571209610716794,-6.651569662614511,-7.102158203976261
1790096756925576448,7.334576416015631,10.088352346329964,-6.30061670343955,-6.928939371199354
1790096756935576576,7.344576416015631,10.560780367299786,-6.5292012363851795,-6.301966276158516
1790096756945576448,7.3545764160156315,11.57997359362582,-6.904308149586999,-6.0393134789589045
1790096756955576576,7.364576416015631,11.661683535619519,-7.274521666521059,-6.040980864570268
1790096756965576448,7.374576416015631,10.503996495154842,-7.340019765748643,-5.95739111577985
1790096756975576576,7.384576416015631,8.852967292351078,-6.86377281903142,-5.177620924879205
1790096756985576448,7.394576416015631,7.289933939918547,-6.079998889584842,-5.168562456523623
1790096756995576576,7.404576416015631,6.035951321064365,-5.46469342217634,-5.240162233280086
1790096757005576448,7.414576416015631,6.34560937445832,-4.5586795208675275,-4.938312293654581
1790096757015576576,7.424576416015631,7.249037155699102,-4.279094433685096,-4.146682830563777
1790096757025576448,7.434576416015632,8.447466744246379,-4.250598097701847,-3.2844611487618773
1790096757035576576,7.444576416015631,9.45225296020541,-3.797748419164304,-3.4792118794501636
1790096757045576448,7.454576416015631,9.607051210239218,-3.4053561075599856,-4.2279674558758185
1790096757055576576,7.464576416015631,8.545409500117888,-3.659543133632077,-4.486457671384404
1790096757065576448,7.474576416015631,6.941486224692574,-4.41549018960188,-3.9146030057987056
1790096757075576576,7.484576416015631,5.875466116750553,-4.756274784340761,-3.243594150369378
1790096757085576448,7.494576416015631,5.598648816370222,-4.551963907669962,-3.0150684103449743
1790096757095576576,7.504576416015631,5.7075059693023595,-3.940833991223597,-2.8956872473970394
1790096757105576448,7.514576416015632,6.165848797683449,-2.986601045836158,-2.49670374583921
1790096757115576576,7.524576416015631,6.808188931258438,-1.8568637881039325,-1.9048216607763024
1790096757125576448,7.534576416015631,7.190199776160346,-0.6112544171938129,-1.4306607757443053
1790096757135576576,7.544576416015631,8.109253441166432,0.7508635737573952,-1.743772751838679
1790096757145576448,7.554576416015631,10.011225246377148,0.9551101457201708,-2.7522342532075825
1790096757155576576,7.5645764160156315,10.416400541455728,0.036003647634513136,-3.198693654770183
1790096757165576448,7.574576416015631,9.307790822740914,-1.0937228834082713,-3.189565550891056
1790096757175576576,7.584576416015631,8.634120067023112,-1.5868504911277328,-2.3394049916725215
1790096757185576448,7.594576416015632,9.442490760177257,-0.7217707211080223,-1.8643182645148995
1790096757195576576,7.6045764160156315,8.291575755745201,-0.1397903937690406,-1.2679079667933353
1790096757205576448,7.614576416015631,7.445366025820233,-0.04191310251104735,-0.8293298874726083
1790096757215576576,7.624576416015631,8.070667794181984,0.09155324741350163,-0.9949515354221873
1790096757225576448,7.634576416015631,8.69956126137317,-0.008449593376366304,-1.8250866213041557
1790096757235576576,7.6445764160156315,7.566890931727446,-0.546446265895387,-2.1940925084751295
1790096757245576448,7.654576416015631,6.6970344477853745,-0.7388589308782194,-1.9965113675976602
1790096757255576576,7.664576416015631,6.859362881487271,-0.3681042178254461,-1.7197572118130926
1790096757265576448,7.674576416015632,7.433871243908821,0.4764881894902624,-1.203768099096362
1790096757275576576,7.684576416015632,6.66890951155032,1.1995897477651383,-1.1228608794934858
1790096757285576448,7.694576416015631,5.800301338135833,1.4633576065923382,-0.9239958376893955
1790096757295576576,7.704576416015631,4.143917169024836,1.3295784093284473,-0.6472476359898472
1790096757305576448,7.714576416015631,3.274025631668086,1.094809550196064,-0.38039945858004953
1790096757315576576,7.724576416015632,3.383331866504195,0.9057230009490093,-0.20755498318211388
1790096757325576448,7.734576416015631,3.4850699376599414,0.6124813053431586,0.11922037162407119
1790096757335576576,7.744576416015631,4.686895286778033,0.3874772896468025,1.3521069581870395
1790096757345576448,7.754576416015632,6.920529836190486,0.6443327939127086,1.3420501361616368
1790096757355576576,7.764576416015632,8.82485417336014,1.2914444540047139,0.3513476829421952
1790096757365576448,7.774576416015631,10.067050314546334,1.4197769204216355,-0.7497411576941285
1790096757375576576,7.784576416015631,9.656379735644231,0.9336995463822233,-1.8549420078481649
1790096757385576448,7.794576416015631,7.822519290092078,0.10596235232589124,-3.0389179946792497
1790096757395576576,7.804576416015632,7.259650917647729,-0.7791070150662542,-3.3610395371028927
1790096757405576448,7.8145764160156315,7.771986944495485,-1.3717862879605898,-3.423591615029372
1790096757415576576,7.824576416015631,9.29528504307268,-1.7820888668972645,-3.8131011069055987
1790096757425576448,7.834576416015632,10.040954914923093,-2.161580720018483,-3.937402548502082
1790096757435576576,7.844576416015632,9.839496026452913,-2.299093508478958,-4.08324784420693
1790096757445576448,7.8545764160156315,8.935776443556811,-2.180982764402962,-4.307075665382584
1790096757455576576,7.864576416015631,8.273299711227605,-2.01090686244369,-4.386189153854569
1790096757465576448,7.874576416015631,8.817164330829897,-1.8589589244689642,-4.311880816187179
1790096757475576576,7.884576416015632,9.319535169475788,-1.597912133156641,-4.437537481623766
1790096757485576448,7.8945764160156315,9.302563547699009,-1.3907304195997008,-4.5183237739500255
1790096757495576576,7.904576416015631,9.831895700773122,-1.0480015605377584,-4.509459328945995
1790096757505576448,7.914576416015632,10.418310615491837,-0.8994456188816207,-4.560277327933089
1790096757515576576,7.924576416015632,9.861340363206189,-0.9205378443209475,-4.663504758564857
1790096757525576448,7.934576416015632,8.69778130444742,-1.364758342028824,-4.417747222714008
1790096757535576576,7.944576416015631,8.206768489519435,-2.2070173375178546,-3.9753617656797697
1790096757545576448,7.954576416015631,8.215286238729254,-3.0599717425692208,-3.7472811128266543
1790096757555576576,7.964576416015632,7.967588098672924,-3.860197214106288,-3.5145497212722994
1790096757565576448,7.974576416015632,7.68902521975701,-4.494813147124953,-3.3845802139353864
1790096757575576576,7.984576416015631,8.173743156030051,-4.668991045556508,-3.708451795959943
1790096757585576448,7.994576416015632,8.484171442340598,-4.59218274997763,-4.02847949450365
1790096757595576576,8.004576416015633,7.7348946268731265,-4.432226043668807,-4.27840811053567
1790096757605576448,8.014576416015633,7.081831392025851,-4.273080308017596,-4.591549092496268
1790096757615576576,8.024576416015632,7.292188949185171,-4.096990129015702,-4.740868742705012
1790096757625576448,8.034576416015632,7.3394862133490975,-3.889281914796552,-4.51984027708397
1790096757635576576,8.044576416015632,6.671492532633439,-3.6269198627645123,-3.9277052600348092
1790096757645576448,8.054576416015632,7.1996490206405115,-3.441551949587447,-3.545729743008039
1790096757655576576,8.064576416015631,9.992091381451402,-3.2671841342103023,-3.508725082993336
1790096757665576448,8.074576416015633,11.94245072653362,-3.2095620376651377,-4.215326745089248
1790096757675576576,8.084576416015633,9.526560395392822,-3.6922739610074067,-5.309828664207135
1790096757685576448,8.094576416015633,6.454213106653929,-4.982215743760132,-6.258887664522591
1790096757695576576,8.104576416015632,5.685930312342256,-6.482926511440466,-5.590950878209168
1790096757705576448,8.114576416015632,6.402922541104406,-7.122007711582843,-4.228665884237601
1790096757715576576,8.124576416015632,8.5190511018559,-6.8122825424961615,-3.3658427126873116
1790096757725576448,8.134576416015632,9.881025653711541,-6.192884559922528,-3.3115177265075553
1790096757735576576,8.144576416015632,8.824215125369326,-5.953219397084661,-3.6813346305931147
1790096757745576448,8.154576416015633,7.310614875094982,-5.953258214662951,-4.214167166749551
1790096757755576576,8.164576416015633,6.881823080952091,-6.313788926184142,-4.2775706143271295
1790096757765576448,8.174576416015633,7.167593198266264,-6.676765809507623,-4.287137784170054
1790096757775576576,8.184576416015632,7.782628172375808,-6.191048686880621,-4.368188209866681
1790096757785576448,8.194576416015632,7.9545838103131015,-5.3985304221848756,-4.133841359601832
1790096757795576576,8.204576416015632,7.8957476257761785,-5.186239103853335,-3.814572105904947
1790096757805576448,8.214576416015632,8.202061432249401,-5.246607398119922,-3.9166552190882378
1790096757815576576,8.224576416015633,8.24744147305909,-5.699892280004019,-4.270182133882181
1790096757825576448,8.234576416015633,7.947438261490375,-6.670779250934701,-4.298964571290498
1790096757835576576,8.244576416015633,7.820162981879001,-7.472749294639827,-4.579634948353355
1790096757845576448,8.254576416015633,7.687565681869659,-7.450332235972716,-4.425806812959209
1790096757855576576,8.264576416015633,7.012958260584236,-6.861127100192674,-3.9083799816796807
1790096757865576448,8.274576416015632,6.291384700850318,-6.260489447725898,-3.212335760424444
1790096757875576576,8.284576416015632,6.1477997128202535,-5.711861309794001,-3.0463999790185894
1790096757885576448,8.294576416015634,6.998255167302386,-5.118809610275828,-3.4247512782433245
1790096757895576576,8.304576416015633,7.73827013516191,-4.592526682730146,-3.332625882917304
1790096757905576448,8.314576416015633,7.72027498610378,-4.773447296200159,-3.0533503412701823
1790096757915576576,8.324576416015633,7.671962331519648,-5.673438962019088,-3.063751507946667
1790096757925576448,8.334576416015633,8.210592920130608,-6.551441942895821,-3.594709886538183
1790096757935576576,8.344576416015633,9.302545735622687,-6.841889104106891,-4.043018777826799
1790096757945576448,8.354576416015632,10.267980458137501,-6.959086067433971,-4.170711407158841
1790096757955576576,8.364576416015632,10.352566677706958,-7.366224663877332,-4.450811875221815
1790096757965576448,8.374576416015632,9.39552833016827,-7.854877548789151,-4.481850251207702
1790096757975576576,8.384576416015634,8.166291362226572,-7.934951837602984,-3.9913584661937214
1790096757985576448,8.394576416015633,7.56582113159614,-7.684529970379165,-3.771567539581823
1790096757995576576,8.404576416015633,7.285800840915182,-7.219685226831268,-3.5191171621661232
1790096758005576448,8.414576416015633,6.588918252769821,-6.7648431633207675,-3.1307361502869484
1790096758015576576,8.424576416015633,5.817914136469545,-6.414077319433321,-3.040046350207335
1790096758025576448,8.434576416015632,5.724094501313645,-6.249360525630535,-3.3479141580494116
1790096758035576576,8.444576416015632,6.488525325367835,-6.196280319991459,-3.7631665920663617
1790096758045576448,8.454576416015634,7.423929597000205,-6.217655064969435,-3.9261716980375874
1790096758055576576,8.464576416015634,7.974559257228875,-6.169923365606946,-3.9207296374609375
1790096758065576448,8.474576416015633,8.072807439810504,-6.007052655826213,-3.9854654414023125
1790096758075576576,8.484576416015633,8.161942153490747,-5.728865280989914,-4.249716690236487
1790096758085576448,8.494576416015633,8.524033393557927,-5.451439588430521,-4.601795487667047
1790096758095576576,8.504576416015633,8.466615706272831,-5.6999820843231035,-4.573204957336458
1790096758105576448,8.514576416015633,8.136270873705845,-6.292174209585241,-4.16778663629189
1790096758115576576,8.524576416015632,8.051143462268449,-6.4576446377019945,-3.803462627090731
1790096758125576448,8.534576416015632,7.624052593329819,-6.505520702158674,-3.479908359877641
1790096758135576576,8.544576416015634,6.754088067547046,-6.3893211895834705,-3.1530397262255967
1790096758145576448,8.554576416015633,6.304566207100877,-5.696641006397417,-3.176680622252781
1790096758155576576,8.564576416015633,6.639752529689821,-4.809190183328946,-4.007961278356117
1790096758165576448,8.574576416015633,7.071947431499078,-4.641062932796851,-4.620811261016485
1790096758175576576,8.584576416015633,7.280255878972928,-5.186772171512919,-4.5650632574525325
1790096758185576448,8.594576416015633,7.322787770901239,-5.5790953125015115,-4.186870088023877
1790096758195576576,8.604576416015632,7.412464357058519,-5.838378097713995,-3.722314519172931
1790096758205576448,8.614576416015634,7.54927433442032,-5.590036112414732,-3.650899104708839
1790096758215576576,8.624576416015634,7.826733861559274,-4.964979160316641,-4.383730076900733
1790096758225576448,8.634576416015634,8.086967558790418,-4.742611549831199,-4.896217717259752
1790096758235576576,8.644576416015633,8.555010671626814,-4.93909502528376,-4.741146513071156
1790096758245576448,8.654576416015633,9.74239989138044,-5.315868253879411,-4.428648480983291
1790096758255576576,8.664576416015633,10.904681210863252,-5.835263942974897,-4.291691359421319
1790096758265576448,8.674576416015633,10.952072234424053,-6.262982823101768,-4.580398346981642
1790096758275576576,8.684576416015632,10.045645982247057,-6.339382807092619,-5.0696342827899885
1790096758285576448,8.694576416015632,8.863452195120074,-5.79765776987632,-5.671905698976728
1790096758295576576,8.704576416015634,7.8718684676549024,-5.150251052771217,-5.751926611910468
1790096758305576448,8.714576416015634,7.690971195637482,-4.565448490081133,-5.316140314084295
1790096758315576576,8.724576416015633,8.052573795348492,-4.175985407116916,-4.522038715899712
1790096758325576448,8.734576416015633,8.85284719561052,-3.7522814933637654,-4.431471559242593
1790096758335576576,8.744576416015633,9.141588276589005,-3.6876935530436437,-4.657529129385876
1790096758345576448,8.754576416015633,8.808724161102944,-3.5611145156749386,-5.108187739633212
1790096758355576576,8.764576416015633,8.288907053877569,-3.440439149187116,-5.15784140973867
1790096758365576448,8.774576416015634,8.751600541380506,-3.042651190605439,-5.075979116264781
1790096758375576576,8.784576416015634,9.84319599154456,-2.8711436919032645,-4.892537054094455
1790096758385576448,8.794576416015634,10.260046535067918,-3.3101887473359,-4.633058385495529
1790096758395576576,8.804576416015633,9.474716506290912,-3.998254217048629,-4.36072551763833
1790096758405576448,8.814576416015633,7.577828229226586,-4.618409265700097,-4.258872356606459
1790096758415576576,8.824576416015633,5.6229948556596625,-4.888037807683205,-3.995542706650271
1790096758425576448,8.834576416015633,5.054762160096635,-4.525648193971014,-3.7016826375119676
1790096758435576576,8.844576416015633,5.481672820397718,-4.047139917619561,-3.16644674349339
1790096758445576448,8.854576416015632,6.862558521633146,-3.3943766308176366,-2.820523894364973
1790096758455576576,8.864576416015634,10.039840482087422,-2.5325903773394995,-2.6490394818482152
1790096758465576448,8.874576416015634,14.438656228683739,-1.3197904790373658,-3.440074079017907
1790096758475576576,8.884576416015634,17.013683598749303,-1.0463553731534274,-4.2947424415115005
1790096758485576448,8.894576416015633,14.990464100321319,-2.172014405988815,-3.913058394655004
1790096758495576576,8.904576416015633,9.899555721592824,-3.184204344575043,-3.587570310627723
1790096758505576448,8.914576416015633,8.766907445158841,-2.8519161508827446,-4.492482781451041
1790096758515576576,8.924576416015633,9.608728118963187,-2.8038322702475793,-4.966294918114941
1790096758525576448,8.934576416015634,8.284671521340098,-3.419986976295281,-3.958082549214502
1790096758535576576,8.944576416015634,7.4531946851749735,-3.1036247990340264,-2.9827398343517872
1790096758545576448,8.954576416015634,7.422608851509558,-2.446127035781211,-2.536255945034515
1790096758555576576,8.964576416015634,6.417775686648106,-2.237280512189375,-1.6366299752456592
1790096758565576448,8.974576416015633,5.66455942705612,-1.869811049176836,-0.7315766455752457
1790096758575576576,8.984576416015633,6.990698517196311,-1.1376662747715456,-0.42026950937140795
1790096758585576448,8.994576416015633,9.223222791691967,-0.46493097572140607,-0.6286715538152683
1790096758595576576,9.004576416015633,7.897658113040041,0.12184444046525683,-1.3893172427167506
1790096758605576448,9.014576416015633,4.165540072906972,0.4040517312183535,-2.1064834131336907
1790096758615576576,9.024576416015634,2.840294238076093,0.5767289183049304,-1.525857029137018
1790096758625576448,9.034576416015634,3.718036538407969,0.738425527379886,-0.022600924263417532
1790096758635576576,9.044576416015634,5.554101482614514,1.187376641360903,0.452658817904456
1790096758645576448,9.054576416015633,5.631628038671531,1.8693365867270335,0.20050850792364017
1790096758655576576,9.064576416015633,4.210259944469739,2.757844884926684,0.16371261709908524
1790096758665576448,9.074576416015633,4.356499818212395,3.669241490175832,-0.10053731612281754
1790096758675576576,9.084576416015633,6.756703143708033,4.475596561048743,-0.5950945023405144
1790096758685576448,9.094576416015634,11.396334337714503,5.234176547676227,-1.898030058432774
1790096758695576576,9.104576416015634,15.720484695739456,5.272610333536663,-3.2741200269603254
1790096758705576448,9.114576416015634,14.348664852284072,4.5697210691562065,-4.298489843449886
1790096758715576576,9.124576416015634,12.083799563013313,3.4473732003064628,-5.701755631002816
1790096758725576448,9.134576416015634,11.37677372522668,2.0522392274048737,-6.978118784222572
1790096758735576576,9.144576416015633,10.81020966417346,0.7247413241149024,-6.8844425682260795
1790096758745576448,9.154576416015633,9.17707230605008,-0.15159633094215852,-5.794223327446018
1790096758755576576,9.164576416015633,8.349837849367242,-0.5146972275273596,-4.589761814515966
1790096758765576448,9.174576416015633,8.953881041536553,-0.5410960293548139,-3.52772040315294
1790096758775576576,9.184576416015634,10.246755221841731,-0.40712412271775056,-2.3963504997989156
1790096758785576448,9.194576416015634,11.363056155075231,-0.37015842133747184,-1.536954052494958
1790096758795576576,9.204576416015634,11.620181370441113,-0.5296420826739623,-1.217321334060083
1790096758805576448,9.214576416015634,10.96038991018891,-0.9405783365153987,-2.0006568787350623
1790096758815576576,9.224576416015633,8.632847407167674,-1.5372249980171675,-2.8341958557132227
1790096758825576448,9.234576416015633,6.127338395294044,-1.9673099296387242,-3.1742614955303647
1790096758835576576,9.244576416015633,4.449599115330877,-2.271800936519069,-3.0631082394738747
1790096758845576448,9.254576416015635,3.5079758485885555,-2.5324815854133584,-2.8881957208582443
1790096758855576576,9.264576416015634,2.9889041678022132,-2.653380509362622,-2.5218647369717853
1790096758865576448,9.274576416015634,2.850738430149166,-2.551865641558292,-1.7550926860555398
1790096758875576576,9.284576416015634,3.0271398451025053,-2.384959647780741,-0.8703709873895735
1790096758885576448,9.294576416015634,3.5898027485629367,-2.2733539698809686,-0.1529254004793727
1790096758895576576,9.304576416015633,4.497239785873337,-2.2111206035050093,0.3672366278656415
1790096758905576448,9.314576416015633,5.373464743119928,-2.134070888456837,0.4612665275319716
1790096758915576576,9.324576416015633,5.046381711773786,-2.0558129483879015,0.12823563218305734
1790096758925576448,9.334576416015633,3.7325590526798473,-1.955934174345835,-0.35989161871077546
1790096758935576576,9.344576416015634,3.126967928983604,-1.8396873226568733,-0.9277617106066914
1790096758945576448,9.354576416015634,3.661645794567522,-1.7800263161332677,-1.6399411462361169
1790096758955576576,9.364576416015634,4.569599705512057,-1.9812838286190928,-2.1634332476447606
1790096758965576448,9.374576416015634,5.858890772379594,-2.2269608335883104,-2.8250663141558414
1790096758975576576,9.384576416015634,7.537531482071959,-2.3541216471506776,-3.9864749879926733
1790096758985576448,9.394576416015633,8.3027582973757,-2.7650277326116157,-4.911444350153314
1790096758995576576,9.404576416015633,7.409721150918486,-3.5203213628857135,-5.91292781089366
1790096759005576448,9.414576416015635,6.064356543535671,-4.766705118649233,-6.511824719762791
1790096759015576576,9.424576416015634,6.220549981383359,-6.346972920765993,-6.37499452557896
1790096759025576448,9.434576416015634,8.142454484350306,-7.351637496370705,-5.799286755870269
1790096759035576576,9.444576416015634,10.817519872816758,-7.653163720288704,-5.597809100478795
1790096759045576448,9.454576416015634,13.343069350069577,-7.408699049179811,-6.633979646273702
1790096759055576576,9.464576416015634,13.778687537328393,-7.043799823654928,-8.412659565043532
1790096759065576448,9.474576416015633,11.853370212054584,-7.510778521526586,-9.453074736021325
1790096759075576576,9.484576416015633,9.538136052750035,-8.4453205065672,-8.648524249830553
1790096759085576448,9.494576416015633,8.135920732077908,-8.015911525111923,-6.399008866954967
1790096759095576576,9.504576416015635,7.0626948109919185,-6.9528391696461185,-4.772284592704372
1790096759105576448,9.514576416015634,7.136007267834503,-6.112691084814843,-3.661023298033834
1790096759115576576,9.524576416015634,8.908999531455851,-5.4892557293887965,-3.6964289226881597
1790096759125576448,9.534576416015634,10.82185208436694,-5.043474198128317,-4.70562986346973
1790096759135576576,9.544576416015634,10.208709088348671,-4.727324236393557,-5.572218977432881
1790096759145576448,9.554576416015633,8.739312973140064,-5.018259573377273,-6.109518797518663
1790096759155576576,9.564576416015633,8.917051238886284,-5.6405449333480675,-6.324262075515489
1790096759165576448,9.574576416015635,9.816032630901939,-5.86887161328663,-6.161134274515319
1790096759175576576,9.584576416015635,9.556700096302892,-5.632792117597819,-5.739678764641774
1790096759185576448,9.594576416015634,8.259694911588541,-5.36233181438269,-5.383960844626639
1790096759195576576,9.604576416015634,7.380300705256648,-5.057375666014943,-5.094512946961626
1790096759205576448,9.614576416015634,6.98242566696111,-4.64246742971893,-4.919571933359402
1790096759215576576,9.624576416015634,6.761689286996316,-4.050415258183469,-4.578709850777658
1790096759225576448,9.634576416015634,6.393567409023408,-3.3891398241958712,-4.004868038482534
1790096759235576576,9.644576416015633,5.81626438179999,-3.032521807042936,-3.1964605509794213
1790096759245576448,9.654576416015633,5.247866796909552,-3.126809684750634,-2.230954258943204
1790096759255576576,9.664576416015635,5.111823220349482,-3.3997093984255096,-1.6415867501023733
1790096759265576448,9.674576416015634,6.021096524960951,-3.7433856705473385,-1.705516543966171
1790096759275576576,9.684576416015634,7.715706227769738,-4.178917846485235,-1.9656136694075388
1790096759285576448,9.694576416015634,8.750508330888026,-4.873259669834546,-2.461358912233442
1790096759295576576,9.704576416015634,9.25814725094848,-5.876723988327375,-3.101208647143192
1790096759305576448,9.714576416015634,9.58139025622506,-7.166644695783816,-3.9856310195175477
1790096759315576576,9.724576416015633,9.109975797726657,-7.828717195788026,-4.683583818941127
1790096759325576448,9.734576416015635,8.518504684820694,-7.8328198596042435,-5.002696705808554
1790096759335576576,9.744576416015635,8.36611623339963,-7.377439390136486,-5.352658629895784
1790096759345576448,9.754576416015635,8.59593758537403,-6.961381397985641,-4.990954233691074
1790096759355576576,9.764576416015634,8.681710666402154,-6.801446178638612,-4.471751242317914
1790096759365576448,9.774576416015634,8.054466460300487,-6.837564218961365,-4.384129692957894
1790096759375576576,9.784576416015634,7.215333678233291,-7.043206437157404,-4.206308334066728
1790096759385576448,9.794576416015634,6.802164912986281,-7.417215903400763,-3.808973834871792
1790096759395576576,9.804576416015633,6.695968591016155,-7.763544126619387,-3.3588012470938304
1790096759405576448,9.814576416015633,6.619549116807901,-7.85526456813123,-3.017885355540368
1790096759415576576,9.824576416015635,6.910488756294418,-7.519791346329401,-3.120327569684715
1790096759425576448,9.834576416015635,7.179674628842504,-6.849218263025446,-3.397914245323956
1790096759435576576,9.844576416015634,6.8016378295382935,-6.269257407767156,-3.5995903393668747
1790096759445576448,9.854576416015634,6.262538107633181,-5.853850700438023,-3.7502431190517562
1790096759455576576,9.864576416015634,5.636279836690555,-5.7484182654947755,-3.821220617478869
1790096759465576448,9.874576416015634,5.210356016061703,-5.8624738613480005,-3.8958105542034995
1790096759475576576,9.884576416015634,5.921205466563579,-5.612382172099087,-4.937012478508615
1790096759485576448,9.894576416015635,6.94044107920308,-5.29500323616475,-5.343384362081943
1790096759495576576,9.904576416015635,7.380371879636483,-5.650006042926696,-5.024720662172572
1790096759505576448,9.914576416015635,8.014939819607523,-6.292181450506302,-4.548424358801375
1790096759515576576,9.924576416015634,8.754713856506806,-6.649916746482451,-4.338484362821739
1790096759525576448,9.934576416015634,9.20571315207957,-6.600576106399794,-4.313865658879476
1790096759535576576,9.944576416015634,8.938441637311465,-6.317565932306501,-4.3680884838043115
1790096759545576448,9.954576416015634,8.395609398537905,-5.963174064582361,-4.383137478707727
1790096759555576576,9.964576416015634,7.853368077743679,-5.870374485019479,-4.26107507466929
1790096759565576448,9.974576416015633,7.074984508819441,-6.056589323664862,-3.885992151543567
1790096759575576576,9.984576416015635,6.390229889815522,-6.139764124443715,-3.425426400593467
1790096759585576448,9.994576416015635,6.373775822599481,-5.96646981985098,-3.0949682202889215
1790096759595576576,10.004576416015635,6.9946545581903905,-5.5540586648007,-3.171016536415283
1790096759605576448,10.014576416015634,7.5925480151886315,-5.284102013741452,-3.96861037059135
1790096759615576576,10.024576416015634,8.01520339775377,-5.275261354842859,-4.2768319392675185
1790096759625576448,10.034576416015634,8.096572720814043,-5.625264086326848,-4.099077836687315
1790096759635576576,10.044576416015634,8.717915009219409,-5.7040549435568755,-4.319593146188152
1790096759645576448,10.054576416015635,9.691941980135306,-5.527047541533998,-5.086784885389004
1790096759655576576,10.064576416015635,9.732020229593381,-5.905334530046447,-5.543608652326059
1790096759665576448,10.074576416015635,8.671383302702203,-6.628163388107422,-5.35009706802961
1790096759675576576,10.084576416015635,7.69259624251425,-6.862472768349606,-4.78670973184903
1790096759685576448,10.094576416015634,7.23728133022264,-6.387202283798531,-4.375394022906258
1790096759695576576,10.104576416015634,6.983061012430075,-5.54269727288833,-4.417939074713683
1790096759705576448,10.114576416015634,6.8773062232493585,-4.9348236577489795,-4.568759618550343
1790096759715576576,10.124576416015634,7.4520841179712,-4.5398922202678245,-4.752923396055532
1790096759725576448,10.134576416015634,8.803084114080992,-4.317955396869953,-5.1564387071789435
1790096759735576576,10.144576416015635,10.26145644438646,-4.3525880976724585,-5.487390189791142
1790096759745576448,10.154576416015635,10.592565221950165,-4.680559888333088,-5.853881165036367
1790096759755576576,10.164576416015635,9.598560675463082,-5.229134854729741,-6.062950298492411
1790096759765576448,10.174576416015634,8.287822787928949,-5.269027833264183,-6.612926391640753
1790096759775576576,10.184576416015634,6.717715027070732,-5.137307865673246,-6.381041972583077
1790096759785576448,10.194576416015634,5.50723185817858,-4.725722250930922,-5.447088539798488
1790096759795576576,10.204576416015634,5.790216520738615,-3.8462095458887546,-4.3762092265156465
1790096759805576448,10.214576416015635,6.803908494565451,-2.887064994926068,-3.645845647124218
1790096759815576576,10.224576416015635,8.01625019089582,-2.2653511887940403,-2.9870174614535556
1790096759825576448,10.234576416015635,9.123695936092538,-2.0018029922819816,-3.3790265075761465
1790096759835576576,10.244576416015635,9.102267726483788,-2.388264837386895,-3.968995171868657
1790096759845576448,10.254576416015635,7.5686328447517335,-2.9460509133077504,-4.359139632141627
1790096759855576576,10.264576416015634,6.222065410056508,-3.241608723489824,-4.644520115578962
1790096759865576448,10.274576416015634,6.379277145403233,-3.204523671003625,-4.659775228458214
1790096759875576576,10.284576416015634,7.553430558586206,-2.9087548802778387,-4.400193257098126
1790096759885576448,10.294576416015634,9.564344908938908,-2.5021963829245086,-4.435294591205472
1790096759895576576,10.304576416015635,11.550748796250623,-2.452672949284734,-4.5367578166134
1790096759905576448,10.314576416015635,11.639743284657312,-3.0224283681235775,-4.2565685822572075
1790096759915576576,10.324576416015635,9.564924726715413,-3.6401136005771284,-3.980475036899659
1790096759925576448,10.334576416015635,7.300002334313859,-3.6057917031002233,-3.8223539383537815
1790096759935576576,10.344576416015634,6.682044135097828,-2.9962743041528226,-3.338114896417469
1790096759945576448,10.354576416015634,7.374463936187218,-1.7784593161868119,-2.5899966289803915
1790096759955576576,10.364576416015634,9.00304846239987,-0.4226942798029452,-2.052927291346209
1790096759965576448,10.374576416015636,10.459439072074465,0.5682349708272778,-2.2525050246397043
1790096759975576576,10.384576416015635,10.233018843381233,-0.05360504529573477,-2.462539665608664
1790096759985576448,10.394576416015635,9.314782951301806,-0.7391779646153388,-2.8605354520193598
1790096759995576576,10.404576416015635,8.586307783355418,-0.9231077507847838,-3.2271827593273628
1790096760005576448,10.414576416015635,7.406061712084667,-1.2703375833329598,-3.319182094073972
1790096760015576576,10.424576416015634,6.535278100745513,-1.5462908148659027,-3.1223656356489955
1790096760025576448,10.434576416015634,6.329362646238154,-1.6192710846225769,-2.7026526664152777
1790096760035576576,10.444576416015634,6.537839538663802,-1.2145566493616708,-2.1558456543346467
1790096760045576448,10.454576416015634,6.71682743902561,-0.20608346982253534,-1.720687521679825
1790096760055576576,10.464576416015635,6.240716762850161,0.7237942386189062,-1.443945099669204
1790096760065576448,10.474576416015635,5.544635913186815,1.2749539861578925,-1.4354906908993805
1790096760075576576,10.484576416015635,5.08834806232866,1.505993003575025,-1.0945599778756054
1790096760085576448,10.494576416015635,5.518665997941339,1.7358593379487377,-0.6266792570882737
1790096760095576576,10.504576416015635,5.687332964499282,1.6812801889975415,0.24304064708722684
1790096760105576448,10.514576416015634,7.080756165914854,2.16088546672304,0.26121715366872605
1790096760115576576,10.524576416015634,9.883826952204553,2.1932692826079707,-0.6746771284744489
1790096760125576448,10.534576416015636,10.7867229464932,1.3572536735892005,-2.235839225428244
1790096760135576576,10.544576416015635,10.799677288554483,0.6649694832213997,-2.76930282313624
1790096760145576448,10.554576416015635,9.58849929413367,0.6253953599214002,-3.1504294983321115
1790096760155576576,10.564576416015635,9.231049663279464,0.4906046373697267,-4.044947122361538
1790096760165576448,10.574576416015635,7.8731414541032505,-0.2832769348179716,-4.23201443041194
1790096760175576576,10.584576416015635,6.78264878300121,-0.6900161177862196,-3.5691810818998277
1790096760185576448,10.594576416015634,7.426381953005816,-0.6774678826332092,-2.9309133196547963
1790096760195576576,10.604576416015634,8.770221560988535,-0.7098174622856831,-2.41086331281136
1790096760205576448,10.614576416015634,9.351125442214729,-0.8050284221341762,-1.905041822692235
1790096760215576576,10.624576416015636,8.723685536239065,-0.7642113649482244,-1.6342525381029218
1790096760225576448,10.634576416015635,8.04374842837587,-0.37747718702731087,-1.6998182310957521
1790096760235576576,10.644576416015635,7.883831125932049,0.017340233037246577,-2.2342499838562757
1790096760245576448,10.654576416015635,7.47315636444335,-0.07667754520506567,-2.7890840319892876
1790096760255576576,10.664576416015635,6.508334817307383,-0.3168480810946642,-3.0280970347049587
1790096760265576448,10.674576416015634,6.685325770262296,-0.5145445019846013,-2.8775514271215865
1790096760275576576,10.684576416015634,7.243063352605719,-0.5909071184950312,-2.5665294144651813
1790096760285576448,10.694576416015636,8.218532673901302,-0.5565943956160018,-2.5199087484611
1790096760295576576,10.704576416015636,8.605351920695941,-0.6515193135694433,-2.6336838619554492
1790096760305576448,10.714576416015635,7.364086484401486,-0.8461721346437746,-2.7730282873912517
1790096760315576576,10.724576416015635,6.278684143968919,-1.1635507310468463,-2.9142437645249353
1790096760325576448,10.734576416015635,6.085152018783947,-1.4377001056307153,-3.0060149054243235
1790096760335576576,10.744576416015635,6.763043252337853,-1.685436239442786,-3.1351891100330795
1790096760345576448,10.754576416015635,7.754371941116628,-1.7985625374533734,-3.315611201972176
1790096760355576576,10.764576416015634,8.559983897520379,-1.7611720249839715,-3.5801065838708834
1790096760365576448,10.774576416015634,9.585602970959286,-1.6518772595256976,-3.9914334281932504
1790096760375576576,10.784576416015636,10.95209428347224,-1.6836590675208958,-4.535264070217999
1790096760385576448,10.794576416015635,11.410470191330141,-1.965276408123685,-5.094276588338168
1790096760395576576,10.804576416015635,9.81625891707221,-2.484979693243721,-5.668453363889964
1790096760405576448,10.814576416015635,8.056744617242176,-3.13320597093186,-5.8444270124339175
1790096760415576576,10.824576416015635,7.785248969077437,-3.6836431724861494,-5.871304133370052
1790096760425576448,10.834576416015635,7.330422174167107,-4.1863600279590605,-5.494098362612611
1790096760435576576,10.844576416015634,6.575540292568211,-4.793172576353927,-4.695777948948285
1790096760445576448,10.854576416015636,7.311158980721538,-4.982696532635202,-4.136049088909966
1790096760455576576,10.864576416015636,9.71094516565553,-4.8722792900678495,-4.108023594329136
1790096760465576448,10.874576416015636,11.260450197148158,-4.820619538064307,-4.093765042576298
1790096760475576576,10.884576416015635,9.858864350229398,-4.77783595981235,-4.426741385126092
1790096760485576448,10.894576416015635,7.028855036946477,-4.951817956671269,-4.666837383706191
1790096760495576576,10.904576416015635,6.149335894601529,-5.1563512247112335,-4.79313042299078
1790096760505576448,10.914576416015635,7.102112397390399,-5.230189532914429,-4.59872152741612
1790096760515576576,10.924576416015634,8.224006456965464,-5.102759431327187,-4.083262947351039
1790096760525576448,10.934576416015634,8.923351667345715,-4.830780171980881,-3.905336052830293
1790096760535576576,10.944576416015636,9.070651679675986,-4.444685249758434,-4.581938155039292
1790096760545576448,10.954576416015636,8.829318857603884,-4.378156155733187,-5.639513554877614
1790096760555576576,10.964576416015635,8.27947528177572,-5.048346372887902,-6.088288011775756
1790096760565576448,10.974576416015635,7.305738349096894,-5.795260597097228,-5.844698527500488
1790096760575576576,10.984576416015635,6.098261521678796,-5.854186422696064,-4.989395240299812
1790096760585576448,10.994576416015635,5.167926411602066,-5.273707712242526,-3.700961789290807
1790096760595576576,11.004576416015635,4.806920414274973,-4.7484402890208,-2.911233774298708
1790096760605576448,11.014576416015636,5.455306356905258,-4.322418962336195,-3.0397502410319084
1790096760615576576,11.024576416015636,6.874163706936746,-4.294536301924852,-3.3130196299680805
1790096760625576448,11.034576416015636,8.551002775816658,-4.270381991746134,-3.403965739448601
1790096760635576576,11.044576416015635,9.072047949238453,-4.35706275763483,-3.5018098598881666
1790096760645576448,11.054576416015635,8.765024769423025,-5.057443732159312,-3.9533485988315853
1790096760655576576,11.064576416015635,8.1511515672326,-6.661500000961716,-4.721498221630451
1790096760665576448,11.074576416015635,7.998002602242693,-8.357136331039527,-5.180457550762294
1790096760675576576,11.084576416015635,7.986558454920962,-9.057832112632926,-4.999073212587905
1790096760685576448,11.094576416015634,7.969837426985117,-8.421160698627332,-4.609188443528864
1790096760695576576,11.104576416015636,8.0518732784986,-7.143533719285041,-4.466126298426298
1790096760705576448,11.114576416015636,7.892001616179907,-6.1690947720806655,-4.210048238861047
1790096760715576576,11.124576416015636,7.656213954190785,-5.765303636814201,-4.23756448095434
1790096760725576448,11.134576416015635,7.5267991588151455,-5.823116046738916,-4.30270490273147
1790096760735576576,11.144576416015635,7.7000181013320805,-6.186019449201597,-4.118507886185238
1790096760745576448,11.154576416015635,8.404482892066152,-6.890936591409235,-3.9245706098246504
1790096760755576576,11.164576416015635,9.34057805632812,-7.344996686174919,-4.083128593693832
1790096760765576448,11.174576416015636,9.467762898423164,-7.258555020349699,-4.663363209527309
1790096760775576576,11.184576416015636,8.744109853305591,-7.113551028828754,-4.802260950815282
1790096760785576448,11.194576416015636,8.4822144460443,-6.769155097569384,-4.584985495613649
1790096760795576576,11.204576416015636,8.4171380397969,-6.489828553566386,-4.2495216144360946
1790096760805576448,11.214576416015635,8.081442277922184,-6.348816078478709,-4.049104795160276
1790096760815576576,11.224576416015635,7.169200587038791,-6.266403747028948,-3.770730034873674
1790096760825576448,11.234576416015635,6.343787755733458,-5.932652194065087,-3.345062018521103
1790096760835576576,11.244576416015635,5.744721739960193,-5.192380106741755,-3.0233811081023774
1790096760845576448,11.254576416015635,4.898184573077239,-4.618097085866672,-2.6527402488340797
1790096760855576576,11.264576416015636,4.212026612741651,-4.208847476051726,-2.5564737853474075
1790096760865576448,11.274576416015636,4.857273788349982,-3.6861002685424005,-3.402211796278581
1790096760875576576,11.284576416015636,6.151181451678493,-3.3073665199446705,-4.228274922954114
1790096760885576448,11.294576416015635,6.958804834287896,-3.645275720628079,-4.1383826128217995
1790096760895576576,11.304576416015635,7.927074458124195,-4.956494568538968,-4.15685892634944
1790096760905576448,11.314576416015635,9.115642258977248,-6.792683473157045,-4.222663524520607
1790096760915576576,11.324576416015635,9.648672424202537,-8.324056228351155,-4.402185232169159
1790096760925576448,11.334576416015636,9.522544757101493,-8.036372560013007,-4.99937939811276
1790096760935576576,11.344576416015636,8.664349207893126,-6.640749712984105,-5.0215407914183725
1790096760945576448,11.354576416015636,7.941082312909197,-5.458560566243699,-4.990290298164199
1790096760955576576,11.364576416015636,7.228658825682164,-5.436562924952699,-4.709284603086231
1790096760965576448,11.374576416015636,7.114310861048107,-6.168537031064812,-4.642162499184333
1790096760975576576,11.384576416015635,7.581928995618046,-7.323176926079139,-4.48679304021638
1790096760985576448,11.394576416015635,7.87889518468553,-8.297439283486405,-4.337913383445787
1790096760995576576,11.404576416015635,7.71338544191981,-8.383516152699318,-4.2759153904058484
1790096761005576448,11.414576416015635,7.4121240731112135,-7.576907502149958,-4.3172075204699185
1790096761015576576,11.424576416015636,7.299018654241281,-6.2563744070735945,-4.58323718023873
1790096761025576448,11.434576416015636,7.335986614918919,-5.374637659407315,-4.77292526943672
1790096761035576576,11.444576416015636,7.4869233098412735,-5.345966601112144,-4.681424751416405
1790096761045576448,11.454576416015636,7.761285279137024,-5.715342495250356,-4.334793451538403
1790096761055576576,11.464576416015635,8.241719898176987,-5.874486471586544,-4.056081141060929
1790096761065576448,11.474576416015635,8.327442235310038,-5.922989135410872,-3.9610415031969195
1790096761075576576,11.484576416015635,7.724747667828459,-5.9704733301720525,-4.024505413885652
1790096761085576448,11.494576416015637,6.652791515515192,-5.8069207059149575,-4.066509411856247
1790096761095576576,11.504576416015636,5.686447902150731,-5.346010767030655,-4.228128205374424
1790096761105576448,11.514576416015636,5.499023328723716,-4.875197165699387,-4.179990045229807
1790096761115576576,11.524576416015636,6.118013787250669,-4.4331647026721415,-4.182958774810616
1790096761125576448,11.534576416015636,7.402165439851466,-4.272495975021836,-4.124337696009656
1790096761135576576,11.544576416015635,8.66774237292152,-4.5065149372734,-4.145368021520263
1790096761145576448,11.554576416015635,9.260863331605519,-4.936172680871402,-4.263497950607511
1790096761155576576,11.564576416015635,9.11883243429237,-5.275135681014321,-4.71851308490793
1790096761165576448,11.574576416015635,8.589314106093004,-5.279971340789159,-5.371966135752181
1790096761175576576,11.584576416015636,8.131694248184777,-5.001993389865214,-5.796803452332237
1790096761185576448,11.594576416015636,8.094242696223938,-4.582060543720374,-5.949232679017338
1790096761195576576,11.604576416015636,8.709533469654575,-4.266106896922481,-5.838509424833324
1790096761205576448,11.614576416015636,9.90366422198377,-4.020137126332496,-5.570061157688626
1790096761215576576,11.624576416015636,10.950323379574826,-3.9004979914872426,-5.6502975939102065
1790096761225576448,11.634576416015635,10.776816167344423,-4.084149195515853,-5.902813415261331
1790096761235576576,11.644576416015635,9.666717997858138,-4.350305792644054,-6.035608064384337
1790096761245576448,11.654576416015637,8.392292408337736,-4.379921857227163,-6.126414460361138
1790096761255576576,11.664576416015636,7.327931785582405,-4.332602310625214,-5.767509474009168
1790096761265576448,11.674576416015636,6.682934019151739,-4.17861818033479,-5.113633493992244
1790096761275576576,11.684576416015636,7.067110353285926,-3.7748381219564022,-4.551708223077658
1790096761285576448,11.694576416015636,7.510427021530513,-3.5726342466395833,-4.184433899539585
1790096761295576576,11.704576416015636,7.863884089293558,-3.5107039320899713,-4.024508880255774
1790096761305576448,11.714576416015635,8.091506904508474,-3.3727797693943007,-4.170139874078138
1790096761315576576,11.724576416015635,7.918685000636868,-3.319072435049569,-3.8959537056075817
1790096761325576448,11.734576416015635,7.5825969768856725,-3.136127375996628,-3.6202473892868654
1790096761335576576,11.744576416015637,7.5615617375030455,-2.8088916852166372,-3.468952069897551
1790096761345576448,11.754576416015636,8.00429045411236,-2.444815877063368,-3.4462584665790077
1790096761355576576,11.764576416015636,8.627755143612163,-2.1649098052048865,-3.2598966370925435
1790096761365576448,11.774576416015636,9.106227799667677,-1.8658851951055735,-2.8845095656686186
1790096761375576576,11.784576416015636,8.826144988600747,-1.597632219289106,-2.423304427744279
1790096761385576448,11.794576416015635,7.999043167684767,-1.2597100629208975,-2.1610902320568215
1790096761395576576,11.804576416015635,7.602932752060058,-0.8362392847244104,-2.2113638016082597
1790096761405576448,11.814576416015637,7.230517824472938,-0.7043606737088599,-2.2900935014007295
1790096761415576576,11.824576416015637,7.259085872963771,-0.8353588122401132,-2.400832240767089
1790096761425576448,11.834576416015636,7.774211865526298,-1.0345378245085484,-2.5864361271369707
1790096761435576576,11.844576416015636,8.401238785383606,-1.1995956891311461,-2.4900793192600696
1790096761445576448,11.854576416015636,8.189577077120475,-0.998801970821181,-2.523877650448482
1790096761455576576,11.864576416015636,7.491556100244003,-0.7262680856219789,-2.5823171961278897
1790096761465576448,11.874576416015636,6.450916511479336,-0.7107118344561232,-2.4372713233736882
1790096761475576576,11.884576416015635,5.836905749465622,-0.700953967905743,-2.0392365682556983
1790096761485576448,11.894576416015635,5.70324344383104,-0.3867686510101368,-1.6101946360513433
1790096761495576576,11.904576416015637,6.167143732835663,0.3150137355593153,-1.2652943533300218
1790096761505576448,11.914576416015636,6.83936120183766,1.1002529899748734,-1.297557520403068
1790096761515576576,11.924576416015636,6.904126690570167,1.3767023972913304,-1.376244392607832
1790096761525576448,11.934576416015636,6.751576477788194,1.3087168077766134,-1.4774871362177204
1790096761535576576,11.944576416015636,7.1751294776883,1.4817641732894935,-1.662491557290541
1790096761545576448,11.954576416015636,7.314739924692358,1.4908062427377315,-1.8562936800066054
1790096761555576576,11.964576416015635,7.62428495495581,1.5260255832310352,-2.0014379435549543
1790096761565576448,11.974576416015637,8.920273027414156,1.4310646858195182,-2.1369208836068427
1790096761575576576,11.984576416015637,10.881571129924277,1.2019167274418352,-2.8751457707294485
1790096761585576448,11.994576416015637,11.61405029233706,0.5507111266003998,-3.6234847173551676
1790096761595576576,12.004576416015636,10.549999662731297,0.11326103494904022,-4.352347021648819
1790096761605576448,12.014576416015636,8.117968368083567,-0.2813128312845955,-4.3547031629334345
1790096761615576576,12.024576416015636,6.373673052961266,-0.3169461999169364,-4.19543109616856
1790096761625576448,12.034576416015636,5.989800247143831,-0.3617508251406766,-3.537107377465683
1790096761635576576,12.044576416015635,7.452194285784569,-0.14251127109949943,-2.5501761695934957
1790096761645576448,12.054576416015635,9.84570575750492,0.20041654457223335,-2.4074896079691666
1790096761655576576,12.064576416015637,11.076535722573364,-0.11732166397295093,-2.584571194111705
1790096761665576448,12.074576416015637,9.838156576334384,-0.6652026931541236,-2.6827237919987827
1790096761675576576,12.084576416015636,7.610812383850369,-0.8845007863869941,-2.7410001076450987
1790096761685576448,12.094576416015636,6.161657462369863,-0.8931163878274948,-2.6852538024656947
1790096761695576576,12.104576416015636,6.226370033777742,-0.6330107813388158,-2.4204643562769017
1790096761705576448,12.114576416015636,7.4218188333734165,-0.23311328128005937,-2.552802670323753
1790096761715576576,12.124576416015636,8.383197813471984,-0.29018448979515643,-2.8068849193097756
1790096761725576448,12.134576416015637,8.543974880899198,-0.8749254131457435,-2.633589571863816
1790096761735576576,12.144576416015637,8.914012746684788,-1.3310363930719094,-2.691272568324366
1790096761745576448,12.154576416015637,9.064846961741853,-1.6813655452439296,-2.914919129927665
1790096761755576576,12.164576416015636,7.750611013691187,-1.8610914665960088,-3.0706471762349787
1790096761765576448,12.174576416015636,6.556279804138179,-1.9312249227064988,-2.935338963587907
1790096761775576576,12.184576416015636,6.892022969420226,-1.899571036218038,-2.9585437852959355
1790096761785576448,12.194576416015636,7.490865722834986,-1.9097039250948609,-3.114364953626801
1790096761795576576,12.204576416015636,7.831503409532333,-1.8863727969074504,-3.295147922822779
1790096761805576448,12.214576416015635,8.729854678664696,-1.891911208731595,-3.4290271512588526
1790096761815576576,12.224576416015637,10.271124672444719,-2.0391631100657364,-3.628392914335969
1790096761825576448,12.234576416015637,10.702636458803928,-2.233029171704909,-4.139695580826047
1790096761835576576,12.244576416015637,8.764501228417618,-2.407706631295519,-4.851565554574283
1790096761845576448,12.254576416015636,6.545215040179088,-2.827548154958178,-5.004404933353953
1790096761855576576,12.264576416015636,6.5333529626493,-3.4181431324802283,-4.7065390087534755
1790096761865576448,12.274576416015636,8.49127074311537,-3.93601606105324,-4.464070357227932
1790096761875576576,12.284576416015636,10.7496835186971,-4.145889845020463,-4.543075320079299
1790096761885576448,12.294576416015637,10.690982589631554,-4.31429627447443,-4.996142597465947
1790096761895576576,12.304576416015637,8.30294720338487,-4.626173384246643,-5.729805564261358
1790096761905576448,12.314576416015637,6.649418948751635,-5.194997025734798,-5.807575369992647
1790096761915576576,12.324576416015637,6.768999976008081,-5.635763747715417,-5.306897671868595
1790096761925576448,12.334576416015636,7.291783400230397,-5.719099210830248,-4.393743939018387
1790096761935576576,12.344576416015636,8.603016018365768,-5.274222075862617,-3.7073940856143266
1790096761945576448,12.354576416015636,9.819889238836314,-4.397048071213271,-3.74799333184417
1790096761955576576,12.364576416015636,8.75891300076141,-3.597428066079873,-4.346491135418024
1790096761965576448,12.374576416015636,6.467999969061651,-3.4146653778559326,-5.014836270277588
1790096761975576576,12.384576416015637,6.689527683180166,-3.89965341641423,-5.095068443330599
1790096761985576448,12.394576416015637,9.689358428898565,-4.446134583835172,-4.698852515707722
1790096761995576576,12.404576416015637,11.456000123526609,-4.99108073189752,-4.266036604659095
1790096762005576448,12.414576416015636,9.756727887586619,-5.546535635423615,-4.6627103586419745
1790096762015576576,12.424576416015636,7.273386164956502,-6.035480156593478,-5.860903928138559
1790096762025576448,12.434576416015636,6.606522675293704,-6.518855015278804,-6.1266099102196145
1790096762035576576,12.444576416015636,6.511670574318316,-6.739980232514692,-5.017681241679038
1790096762045576448,12.454576416015637,6.7132006996478335,-6.2997015532128025,-3.931391538711973
1790096762055576576,12.464576416015637,7.2891079643880445,-5.65046370823762,-3.6277156153719683
1790096762065576448,12.474576416015637,7.477949493066256,-5.178484926381045,-3.6731766362448237
1790096762075576576,12.484576416015637,6.8395488271863005,-5.042375514197756,-3.6933276506999246
1790096762085576448,12.494576416015637,6.10803441933828,-5.273298774571445,-3.680325706096899
1790096762095576576,12.504576416015636,6.412980263124181,-5.607801295895281,-3.7825485787592883
1790096762105576448,12.514576416015636,6.675203146511477,-5.597374400484368,-3.773863461078718
1790096762115576576,12.524576416015636,7.16106061575359,-5.154225260396321,-3.770455532370975
1790096762125576448,12.534576416015636,7.573672580719159,-4.831530984242637,-3.8704636732738282
1790096762135576576,12.544576416015637,7.684306637359588,-4.846131743029192,-4.042955165661913
1790096762145576448,12.554576416015637,7.698644854682344,-5.375900373395591,-4.371577586130076
1790096762155576576,12.564576416015637,7.839777873446249,-6.194216864927058,-4.5059108447361185
1790096762165576448,12.574576416015637,7.809353688939122,-6.828141903927727,-4.459132934258135
1790096762175576576,12.584576416015636,7.37472218968148,-6.933236483988932,-4.241501047770715
1790096762185576448,12.594576416015636,6.770250995366609,-6.6023735603618,-3.9782342677965623
1790096762195576576,12.604576416015636,6.5532091602554985,-6.076551411344001,-3.691587548653061
1790096762205576448,12.614576416015638,6.90968967688269,-5.70751408856291,-3.5613673089730558
1790096762215576576,12.624576416015637,7.875257641663509,-5.445700062126789,-3.748990195293692
1790096762225576448,12.634576416015637,8.60425621313961,-5.577094653872489,-4.115048269462619
1790096762235576576,12.644576416015637,8.9076467126742,-6.49598365495814,-4.523951716671766
1790096762245576448,12.654576416015637,9.773322362629862,-7.83867178401578,-5.106686753131428
1790096762255576576,12.664576416015636,10.40594432722546,-8.858779596449097,-5.446235803753562
1790096762265576448,12.674576416015636,9.751626874993558,-9.069203960493818,-5.220007840157019
1790096762275576576,12.684576416015636,8.74259477505106,-8.46462899294167,-4.627741674572545
1790096762285576448,12.694576416015636,8.026270193362935,-7.4976593905044755,-4.379884498213984
1790096762295576576,12.704576416015637,7.797064159855683,-6.6286548610049,-4.548146669792754
1790096762305576448,12.714576416015637,7.691122403647086,-6.046411610464101,-4.818831479108137
1790096762315576576,12.724576416015637,7.143857496149323,-5.687313055826044,-4.892781206562858
1790096762325576448,12.734576416015637,6.42317687325778,-5.905035022132511,-4.647819306065187
1790096762335576576,12.744576416015637,6.350968398321993,-6.353750645327445,-4.359568587179171
1790096762345576448,12.754576416015636,6.365108992613447,-6.496754632469442,-3.9463332413119927
1790096762355576576,12.764576416015636,6.0104116664605325,-6.343649389421805,-3.429493794879522
1790096762365576448,12.774576416015638,6.455765116629471,-5.747582122844907,-3.6419304655157743
1790096762375576576,12.784576416015637,7.374042684217823,-5.050833568659578,-4.214059142163642
1790096762385576448,12.794576416015637,7.227166343457134,-4.833780444826093,-4.060439384362876
