time,seconds_elapsed,z,y,x
1789214674668892000,0.021891845703125,7.0558619300842285,5.97547843093872,0.8707412162780761
1789214674678923000,0.031923095703125,6.8134490119934075,6.349572440338134,0.9763853645324706
1789214674688955000,0.041954833984375,6.663362495422363,6.215497147369384,0.8239046463012695
1789214674698986800,0.05198681640625,6.149955876922607,6.012738194274902,0.7796119155883788
1789214674709018600,0.0620185546875,5.508758744812011,5.970241114807129,0.8035539321899413
1789214674719051000,0.072051025390625,5.072265854644775,6.1002761924743645,0.879719472503662
1789214674729083000,0.082082763671875,4.830301849365234,6.272658712005615,1.0013748443603514
1789214674739114800,0.09211474609375,4.901080435943603,6.352864467620849,1.0512041664123535
1789214674749146600,0.102146728515625,5.175515801239014,6.392368795013427,1.1411363662719727
1789214674759178800,0.1121787109375,5.358372953033447,6.501753883361816,1.2315174789428711
1789214674769209900,0.1222099609375,5.44576131362915,6.663661770629883,1.1873743858337402
1789214674779241700,0.13224169921875,5.655253958892822,6.777535987091064,1.1742062767028807
1789214674789273900,0.14227392578125,5.681290901947021,6.96533117980957,1.2029366966247559
1789214674799305700,0.1523056640625,5.657648160552978,7.162553541564941,1.246181964111328
1789214674809337900,0.162337890625,5.61829347076416,7.2726868179321285,1.3326724990844725
1789214674819369700,0.17236962890625,5.546467420959472,7.350797647094726,1.3753192161560057
1789214674829401900,0.18240185546875,5.482572164154052,7.429058113861084,1.2865841171264647
1789214674839433700,0.192433837890625,5.60527499923706,7.579144630432128,1.0999860252380371
1789214674849465900,0.2024658203125,5.865644429779052,7.732672811889648,0.960823053741455
1789214674859497700,0.212497802734375,6.0981812660217285,7.798214082336425,0.9208698135375976
1789214674869528800,0.22252880859375,6.2584431396484375,7.876773824310303,1.036838956451416
1789214674879560700,0.232560791015625,6.409427481842041,8.062174815368651,1.1754033775329589
1789214674889592800,0.2425927734375,6.553977407073974,8.286182308197022,1.2785036865234374
1789214674899624700,0.252624755859375,6.986130806732177,8.314014902496337,1.4860510429382323
1789214674909656800,0.26265673828125,7.715763762664794,8.145672598266602,1.8574515754699705
1789214674919688700,0.272688720703125,8.061127352142334,7.93528212738037,2.2164321868896484
1789214674929720800,0.282720947265625,7.767987286376953,7.700051814270019,2.2156839988708494
1789214674939752700,0.292752685546875,6.837241390991211,7.6282257644653315,2.037764888000488
1789214674949784800,0.302784912109375,5.655553234100341,7.630619966125487,1.6294038673400877
1789214674959815700,0.312815673828125,5.083339037322998,7.579294268035889,1.2789525993347166
1789214674969847600,0.32284765625,5.316923336791992,7.4782888854980465,1.2057798110961913
1789214674979880000,0.3328798828125,5.900360353851318,7.364564306640625,1.3853449356079102
1789214674989911800,0.342911865234375,6.468235060119628,7.3180270118713375,1.4776713371276855
1789214674999943700,0.352943603515625,6.54380205001831,7.448511002349853,1.1665747589111328
1789214675009975600,0.3629755859375,5.977573357391357,7.767837648773193,0.7206546997070312
1789214675020008000,0.373008056640625,5.476586660003662,7.890241208648681,0.6214449684143066
1789214675030039800,0.383039794921875,5.33712441329956,7.715464487457275,0.9153332221984862
1789214675040071700,0.39307177734375,5.492448246002197,7.555052976226806,1.2469301521301268
1789214675050103800,0.403103759765625,5.88584550628662,7.641693148803711,1.389834063720703
1789214675060135000,0.413135009765625,5.8363154594421385,7.941267631530761,1.259050798034668
1789214675070166800,0.423166748046875,5.487659842681884,8.109759573364258,0.9524433479309081
1789214675080198700,0.43319873046875,5.550208361053467,8.003816149902343,0.7927800247192383
1789214675090230800,0.443230712890625,5.953930615997314,7.879766576385498,0.7846995941162109
1789214675100263000,0.453262939453125,6.407631830596923,7.773374240112304,0.9623194297790527
1789214675110294800,0.463294677734375,6.847267110443115,7.7407532424926755,0.9693523971557617
1789214675120326700,0.47332666015625,7.02234310684204,7.778611556243896,0.9009680122375487
1789214675130358800,0.48335888671875,7.135319497680664,7.898321639251709,0.907851342010498
1789214675140391000,0.493390869140625,7.331943309020995,8.005611801147461,0.9898527488708495
1789214675150421800,0.503421875,7.015160501861572,7.877222737121581,1.1565490394592284
1789214675160454000,0.513453857421875,6.692990740966796,7.502829452514648,1.1348515869140625
1789214675170485800,0.52348583984375,6.693140378570556,6.953509809112548,1.4380173721313476
1789214675180517600,0.533517578125,6.900687734985351,7.084592350006103,0.5919663604736328
1789214675190549800,0.5435498046875,6.704512836456298,7.701697827911376,-0.011671733093261718
1789214675200582000,0.553581787109375,5.86699116821289,7.457489258575439,0.015412673187255858
1789214675210613800,0.56361376953125,5.948094749450683,6.918045697021484,0.32830490264892576
1789214675220646000,0.57364599609375,6.068104107666016,6.423643054199219,0.3799298759460449
1789214675230677800,0.583677734375,5.9317842506408684,5.544372494506836,-0.201112939453125
1789214675240710000,0.5937099609375,5.608267751312256,5.438728346252441,-0.4804863456726074
1789214675250740700,0.60374072265625,5.409848288726806,5.876119062042236,-0.636558366394043
1789214675260772600,0.613772705078125,5.613654705047607,6.3612441734313965,-0.3368342460632324
1789214675270805000,0.623804931640625,5.8283846664428705,6.777386349487304,-0.11013327636718749
1789214675280836900,0.6338369140625,5.77122310180664,6.922834100341796,-0.17522563400268554
1789214675290868700,0.64386865234375,5.559785167694091,6.930166342926025,-0.15741875915527342
1789214675300900600,0.653900634765625,5.612457604217529,6.975057624053955,-0.11791443176269531
1789214675310933000,0.66393310546875,6.19948592376709,7.357082426452636,-0.24899697265624998
1789214675320964900,0.67396484375,6.347028601074219,7.568071447753906,-0.25034371109008785
1789214675330996700,0.683996826171875,5.874622686004638,7.355286775207519,-0.0613514175415039
1789214675341027800,0.69402783203125,5.4692544174194335,6.88243194732666,0.037110125732421874
1789214675351059700,0.704059814453125,5.294328058624267,5.960963583374023,0.31319150466918944
1789214675361091800,0.714091796875,4.863671035003661,5.598242031860352,0.7121253562927246
1789214675371123700,0.724123779296875,5.588365950012206,5.623830062103271,0.11851298217773437
1789214675381155800,0.73415576171875,6.859836669158935,5.999719722747803,-0.4333505004882812
1789214675391188000,0.74418798828125,7.485621128082275,6.2584431396484375,-0.5636848533630371
1789214675401219800,0.7542197265625,7.02907679901123,6.701819359588622,-0.9795277542114257
1789214675411251700,0.764251708984375,6.8296098731994626,6.861183407592773,-1.0743979949951172
1789214675421283800,0.774283935546875,7.108983279418945,7.043890921783447,-0.6726210289001464
1789214675431316000,0.78431591796875,7.030722812652588,6.976853275299072,-0.4221276802062988
1789214675441346800,0.794346923828125,7.126041966247558,6.688202337646484,-0.2428618309020996
1789214675451379000,0.80437890625,7.186495558166503,6.401646326446532,-0.18779519271850584
1789214675461410800,0.814410888671875,7.095366257476806,6.119280168151855,-0.7541735229492187
1789214675471442700,0.824442626953125,7.132027470397949,6.172850430297851,-1.4110826034545898
1789214675481474800,0.834474853515625,7.00318949356079,6.038176586914062,-1.4815619148254393
1789214675491506700,0.844506591796875,6.6346320755004875,5.769577088165283,-0.9062053283691406
1789214675501538800,0.854538818359375,7.691971383666992,5.9959787826538085,0.0017956512451171875
1789214675511570700,0.86457080078125,9.571868599700927,6.36528438873291,0.2512415367126465
1789214675521602800,0.874602783203125,9.986963312530516,6.290315949249267,-0.32890345306396485
1789214675531634000,0.884634033203125,9.522937103271484,6.1002761924743645,-0.5452794281005859
1789214675541665800,0.894665771484375,9.315988297271728,6.36483547592163,-0.49724575729370113
1789214675551697700,0.90469775390625,9.216928203582762,6.702717185211181,-0.5303156677246094
1789214675561729800,0.914729736328125,9.000402590942382,6.788010619354248,-0.5849333930969238
1789214675571762000,0.924761962890625,8.8099139213562,6.967725381469726,-0.9039607643127441
1789214675581793500,0.93479345703125,8.522609722137451,7.179013677978515,-1.6192285102844237
1789214675591825700,0.94482568359375,8.201936337280273,7.109132917022705,-2.37489840927124
1789214675601857500,0.954857421875,7.824101387786865,6.957849299621581,-3.0303111137390135
1789214675611889700,0.9648896484375,7.891438309478759,6.291513050079345,-3.323900092315674
1789214675621920500,0.97492041015625,8.568548466491698,5.8743234107971185,-2.8139351387023925
1789214675631952600,0.98495263671875,8.213757707977294,6.584353840637207,-2.261173830413818
1789214675641984800,0.99498486328125,8.013692231750488,6.826467483520507,-1.9137153144836425
1789214675652016600,1.0050166015625,8.488941261291503,6.676231329345702,-1.8990508293151855
1789214675662048500,1.015048583984375,9.235932179260253,6.842029794311523,-1.7857751632690428
1789214675672080600,1.02508056640625,9.840917011260986,6.832153712463379,-1.3730746520996093
1789214675682112800,1.03511279296875,10.302698656463622,6.407482192993164,-0.9504980590820312
1789214675692144600,1.04514453125,9.922918418121338,7.000795291900634,-0.962768342590332
1789214675702176500,1.055176513671875,9.140014475250243,7.358728440093993,-0.7567173622131347
1789214675712207600,1.06520751953125,8.182184173583984,7.791181114959716,-0.7383119369506835
1789214675722239700,1.07523974609375,8.284685932159423,6.5686418922424314,-0.5340566078186035
1789214675732271600,1.085271728515625,7.970746239471435,6.034734922027588,-0.8744821563720703
1789214675742303500,1.095303466796875,7.817816608428955,6.300042393493652,-1.2572551467895507
1789214675752335600,1.105335693359375,8.316708379364012,5.819705685424804,-1.5050550186157226
1789214675762367700,1.11536767578125,7.66129567489624,5.566518859863281,-1.703324843597412
1789214675772399600,1.125399658203125,6.6988266075134275,5.660491275024413,-1.59603468170166
1789214675782431500,1.135431396484375,6.683413934326172,5.522974317169189,-1.352275025177002
1789214675792464000,1.1454638671875,6.629394759368896,5.4321442916870115,-1.1311106468200682
1789214675802494700,1.15549462890625,6.41002603225708,5.552153649902343,-0.9724947868347167
1789214675812526600,1.165526611328125,6.2846297203063965,5.667673880004882,-1.1432312927246093
1789214675822558700,1.175558837890625,6.2301616325378415,5.744587608337402,-1.2624924629211425
1789214675832590600,1.185590576171875,6.105513508605957,5.843198789215087,-1.115249060821533
1789214675842622700,1.195622802734375,6.023212826538086,6.217741711425781,-0.9258078544616699
1789214675852654600,1.205654541015625,5.889736083984375,8.085667919158935,-1.4929343727111815
1789214675862686700,1.215686767578125,5.708225670623779,9.861567000579834,-1.7329530891418456
1789214675872718600,1.225718505859375,5.589862326049804,8.614636848449706,-1.9384055191040037
1789214675882750700,1.235750732421875,6.828412772369385,5.512948597717285,-1.6325462570190428
1789214675892782600,1.245782470703125,6.731447605133056,5.881206740570068,-1.018283893585205
1789214675902813700,1.255813720703125,6.070049396514892,6.616376287841796,-0.7517793212890624
1789214675912845600,1.265845458984375,6.2481181449890135,6.571335369110107,-0.7487865692138671
1789214675922877400,1.27587744140625,6.457610790252685,6.372766268920898,-0.6817489227294922
1789214675932909800,1.285909912109375,6.46135173034668,6.14816022567749,-0.5367500846862793
1789214675942941700,1.295941650390625,6.291812325286865,6.037129123687744,-0.558597174835205
1789214675952973600,1.3059736328125,6.048351943969727,6.204423964691162,-0.6217442436218261
1789214675963005700,1.316005615234375,5.95018967590332,6.400299588012695,-0.6980594215393066
1789214675973037800,1.326037841796875,5.961262858581542,6.602609628295898,-0.9599252281188965
1789214675983069700,1.336069580078125,5.837811835479736,6.787860981750488,-1.5685013626098632
1789214675993100500,1.3461005859375,6.246172856140136,6.971017408752441,-1.7055694076538086
1789214676003132700,1.356132568359375,6.591386808013915,7.154024198150634,-1.6494553062438964
1789214676013164800,1.366164794921875,6.885574337005615,7.900865478515625,-1.1797428680419921
1789214676023196700,1.37619677734375,7.216123803710937,8.143428034210205,-0.8834604125976562
1789214676033228500,1.386228515625,7.228543724822997,7.044489472198486,-0.6814496475219726
1789214676043260700,1.3962607421875,7.344961780548095,6.255450387573242,-0.1945288848876953
1789214676053292800,1.406292724609375,7.277026308441162,6.093542500305175,0.4129997863769531
1789214676063324700,1.41632470703125,7.211485037994384,6.3892264053344725,0.6585550941467285
1789214676073356500,1.4263564453125,7.179911503601073,6.667552348327637,0.7981669784545898
1789214676083387600,1.4363876953125,7.238419806671142,6.612934622955322,0.5992986030578613
1789214676093419500,1.44641943359375,7.283011812591552,7.020397817993164,0.35030163040161133
1789214676103451600,1.45645166015625,7.349001995849609,7.537096463775634,0.36586394119262694
1789214676113483800,1.46648388671875,7.509712782287597,7.496694310760498,0.48198272171020506
1789214676123515600,1.476515625,7.4220251464843745,7.339724464416504,0.581641365814209
1789214676133547500,1.486547607421875,7.324461428833008,7.442525498199463,0.8684966522216796
1789214676143579600,1.49657958984375,7.471704830932617,7.241711833953857,0.9549871871948241
1789214676153611800,1.50661181640625,7.657704372406005,7.008576447296142,1.4043489112854004
1789214676163643600,1.5166435546875,6.988973921203613,7.236474517822265,0.9196727127075195
1789214676173675800,1.52667578125,6.978648926544189,7.965957836151123,1.2018892333984375
1789214676183707000,1.536706787109375,6.801178728485107,7.033117014312744,1.195754091644287
1789214676193738800,1.54673876953125,6.436511888122558,6.341043096923828,0.9724947868347167
1789214676203770600,1.5567705078125,6.107309159851074,6.928969242095947,1.0152911415100097
1789214676213802500,1.566802490234375,5.790975265502929,7.597699693298339,0.8762778076171874
1789214676223835000,1.5768349609375,5.66333438949585,7.370699448394775,0.7900865478515624
1789214676233866800,1.58686669921875,6.138583419036864,6.826916396331787,1.2249334243774412
1789214676243898600,1.596898681640625,5.424063861083984,7.30336252670288,0.5784989761352539
1789214676253930500,1.606930419921875,5.821800611877441,8.104073344421387,0.5551555099487304
1789214676263962600,1.616962646484375,5.992237842559814,7.621342434692382,0.72140288772583
1789214676273993700,1.62699365234375,5.530156922149658,7.083095973968505,1.0550947441101073
1789214676284025600,1.637025634765625,5.90574730758667,6.986430081939697,1.2228384979248046
1789214676294057700,1.6470576171875,5.25437481842041,7.274183193969726,0.32172084808349605
1789214676304089600,1.657089599609375,4.943278240203857,7.658751835632324,-0.7243956398010254
1789214676314121700,1.667121826171875,4.921281512451172,7.689128269195556,-1.249473991394043
1789214676324153600,1.677153564453125,5.154416899108886,7.555501889038085,-1.3000515014648437
1789214676334185700,1.687185791015625,5.2439001861572265,7.609221788787841,-1.288978318786621
1789214676344217900,1.6972177734375,5.148281757354736,7.5080667686462395,-1.337460902404785
1789214676354249700,1.707249755859375,5.4518964553833005,7.484573664855956,-1.1007342132568358
1789214676364280600,1.717280517578125,5.544222856903076,7.504475466156006,-0.9507973342895507
1789214676374312700,1.727312744140625,5.4248120491027825,7.5153990112304685,-0.8328829025268554
1789214676384344600,1.737344482421875,5.3764791030883785,7.495796485137939,-0.5556044227600098
1789214676394376700,1.747376708984375,5.134215822601318,7.3669585083007805,-0.30960020217895506
1789214676404408600,1.75740869140625,5.040393045043945,7.395539290618896,-0.1758241844177246
1789214676414440700,1.767440673828125,5.1228433647155756,7.493252645874023,-0.22655133209228515
1789214676424472600,1.77747265625,5.01809704208374,7.48906279296875,-0.39160160903930663
1789214676434504700,1.787504638671875,5.053561154174805,7.438036370086669,-0.48931496429443355
1789214676444536600,1.79753662109375,5.121795901489257,7.332242584228515,-0.7272387542724609
1789214676454567700,1.807567626953125,5.231929177856445,7.2435074851989745,-0.9368810371398926
1789214676464599600,1.817599609375,5.396380904388427,7.166743394470214,-1.0217255584716796
1789214676474631400,1.82763134765625,5.559934805297852,7.037157229614257,-0.9250596664428711
1789214676484663800,1.837663818359375,5.9670987251281735,6.768857006072998,-0.8051999458312988
1789214676494695700,1.84769580078125,6.367528952789306,6.509235763549804,-0.7184101356506347
1789214676504727600,1.8577275390625,6.674136402893066,6.287622472381591,-0.7365162857055664
1789214676514759700,1.867759765625,6.891709478759765,6.121375094604492,-0.6929717430114746
1789214676524791800,1.877791748046875,6.937498585510253,6.081421854400634,-0.6865373260498047
1789214676534823700,1.88782373046875,6.752247232055663,6.089203009796142,-0.7733271362304687
1789214676544854500,1.8978544921875,6.846369284820557,6.083217505645751,-0.8194155181884765
1789214676554886700,1.90788671875,6.912808380889892,6.045658467102051,-0.8864531646728515
1789214676564918800,1.917918701171875,6.890213102722168,6.08456424407959,-0.9494505958557128
1789214676574950700,1.92795068359375,6.968174294281005,6.2216322891235345,-1.0612298858642577
1789214676584982300,1.937982177734375,7.018602166748046,6.314557241058349,-1.1495160720825195
1789214676595014400,1.948014404296875,7.001244204711914,6.46733723449707,-1.1902175003051758
1789214676605046300,1.95804638671875,7.2066966346740715,6.679373719024658,-1.082777700805664
1789214676615078100,1.968078125,7.59740041809082,6.7277066650390625,-0.7975684280395507
1789214676625110300,1.9781103515625,8.062474090576172,6.6243070808410645,-0.4830301849365234
1789214676635141400,1.988141357421875,8.28004716644287,6.796390325164794,-0.32306758651733397
1789214676645173200,1.99817333984375,8.332719602966309,7.063792723083496,-0.19303250885009765
1789214676655205400,2.008205322265625,8.160636358642577,6.9716159591674804,-0.07407061386108398
1789214676665237200,2.0182373046875,7.834875295257568,7.087435464477538,-0.16549918975830077
1789214676675269400,2.028269287109375,7.666682628631591,7.574655502319335,-0.4691138877868652
1789214676685301200,2.03830126953125,7.636904745483398,7.470507730102539,-0.6138134506225585
1789214676695333000,2.0483330078125,7.738209403228759,7.521534152984619,-0.42601825790405273
1789214676705365200,2.058365234375,8.400206162261963,7.631368154144287,0.7881412590026855
1789214676715397400,2.0683974609375,7.260266896820068,7.194875263977051,0.6431424209594726
1789214676725429200,2.07842919921875,7.352443660736084,7.574805139923095,0.01945288848876953
1789214676735460400,2.08846044921875,7.69316848449707,7.470507730102539,-0.2018611274719238
1789214676745492200,2.0984921875,7.754968814849853,7.1589622390747065,0.36795886764526364
1789214676755524400,2.1085244140625,7.327903093719482,7.291840431213378,0.2615665313720703
1789214676765556200,2.11855615234375,7.096413720703125,7.447762814331054,-0.14544775085449219
1789214676775588400,2.12858837890625,8.069357420349121,6.892457666778564,0.36526539077758785
1789214676785620200,2.1386201171875,8.132055576324463,6.568492254638672,0.429011009979248
1789214676795652400,2.14865234375,7.796867343902587,6.779182000732422,0.37544074783325193
1789214676805684200,2.158684326171875,7.452850492858886,6.433968048858643,0.5131073432922363
1789214676815716400,2.16871630859375,6.933757645416259,6.299892755889892,0.5231330627441406
1789214676825747200,2.178747314453125,6.454019487762451,6.374861195373534,0.43454760131835934
1789214676835779000,2.188779052734375,6.066458094024658,6.559962911224365,0.5048772750854492
1789214676845811500,2.1988115234375,5.793369467163085,6.507589749908447,0.8876502655029296
1789214676855843300,2.20884326171875,5.617994195556641,6.275352188873291,1.2035352470397949
1789214676865875200,2.218875244140625,5.741445218658447,6.031442894744873,1.4148235435485839
1789214676875907000,2.228906982421875,6.138583419036864,5.839308211517333,1.73010997467041
1789214676885939500,2.238939453125,6.502801346588134,5.84170241317749,2.0534768363952636
1789214676895971300,2.248971435546875,6.78606533050537,5.360916792297363,2.5086744270324703
1789214676906003200,2.259003173828125,6.489932512664795,5.655403596496582,2.6927286796569825
1789214676916035000,2.26903515625,6.345532225036621,5.078700271606445,2.65576819152832
1789214676926066400,2.27906640625,6.214150408935547,4.739022911071777,2.573467509460449
1789214676936098300,2.289098388671875,6.037727674102783,4.335450293731689,2.664147897338867
1789214676946130200,2.299130126953125,6.1459156616210935,3.329436683654785,2.5378537597656248
1789214676956162300,2.309162353515625,6.018274785614014,3.3993174446105954,2.3145944549560546
1789214676966194400,2.3191943359375,5.470002605438232,3.745878134918213,2.091335150146484
1789214676976226300,2.329226318359375,5.118952787017822,3.62631768951416,2.2848165718078612
1789214676986258200,2.339258056640625,4.934449621582031,3.2791584487915038,2.4808418327331543
1789214676996290300,2.349290283203125,4.980089090728759,3.2034418212890623,2.667439924621582
1789214677006322400,2.359322509765625,5.021089794158935,3.1426889541625975,2.6861446250915524
1789214677016353300,2.369353271484375,5.274426257324219,2.8185739044189453,3.1667806083679197
1789214677026385400,2.379385498046875,5.125387203979492,0.9591770401000976,3.627963703155517
1789214677036417300,2.389417236328125,3.5703532257080077,0.7529764221191406,3.8715737220764157
1789214677046449200,2.39944921875,6.066757369232177,1.3180080139160155,3.3180642257690427
1789214677056481300,2.409481201171875,8.537274207305908,2.568379830932617,3.1331121475219725
1789214677066513400,2.419513427734375,6.585700579071045,2.61761060256958,4.059817827606201
1789214677076545300,2.429545166015625,4.835389527893066,1.411531516265869,2.7002105598449706
1789214677086577200,2.4395771484375,5.277269371795654,1.0512041664123535,2.170044529724121
1789214677096609300,2.449609375,6.810156984710693,1.140837091064453,3.171120098876953
1789214677106641400,2.459641357421875,7.790283289337157,0.37409400939941406,4.859032269287109
1789214677116672300,2.46967236328125,7.70573804321289,-0.42003275375366206,6.779481275939941
1789214677126704000,2.4797041015625,5.531204385375976,-0.47150808944702144,5.312883121490478
1789214677136736500,2.489736572265625,4.218882600402832,0.318578458404541,4.5696331436157225
1789214677146768400,2.499768310546875,4.6453497711181635,1.141585279083252,6.331466290283203
1789214677156800300,2.50980029296875,5.3667526588439936,1.5101426971435545,7.1038956008911125
1789214677166832000,2.51983203125,5.444115299987793,1.8932149627685546,6.422146678161621
1789214677176864500,2.529864501953125,4.808005846405029,2.2480057212829587,5.335029486846923
1789214677186896400,2.539896484375,4.215590573120117,2.2390274650573727,5.372289250183105
1789214677196928300,2.54992822265625,3.234865718078613,1.9725228927612304,5.0769046203613275
1789214677206959400,2.55995947265625,2.5608979507446286,1.613243006134033,4.356249920654297
1789214677216991200,2.5699912109375,1.3949217422485352,1.1270704315185547,3.094954558563232
1789214677227023400,2.5800234375,-0.076614453125,0.29553426742553707,2.825606871795654
1789214677237055200,2.59005517578125,-0.7362170104980469,-0.5660790550231933,3.781491884613037
1789214677247087400,2.60008740234375,-0.6010942543029785,-0.7619546783447265,5.505616355133056
1789214677257119200,2.610119140625,0.6917746421813964,-0.9747393508911132,8.45991156616211
1789214677267151400,2.6201513671875,1.2427402992248535,-1.8929156875610351,10.71914010772705
1789214677277183200,2.630183349609375,1.4682441680908203,-1.6300024177551269,12.759448834991455
1789214677287215400,2.64021533203125,1.6008230850219725,-0.9873089096069335,14.688427185058593
1789214677297246200,2.65024609375,0.5608417388916015,-0.6391022056579589,16.412701293182373
1789214677307278300,2.6602783203125,-0.5141548065185546,-0.28266543350219725,18.024747198486327
1789214677317310200,2.670310302734375,-0.006584054565429687,0.419434203338623,19.08837128601074
1789214677327342300,2.68034228515625,0.8690952026367187,1.3207014907836914,19.88115131072998
1789214677337374200,2.690374267578125,1.0874164665222168,1.4561235221862792,20.638766498565673
1789214677347406300,2.70040625,1.8381483245849608,0.814627114868164,21.197513311004638
1789214677357438200,2.710438232421875,2.854636566925049,-0.0005985504150390625,20.808006628417967
1789214677367470300,2.72047021484375,3.2550667945861815,-1.2633902885437012,19.403208804321288
1789214677377502200,2.730502197265625,3.8795045150756833,-2.788047833251953,17.987786710357664
1789214677387534300,2.740534423828125,4.670937801361084,-3.3276410324096677,17.65244884033203
1789214677397565400,2.7505654296875,4.836736266326904,-1.8124106567382812,16.786496027374266
1789214677407597300,2.760597412109375,3.7728129035949705,-1.2955623733520507,15.127763189697264
1789214677417629200,2.770629150390625,0.02528875503540039,-1.547552098083496,13.831003715515136
1789214677427661000,2.7806611328125,-3.8461353294372556,0.4273649963378906,14.043938025665282
1789214677437693400,2.790693359375,-3.0424317596435544,2.243366955566406,12.91567049331665
1789214677447725300,2.800725341796875,-3.3731308639526367,0.4091092086791992,12.421716763305664
1789214677457757200,2.810757080078125,-2.197577848815918,-2.9665654945373534,13.505392289733885
1789214677467789000,2.8207890625,-1.3361141639709473,-6.392817707824706,13.833697192382811
1789214677477821400,2.830821533203125,-1.1067197174072265,-5.250933153533936,12.886491160583496
1789214677487852300,2.840852294921875,0.46103345718383787,-3.561823882293701,12.6153478225708
1789214677497884200,2.85088427734375,1.2825439018249511,-5.3287447074890135,12.631658321380614
1789214677507916300,2.860916259765625,2.3226748855590817,-5.915773027038574,12.48112289199829
1789214677517948400,2.870948486328125,3.378517817687988,-9.079710520935057,10.589703580474852
1789214677527980300,2.880980224609375,5.606172824859619,-7.627178301239013,8.814851962280272
1789214677538012200,2.89101220703125,2.680608033752441,-7.658751835632324,8.067711406707764
1789214677548044300,2.901044189453125,1.294065997314453,-7.284807463836669,7.682394577026367
1789214677558076400,2.911076416015625,2.0596119781494138,-6.791003371429443,8.814702324676514
1789214677568108300,2.9211083984375,3.01968684387207,-4.6453497711181635,11.292401767730713
1789214677578140200,2.93114013671875,3.731363287353515,-4.183119213104248,11.393257512664794
1789214677588174600,2.941174560546875,4.942679689788818,-5.599588770294189,12.467356232452392
1789214677598206500,2.95120654296875,3.536235852050781,-3.8997055915832517,10.7766009475708
1789214677608238600,2.961238525390625,4.515613968658447,-4.477306742095947,9.890297420501708
1789214677618270700,2.971270751953125,3.053205667114258,-7.044788747406005,10.59179850692749
1789214677628302600,2.981302490234375,4.433762199401855,-8.26164174118042,10.344746823120117
1789214677638334500,2.99133447265625,5.225494760894775,-9.011625411224365,10.124480270385742
1789214677648366600,3.00136669921875,11.330559356689452,-9.913491249084473,8.906729450988768
1789214677658398700,3.011398681640625,2.1184195564270016,-3.9453450607299803,12.387898664855957
1789214677668430600,3.0214306640625,2.066046395111084,-1.8160019592285155,7.632415617370605
1789214677678461400,3.03146142578125,12.201001297760008,-10.026766915130615,6.9989996406555175
1789214677688493800,3.041493896484375,7.725190931701659,-9.92127240447998,8.546102825927735
1789214677698525700,3.051525634765625,-2.4404396797180175,-1.0217255584716796,6.152798991394042
1789214677708557600,3.0615576171875,-8.353519229888915,-4.738424360656738,5.13331799697876
1789214677718589400,3.07158935546875,-1.216254443359375,-6.752546507263183,6.157737032318115
1789214677728621800,3.081621826171875,-1.5442600708007812,-6.635080988311767,5.799504608917236
1789214677738653700,3.09165380859375,-0.4038718925476074,-8.391377543640136,8.049605256652832
1789214677748685600,3.101685546875,1.9705776039123535,-9.5124624710083,7.949946612548827
1789214677758717400,3.111717529296875,1.9834464378356933,-8.956858048248291,7.019350354766845
1789214677768749800,3.121749755859375,1.618480322265625,-7.5439797935485835,7.032668101501464
1789214677778780700,3.13178076171875,2.038662713623047,-4.629637822723389,6.906972514343261
1789214677788812500,3.1418125,2.0397101768493653,-8.57498288345337,6.115389590454101
1789214677798844700,3.1518447265625,3.470993856811523,-6.593182459259033,6.11628741607666
1789214677808876500,3.16187646484375,3.248482740020752,-5.363909544372558,5.186439346313477
1789214677818908700,3.17190869140625,2.620752992248535,-9.964517671966552,4.343231449127197
1789214677828940500,3.1819404296875,5.997026245880127,-6.234950035858154,4.001010249328613
1789214677838972700,3.19197265625,0.6010942543029785,1.6032172866821288,1.343296768951416
1789214677849004500,3.202004638671875,-1.654842259979248,1.2095207511901855,-0.42931028518676756
1789214677859036700,3.21203662109375,-3.239354846191406,0.46193128280639645,-1.5720926651000975
1789214677869067800,3.22206787109375,-3.4497453170776367,0.896329246520996,-2.2096984947204588
1789214677879099600,3.232099609375,-3.2146646415710447,0.49545010604858397,-2.5641899780273434
1789214677889131500,3.242131591796875,-2.3847744911193844,-1.4366706336975097,-1.2345102310180662
1789214677899163600,3.25216357421875,-1.5119383483886717,-1.5964835945129394,0.3298012786865234
1789214677909195800,3.26219580078125,-1.0115502014160156,-1.1837830833435057,1.2988544006347655
1789214677919227600,3.2722275390625,-1.1978490180969237,-1.200841770172119,2.1990742248535153
1789214677929259500,3.282259521484375,-1.57688106842041,-1.6967407890319823,3.548356497955322
1789214677939291600,3.292291748046875,-1.0529998176574706,-1.9683330398559569,4.860528645324707
1789214677949323800,3.30232373046875,-0.2784755805969238,-6.252008722686767,5.818957497406005
1789214677959355600,3.312355712890625,-0.34700960311889645,-7.933037563323974,6.88841745147705
1789214677969386500,3.322386474609375,1.2132616912841796,-14.937573795318603,9.973346290588378
1789214677979418600,3.332418701171875,1.8064251525878905,-16.04953082885742,11.16640690536499
1789214677989450800,3.34245068359375,2.1754314834594726,-15.54555137939453,11.639411370849608
1789214677999482600,3.352482666015625,2.127248175048828,-14.758906496429443,11.784559846496581
1789214678009514500,3.362514404296875,1.7021277427673338,-13.501800987243652,10.435277573394774
1789214678019546600,3.372546630859375,0.8825625869750976,-10.771812544250487,8.15240629043579
1789214678029578800,3.382578857421875,-0.9293991569519042,-8.872911352539061,5.676801773834228
1789214678039610600,3.392610595703125,-2.644246096038818,-7.735366288757324,3.506009056091308
1789214678049642500,3.402642578125,-2.9234698646545407,-5.9023056427001945,3.6632781776428223
1789214678059674600,3.412674560546875,-2.7911902229309082,-6.180481948089599,3.967641063690185
1789214678069706800,3.422706787109375,-2.1900959686279298,-6.080972941589355,5.023184720611572
1789214678079737600,3.432737548828125,-0.9356839363098144,-5.775861867523193,6.542156036376952
1789214678089769700,3.442769775390625,-0.18749591751098632,-5.818658222198486,7.210587212371825
1789214678099801600,3.452801513671875,-0.6745663177490234,-6.2778960281372065,7.426514274597167
1789214678109833700,3.462833740234375,-0.8364742050170898,-6.720972972869872,7.581239556884765
1789214678119865600,3.472865478515625,-0.988356372833252,-7.087285826873779,7.376984227752685
1789214678129897500,3.4828974609375,-2.109890213012695,-6.938994961547851,7.126191603851318
1789214678139929600,3.4929296875,-3.4295442405700682,-6.669647274780273,7.198765841674804
1789214678149961700,3.502961669921875,-4.386626354217529,-6.782324390411376,6.889913827514648
1789214678159993600,3.51299365234375,-4.73722725982666,-6.317849268341064,6.617573388671874
1789214678170025500,3.523025390625,-4.943577515411377,-6.018574060821533,7.269993341064453
1789214678180057600,3.5330576171875,-5.155165087127685,-5.34370846786499,7.644236988067626
1789214678190088400,3.54308837890625,-5.119252062225342,-4.609885659027099,7.390451612091064
1789214678200120600,3.55312060546875,-4.988169521331787,-3.7838860862731933,7.264007836914062
1789214678210152700,3.563152587890625,-5.4050598854064935,-3.3182138633728027,7.171980710601806
1789214678220184600,3.5731845703125,-4.0800189041137696,-3.0253730728149413,6.079177290344238
1789214678230216400,3.583216552734375,-3.4174235946655274,-3.250278391265869,6.220584825897216
1789214678240248600,3.59324853515625,-2.6595091316223143,-1.936909143066406,6.204573602294921
1789214678250280700,3.60328076171875,-2.431012510681152,1.7069161460876463,5.803993737030029
1789214678260312600,3.6133125,-4.4005426513671875,1.1743559143066407,8.807370082092284
1789214678270344700,3.6233447265625,-2.0789152290344237,-3.412186278533935,9.625738137054443
1789214678280376600,3.63337646484375,0.5463268913269043,-5.622034410858154,4.612728773498535
1789214678290408700,3.64340869140625,0.0469862075805664,-5.172822324371338,3.132812872314453
1789214678300439600,3.653439453125,-1.67908355178833,-4.586542192840576,2.7166706962585447
1789214678310471400,3.663471435546875,-3.010259674835205,-4.244769905853271,2.820968106079101
1789214678320503800,3.67350390625,-3.6632781776428223,-4.285321696472168,3.976170407104492
1789214678330535700,3.68353564453125,-3.7716158027648925,-3.786429925537109,5.785737949371337
1789214678340567600,3.693567626953125,-5.908590422058105,-4.265719170379638,8.70830998840332
1789214678350599400,3.703599365234375,-8.997559476470947,-6.2496145210266105,8.77789147415161
1789214678360631800,3.7136318359375,-7.338228088378906,-6.463446656799316,8.789263932037352
1789214678370663700,3.72366357421875,-3.7735610916137694,-6.14187544631958,9.192088361358643
1789214678380695600,3.733695556640625,-3.3194109642028806,-8.839691804504394,12.464662755584715
1789214678390727400,3.7437275390625,-4.031536320495605,-10.449044232940674,17.196353424072264
1789214678400759800,3.753759765625,-2.02369895324707,-10.570101054382324,19.285144734954834
1789214678410791700,3.763791748046875,0.7610568527221679,-10.543166285705565,17.097742243194578
1789214678420823600,3.773823486328125,0.25797522888183594,-11.622502321624756,13.88636962890625
1789214678430854700,3.783854736328125,0.40880993347167965,-10.889128425598145,11.8997808013916
1789214678440886800,3.79388671875,0.3098994773864746,-11.468375589752197,9.507823705291747
1789214678450918700,3.803918701171875,-0.31693244476318355,-11.810147876739501,7.26505530014038
1789214678460950500,3.813950439453125,-1.0302549018859863,-12.601730800628662,4.419247351837158
1789214678470982700,3.823982666015625,-2.2177789253234863,-12.783690126800536,0.7547720733642578
1789214678481014800,3.834014892578125,-2.5178023208618163,-9.662997900390625,-2.340032847595215
1789214678491046700,3.844046630859375,-2.329707852935791,-8.014440419769286,-7.212981414031982
1789214678501078500,3.85407861328125,-0.7625532287597656,-9.258527457427977,-6.748655929565429
1789214678511110700,3.864110595703125,-6.68386284713745,-5.62457825012207,2.834734765625
1789214678521142800,3.874142822265625,-3.2447417999267576,-3.850474819946289,15.819388194274902
1789214678531174700,3.884174560546875,-0.6585550941467285,-4.286369159698486,20.375105040740966
1789214678541206500,3.89420654296875,-6.795492499542236,-2.59202257232666,11.609334212493895
1789214678551238700,3.90423876953125,3.183988932800293,-8.130259925079345,4.279785105133056
1789214678561270800,3.914270751953125,6.355857219696045,-7.035211940765381,4.003853363800048
1789214678571302700,3.924302734375,1.8695722213745116,-2.849698526000976,5.424063861083984
1789214678581333800,3.934333740234375,-0.6049848320007324,-2.0560206756591795,6.160580146789551
1789214678591362000,3.944362060546875,4.905719201660156,-3.8202480239868164,8.30518628387451
1789214678601394000,3.954393798828125,2.6669910118103024,-3.922001594543457,7.612513816070556
1789214678611426000,3.964426025390625,1.440261936187744,-4.653729476928711,7.005434057617187
1789214678621458200,3.974458251953125,0.361374813079834,-5.219658894348144,6.02635521621704
1789214678631490000,3.984489990234375,-1.510591609954834,-6.149357326507568,5.0939633071899415
1789214678641522000,3.99452197265625,-3.2333693420410152,-7.863755352783203,5.293130957794189
1789214678651554000,4.004553955078125,-4.198382248687744,-10.632200659942626,5.678597425079345
1789214678661586000,4.0145859375,-5.013009363555908,-12.76902564163208,5.462221450042724
1789214678671618000,4.0246181640625,-5.832873794555664,-12.290783860015868,5.516689537811279
1789214678681650000,4.03464990234375,-5.7149593627929685,-11.7082446685791,4.176385520935058
1789214678691682000,4.04468212890625,-5.500827951812743,-10.34325044708252,2.7673978439331055
1789214678701714000,4.0547138671875,-5.080346285247803,-5.221005632781982,5.518485189056396
1789214678711746000,4.06474609375,-3.1076737548828124,0.354940396118164,11.455357118225097
1789214678721778200,4.074778076171875,-3.7193922790527343,2.5417443374633786,12.648717008209228
1789214678731810000,4.08481005859375,-3.7997476722717285,-5.411195027160645,11.488576666259766
1789214678741841200,4.094841064453125,3.3261446563720702,-10.518625718688964,10.870872637939453
1789214678751873000,4.104873046875,4.058920001983642,-10.965443603515624,11.33280392074585
1789214678761905000,4.11490478515625,3.953126216125488,-10.308983435821533,7.069478952026366
1789214678771937000,4.12493701171875,-0.45878889312744137,-11.275492718505859,3.610905016326904
1789214678781969200,4.13496923828125,-7.711424272155761,-14.737807594299316,-7.98675746307373
1789214678792001000,4.1450009765625,-12.091167296600341,-25.53805128326416,-30.087932263183593
1789214678802033000,4.155032958984375,6.33924744567871,-19.53488989562988,-12.805237941741943
1789214678812065000,4.16506494140625,4.971260472106933,-3.9969700340270995,0.47061026382446286
1789214678822097200,4.17509716796875,-6.944980465698242,-3.1835400199890134,-0.7176619476318359
1789214678832129000,4.18512890625,-6.495918016815185,-6.7663131668090815,1.2597989860534666
1789214678842161000,4.195160888671875,-3.6866216438293455,-8.83041427307129,1.5441104331970215
1789214678852193000,4.205193115234375,-3.2646436012268065,-8.616881412506103,0.2415150924682617
1789214678862225200,4.21522509765625,-2.9459155052185055,-7.636306195068359,0.623090982055664
1789214678872257000,4.225257080078125,-2.2706009994506835,-5.189132823181152,-1.1809399688720703
1789214678882287900,4.235287841796875,-2.7150246826171873,-4.544942938995361,5.061491947174072
1789214678892320300,4.2453203125,-2.9330466712951657,-5.738602104187011,6.828263134765624
1789214678902352100,4.25535205078125,-2.858078231811523,-6.87614716796875,5.269637854003906
1789214678912384000,4.265384033203125,-2.7521348083496093,-7.8627078895568845,4.571578432464599
1789214678922415900,4.275415771484375,-3.027916912078857,-8.476072427368164,3.7110125732421873
1789214678932448300,4.2854482421875,-3.489698557281494,-9.254636879730224,3.9975685844421385
1789214678942480100,4.295480224609375,-4.02824429321289,-10.453832636260985,4.770297170257568
1789214678952512000,4.305511962890625,-4.496759630584717,-11.347618043518066,4.745906240844726
1789214678962543900,4.3155439453125,-4.192995294952392,-11.337442686462401,3.675997373962402
1789214678972576300,4.325576171875,-4.225765930175781,-10.877007779693603,3.549104685974121
1789214678982608100,4.335608154296875,-5.298517911529541,-10.4708913230896,3.877110313415527
1789214678992640000,4.345639892578125,-5.162198054504394,-9.705794255065918,3.878008139038086
1789214679002671900,4.355671875,-2.724302214050293,-9.392902025604247,3.4495956794738767
1789214679012704300,4.365704345703125,-1.9502268898010253,-8.831461736297607,2.4015339027404785
1789214679022736100,4.375736083984375,-2.9994857673645017,-7.643937712860107,1.3376105400085447
1789214679032768000,4.38576806640625,-2.805256157684326,-6.585550941467285,2.5932196731567383
1789214679042799900,4.3957998046875,-2.4488193855285645,-5.754912602996826,6.336853244018554
1789214679052831000,4.4058310546875,-6.065709906005859,-3.8590041633605954,9.03422068939209
1789214679062863000,4.415863037109375,-7.572410938262939,-1.912667851257324,8.685265797424316
1789214679072895000,4.42589501953125,-5.199906730651855,-1.57688106842041,5.618742383575439
1789214679082927000,4.435927001953125,-3.7030817802429197,-1.9847931762695312,3.308936331939697
1789214679092959000,4.445958984375,-3.25596462020874,-2.0829554443359375,3.9610570091247554
1789214679102991000,4.4559912109375,-2.2758383155822752,-1.2982558502197266,3.627963703155517
1789214679113023000,4.46602294921875,-2.945167317199707,-0.7107786178588866,2.9222727638244628
1789214679123055000,4.47605517578125,-3.5447651954650876,-0.8379705810546875,2.739565249633789
1789214679133087000,4.4860869140625,-4.32213254699707,-3.76682739944458,3.577236555480957
1789214679143119000,4.496119140625,-4.518756358337402,-7.376684952545165,4.024204077911377
1789214679153151000,4.50615087890625,-4.193593845367431,-7.676259435272216,3.1892262489318846
1789214679163182800,4.516182861328125,-2.917035447692871,-4.56469510269165,5.592855078125
1789214679173215200,4.52621533203125,-4.48179587020874,-5.89916325302124,4.281580756378173
1789214679183247000,4.5362470703125,-3.7633857345581054,-5.780799908447265,3.912125512695312
1789214679193279000,4.546279052734375,-5.40790299987793,-7.956530667114257,2.722805838012695
1789214679203310800,4.556310791015625,-4.134337354278564,-8.782679877471923,1.9069816223144531
1789214679213343200,4.56634326171875,0.19422960968017577,-20.91559606552124,2.950254995727539
1789214679223374000,4.5763740234375,2.2732944763183593,-30.49000850448608,8.368632627868651
1789214679233406000,4.586406005859375,-8.036137872314452,-7.906252432250976,14.889390486907958
1789214679243438000,4.59643798828125,-5.746682534790039,-10.328137049102782,7.586776148223876
1789214679253470000,4.606469970703125,-2.6433482704162596,-18.30516806793213,4.752789570617676
1789214679263502000,4.616502197265625,-3.3173160377502438,-18.546234247589112,3.4573768348693847
1789214679273534000,4.626533935546875,-3.2888848930358883,-17.77215892333984,1.6596306632995605
1789214679283566000,4.636566162109375,-2.675819630432129,-14.60762287902832,-0.4364928901672363
1789214679293598000,4.646597900390625,-4.103063095092773,-13.217639177703857,-0.17417817077636719
1789214679303630000,4.656630126953125,-5.288941104888916,-11.181520303344726,0.45504795303344725
1789214679313662000,4.666661865234375,-4.16231958618164,-9.471461767578125,-1.0555436569213867
1789214679323694000,4.676694091796875,-2.1250036109924317,-8.448838383483887,0.7888894470214843
1789214679333726000,4.686725830078125,-3.884741831207275,-9.204508282470703,2.991554974365234
1789214679343758000,4.696758056640625,1.9428946472167967,-9.946411521911621,4.070292459869385
1789214679353790000,4.7067900390625,-1.4791677131652832,-7.522731253814697,4.929511580657959
1789214679363822000,4.716822021484375,-5.698199951171874,-3.649960430908203,6.300341668701171
1789214679373854000,4.72685400390625,-3.221099058532715,-4.0429087783813475,5.375132364654541
1789214679383886000,4.736885986328125,-2.8535891036987304,-4.9446249786376955,5.231031352233886
1789214679393918000,4.74691796875,-2.9396307258605954,-6.497713668060302,5.338321514129638
1789214679403950000,4.7569501953125,-3.5027170288085934,-8.544756087493896,5.223699109649658
1789214679413982200,4.766982177734375,-4.44363828125,-10.694449903106689,4.7746366607666015
1789214679424013000,4.777012939453125,-5.092616568756103,-12.260706701660155,4.280682930755615
1789214679434045200,4.787045166015625,-6.948721405792236,-12.529156562805175,3.5631706207275387
1789214679444077000,4.7970771484375,-8.367136251831054,-11.875689147186279,2.8645126487731933
1789214679454109000,4.80710888671875,-8.018330997467041,-10.721384671783447,2.373701308441162
1789214679464141000,4.81714111328125,-6.628945846557617,-8.979303688812255,2.813486225891113
1789214679474173200,4.827173095703125,-5.31827007522583,-7.350498371887206,3.967192150878906
1789214679484205000,4.837205078125,-3.5482068603515624,-6.641665042877197,5.2162172294616695
1789214679494237000,4.84723681640625,-2.6886884643554687,-6.772897221374511,6.331316652679443
1789214679504269000,4.85726904296875,-3.85616104888916,-6.552481031036376,5.723937619018554
1789214679514301200,4.86730126953125,-5.722890155792236,-5.8180596717834465,4.561403075408935
1789214679524333000,4.8773330078125,-6.331017377471923,-5.7611973823547356,3.7729625411987304
1789214679534365000,4.887364990234375,-6.204573602294921,-6.3898249557495115,3.152565036010742
1789214679544397000,4.89739697265625,-6.12855769958496,-7.481730550384521,2.798223190307617
1789214679554429000,4.907428955078125,-7.350199096679687,-8.622866916656493,3.4413656112670896
1789214679564461000,4.9174609375,-9.42342809677124,-9.62753378829956,4.836885903930664
1789214679574493000,4.927492919921875,-9.90241806640625,-9.509020806121825,6.5482911781311035
1789214679584525000,4.937525146484375,-8.23006820678711,-8.900145396423339,7.6951137733459465
1789214679594557000,4.947556884765625,-6.238840613555908,-8.86168853225708,7.538892115020752
1789214679604589000,4.957589111328125,-4.531475554656982,-9.050830463409424,7.323862878417969
1789214679614621000,4.967620849609375,-4.535216494750976,-8.686013985443115,7.213430326843262
1789214679624653000,4.977653076171875,-5.0951604080200195,-7.153575285339355,7.107337265777588
1789214679634684200,4.98768408203125,-5.590011963653565,-5.833621982574463,7.1212535629272455
1789214679644716000,4.997716064453125,-5.882553479003906,-5.102043737792968,7.762600332641601
1789214679654748000,5.007747802734375,-6.3998506752014155,-4.754884497070313,7.973738991546631
1789214679664779800,5.01777978515625,-6.013187107086181,-4.786158756256103,7.34825380783081
1789214679674812200,5.027812255859375,-5.31183565826416,-5.3481975959777825,6.274903276062012
1789214679684844000,5.037843994140625,-5.867290443420409,-5.827935753631592,5.285948352813721
1789214679694876000,5.0478759765625,-7.215974166107177,-5.594501091766357,4.772242459106445
1789214679704907800,5.05790771484375,-7.958625593566894,-4.833294601440429,4.592078784179687
1789214679714940200,5.067940185546875,-6.8487634864807125,-3.584269522857666,4.613327323913574
1789214679724972000,5.077971923828125,-1.3021464279174804,-2.5890298202514646,4.016273284912109
1789214679735004000,5.08800390625,-0.7366659233093261,-3.8844425559997555,1.843086365509033
1789214679745035800,5.098035888671875,-1.7363947540283202,-3.7524621894836425,0.8547299926757812
1789214679755068200,5.108068115234375,-5.261407785797119,-2.9376854370117185,0.4800374328613281
1789214679765100000,5.11810009765625,-7.220014381408691,-2.6810569465637206,1.0570400329589844
1789214679775132000,5.1281318359375,-5.2825066879272455,-2.929156093597412,2.001702225494385
1789214679785163800,5.138163818359375,-3.9137715263366695,-4.316147042846679,2.4102128837585446
1789214679795196200,5.148196044921875,-3.4591724861145017,-5.615001443481445,2.4637831459045407
1789214679805228000,5.15822802734375,-4.831050037384033,-4.763413840484619,1.4998177024841308
1789214679815260000,5.168260009765625,-6.488286499023437,-1.894112788391113,0.019003975677490233
1789214679825292000,5.1782919921875,-7.9192709037780755,0.6088754096984863,-0.21248539733886718
1789214679835324200,5.18832421875,-8.060528801727294,1.1276689819335937,1.481711552429199
1789214679845356000,5.19835595703125,-6.392668070220947,0.18480244064331053,2.9263129791259765
1789214679855388000,5.208387939453125,-4.271854312133788,-0.5868786819458007,3.490297107696533
1789214679865419000,5.2184189453125,-3.72193611831665,-0.5428852264404297,3.264194688415527
1789214679875451100,5.228451171875,-4.161870673370361,0.018704700469970702,2.9611785408020017
1789214679885483000,5.23848291015625,-5.002834006500244,0.17238251953125,2.9049148017883297
1789214679895515000,5.248514892578125,-5.9199628799438475,-0.05626373901367187,3.0636802993774412
1789214679905547000,5.258547119140625,-6.278644216156006,-0.615459464263916,3.2884359802246093
1789214679915579100,5.2685791015625,-5.377825841522217,-1.6047136627197265,2.9013234992980954
1789214679925611000,5.278611083984375,-5.549759448242187,-3.050961103057861,2.372204932403564
1789214679935643000,5.288642822265625,-4.80112251663208,-4.193893120574951,2.5342624572753905
1789214679945675000,5.298675048828125,-4.223222090911865,-5.123890827941894,2.648136673736572
1789214679955707100,5.30870703125,-5.546018508148193,-5.9317842506408684,3.463362339019775
1789214679965739000,5.318739013671875,-6.269665959930419,-6.346579688262939,4.760421088409424
1789214679975771000,5.32877099609375,-7.023390570068359,-6.709001964569091,5.9132291877746574
1789214679985803000,5.338802978515625,-7.525724005889892,-7.312041507720947,6.651241849517822
1789214679995835100,5.348835205078125,-7.154323473358154,-7.7142673866271965,7.104643788909912
1789214680005867000,5.358866943359375,-5.926098021697998,-8.195352282714843,7.016058327484131
1789214680015899000,5.36889892578125,-5.290587118530273,-8.354716330718993,6.470479624176025
1789214680025931000,5.378930908203125,-4.997297415161133,-8.065017929840087,5.967996550750732
1789214680035963100,5.388963134765625,-5.455487757873535,-7.684190228271484,5.884199492645263
1789214680045995000,5.3989951171875,-5.335328762054443,-7.965658560943603,6.281636968231201
1789214680056027000,5.40902685546875,-5.214720853424072,-8.332420327758788,6.712742904663085
1789214680066059000,5.41905908203125,-4.221875352478027,-8.673743701934814,6.835445739746094
1789214680076091100,5.429091064453125,-3.3304841468811035,-9.396194052886962,5.960365032958984
1789214680086123000,5.439123046875,-3.3448493568420408,-10.752958206176757,4.9634793167114255
1789214680096153900,5.44915380859375,-4.6432548446655275,-12.707075673675536,4.371512956237793
1789214680106186000,5.45918603515625,-5.799953521728515,-15.675885732269286,3.867084593963623
1789214680116218000,5.469218017578125,-6.655431702423095,-18.25144816818237,3.743184658050537
1789214680126250000,5.47925,-7.011569199371338,-18.862119229125977,4.469824861907958
1789214680136281900,5.48928173828125,-7.346458156585693,-17.92763239364624,5.139752413940429
1789214680146314000,5.49931396484375,-7.465120776367187,-15.821632758331297,5.459976885986328
1789214680156346000,5.50934619140625,-6.823774006652831,-13.31804600982666,5.155015449523925
1789214680166378000,5.5193779296875,-6.37800358505249,-11.14785184249878,4.4671313850402825
1789214680176409900,5.529409912109375,-6.3055789848327635,-9.248202462768553,4.0912417243957515
1789214680186442000,5.53944189453125,-5.905148757171631,-7.876624186706542,4.124910185241699
1789214680196474000,5.54947412109375,-5.281459224700927,-7.0278796981811515,4.188955079650879
1789214680206506000,5.559506103515625,-4.640262092590332,-6.756885997772216,3.5257612197875976
1789214680216537900,5.569537841796875,-3.5705028633117672,-6.734889270019531,2.7142764945983884
1789214680226570000,5.579570068359375,-3.1802479927062985,-6.550685379791259,1.8168997848510742
1789214680236602000,5.58960205078125,-2.989609685516357,-6.2684688591003415,0.8358756546020507
1789214680246634000,5.599634033203125,-2.548627667236328,-6.265625744628906,-0.3742436470031738
1789214680256665900,5.609665771484375,-2.3988404258728027,-6.492177076721191,-1.2210428466796874
1789214680266698000,5.619697998046875,-2.6882395515441893,-6.76092621307373,-1.3944728294372557
1789214680276730000,5.629730224609375,-3.6635774528503418,-7.020098542785644,-0.98955347366333
1789214680286762000,5.639761962890625,-4.534917219543456,-7.303063251495361,0.4547486778259277
1789214680296793900,5.6497939453125,-5.028422036743164,-7.958625593566894,2.157325333404541
1789214680306826200,5.659826171875,-5.971887128448486,-9.09781667098999,3.316118936920166
1789214680316857000,5.669857177734375,-6.589740794372558,-10.32319900817871,4.649988536834717
1789214680326889000,5.679888916015625,-6.653037500762939,-11.174337698364257,6.075286712646484
1789214680336921000,5.689921142578125,-6.565349864959717,-10.812214697265624,6.824971107482909
1789214680346953000,5.699952880859375,-5.936123741149902,-9.919925666046142,6.912060192871094
1789214680356985000,5.709985107421875,-4.684405185699463,-9.051877926635742,6.712593267059326
1789214680367017000,5.720016845703125,-4.013430170440674,-8.598775262451172,6.8499605873107905
1789214680377049000,5.730049072265625,-4.478952755737304,-8.63827958984375,7.248894438934326
1789214680387081000,5.7400810546875,-6.091447573852538,-9.464728075408935,7.436091081237793
1789214680397113000,5.750113037109375,-7.954435740661621,-11.022305892944335,7.845050652313232
1789214680407145000,5.76014501953125,-8.726266500854491,-12.247538592529295,7.398831317901611
1789214680417177000,5.770177001953125,-8.463203593444824,-12.199355284118651,6.938845323944092
1789214680427209000,5.780208984375,-7.63570764465332,-11.38353106842041,7.6738652336120605
1789214680437241000,5.790240966796875,-6.808062058258057,-10.614693060302734,8.59338830871582
1789214680447273000,5.80027294921875,-5.978920095825195,-10.621277114868164,8.71399621734619
1789214680457304800,5.810304931640625,-4.704456624603271,-10.16323640975952,9.050531188201903
1789214680467337000,5.8203369140625,-3.2818519256591796,-8.966135579681396,7.998578833770751
1789214680477369000,5.830369140625,-1.7791911087036132,-6.585850216674804,5.371690699768066
1789214680487401000,5.84040087890625,-0.9118915573120117,-3.3207577026367185,1.6002245346069335
1789214680497432800,5.850432861328125,-1.24498486328125,-0.009127893829345703,-1.6677110939025879
1789214680507465000,5.86046484375,-2.8293478118896482,2.864213373565674,-3.3713352127075193
1789214680517497000,5.8704970703125,-4.121318882751464,4.259883303833008,-2.8482021499633787
1789214680527529000,5.880529052734375,-4.177133708953857,3.4478000282287597,-1.237203707885742
1789214680537560800,5.890560791015625,-4.494963979339599,1.045069024658203,0.7523778717041015
1789214680547593000,5.900593017578125,-5.159504577636718,-2.31130242767334,3.0909143432617188
1789214680557625000,5.910625,-5.021837982177734,-5.471648619079589,4.934599259185791
1789214680567656000,5.920656005859375,-5.614253255462646,-6.973860523223877,5.97592734375
1789214680577688000,5.93068798828125,-5.2822074127197265,-7.579743180847167,6.463745932006836
1789214680587720400,5.940720458984375,-5.429600452423095,-7.425616448974609,7.082048510742187
1789214680597752600,5.950752685546875,-6.696582043457031,-6.922235549926757,7.448660639953613
1789214680607784400,5.960784423828125,-6.047454118347168,-5.389796849822997,6.849212399291992
1789214680617816600,5.970816650390625,-6.450877098083495,-2.82186593170166,5.683086553192139
1789214680627848400,5.980848388671875,-5.379771130371093,-0.4216787673950195,3.884891468811035
1789214680637880600,5.990880615234375,-4.5224972984313965,1.0378864196777342,2.07487501373291
1789214680647912400,6.000912353515625,-5.24150598449707,1.7172411407470702,1.0562918449401855
1789214680657944300,6.0109443359375,-5.997624796295166,1.4950292991638183,0.9979331794738769
1789214680667976400,6.0209765625,-6.8122519111633295,0.816572403717041,1.1174936248779297
1789214680678008600,6.031008544921875,-7.381622993469238,-0.01705868682861328,1.9578584075927734
1789214680688040400,6.04104052734375,-7.889941933441162,-1.7292121490478514,3.7487212493896482
1789214680698072300,6.051072265625,-7.823652474975585,-3.748272336578369,5.566518859863281
1789214680708104700,6.061104736328125,-6.743568251037598,-5.199757093048095,7.3849150207519525
1789214680718136600,6.071136474609375,-5.299415737152099,-6.048950494384766,8.097788565063476
1789214680728168400,6.08116845703125,-4.187458703613281,-6.424690517425537,7.027430785369873
1789214680738200300,6.091200439453125,-3.9618051971435544,-6.416909362030029,6.075286712646484
1789214680748232700,6.101232666015625,-3.732111475372314,-6.141426533508301,5.646574977874756
1789214680758264600,6.1112646484375,-4.053682685852051,-5.874772323608398,5.256469744873047
1789214680768296400,6.12129638671875,-4.131344602203369,-5.281159949493408,4.957793087768555
1789214680778328300,6.131328369140625,-3.706822720336914,-4.774038110351563,4.727201540374756
1789214680788360700,6.141360595703125,-3.5078047073364256,-4.432116185760497,4.326771312713623
1789214680798392600,6.151392578125,-3.7574002304077148,-4.371961869049072,4.018817124176025
1789214680808424400,6.161424560546875,-4.358045571899414,-4.396652073669434,3.8090252037048336
1789214680818456300,6.171456298828125,-4.971559747314453,-4.821922143554687,3.125031716918945
1789214680828487400,6.1814873046875,-5.0097173362731935,-5.595548554992676,2.401833177947998
1789214680838519600,6.19151953125,-5.275174445343017,-6.229114169311523,2.103755071258545
1789214680848551400,6.201551513671875,-5.578040955352783,-7.1972694656372065,2.0971710166931152
1789214680858583600,6.21158349609375,-5.739799205017089,-8.393023557281493,2.7492916938781735
1789214680868615400,6.221615478515625,-5.676801773834228,-9.382277755737304,3.7683237754821777
1789214680878647600,6.2316474609375,-6.71633420715332,-9.40397520828247,4.594024073028564
1789214680888679400,6.241679443359375,-7.345560330963134,-8.589797006225586,4.892401454925537
1789214680898711600,6.251711669921875,-7.397035666656493,-7.907150257873535,4.7286979164123535
1789214680908743400,6.261743408203125,-7.261613635253906,-8.060678439331054,4.723011687469482
1789214680918775600,6.271775634765625,-7.1303814567565915,-8.423399990844725,4.908861591339111
1789214680928807400,6.281807373046875,-6.828263134765624,-8.466794895935058,5.19661470336914
1789214680938839600,6.291839599609375,-5.967248362731933,-7.921964380645751,5.542277568054199
1789214680948871700,6.30187158203125,-5.272181693267822,-7.31608172302246,5.383362432861328
1789214680958903600,6.311903564453125,-4.458003491210937,-6.500257507324219,5.711667335510254
1789214680968935400,6.321935302734375,-3.8935704498291015,-6.637475189971924,5.6666264167785645
1789214680978967600,6.331967529296875,-3.554790914916992,-7.90340931777954,5.507711281585693
1789214680988999700,6.341999755859375,-3.651157531738281,-10.499023192596434,4.837634091949463
1789214680999031600,6.352031494140625,-4.6347255012512205,-13.405135095214844,3.5232173805236813
1789214681009063400,6.3620634765625,-5.013308638763427,-15.320197148132323,3.388842812347412
1789214681019095300,6.37209521484375,-6.003161387634277,-15.083021546173095,3.9546225921630858
1789214681029127700,6.382127685546875,-7.242460021972656,-13.644854536437988,4.3725604194641114
1789214681039159600,6.39215966796875,-7.320121938323974,-12.815862211608886,4.080168541717529
1789214681049191400,6.40219140625,-6.9348051086425775,-12.147131760406493,3.275866421508789
1789214681059223300,6.412223388671875,-6.832752262878418,-11.253795265960692,2.5207950729370117
1789214681069255700,6.422255615234375,-6.813000099182129,-10.376170719909668,2.217928562927246
1789214681079286500,6.43228662109375,-6.668899086761474,-9.41699367980957,1.8959084396362305
1789214681089318400,6.442318359375,-6.7167831199645995,-8.880243595123291,1.5366285530090331
1789214681099350500,6.4523505859375,-7.1218521133422845,-8.385691314697265,1.5116390731811522
1789214681109382400,6.46238232421875,-8.206575102996826,-8.066813581085205,1.6066589515686034
1789214681119414500,6.47241455078125,-8.403647827148436,-8.020276286315918,2.0856489212036133
1789214681129446400,6.4824462890625,-6.985083343505859,-8.269871809387206,2.123656872558594
1789214681139478500,6.492478515625,-3.9194577552795407,-8.549843766021729,1.8676269325256347
1789214681149510400,6.502510498046875,-0.8592191207885742,-8.034791133880615,2.0054431655883787
1789214681159542500,6.51254248046875,0.012419921112060545,-7.1860466453552245,2.6880899139404297
1789214681169574400,6.522574462890625,-0.49111061553955077,-6.64585489578247,3.4611177749633786
1789214681179606500,6.5326064453125,-2.348262915802002,-6.860884132385253,3.4479496658325193
1789214681189638700,6.542638671875,-3.2721254814147946,-7.165247018432617,3.807528827667236
1789214681199670500,6.55267041015625,-3.365798621368408,-7.363067930603027,4.394257872009277
1789214681209702400,6.562702392578125,-3.5769372802734374,-7.331644033813476,4.893299280548096
1789214681219734500,6.572734619140625,-4.09213955001831,-7.387458860015869,5.606023187255859
1789214681229766700,6.5827666015625,-5.223100559234619,-7.587673973846435,6.598719050598144
1789214681239798500,6.592798583984375,-7.057208668518066,-7.87183578338623,7.5840826713562
1789214681249830400,6.602830322265625,-8.35112502822876,-8.033294757843016,8.246977256011963
1789214681259862500,6.612862548828125,-8.53607710647583,-7.959673056793212,8.17784468307495
1789214681269894700,6.622894775390625,-7.766041997528076,-7.579443905639648,7.129483631134033
1789214681279926500,6.632926513671875,-5.932083525848388,-7.0473325866699215,5.76508796005249
1789214681289958400,6.64295849609375,-4.470273774719238,-6.714538555908203,4.048295732116699
1789214681299990500,6.652990478515625,-3.6644752784729,-6.216843885803223,3.308188143920898
1789214681310022700,6.663022705078125,-3.730914374542236,-5.808183589935302,3.5365351272583005
1789214681320053500,6.673053466796875,-4.770895720672607,-5.857115086364746,4.076876514434814
1789214681330085600,6.683085693359375,-6.02710340423584,-6.717680945587158,4.397100986480712
1789214681340117500,6.693117431640625,-6.730549779510498,-7.677306898498535,4.33500138092041
1789214681350149400,6.7031494140625,-6.897545345306396,-8.898649020385742,3.9076363845825193
1789214681360181500,6.713181396484375,-6.14786095046997,-9.522039277648926,4.226963031005859
1789214681370213600,6.723213623046875,-6.6997244331359855,-10.11879404144287,4.5416509117126465
1789214681380245500,6.73324560546875,-7.624484824371337,-9.872041632843017,5.589413413238525
1789214681390277400,6.74327734375,-8.12726717300415,-9.055768504333496,6.476016215515136
1789214681400309500,6.7533095703125,-7.85253253250122,-8.110058848571777,6.592284633636474
1789214681410341400,6.76334130859375,-6.540061109924316,-7.841160074615478,5.648819541931152
1789214681420373500,6.77337353515625,-3.4389714096069333,-8.533383629608155,5.340865353393554
1789214681430405400,6.7834052734375,-2.6931775924682615,-8.749909242248535,5.135412923431396
1789214681440437500,6.7934375,-3.9022494308471676,-6.06511135559082,4.741566750335693
1789214681450469400,6.803469482421875,-5.112668007659912,-2.3792378997802732,3.449894954681396
1789214681460501500,6.81350146484375,-4.570381331634521,-1.3207014907836914,0.9952397026062011
1789214681470533600,6.82353369140625,-3.686322368621826,-1.1188403633117676,0.34715924072265625
1789214681480565500,6.8335654296875,-5.336376225280762,-1.0571896705627442,1.4281412902832031
1789214681490597400,6.843597412109375,-5.762843395996094,-1.2195464706420898,1.2256816123962402
1789214681500629500,6.85362939453125,-5.8357169090270995,-2.045546043395996,0.44861353607177734
1789214681510661600,6.86366162109375,-5.908440784454346,-3.0795418853759764,0.8840589630126953
1789214681520693500,6.873693603515625,-6.386383290863037,-3.6783915756225585,1.9313725517272948
1789214681530725400,6.883725341796875,-5.925798746490478,-4.1097967872619625,2.470217562866211
1789214681540757500,6.893757568359375,-4.7631145652771,-4.052485585021972,2.2563854270935058
1789214681550789600,6.90378955078125,-5.174318700408935,-3.2986113372802732,2.4446295326232907
1789214681560821500,6.913821533203125,-5.3214124649047845,-2.131737303161621,3.068917615509033
1789214681570853400,6.923853271484375,-4.538957434844971,-0.9105448188781737,3.3348236373901363
1789214681580884500,6.933884521484375,-4.514267230224609,-0.16385317611694336,3.291578369903564
1789214681590916000,6.943916015625,-4.713135605621337,0.5225345123291015,3.0852281143188476
1789214681600948200,6.9539482421875,-5.325452680206299,0.7851485069274902,2.7916391357421872
1789214681610980400,6.96398046875,-5.537788439941406,0.5469254417419434,3.024475247192383
1789214681621012200,6.97401220703125,-5.1219455390930175,0.034715924072265626,3.503165941619873
1789214681631044000,6.984044189453125,-5.659144536590576,-0.7993640792846679,3.8961142890930174
1789214681641076200,6.994076171875,-6.3712698928833005,-1.7272668601989745,4.791246434783935
1789214681651108400,7.0041083984375,-5.7706245513916015,-2.9037177009582518,5.701043065643311
1789214681661140200,7.01414013671875,-5.2533273551940916,-4.543296925354004,6.353014105224609
1789214681671172000,7.024172119140625,-5.057302094268799,-6.368426778411865,6.413318059539795
1789214681681204200,7.034204345703125,-4.243572805023193,-8.009652016448975,5.728277109527587
1789214681691236400,7.044236328125,-3.8326679450988768,-9.51814869995117,4.468178848266601
1789214681701268200,7.054268310546875,-3.652653907775879,-10.329633425140381,3.628861528778076
1789214681711300000,7.064300048828125,-3.7184944534301754,-10.161291120910644,3.397671430969238
1789214681721332200,7.074332275390625,-4.090194261169433,-9.113678256988525,3.4666543663024902
1789214681731364400,7.0843642578125,-4.600458489990234,-7.398831317901611,3.7012861289978027
1789214681741396200,7.094396240234375,-5.187337171936035,-6.0345852844238275,3.8983588531494138
1789214681751428400,7.104428466796875,-5.533299311828613,-5.552602562713623,3.9923312683105467
1789214681761460200,7.114460205078125,-6.0984805412292475,-6.096086339569092,4.115483016204834
1789214681771492400,7.124492431640625,-6.311115576171875,-7.4776903350830075,4.634276588439941
1789214681781524200,7.134524169921875,-5.607070650482178,-9.626486325073241,5.843797339630127
1789214681791556400,7.144556396484375,-5.97577770614624,-11.265915911865234,7.0370075920104975
1789214681801588200,7.154588134765625,-6.357054320526123,-12.217012521362303,7.7136688362121575
1789214681811619300,7.164619384765625,-5.853523783874511,-12.236914322662352,7.684639141082763
1789214681821651200,7.174651123046875,-5.300014287567138,-11.949310848236083,6.468833610534667
1789214681831683000,7.18468310546875,-5.008370597839355,-11.532869396972655,5.292083494567871
1789214681841715500,7.194715576171875,-5.701043065643311,-11.021108792114257,4.622754492950439
1789214681851747300,7.204747314453125,-6.232555834197997,-10.963049401855468,3.611503566741943
1789214681861779200,7.214779296875,-6.360495985412597,-11.273547429656983,2.7142764945983884
1789214681871811000,7.22481103515625,-7.2246531471252435,-11.552621560668944,2.639457692718506
1789214681881843500,7.234843505859375,-7.300369774627685,-11.004499018096924,3.290979819488525
1789214681891875300,7.244875244140625,-6.4080807434082026,-10.188076251983642,3.8428433021545407
1789214681901907200,7.2549072265625,-5.766285060882568,-9.522039277648926,3.8639422042846676
1789214681911939000,7.26493896484375,-5.250783515930175,-9.023746057128905,3.7496190750122067
1789214681921971200,7.27497119140625,-5.00552748336792,-8.948328704833983,3.4171243194580074
1789214681932003300,7.28500341796875,-5.228936425781249,-9.460238947296142,2.797026089477539
1789214681942035200,7.29503515625,-4.9066170272827145,-10.159645107269286,2.383128477478027
1789214681952067000,7.305067138671875,-4.7295957420349115,-10.975918235778808,1.9080290855407713
1789214681962099200,7.31509912109375,-4.995801039123535,-11.56848314666748,1.5108908851623535
1789214681972131300,7.32513134765625,-5.591508339691162,-11.457152769470214,1.664269429016113
1789214681982163200,7.3351630859375,-6.1839236129760735,-10.80802484436035,1.8589479515075682
1789214681992195000,7.345195068359375,-6.546046614074706,-9.977236868286132,2.327164013671875
1789214682002227200,7.355227294921875,-7.01650724029541,-9.243264421844481,3.034500966644287
1789214682012259300,7.36525927734375,-6.909516353607177,-8.897900832366943,3.4042554855346676
1789214682022291200,7.375291259765625,-5.689520970153808,-8.785672629547118,3.126378455352783
1789214682032322000,7.385322021484375,-3.8419454765319823,-8.63169553527832,2.6403555183410643
1789214682042354400,7.3953544921875,-2.431760698699951,-8.393173194885254,2.7645547294616697
1789214682052386300,7.40538623046875,-2.654720728302002,-7.962815446472168,3.7536592903137205
1789214682062418200,7.415418212890625,-3.858704888153076,-7.698256163024902,4.770446807861328
1789214682072450000,7.425449951171875,-4.280533293151855,-7.885452805328368,5.116558585357666
1789214682082482400,7.435482421875,-4.202272826385498,-7.855226009368896,5.3007624755859375
1789214682092514300,7.445514404296875,-5.029020587158203,-7.681796026611328,5.612607241821289
1789214682102546200,7.455546142578125,-5.285050527191162,-7.368903797149658,6.2009822998046875
1789214682112578000,7.465578125,-4.712537055206298,-7.070077502441406,6.4543187629699705
1789214682122610400,7.4756103515625,-4.157830458068847,-6.888866364288329,6.05867693862915
1789214682132642300,7.485642333984375,-4.1472061882019045,-7.264905662536621,5.42675733795166
1789214682142674200,7.495674072265625,-4.90302572479248,-7.614159829711913,4.945971717071533
1789214682152706000,7.5057060546875,-5.141398427581787,-7.773224602508544,4.648941073608398
1789214682162738400,7.515738525390625,-4.740369649505615,-7.004236956787109,4.911255792999268
1789214682172770300,7.525770263671875,-4.560954162597656,-5.635052882385254,5.430199002838134
1789214682182802200,7.53580224609375,-5.06253941040039,-4.688894313812256,6.702567547607422
1789214682192834000,7.545833984375,-6.204423964691162,-4.60943674621582,8.053944747161864
1789214682202866400,7.555866455078125,-6.8113540855407715,-5.280262123870849,9.00174932937622
1789214682212898300,7.565898193359375,-6.590040069580078,-6.834547914123535,8.507945236968993
1789214682222930200,7.57593017578125,-6.18616817703247,-8.594435771942138,6.280439867401123
1789214682232962000,7.585962158203125,-5.240308883666992,-8.988581220245361,3.612102117156982
1789214682242993400,7.595993408203125,-3.4102409896850583,-7.95503429107666,1.0938508834838867
1789214682253025300,7.606025390625,-1.5427636947631835,-6.139930157470703,0.9311948081970214
1789214682263057200,7.61605712890625,-2.7015572982788085,-5.192424850463867,2.424278818511963
1789214682273089300,7.62608935546875,-5.633406868743896,-5.035305366516113,4.88417138671875
1789214682283121400,7.636121337890625,-9.126397453308105,-5.314978047943115,7.260566172027588
1789214682293153300,7.6461533203125,-10.868179161071776,-6.291213774871826,7.976582106018066
1789214682303185200,7.65618505859375,-9.029731561279297,-6.7268088394165035,6.9430351768493646
1789214682313217300,7.66621728515625,-5.569062699127197,-5.7597010063171385,3.67719447479248
1789214682323249400,7.67624951171875,-3.79870020904541,-4.52010309677124,1.6238672760009765
1789214682333281300,7.68628125,-4.012083432006835,-4.6718356269836425,1.7886182777404784
1789214682343313200,7.696313232421875,-4.643703757476806,-3.8016929611206054,2.405125205230713
1789214682353345300,7.70634521484375,-5.687725318908691,-1.9955670837402342,1.8670283821105955
1789214682363377400,7.71637744140625,-5.565621034240722,-1.101183126068115,1.2352584190368652
1789214682373409300,7.7264091796875,-4.566640391540527,-0.9777321029663085,1.0452186622619628
1789214682383441200,7.736441162109375,-5.153967986297607,-0.9898527488708495,1.513584362030029
1789214682393473000,7.74647314453125,-5.725583632659911,-1.936310592651367,2.826953610229492
1789214682403505400,7.75650537109375,-5.0017865432739255,-2.271498825073242,2.7060464263916013
1789214682413537300,7.766537353515625,-4.819527941894531,-1.9186533554077148,2.046743144226074
1789214682423569200,7.776569091796875,-4.1386768447875975,-1.605611488342285,2.0684405967712403
1789214682433601000,7.78660107421875,-3.2721254814147946,-1.5592238311767577,1.742380258178711
1789214682443633400,7.79663330078125,-3.3572692779541016,-1.8152537712097168,1.288978318786621
1789214682453665300,7.806665283203125,-4.286219522094727,-1.808071166229248,1.274912384033203
1789214682463696100,7.816696044921875,-4.944176065826416,-1.6832734046936033,1.9243395843505857
1789214682473728300,7.826728271484375,-5.668870980834961,-2.051830822753906,2.7515362579345704
1789214682483760400,7.836760498046875,-6.3341597671508785,-2.772186247253418,3.592349953460693
1789214682493792300,7.846792236328125,-6.224026490783691,-3.5627217079162596,4.519803821563721
1789214682503824100,7.85682421875,-5.97592734375,-4.396053523254395,5.402516046142578
1789214682513856300,7.866856201171875,-5.6407391113281244,-5.167285733032227,6.272209799194336
1789214682523888400,7.876888427734375,-5.4239142234802245,-6.070947222137451,6.685658498382568
1789214682533920300,7.886920166015625,-5.258714308929443,-7.030124262237549,6.721421885681152
1789214682543952100,7.8969521484375,-4.82057540512085,-7.613112366485595,6.694038204193115
1789214682553984300,7.906984375,-4.772541734313965,-7.745392008209228,6.537068357849121
1789214682564016400,7.917016357421875,-4.94806664352417,-7.475445771026611,6.345532225036621
1789214682574048300,7.92704833984375,-5.028721311950683,-7.336282799530029,6.025457390594482
1789214682584080100,7.937080078125,-5.102193375396729,-7.383119369506836,5.6940100982666015
1789214682594111700,7.94711181640625,-5.20933389968872,-7.64827720336914,5.618892021179199
1789214682604143900,7.957143798828125,-5.588066674804687,-7.69286920928955,5.432293929290771
1789214682614175700,7.96717578125,-4.8780362449645995,-7.822754649353027,5.531503660583496
1789214682624207600,7.97720751953125,-4.434660025024414,-8.04406866531372,5.581033707427978
1789214682634239700,7.98723974609375,-4.406977068328858,-8.262389929199218,5.729773485565185
1789214682644271900,7.99727197265625,-4.552275181579589,-8.10197841796875,5.539434453582763
1789214682654303700,8.0073037109375,-4.488828837585449,-8.000973035430908,4.75623123550415
1789214682664334800,8.0173349609375,-4.238335488891601,-8.003516874694824,3.624522038269043
1789214682674366700,8.02736669921875,-3.8916251609802246,-8.183231636810302,2.8675054008483887
1789214682684398600,8.037398681640624,-4.2420764289855954,-8.911368216705322,2.3609821121215817
1789214682694430700,8.0474306640625,-4.699668221282959,-10.492738413238525,2.57301859664917
1789214682704462800,8.057462890625,-5.457582684326171,-12.388946128082274,3.6393361610412596
1789214682714494700,8.06749462890625,-6.208613817596436,-14.608969617462158,4.716876545715332
1789214682724526600,8.077526611328125,-6.7930982978820795,-16.30526149368286,5.239710333251953
1789214682734558700,8.087558837890626,-7.486967866516113,-17.221791816711423,5.059845933532714
1789214682744590800,8.0975908203125,-7.84026224899292,-16.333692638397217,4.741716387939453
1789214682754622700,8.107622802734374,-7.43130267791748,-13.665504525756836,4.325574211883545
1789214682764654600,8.117654541015625,-6.777984899902344,-10.922647248840331,3.58142640838623
1789214682774686700,8.127686767578124,-5.825840827178955,-9.405770859527587,2.726696415710449
1789214682784718800,8.13771875,-5.3573254898071285,-8.731503816986084,2.1356278808593747
1789214682794750700,8.147750732421875,-5.814767644500732,-8.15809251937866,1.7112556365966796
1789214682804782600,8.157782470703125,-6.8305076988220215,-7.975684280395507,1.4998177024841308
1789214682814814700,8.167814697265625,-7.531260597229004,-8.38269856262207,1.7090110725402832
1789214682824846800,8.177846923828126,-7.7599068557739255,-9.083152185821532,1.9794062225341795
1789214682834878700,8.187878662109375,-7.246649874877929,-9.631873278808593,2.198326036834717
1789214682844910800,8.197910888671874,-5.923254907226562,-9.819818109130859,2.1760300338745115
1789214682854942000,8.20794189453125,-4.485536810302734,-9.48732335357666,1.9620482604980467
1789214682864973800,8.217973876953126,-3.123236065673828,-8.831162461090088,1.8167501472473144
1789214682875005700,8.228005615234375,-2.245312244415283,-7.829039428710937,1.8065747901916502
1789214682885037600,8.23803759765625,-1.4870985061645507,-6.962039152526855,2.2062568298339844
1789214682895070000,8.248070068359375,-0.6322188758850097,-6.21834026184082,3.0705636291503904
1789214682905101800,8.258101806640624,-0.050427872467041016,-5.600785871124267,3.955670055389404
1789214682915133700,8.2681337890625,-0.7894879974365234,-5.2816088623046875,4.950610482788085
1789214682925165600,8.27816552734375,-2.4576480041503905,-5.182099855804443,5.737255365753174
1789214682935198000,8.288197998046876,-4.844218146514892,-5.721693054962158,6.321590208435058
1789214682945229800,8.298229736328125,-7.776965542602539,-6.702118634796142,6.861482682800292
1789214682955261700,8.30826171875,-9.55645592651367,-7.870638682556152,8.08881030883789
1789214682965293600,8.31829345703125,-8.86827258682251,-8.963891015625,9.401730644226074
1789214682975325700,8.32832568359375,-8.084021905517577,-10.37482398147583,9.450662140655517
1789214682985357800,8.33835791015625,-7.5148004608154295,-11.355099923706055,8.742427362060546
1789214682995389700,8.3483896484375,-6.213851133728027,-11.5182049118042,8.15928962020874
1789214683005421600,8.358421630859375,-5.10159482498169,-11.052383051300048,7.503876915740967
1789214683015453700,8.36845361328125,-4.460248055267334,-9.90825393295288,7.042693820953369
1789214683025485800,8.37848583984375,-5.2180128807067865,-8.03838243637085,6.095787064361572
1789214683035517700,8.388517578125,-6.894552593231201,-5.816413658142089,5.073313317871094
1789214683045549600,8.398549560546876,-7.983914348602294,-4.599261389160156,4.806958383178711
1789214683055581700,8.408581787109375,-7.86555100402832,-4.499004194641113,5.472396807098388
1789214683065612800,8.41861279296875,-7.05481446685791,-6.594080284881591,5.219509256744384
1789214683075644700,8.428644775390625,-5.473294632720947,-8.776095822906493,4.669441425323486
1789214683085676500,8.438676513671876,-3.986345764160156,-10.007613301849364,3.8256349777221677
1789214683095709000,8.448708984375,-3.790470140838623,-9.760711255645752,3.4482489410400388
1789214683105740800,8.45874072265625,-4.001908074951172,-7.638700396728515,4.394257872009277
1789214683115772700,8.468772705078125,-5.542876118469238,-5.440523997497558,4.9354970848083495
1789214683125804500,8.478804443359374,-5.876418337249755,-4.132242427825927,4.588936394500732
1789214683135837000,8.4888369140625,-4.333205729675293,-3.987093952178955,3.703530693054199
1789214683145868800,8.498868896484375,-3.136104899597168,-3.4133833793640136,2.657713480377197
1789214683155900700,8.508900634765626,-3.5048119552612302,-1.777994007873535,1.7414824325561522
1789214683165932500,8.5189326171875,-4.510376652526856,-0.036062662506103516,0.8093897987365722
1789214683175965000,8.52896484375,-6.082319680023193,1.150413897705078,1.0134954902648925
1789214683185996800,8.538996826171875,-6.927772141265868,0.5758054992675781,2.9836241813659665
1789214683196028700,8.549028564453126,-6.413168421936035,-1.5683517250061034,3.8908769729614257
1789214683206060500,8.559060546875,-5.275623358154297,-2.6198551666259764,3.1974563171386716
1789214683216093000,8.569093017578124,-3.4735376960754394,-2.5157073944091795,1.9985598358154295
1789214683226124800,8.579124755859375,-2.3343466186523436,-2.531419342803955,0.7724293106079101
1789214683236156700,8.58915673828125,-2.833836940002441,-2.2948422912597657,0.7927800247192383
1789214683246188500,8.5991884765625,-3.9332244148254394,-1.7977461715698242,1.4694412689208984
1789214683256220000,8.609219970703125,-4.76924970703125,-1.3195043899536132,1.9705776039123535
1789214683266251800,8.619251708984375,-4.914847095489502,-1.0824784255981446,2.3247698120117186
1789214683276283600,8.62928369140625,-4.058770364379883,-1.3651438591003417,2.379387537384033
1789214683286315800,8.639315673828126,-3.3596634796142575,-1.8638859924316404,2.123357597351074
1789214683296348000,8.649347900390625,-3.3764228912353516,-2.4507646743774414,1.3754688537597655
1789214683306379800,8.6593798828125,-3.83700743560791,-2.9179332733154295,0.579696076965332
1789214683316411600,8.66941162109375,-4.425083218383789,-3.19835414276123,0.7101800674438477
1789214683326443800,8.67944384765625,-5.3853077217102046,-3.510797459411621,2.3427263244628906
1789214683336476000,8.689475830078125,-5.677699599456787,-4.254795625305175,4.68590156173706
1789214683346507800,8.6995078125,-5.131671983337402,-5.706579656982422,6.247070681762695
1789214683356539600,8.70953955078125,-5.194669414520264,-7.362918292999267,7.420229495239258
1789214683366571800,8.71957177734375,-5.658396348571777,-9.343222341156006,8.770110318756103
1789214683376604000,8.72960400390625,-5.41987400817871,-11.526584617614745,9.982174909210205
1789214683386635800,8.7396357421875,-5.3944356155395505,-13.748852671051024,9.904961905670165
1789214683396667600,8.749667724609376,-5.0197430557250975,-14.611663094329833,8.392574644470214
1789214683406699800,8.75969970703125,-4.943278240203857,-13.342885852050781,6.957550024414062
1789214683416732000,8.76973193359375,-5.799504608917236,-11.058817468261719,5.936572653961181
1789214683426763800,8.779763671875,-6.183175424957275,-9.06609349899292,4.92217933807373
1789214683436795600,8.789795654296874,-5.606172824859619,-7.697956887817383,3.835062146759033
1789214683446826800,8.79982666015625,-5.004031107330322,-6.925976490020751,2.8817209732055664
1789214683456858600,8.809858642578124,-4.7201685729980465,-6.663961045837402,2.6818051345825196
1789214683466890800,8.819890869140625,-4.653130926513672,-6.735787095642089,2.8508956268310546
1789214683476922600,8.829922607421874,-4.826860184478759,-7.121403200531005,3.0036756202697754
1789214683486954800,8.839954833984375,-5.177161814880371,-8.000374485015868,3.2350153556823726
1789214683496986600,8.849986572265625,-5.617545282745361,-8.93770443496704,3.4472014778137203
1789214683507018800,8.860018798828126,-5.6772506866455075,-9.743054018402098,3.648613692474365
1789214683517050600,8.870050537109375,-5.397578005218506,-9.936984352874756,3.9573160690307616
1789214683527082800,8.880082763671876,-5.172373411560058,-10.034697708129881,4.178330809783935
1789214683537115000,8.890114990234375,-4.883273561096191,-10.498574279785156,4.27724126586914
1789214683547146800,8.900146728515624,-4.753537758636474,-10.77704986038208,4.187009790802001
1789214683557178600,8.9101787109375,-5.101894100189209,-10.694898815917968,3.905242182922363
1789214683567210800,8.920210693359374,-5.1523219726562495,-10.84693062133789,3.6426281883239744
1789214683577243000,8.930242919921875,-5.394285977935791,-11.678317147827148,3.7304654617309567
1789214683587274800,8.940274658203125,-6.198288822937012,-12.472593548583983,4.7466544288635255
1789214683597311200,8.950311279296875,-7.330746208190917,-12.273575535583495,5.856666173553466
1789214683607343000,8.960343017578126,-7.57151311264038,-11.341333264160156,5.8822542037963865
1789214683617374200,8.970374267578125,-6.927921778869629,-10.139743305969239,5.079149184417724
1789214683627406000,8.980406005859376,-6.4837973709106445,-8.97661021194458,4.289062636566162
1789214683637438000,8.99043798828125,-6.615328824615478,-8.153154478454589,3.5568858413696285
1789214683647470300,9.00047021484375,-7.299023036193847,-7.610568527221679,3.045723786926269
1789214683657502200,9.010502197265625,-7.30994658126831,-7.495796485137939,2.9767408515930174
1789214683667534000,9.0205341796875,-6.46718759689331,-7.4500073783874505,2.63047943649292
1789214683677566000,9.03056591796875,-4.406378517913818,-7.181407879638671,1.9731214431762694
1789214683687598300,9.040598388671874,-2.022501852416992,-6.640019029235839,1.4223054237365722
1789214683697630200,9.050630126953125,-0.13587094421386717,-5.858910737609863,1.0624269866943359
1789214683707662000,9.060662109375,0.6908768165588378,-5.370493598937988,0.9882067352294921
1789214683717694000,9.07069384765625,0.6904279037475586,-5.176862539672851,1.2738649208068846
1789214683727726300,9.080726318359375,0.08933364944458007,-5.1508255966186525,1.8573019378662108
1789214683737758200,9.09075830078125,-1.7989432723999021,-5.436483782196045,2.4557027153015136
1789214683747790000,9.1007900390625,-3.528005783843994,-6.246322493743896,3.4332851806640625
1789214683757822200,9.110822265625,-4.450521611022949,-7.582885570526122,5.023334358215331
1789214683767854300,9.120854248046875,-6.0704983093261715,-9.272593392181395,7.275978845214843
1789214683777886200,9.13088623046875,-8.29306563796997,-10.835109250640869,9.625588499450682
1789214683787918000,9.14091796875,-8.81679725112915,-12.34181028289795,11.087098975372314
1789214683797949200,9.15094921875,-8.82338130569458,-13.961188430786132,11.082310572052002
1789214683807981300,9.160981201171875,-8.217947560882568,-15.530437981414794,9.938031816101073
1789214683818013200,9.17101318359375,-7.043142733764648,-16.229694503784177,8.466345983123778
1789214683828045000,9.181045166015625,-6.127210961151123,-15.040524466705321,7.669974655914306
1789214683838077200,9.1910771484375,-6.022315000915527,-12.791471282196044,6.451924561309814
1789214683848109300,9.201109375,-6.458059703063965,-10.014197356414794,5.223848747253418
1789214683858141200,9.21114111328125,-5.900958904266357,-7.5156982864379875,4.554070832824706
1789214683868173000,9.221173095703126,-4.643703757476806,-6.118531980133056,4.2305543334960936
1789214683878205200,9.231205078125,-3.0952538337707516,-5.264699813079834,3.4888007316589356
1789214683888237300,9.2412373046875,-2.855684030151367,-3.584269522857666,2.5752631607055663
1789214683898269200,9.251269287109375,-4.761917464447021,-0.42452188186645506,2.0971710166931152
1789214683908301000,9.261301025390624,-6.469731436157226,1.9569605819702147,1.355417414855957
1789214683918333000,9.2713330078125,-6.827963859558105,2.3828292022705075,1.4685434432983397
1789214683928365300,9.281365234375,-6.39700756072998,0.22176292877197265,3.2831986640930175
1789214683938397200,9.291397216796875,-5.784989761352539,-3.4639608894348144,5.498882662963867
1789214683948429000,9.301428955078125,-5.529558371734619,-5.138106400299072,5.647622441101074
1789214683958461000,9.3114609375,-5.144091904449462,-3.477428273773193,4.094384114074707
1789214683968493300,9.321493408203125,-5.371840337371826,-1.6686089195251463,3.274519683074951
1789214683978524200,9.331524169921876,-5.001337630462646,-0.6408978569030761,3.51139600982666
1789214683988556000,9.34155615234375,-5.22878678817749,-0.3826233528137207,3.8353614219665526
1789214683998588200,9.351588134765626,-5.615151081085204,-0.41838674011230464,3.402160559082031
1789214684008620300,9.361620361328125,-5.962011046600342,-0.24824878463745115,2.897283283996582
1789214684018652200,9.371652099609374,-6.819284878540039,-0.5455787033081054,4.037970737457275
1789214684028684000,9.38168408203125,-7.3861121215820305,-1.7817349479675293,5.957521918487548
1789214684038716200,9.391716064453124,-7.03581049118042,-2.965368393707275,6.909366716003418
1789214684048748300,9.401748291015625,-5.500229401397704,-4.1201217819213865,6.474519839477539
1789214684058780200,9.4117802734375,-4.116829754638672,-5.040093769836425,5.260210684967041
1789214684068812000,9.42181201171875,-4.243123892211914,-5.635052882385254,4.199728987121582
1789214684078844200,9.43184423828125,-4.497807093811035,-6.132897190093994,3.3336265365600584
1789214684088876300,9.441876220703126,-4.458751679229736,-6.446836882781982,2.3451205261230466
1789214684098908200,9.451908203125,-4.391714032745361,-6.355707582092284,1.8005892860412596
1789214684108940000,9.46193994140625,-4.618863915252685,-5.926846209716796,2.0693384223937987
1789214684118972200,9.47197216796875,-4.683806635284424,-5.706878932189941,2.4938603042602536
1789214684129004300,9.48200439453125,-3.976619319915771,-5.858461824798583,2.8130373130798336
1789214684139036200,9.4920361328125,-2.9894600479125977,-6.116586691284179,2.6924294044494625
1789214684149068000,9.502068115234374,-2.602197929382324,-6.376207933807373,2.3579893600463864
1789214684159099100,9.51209912109375,-2.371157469177246,-6.512228515625,2.5089737022399903
1789214684169131300,9.52213134765625,-2.582445765686035,-6.590937895202637,2.9981390289306638
1789214684179163100,9.5321630859375,-2.936039423370361,-6.905326500701904,3.4427123497009275
1789214684189195300,9.5421953125,-3.1420904037475585,-7.259668346405029,3.657442311096191
1789214684199227100,9.55222705078125,-3.182642194366455,-7.287800215911865,3.9363668045043942
1789214684209259300,9.56225927734375,-2.851943090057373,-7.754220626831054,4.323479285430908
1789214684219291100,9.572291015625,-3.621080373382568,-8.469189097595214,4.713285243225098
1789214684229323300,9.5823232421875,-4.571428794860839,-9.293841931915283,4.935646722412109
1789214684239355100,9.592355224609374,-4.833893151855468,-9.938780004119872,4.924274264526367
1789214684249387300,9.60238720703125,-5.224596935272216,-10.69355207748413,4.660313531494141
1789214684259419100,9.612419189453124,-5.321861377716064,-11.814188092041014,4.288763361358642
1789214684269451300,9.622451171875,-5.379172579956054,-12.593201457214354,3.887435308074951
1789214684279483100,9.632483154296875,-5.681590177154541,-12.454038485717772,3.37717107925415
1789214684289515300,9.642515380859376,-6.217592073822021,-12.08637889328003,3.181295455932617
1789214684299547100,9.652547119140625,-7.155819849395751,-12.50701019744873,3.5390789665222164
1789214684309579000,9.6625791015625,-8.062773365783691,-13.074136715698241,4.032733421325683
1789214684319610000,9.672610107421875,-8.170662078094482,-12.925396937561034,4.127154749298096
1789214684329642000,9.68264208984375,-6.935104383850097,-11.942726793670653,3.8564603240966795
1789214684339674000,9.692674072265625,-5.894524487304687,-10.811167234039306,3.909581673431396
1789214684349706200,9.702706298828126,-6.0054059516906735,-9.23174232635498,4.498555281829834
1789214684359738000,9.712738037109375,-5.962609597015381,-7.326705992889404,4.206313041687012
1789214684369770000,9.72277001953125,-5.587917037200928,-5.860107838439941,3.177853791046142
1789214684379802000,9.732802001953125,-5.072565129852294,-5.280262123870849,2.4425346061706543
1789214684389834200,9.742834228515624,-4.690689965057373,-5.524470693206787,2.4064719436645507
1789214684399866000,9.7528662109375,-4.482394420623779,-6.629394759368896,3.076698770904541
1789214684409898200,9.762898193359375,-5.672761558532715,-8.334664891815185,3.734206401824951
1789214684419930000,9.77293017578125,-6.9530608963012694,-9.999233596038819,4.693533079528808
1789214684429962200,9.782962158203125,-6.904279037475585,-11.191994935607909,6.055684186553955
1789214684439994000,9.792994140625,-7.082497423553466,-11.625195798492431,7.077110469818114
1789214684450026200,9.803026123046875,-6.880636296081542,-11.259631132507323,7.333888597869873
1789214684460058000,9.81305810546875,-5.436932695007324,-10.463559080505371,6.105214233398437
1789214684470090200,9.82309033203125,-3.33257907333374,-9.386916521453857,4.496310717773437
1789214684480121000,9.83312109375,-2.6405051559448243,-8.463502868652343,3.0330045906066894
1789214684490153000,9.843153076171875,-3.2136171783447263,-7.583484120941161,2.6607062324523922
1789214684500185300,9.853185302734374,-3.934122240447998,-6.935702934265136,3.012204963684082
1789214684510217200,9.86321728515625,-4.5696331436157225,-7.14369920349121,3.7768531188964842
1789214684520249000,9.8732490234375,-5.434688130950928,-7.651120317840576,5.433790305328369
1789214684530281000,9.883281005859375,-7.363516843414306,-8.58096838760376,6.649745473480224
1789214684540313300,9.893313232421875,-8.7853733543396,-9.547178395080566,7.0376061424255365
1789214684550345200,9.90334521484375,-8.258050438690185,-10.421660551452636,6.3524155548095695
1789214684560377000,9.913377197265625,-6.377105759429932,-10.828974108886719,5.765536872863769
1789214684570409000,9.923408935546876,-4.605695806121826,-10.375123256683349,4.929810855865478
1789214684580441300,9.93344140625,-2.8541876541137694,-9.364021968078612,4.51366867980957
1789214684590468900,9.94346875,-2.0214543891906738,-8.131756301116942,4.502445859527588
1789214684600501000,9.9535009765625,-2.3035212722778318,-5.659743087005615,4.222773178100586
1789214684610533000,9.963533203125,-2.939331450653076,-2.8555343925476073,4.072537023925781
1789214684620565000,9.97356494140625,-3.8627451034545897,-1.7539023536682128,4.229207595062255
1789214684630597000,9.98359716796875,-4.1374797439575195,-2.3623288505554196,4.28397495803833
1789214684640628200,9.993628173828125,-3.7952585441589353,-4.804713819122314,3.515735500335693
1789214684650660000,10.00366015625,-3.137900550842285,-7.216273441314697,2.952798834991455
1789214684660692000,10.01369189453125,-4.225017742156982,-8.137143254852294,3.4304420661926267
1789214684670723800,10.023723876953126,-6.489034687042236,-7.107636540985107,4.545391851806641
1789214684680756000,10.033755859375,-7.559691741943359,-4.337245944976806,5.6851814796447755
1789214684690788000,10.0437880859375,-5.194070864105225,-1.8966566276550292,5.172971961975097
1789214684700820000,10.053820068359375,-2.50238964767456,-1.3040917167663573,4.037222549438476
1789214684710851800,10.063851806640624,-3.422511273193359,-0.4982932205200195,2.2535423126220704
1789214684720884000,10.073884033203125,-4.998344878387451,0.36376901473999024,0.035464112091064454
1789214684730916000,10.083916015625,-7.899518740081787,-1.096095447540283,0.07496843948364257
1789214684740948000,10.093947998046875,-9.297882147216797,-5.04368507232666,2.270301724243164
1789214684750979800,10.103979736328125,-7.583035208129882,-9.415347666168213,3.954024041748047
1789214684761012000,10.114011962890626,-6.091447573852538,-11.771092462158203,4.3525089805603026
1789214684771044000,10.124044189453125,-4.865616323852539,-11.11508120727539,3.874566474151611
1789214684781076000,10.134075927734376,-5.814019456481933,-7.931541187286377,3.3557729019165037
1789214684791107800,10.14410791015625,-5.922656356811523,-5.166088632202148,3.2103251510620114
1789214684801140000,10.154139892578126,-4.125359098052979,-3.219004132080078,3.2062849357604977
1789214684811172000,10.164172119140625,-3.0551509559631347,-1.5453075340270994,2.600252640533447
1789214684821203000,10.174202880859376,-2.171391268157959,-0.4722562774658203,1.3299790222167969
1789214684831234800,10.18423486328125,-1.5031097297668456,0.4821323593139648,-0.12734160079956053
1789214684841267200,10.19426708984375,-1.3670891479492187,1.4947300239562988,-1.4142249931335449
1789214684851299000,10.204299072265625,-1.3296797470092772,2.3529016815185546,-2.1716905433654783
1789214684861331000,10.2143310546875,-1.68551796875,2.696319982147217,-2.111236951446533
1789214684871362800,10.22436279296875,-2.9109003059387204,2.6216508178710938,-0.1696890426635742
1789214684881395200,10.234395263671875,-3.2797569992065427,1.1572972274780273,2.460640756225586
1789214684891427000,10.244427001953126,-2.830095999908447,-1.7164929527282713,3.679439038848877
1789214684901459000,10.254458984375,-1.865382368469238,-4.3071687866210935,3.1495722839355467
1789214684911490800,10.26449072265625,-0.38052842636108397,-6.317101080322265,1.9419968215942383
1789214684921523200,10.274523193359375,-0.11537059249877929,-8.392873919677735,0.9235632904052734
1789214684931555000,10.28455517578125,-1.5928922920227049,-10.760888999176025,0.9822212310791015
1789214684941587000,10.2945869140625,-5.127931043243408,-13.819930532836914,2.150890916442871
1789214684951618800,10.304618896484374,-8.195501920318604,-16.673070723724365,6.174346806335449
1789214684961651200,10.314651123046875,-10.433631559753417,-17.93346826019287,11.4032832321167
1789214684971683000,10.32468310546875,-12.738948483276367,-18.484134642028806,15.057583153533935
1789214684981714000,10.3347138671875,-12.454038485717772,-19.181595513153074,16.27847636260986
1789214684991746000,10.34474609375,-10.178948358154296,-20.841525451660154,14.315979189300537
1789214685001778000,10.35477783203125,-8.78552299194336,-21.760898889160156,11.822118885040283
1789214685011810000,10.36481005859375,-9.342923065948487,-20.49316911010742,8.485200321197508
1789214685021842000,10.374842041015626,-9.571120411682129,-17.202039653015134,6.468833610534667
1789214685031874000,10.3848740234375,-8.327033374023436,-14.986056378936766,4.840477206420898
1789214685041906000,10.394906005859376,-7.64827720336914,-13.48309628677368,2.8241104957580565
1789214685051938000,10.40493798828125,-7.234828504180908,-10.548553239440917,1.7893664657592772
1789214685061970000,10.414969970703124,-6.151901165771484,-7.68703334274292,0.9689034843444824
1789214685072002000,10.425001953125,-5.370942511749267,-5.4233156730651855,0.975487538909912
1789214685082034200,10.4350341796875,-4.714332706451415,-3.96464831161499,1.0119991142272948
1789214685092066000,10.445066162109375,-3.7184944534301754,-3.449894954681396,0.842758984375
1789214685102098000,10.455097900390625,-2.558054836273193,-3.4145804801940915,0.9296984321594238
1789214685112130000,10.465130126953126,-1.6964415138244628,-3.393631215667724,0.9401730644226074
1789214685122162200,10.475162109375,-1.5165771141052244,-3.3883938995361325,0.4343979637145996
1789214685132193000,10.485193115234376,-1.3774141426086426,-3.7582980560302732,-0.2262520568847656
1789214685142225200,10.49522509765625,-0.6425438705444335,-4.760421088409424,-0.9621697921752929
1789214685152257000,10.505257080078126,-0.4032733421325683,-6.1161377784729,-1.0018237571716309
1789214685162289000,10.515288818359375,-2.0962731910705563,-7.385363933563232,0.16115969924926757
1789214685172321000,10.525321044921874,-4.383633602142334,-8.243834866333007,2.498349432373047
1789214685182353000,10.535352783203125,-6.104466045379638,-9.034819239807128,5.03066660079956
1789214685192385000,10.545385009765624,-7.348852358245849,-10.17700306930542,6.299743118286132
1789214685202417000,10.5554169921875,-7.754220626831054,-11.339088700103758,6.678924806213378
1789214685212449000,10.565448974609374,-7.816020957183837,-11.260977870941161,8.077886763763427
1789214685222481000,10.57548095703125,-6.451176373291015,-10.056544798278807,9.047987348937987
1789214685232513000,10.585512939453125,-3.905242182922363,-8.531139065551757,8.13355195236206
1789214685242545000,10.595544921875,-1.995716721343994,-7.529913858795165,6.457012239837646
1789214685252577000,10.605576904296875,-1.721879906463623,-7.188291209411621,5.441721098327636
1789214685262609000,10.61560888671875,-3.2384570205688474,-7.321917589569091,5.10084663696289
1789214685272641000,10.62564111328125,-6.5038488098144525,-8.037185335540771,5.272780243682861
1789214685282671900,10.635671875,-9.63456675567627,-9.06489639816284,5.386055909729004
1789214685292704000,10.6457041015625,-8.636932851409911,-8.93875189819336,3.6170401580810543
1789214685302736100,10.655736083984374,-5.191676662445068,-8.311171788024902,1.8158523216247557
1789214685312768000,10.66576806640625,-3.112312520599365,-8.134449777984619,0.9302969825744628
1789214685322799900,10.6757998046875,-2.4785972686767574,-8.099434578704834,1.115997248840332
1789214685332832000,10.68583203125,-2.6809073089599607,-7.706935144042968,2.035221048736572
1789214685342864100,10.695864013671875,-3.308786694335937,-7.647678652954101,3.451840243530273
1789214685352896000,10.70589599609375,-4.339789784240723,-7.921515467834472,4.499602745056152
1789214685362927900,10.715927978515625,-4.46219334411621,-8.24129102706909,4.818630116271972
1789214685372960000,10.7259599609375,-3.973028017425537,-8.674042977142333,5.336076950073242
1789214685382992100,10.7359921875,-4.09213955001831,-8.978854776000976,7.153724922943115
1789214685393024000,10.74602392578125,-5.106383228302001,-8.8359508644104,8.476820615386963
1789214685403055900,10.756055908203125,-5.191975937652588,-8.47218184967041,8.317456567382813
1789214685413088000,10.766087890625,-4.50094948348999,-8.26089355316162,7.116614797210693
1789214685423120100,10.7761201171875,-3.495384786224365,-7.7401546920776365,6.817489227294922
1789214685433152000,10.786152099609374,-3.5235166557312008,-7.559991017150878,7.118260810852051
1789214685443182800,10.796182861328125,-4.171597117614746,-7.556100439453124,7.3006690498352045
1789214685453215000,10.806215087890624,-6.1632736236572265,-6.5886933311462395,6.924929026794433
1789214685463247000,10.8162470703125,-8.192658805847168,-4.397100986480712,5.448754065704345
1789214685473279000,10.826279052734375,-6.48589229736328,-2.7160721458435058,2.4779987182617185
1789214685483310800,10.836310791015626,-4.371512956237793,-2.2327426856994625,-0.469263525390625
1789214685493343200,10.84634326171875,-4.765508766937256,-2.00439570236206,-1.939602619934082
1789214685503375000,10.856375,-4.844367784118652,-1.5203180541992187,-2.3288100273132324
1789214685513407000,10.866406982421875,-4.038419650268555,-1.2521674682617188,-1.638980673980713
1789214685523438800,10.87643896484375,-5.178508553314209,-1.0733505317687988,0.11327566604614257
1789214685533471200,10.88647119140625,-4.9337014335632325,-1.3192051147460937,0.8456020988464354
1789214685543503000,10.896503173828124,-4.8600797325134275,-2.27913034286499,1.5658078857421873
1789214685553535000,10.906534912109375,-4.6836569976806635,-2.8176760787963864,2.785354356384277
1789214685563566800,10.91656689453125,-4.7770308624267575,-3.272424756622314,3.3146225608825683
1789214685573599000,10.926598876953125,-4.629488185119628,-3.4867058052062987,3.4778771865844726
1789214685583631000,10.936631103515625,-4.820874680328369,-3.308188143920898,3.730315824127197
1789214685593663000,10.9466630859375,-4.403685041046142,-3.3016040893554686,3.9290345619201656
1789214685603694000,10.956694091796875,-3.1305683082580567,-3.686172731018066,3.4766800857543942
1789214685613726200,10.966726318359376,-3.1842882080078123,-4.341735073089599,2.3546973327636715
1789214685623758000,10.976758056640625,-4.362385062408447,-4.696525831604004,1.7184382415771484
1789214685633790000,10.9867900390625,-5.621735135650635,-4.501398396301269,2.825157958984375
1789214685643822000,10.996822021484375,-6.112247200775146,-4.631583111572265,5.1788078285217285
1789214685653854200,11.006854248046874,-5.316025511169434,-5.297171173095703,6.577919423675537
1789214685663886000,11.016885986328125,-4.980089090728759,-6.127809511566162,6.519111845397949
1789214685673918000,11.02691796875,-4.696226556396484,-6.989722109222412,5.926098021697998
1789214685683949800,11.03694970703125,-5.052812966156005,-7.923460756683349,5.535843151092529
1789214685693982200,11.046982177734375,-5.922357081604003,-8.641122704315185,5.887042607116699
1789214685704014000,11.05701416015625,-6.469282523345947,-9.305513665008544,6.65932228012085
1789214685714046000,11.0670458984375,-6.6711436508178705,-9.765948571777344,7.2726868179321285
1789214685724077800,11.077077880859376,-6.153996092224121,-9.439289682769775,7.860762600708007
1789214685734110200,11.087110107421875,-5.788730701446533,-8.515876029968261,8.195202645111083
1789214685744142000,11.09714208984375,-5.5343467750549316,-7.264606387329101,7.995137168884277
1789214685754173000,11.1071728515625,-4.571428794860839,-6.200683024597168,7.072022791290283
1789214685764205000,11.117205078125,-4.186411240386962,-5.388599748992919,5.422567485046386
1789214685774237200,11.1272373046875,-3.828029179382324,-5.5440732192993165,3.993229093933105
1789214685784269000,11.13726904296875,-3.7569513175964353,-6.581660363769531,3.011456775665283
1789214685794301000,11.147301025390625,-4.056226525115966,-7.940519443511962,2.244115143585205
1789214685804333000,11.1573330078125,-4.5048400611877435,-9.383175581359863,1.8819921424865722
1789214685814365200,11.167365234375,-5.077353533172607,-11.882422839355469,1.9773112960815429
1789214685824397000,11.17739697265625,-6.2216322891235345,-15.057732791137694,2.891447417449951
1789214685834429000,11.187428955078126,-6.558017622375488,-16.188095249938964,4.638316803741454
1789214685844461000,11.1974609375,-5.985803425598144,-14.805593428802489,5.3478983207702635
1789214685854493200,11.2074931640625,-5.275024807739258,-12.731616240692137,5.210531000518799
1789214685864525000,11.217525146484375,-4.933252520751953,-11.245415560150146,4.948814831542968
1789214685874557000,11.227556884765624,-5.242403810119629,-10.523414122009276,4.656871866607665
1789214685884589000,11.237589111328125,-5.590161601257324,-10.575787283325194,4.291756113433838
1789214685894620000,11.247619873046874,-5.961711771392822,-10.970980194854736,4.244470630645751
1789214685904652000,11.257652099609375,-6.346729325866699,-11.998990532684326,4.13059641418457
1789214685914684200,11.26768408203125,-7.217171266937256,-12.358569694519042,3.8310219314575193
1789214685924716000,11.277716064453125,-7.968352037811279,-11.341482901763916,3.089567604827881
1789214685934748000,11.287747802734375,-7.067832938385009,-9.758017778778076,2.946514055633545
1789214685944780000,11.297780029296876,-5.677699599456787,-8.163030560302733,3.0186393806457517
1789214685954812200,11.307812255859375,-4.348618402862549,-7.023689845275879,2.653822902679443
1789214685964844000,11.317843994140626,-3.0870237655639645,-6.1082069854736325,2.2560861518859863
1789214685974876000,11.3278759765625,-1.7949030570983886,-5.688922419738769,1.7503110511779785
1789214685984908000,11.337907958984376,-0.7377133865356444,-6.069600483703613,2.195632559967041
1789214685994940200,11.347940185546875,-1.4296376663208008,-6.920290261077881,3.58801046295166
1789214686004972000,11.357971923828124,-3.7945103561401363,-8.177695045471191,5.148132119750977
1789214686015004000,11.36800390625,-5.366603021240234,-9.733477211761475,6.0437131782531734
1789214686025036000,11.3780361328125,-6.561608924865722,-11.196783338928222,5.837662197875976
1789214686035068200,11.388068115234375,-8.74601866455078,-11.806855849456786,6.134543203735351
1789214686045099000,11.39809912109375,-8.055141847991942,-11.027543209075928,7.158214051055908
1789214686055131000,11.408130859375,-5.148281757354736,-9.354744436645507,7.346458156585693
1789214686065163000,11.4181630859375,-2.6625018836975096,-8.629600608825683,6.314557241058349
1789214686075195100,11.428195068359376,-1.501014803314209,-8.56151549911499,6.072892510986327
1789214686085227000,11.43822705078125,-2.478447631072998,-8.290372161102294,7.247098787689208
1789214686095259000,11.4482587890625,-5.330390721130371,-7.134571309661865,8.709956002044677
1789214686105291000,11.458291015625,-7.363666481018066,-5.739799205017089,7.417685655975341
1789214686115323100,11.4683232421875,-6.483049182891845,-6.002862112426757,5.284152701568603
1789214686125355000,11.47835498046875,-4.509628464508056,-7.233930678558349,4.4193969894409175
1789214686135387000,11.488386962890624,-2.465429159545898,-7.833079644012451,4.438999515533447
1789214686145419000,11.4984189453125,-0.7101800674438477,-8.161683821868897,3.501968840789795
1789214686155451100,11.508451171875,-0.5053261878967285,-8.27451057510376,2.5354595581054684
1789214686165483000,11.51848291015625,-1.4806640892028808,-7.6957123237609855,2.3172879318237305
1789214686175515000,11.528514892578125,-3.515585862731933,-7.651120317840576,2.510769353485107
1789214686185547000,11.538547119140626,-5.425111324310302,-7.0461354858398435,4.0355765357971185
1789214686195578000,11.548578125,-8.854057014465331,-5.797858595275879,5.8940755744934075
1789214686205610000,11.55860986328125,-10.044723427581786,-3.9317280387878415,8.961496813964843
1789214686215641900,11.568641845703125,-8.437316287994385,-3.558831130218506,9.9851676612854
1789214686225674200,11.57867431640625,-6.459256803894043,-4.956296711730957,6.538415096282959
1789214686235706000,11.5887060546875,-4.196436959838867,-5.939864681243896,1.4287398406982421
1789214686245738000,11.598738037109374,-4.04141240234375,-4.576516473388671,-2.5062802253723144
1789214686255769900,11.608769775390625,-4.535515769958496,-3.2632968627929686,-3.284246127319336
1789214686265802200,11.61880224609375,-2.869749964904785,-3.2257378242492676,-1.520766967010498
1789214686275834000,11.628834228515625,-3.3731308639526367,-2.15792388381958,1.0711059677124022
1789214686285866000,11.638865966796875,-3.8404491004943844,-1.4577695358276366,2.269553536224365
1789214686295897900,11.64889794921875,-2.657114929962158,-1.5020622665405272,2.112583689880371
1789214686305930200,11.65893017578125,-1.8347066596984862,-1.8766051887512205,0.8162731285095214
1789214686315962000,11.668962158203126,-1.4595651870727537,-1.5336358009338378,-0.3224690361022949
1789214686325994000,11.678993896484375,-1.6762404373168944,-1.026513961791992,-0.9085995300292968
1789214686336025900,11.68902587890625,-1.8997990173339843,-0.907851342010498,-0.8946832328796386
1789214686346057000,11.699056884765625,-2.353350594329834,-1.2306196533203124,-1.1897685874938964
1789214686356089000,11.709089111328124,-3.05814370803833,-1.5096937843322753,-1.8101660926818846
1789214686366121000,11.719120849609375,-4.4391491531372065,-1.0959458099365234,-0.9452607429504394
1789214686376153000,11.729153076171874,-5.642385124969482,-0.32411504974365235,1.9346645790100097
1789214686386185000,11.73918505859375,-4.246715194702148,-1.0926537826538085,4.466083921813965
1789214686396217000,11.749217041015624,-3.4234090988159176,-2.867804676055908,5.470002605438232
1789214686406249000,11.7592490234375,-4.809502222442626,-4.4750621780395505,6.151152977752685
1789214686416281000,11.769281005859375,-5.635202519989013,-5.951985327148437,7.165097380828857
1789214686426313000,11.77931298828125,-4.828805473327637,-8.17859287109375,7.715314849853515
1789214686436345000,11.789344970703125,-4.535665407562256,-11.233145276641846,7.202357144165038
1789214686446377000,11.799376953125,-5.417779081726074,-13.894300421905516,7.57809716720581
1789214686456409000,11.8094091796875,-6.4655415832519525,-15.229816035461425,9.030180474090576
1789214686466441200,11.819441162109374,-6.725761376190185,-14.24385386428833,10.276960988616942
1789214686476473000,11.82947314453125,-7.1221513885498045,-12.193519417572022,10.02392380065918
1789214686486505000,11.8395048828125,-6.429478920745849,-10.29102692337036,8.755595471191405
1789214686496536000,11.8495361328125,-4.957793087768555,-8.907178363800048,7.274632106781006
1789214686506568000,11.85956787109375,-3.7385458923339843,-8.322095333099364,6.209212368011475
1789214686516600000,11.86960009765625,-3.857956700134277,-8.938901535797118,5.292981320190429
1789214686526632200,11.879632080078125,-4.448875597381591,-10.360758046722411,4.637119702911376
1789214686536664000,11.8896640625,-5.45234536819458,-11.488726303863524,4.388571643066406
1789214686546696000,11.899696044921875,-5.410147563934326,-12.657246351623535,4.128202212524414
1789214686556728000,11.90972802734375,-5.438728346252441,-14.188188675689696,3.8455367790222166
1789214686566760000,11.919760009765625,-5.558288791656494,-14.285303480529784,4.319139794921875
1789214686576792000,11.9297919921875,-5.712265885925293,-12.720842333221436,4.936694185638427
1789214686586824000,11.939823974609375,-5.600935508728027,-11.398644466400146,5.143044441223144
1789214686596856300,11.949856201171874,-5.386055909729004,-10.294019675445556,4.533271205902099
1789214686606888200,11.95988818359375,-5.175665438842773,-9.394847314453125,3.742586107635498
1789214686616920600,11.969920654296875,-5.485116003417969,-9.125948540496825,2.7723358848571777
1789214686626952400,11.979952392578125,-6.132747552490234,-9.862315188598632,2.450914311981201
1789214686636984300,11.989984375,-7.0649898239135736,-11.479149497222899,2.6421511695861817
1789214686647015400,12.000015380859375,-7.18859048461914,-12.133365100860596,2.691531578826904
1789214686657047300,12.01004736328125,-6.659920830535889,-11.243769546508789,2.2390274650573727
1789214686667079400,12.020079345703126,-6.242581553649902,-9.788094937133788,1.735945841217041
1789214686677111300,12.030111328125,-6.166715288543701,-8.582913676452636,1.543661520385742
1789214686687143400,12.040143310546876,-5.243750548553466,-7.805396687316894,1.8465280303955076
1789214686697175300,12.05017529296875,-3.6731542594909667,-7.247248425292969,2.418143676757812
1789214686707207400,12.06020751953125,-2.666242823791504,-6.946776116943359,3.3400609535217285
1789214686717239300,12.0702392578125,-2.4060230308532713,-7.040898169708251,4.489726663208008
1789214686727271400,12.080271484375,-2.9192800117492674,-7.419630944824219,5.40072039489746
1789214686737303300,12.09030322265625,-3.2046389221191403,-7.688828993988037,5.944952359771728
1789214686747335400,12.10033544921875,-3.891026610565185,-7.606677949523926,6.195146433258056
1789214686757367300,12.1103671875,-4.064007680511474,-7.34855308303833,6.66500850906372
1789214686767399400,12.1203994140625,-3.5426702690124507,-6.81210227355957,7.027730060577392
1789214686777431600,12.130431640625,-2.512116091918945,-6.52494771194458,6.284330445098877
1789214686787462400,12.14046240234375,-2.5474305664062498,-6.656928078460693,5.488557668304443
1789214686797494500,12.15049462890625,-3.6233249374389644,-6.6531871383666985,5.587019211578369
1789214686807526400,12.1605263671875,-4.5970168251037595,-6.676081691741943,5.86055675125122
1789214686817558300,12.170558349609376,-5.603479347991943,-7.125443415832519,5.288941104888916
1789214686827590400,12.18059033203125,-5.8174611213684075,-7.829488341522216,4.422689016723632
1789214686837622500,12.19062255859375,-5.294178421020508,-7.822455374145507,4.58998385772705
1789214686847654400,12.200654296875,-4.61602080078125,-7.583484120941161,5.368697947692871
1789214686857686300,12.210686279296874,-4.419247351837158,-7.987954563903808,5.831078143310546
1789214686867718400,12.220718505859375,-4.233397447967529,-8.59293939590454,5.979817921447753
1789214686877750300,12.230750244140625,-4.091690637207031,-8.987683394622803,5.881954928588867
1789214686887782400,12.240782470703126,-4.189852905273438,-8.617479962921141,5.1042883018493646
1789214686897814300,12.250814208984375,-4.6258968826293945,-7.839663698577881,4.095281939697266
1789214686907846400,12.260846435546876,-5.567566323089599,-6.664110683441161,4.397699536895752
1789214686917878300,12.270878173828125,-6.1541457298278806,-5.683984378814697,5.981763210296631
1789214686927910400,12.280910400390624,-6.0422168022155756,-5.760000281524658,7.221959670257568
1789214686937941200,12.290941162109375,-6.229712719726562,-6.912658743286133,7.4046671844482415
1789214686947973400,12.300973388671874,-6.2401873519897455,-7.650222492218017,7.145494854736327
1789214686958005500,12.311005615234375,-5.68832386932373,-7.428908476257324,6.043264265441894
1789214686968037400,12.321037353515624,-4.60958638381958,-5.909637885284424,3.7434839332580565
1789214686978069200,12.3310693359375,-4.003254813385009,-3.661332888793945,1.0389338829040526
1789214686988101400,12.341101318359375,-3.569455400085449,-2.4842834976196286,-0.43499651412963863
1789214686998133500,12.351133544921876,-3.644872752380371,-1.894860976409912,-0.3538929328918457
1789214687008165400,12.361165283203125,-3.8699277084350583,-0.9968857162475585,0.5599439132690429
1789214687018197200,12.371197265625,-4.019714949798583,-0.6136638130187988,1.0301052642822266
1789214687028229400,12.3812294921875,-3.9344215156555173,-0.6750152305603027,0.9047089523315429
1789214687038261500,12.391261474609376,-3.7638346473693844,-0.2145803237915039,0.7700351089477538
1789214687048293400,12.40129345703125,-3.4949358734130858,-0.09367313995361327,0.6682815383911133
1789214687058325200,12.4113251953125,-3.227383837890625,0.37873277511596676,0.4332008628845215
1789214687068357400,12.421357421875,-3.082983550262451,0.6432920585632323,1.022024833679199
1789214687078388500,12.431388427734374,-3.118896575164795,0,1.5559318038940428
1789214687088420400,12.44142041015625,-3.379116368103027,-0.8038532073974609,1.6584335624694824
1789214687098452200,12.4514521484375,-3.808875566101074,-1.2747627464294433,2.1493945404052734
1789214687108484400,12.461484375,-4.380940125274658,-1.8197428993225098,3.124433166503906
1789214687118516500,12.4715166015625,-4.341735073089599,-3.002029606628418,4.064905506134033
1789214687128548400,12.48154833984375,-4.05428123626709,-4.649689261627197,4.856039517211914
1789214687138580200,12.491580322265625,-4.113687364959716,-6.285527545928955,6.0890533721923825
1789214687148612400,12.5016123046875,-3.4898481948852536,-8.100631679534912,7.06738402557373
1789214687158644500,12.51164453125,-3.095104196166992,-10.384999338531493,6.772448308563232
1789214687168676400,12.52167626953125,-3.748272336578369,-12.708422412109375,6.220884101104736
1789214687178708200,12.531708251953125,-4.9090112289428705,-14.521880532073974,6.383091263580322
1789214687188740400,12.541740234375,-5.716755014038085,-15.27111601409912,6.611587884521484
1789214687198772500,12.5517724609375,-5.993285305786133,-14.470854109191894,6.474220564270019
1789214687208804400,12.561804443359375,-6.118531980133056,-12.974926984405517,5.968146188354492
1789214687218835500,12.57183544921875,-6.091297936248779,-11.385625994873045,5.619041658782959
1789214687228867300,12.581867431640624,-6.34643005065918,-10.013299530792235,5.659144536590576
1789214687238899500,12.5918994140625,-5.981314297485351,-8.979752601623535,5.4601265235900875
1789214687248931300,12.601931396484375,-5.209034624481201,-8.474426413726807,5.193771588897705
1789214687258963500,12.61196337890625,-4.317942694091797,-8.692448402404784,5.2916345817565915
1789214687268995300,12.621995361328125,-4.718522559356689,-9.236680367279051,5.299715012359619
1789214687279027500,12.63202734375,-5.938368305206298,-9.864260477447509,5.402665683746338
1789214687289059300,12.642059326171875,-6.624456718444824,-10.460416690826415,5.310339282226562
1789214687299091500,12.652091552734374,-6.866570361328125,-11.166855818176268,4.595370811462402
1789214687309123300,12.662123291015625,-6.906972514343261,-12.228534616851807,3.5687072120666503
1789214687319155500,12.672155517578124,-7.024138758087158,-12.51254678878784,3.0802900733947753
1789214687329187300,12.682187255859375,-6.952013433074951,-11.5933229888916,3.7578491432189938
1789214687339219500,12.692219482421875,-6.536918720245361,-9.906308644104003,4.599560664367676
1789214687349250300,12.702250244140625,-5.434987406158447,-8.461707217407225,5.155464362335205
1789214687359282200,12.7122822265625,-4.600757765197754,-7.933037563323974,5.455787033081054
1789214687369314600,12.722314453125,-4.940584763336181,-7.947103498077392,5.373187075805664
1789214687379346400,12.732346435546875,-5.916970127868652,-8.917952271270751,5.174767613220214
1789214687389378300,12.74237841796875,-6.405237628936767,-10.136301641082763,5.1690813842773435
1789214687399410400,12.752410400390625,-6.0531403472900385,-10.806827743530272,5.159803852844238
1789214687409442300,12.7624423828125,-6.264279006195068,-10.636689788055419,4.9926586494445795
1789214687419474400,12.772474365234375,-6.3627405494689935,-9.806949275207518,4.422539379119873
1789214687429506300,12.78250634765625,-5.603479347991943,-8.677484642028809,4.083161293792724
1789214687439538400,12.792538330078125,-4.729146829223633,-7.640496047973633,3.4578257476806638
1789214687449570300,12.8025703125,-3.509301083374023,-6.892308029174805,3.0454245117187497
1789214687459602400,12.8126025390625,-2.5692776565551756,-6.2870239219665525,2.925265515899658
1789214687469633300,12.82263330078125,-2.3307553161621093,-5.697451763153076,3.1892262489318846
1789214687479665200,12.8326650390625,-2.643497908020019,-5.517737001037597,3.3406595039367675
1789214687489697500,12.842697509765625,-2.883366986846924,-5.7200470413208,3.443011624908447
