time,seconds_elapsed,z,y,x
1789214674668892000,0.021891845703125,0.4104548990726471,-0.5186687111854553,0.7678574919700623
1789214674678923000,0.031923095703125,0.3958147168159485,-0.4814518392086029,0.6701999306678772
1789214674688955000,0.041954833984375,0.29055488109588623,-0.4204534888267517,0.6385560035705566
1789214674698986800,0.05198681640625,0.15087340772151947,-0.25917884707450867,0.665881872177124
1789214674709018600,0.0620185546875,0.02731071598827839,-0.0052147358655929565,0.7098836898803711
1789214674719051000,0.072051025390625,-0.0246648658066988,0.24953845143318176,0.736787736415863
1789214674729083000,0.082082763671875,-0.0009041432058438659,0.4138498902320862,0.7222466468811035
1789214674739114800,0.09211474609375,0.07076604664325714,0.42774495482444763,0.6604602336883545
1789214674749146600,0.102146728515625,0.16849447786808014,0.3390020430088043,0.5414808392524719
1789214674759178800,0.1121787109375,0.2726863920688629,0.27780604362487793,0.38895440101623535
1789214674769209900,0.1222099609375,0.33992719650268555,0.23064519464969635,0.20898623764514923
1789214674779241700,0.13224169921875,0.3846376836299896,0.21570833027362823,0.034336935728788376
1789214674789273900,0.14227392578125,0.4019375741481781,0.2221800684928894,-0.11225490272045135
1789214674799305700,0.1523056640625,0.3881163001060486,0.24833817780017853,-0.2243713140487671
1789214674809337900,0.162337890625,0.3547157347202301,0.268454372882843,-0.29590195417404175
1789214674819369700,0.17236962890625,0.31249532103538513,0.27853283286094666,-0.3202211558818817
1789214674829401900,0.18240185546875,0.2600949704647064,0.2812154293060303,-0.32669901847839355
1789214674839433700,0.192433837890625,0.21526464819908142,0.24939438700675964,-0.3403935432434082
1789214674849465900,0.2024658203125,0.19048525393009186,0.18828442692756653,-0.37086835503578186
1789214674859497700,0.212497802734375,0.19819538295269012,0.10594028234481812,-0.41929712891578674
1789214674869528800,0.22252880859375,0.22492791712284088,0.0357486754655838,-0.481325626373291
1789214674879560700,0.232560791015625,0.2559462785720825,-0.038228344172239304,-0.5244110226631165
1789214674889592800,0.2425927734375,0.2584289014339447,-0.12345216423273087,-0.5370293855667114
1789214674899624700,0.252624755859375,0.21340389549732208,-0.27639296650886536,-0.5462215542793274
1789214674909656800,0.26265673828125,0.15933851897716522,-0.43842262029647827,-0.5108238458633423
1789214674919688700,0.272688720703125,0.0977713018655777,-0.47686323523521423,-0.3974509537220001
1789214674929720800,0.282720947265625,0.04602501541376114,-0.309291273355484,-0.21577942371368408
1789214674939752700,0.292752685546875,0.010788199491798878,0.10753817856311798,0.012035890482366085
1789214674949784800,0.302784912109375,-0.013246829621493816,0.5959320664405823,0.24625983834266663
1789214674959815700,0.312815673828125,-0.024535436183214188,0.9012722969055176,0.42933377623558044
1789214674969847600,0.32284765625,-0.010270480997860432,0.9046161770820618,0.5412299633026123
1789214674979880000,0.3328798828125,0.02292315848171711,0.6490501761436462,0.5704352259635925
1789214674989911800,0.342911865234375,0.019577961415052414,0.31438589096069336,0.5546110272407532
1789214674999943700,0.352943603515625,-0.029513150453567505,0.1469803899526596,0.5342386364936829
1789214675009975600,0.3629755859375,-0.10557569563388824,0.1805359572172165,0.5352175831794739
1789214675020008000,0.373008056640625,-0.1707962453365326,0.28629061579704285,0.5329568386077881
1789214675030039800,0.383039794921875,-0.18573977053165436,0.34398266673088074,0.4891153573989868
1789214675040071700,0.39307177734375,-0.14637239277362823,0.2793712019920349,0.42343035340309143
1789214675050103800,0.403103759765625,-0.11568079143762589,0.15771426260471344,0.36950773000717163
1789214675060135000,0.413135009765625,-0.11890401691198349,0.10031009465456009,0.32263052463531494
1789214675070166800,0.423166748046875,-0.17160211503505707,0.11096406728029251,0.2647629380226135
1789214675080198700,0.43319873046875,-0.2605317234992981,0.15429502725601196,0.15674087405204773
1789214675090230800,0.443230712890625,-0.31407803297042847,0.22280457615852356,-0.012328038923442364
1789214675100263000,0.453262939453125,-0.3119618892669678,0.31454169750213623,-0.23371794819831848
1789214675110294800,0.463294677734375,-0.27262139320373535,0.4337543845176697,-0.4802718162536621
1789214675120326700,0.47332666015625,-0.21962103247642517,0.5413122773170471,-0.6783169507980347
1789214675130358800,0.48335888671875,-0.17617715895175934,0.5133914351463318,-0.7794414758682251
1789214675140391000,0.493390869140625,-0.1319788098335266,0.46216657757759094,-0.7777423858642578
1789214675150421800,0.503421875,-0.10121556371450424,0.42596063017845154,-0.7016699910163879
1789214675160454000,0.513453857421875,-0.09108783304691315,0.2837262451648712,-0.5851060748100281
1789214675170485800,0.52348583984375,-0.09588737785816193,0.08436787873506546,-0.4664185643196106
1789214675180517600,0.533517578125,-0.14159947633743286,-0.025243038311600685,-0.2504367530345917
1789214675190549800,0.5435498046875,-0.1887321025133133,0.043710194528102875,0.0686325877904892
1789214675200582000,0.553581787109375,-0.2835496962070465,0.14444400370121002,0.39065828919410706
1789214675210613800,0.56361376953125,-0.3405328094959259,0.08819057792425156,0.5791690945625305
1789214675220646000,0.57364599609375,-0.48387613892555237,0.03544187918305397,0.6550534963607788
1789214675230677800,0.583677734375,-0.6572010517120361,0.028305407613515854,0.6320986151695251
1789214675240710000,0.5937099609375,-0.782883882522583,0.05068794637918472,0.5793744325637817
1789214675250740700,0.60374072265625,-0.8133938312530518,0.021580126136541367,0.5085183382034302
1789214675260772600,0.613772705078125,-0.7689254283905029,-0.1280525028705597,0.37151575088500977
1789214675270805000,0.623804931640625,-0.7134637832641602,-0.3168828785419464,0.1647769659757614
1789214675280836900,0.6338369140625,-0.6946184635162354,-0.5110451579093933,-0.0994834452867508
1789214675290868700,0.64386865234375,-0.6764770150184631,-0.6423200964927673,-0.40376824140548706
1789214675300900600,0.653900634765625,-0.6159287095069885,-0.7968622446060181,-0.701668381690979
1789214675310933000,0.66393310546875,-0.5069385766983032,-0.9874141216278076,-0.8563277125358582
1789214675320964900,0.67396484375,-0.3847365081310272,-0.9954081177711487,-0.8778886795043945
1789214675330996700,0.683996826171875,-0.26385003328323364,-0.66670823097229,-0.7790204286575317
1789214675341027800,0.69402783203125,-0.22576895356178284,-0.3727187216281891,-0.6581472754478455
1789214675351059700,0.704059814453125,-0.1870148926973343,-0.14036057889461517,-0.4993954300880432
1789214675361091800,0.714091796875,-0.14933143556118011,0.13859649002552032,-0.3610016107559204
1789214675371123700,0.724123779296875,-0.1724812239408493,0.23132163286209106,-0.341239869594574
1789214675381155800,0.73415576171875,-0.21753738820552826,0.09040553122758865,-0.4321620762348175
1789214675391188000,0.74418798828125,-0.2706370949745178,-0.1149849072098732,-0.499705970287323
1789214675401219800,0.7542197265625,-0.3542400896549225,-0.25603044033050537,-0.48290619254112244
1789214675411251700,0.764251708984375,-0.4314912259578705,-0.42743709683418274,-0.4866114556789398
1789214675421283800,0.774283935546875,-0.526300311088562,-0.4972981810569763,-0.5485184788703918
1789214675431316000,0.78431591796875,-0.6588402390480042,-0.5010878443717957,-0.7050217986106873
1789214675441346800,0.794346923828125,-0.7810580134391785,-0.5080469846725464,-0.9289968609809875
1789214675451379000,0.80437890625,-0.9306977987289429,-0.5171842575073242,-1.1474764347076416
1789214675461410800,0.814410888671875,-1.1492512226104736,-0.535946786403656,-1.2614080905914307
1789214675471442700,0.824442626953125,-1.391160488128662,-0.4900365471839905,-1.259502649307251
1789214675481474800,0.834474853515625,-1.5807288885116577,-0.3574518859386444,-1.0841350555419922
1789214675491506700,0.844506591796875,-1.57480788230896,-0.23684263229370117,-0.8046245574951172
1789214675501538800,0.854538818359375,-1.3580092191696167,-0.18007628619670868,-0.6647223234176636
1789214675511570700,0.86457080078125,-1.0741537809371948,-0.16726621985435486,-0.6997261047363281
1789214675521602800,0.874602783203125,-0.8237572908401489,-0.07335544377565384,-0.8216876983642578
1789214675531634000,0.884634033203125,-0.5575351715087891,0.08053772151470184,-0.976260781288147
1789214675541665800,0.894665771484375,-0.25236061215400696,0.24784842133522034,-1.056211233139038
1789214675551697700,0.90469775390625,0.08389010280370712,0.32735201716423035,-1.028491735458374
1789214675561729800,0.914729736328125,0.41326454281806946,0.2704525291919708,-0.8911498785018921
1789214675571762000,0.924761962890625,0.6656994819641113,0.16508349776268005,-0.6277531385421753
1789214675581793500,0.93479345703125,0.79723060131073,0.06541602313518524,-0.265322208404541
1789214675591825700,0.94482568359375,0.7989400625228882,-0.01552356593310833,0.13038650155067444
1789214675601857500,0.954857421875,0.6728969216346741,-0.07145873457193375,0.5126670002937317
1789214675611889700,0.9648896484375,0.4150507152080536,-0.3102409541606903,0.7912291288375854
1789214675621920500,0.97492041015625,0.21936377882957458,-0.586083173751831,1.0200090408325195
1789214675631952600,0.98495263671875,0.12224069237709045,-0.7163046002388,1.2720469236373901
1789214675641984800,0.99498486328125,0.04255518317222595,-0.8030751347541809,1.4358808994293213
1789214675652016600,1.0050166015625,-0.004485561978071928,-0.907451868057251,1.411027193069458
1789214675662048500,1.015048583984375,-0.03809705004096031,-0.9259669780731201,1.1911832094192505
1789214675672080600,1.02508056640625,-0.1500622034072876,-0.924845278263092,0.8055063486099243
1789214675682112800,1.03511279296875,-0.2230280190706253,-0.7801344394683838,0.4156706929206848
1789214675692144600,1.04514453125,-0.21805083751678467,-0.4937268793582916,0.14024099707603455
1789214675702176500,1.055176513671875,-0.09924669563770294,0.016152869910001755,0.08555378019809723
1789214675712207600,1.06520751953125,0.017446368932724,0.37957820296287537,0.1046273410320282
1789214675722239700,1.07523974609375,0.034801922738552094,0.41953709721565247,0.08611650764942169
1789214675732271600,1.085271728515625,0.05278411880135536,0.2586994767189026,0.10272904485464096
1789214675742303500,1.095303466796875,-0.06252302974462509,-0.21765269339084625,0.1323564350605011
1789214675752335600,1.105335693359375,-0.22839082777500153,-0.7554261684417725,0.27583423256874084
1789214675762367700,1.11536767578125,-0.3712310791015625,-0.911106526851654,0.5308502912521362
1789214675772399600,1.125399658203125,-0.5027629733085632,-0.8964924812316895,0.7722924947738647
1789214675782431500,1.135431396484375,-0.6266636252403259,-0.8037787675857544,0.9207261800765991
1789214675792464000,1.1454638671875,-0.7430336475372314,-0.619776725769043,0.9509495496749878
1789214675802494700,1.15549462890625,-0.8472349047660828,-0.4918813109397888,0.9143750667572021
1789214675812526600,1.165526611328125,-0.9286173582077026,-0.437213271856308,0.8337209224700928
1789214675822558700,1.175558837890625,-0.968705415725708,-0.4595329761505127,0.7248767614364624
1789214675832590600,1.185590576171875,-0.9352949857711792,-0.49202194809913635,0.6302996277809143
1789214675842622700,1.195622802734375,-0.6729781627655029,-0.5024365186691284,0.516144871711731
1789214675852654600,1.205654541015625,-0.015962455421686172,-0.43615761399269104,0.4545384645462036
1789214675862686700,1.215686767578125,0.626427412033081,-0.1649109274148941,0.4602168798446655
1789214675872718600,1.225718505859375,0.7142022848129272,-0.08111882209777832,0.4013705849647522
1789214675882750700,1.235750732421875,0.5175256729125977,-0.19647444784641266,0.3329175114631653
1789214675892782600,1.245782470703125,0.32774457335472107,-0.14619210362434387,0.38082271814346313
1789214675902813700,1.255813720703125,0.1846470832824707,-0.053214751183986664,0.4850023686885834
1789214675912845600,1.265845458984375,0.08492927253246307,-0.03002048283815384,0.5781267285346985
1789214675922877400,1.27587744140625,-0.01860111393034458,0.02521480992436409,0.636819064617157
1789214675932909800,1.285909912109375,-0.05552051588892937,0.14711888134479523,0.6060406565666199
1789214675942941700,1.295941650390625,0.013596768490970135,0.33798471093177795,0.5275197625160217
1789214675952973600,1.3059736328125,0.13631975650787354,0.5128968358039856,0.4222732186317444
1789214675963005700,1.316005615234375,0.24707317352294922,0.6086995601654053,0.28570738434791565
1789214675973037800,1.326037841796875,0.30621373653411865,0.6178898811340332,0.13643799722194672
1789214675983069700,1.336069580078125,0.31074854731559753,0.5143964886665344,-0.020144948735833168
1789214675993100500,1.3461005859375,0.29401564598083496,0.3077647387981415,-0.19533807039260864
1789214676003132700,1.356132568359375,0.32499566674232483,0.1274208128452301,-0.3619030714035034
1789214676013164800,1.366164794921875,0.5086504220962524,-0.016525713726878166,-0.502771258354187
1789214676023196700,1.37619677734375,0.5958985090255737,-0.012604475021362305,-0.5725958943367004
1789214676033228500,1.386228515625,0.5614082217216492,0.09992233663797379,-0.5694557428359985
1789214676043260700,1.3962607421875,0.4759923815727234,0.2289186716079712,-0.4267353415489197
1789214676053292800,1.406292724609375,0.418233186006546,0.33757829666137695,-0.1778584122657776
1789214676063324700,1.41632470703125,0.40441885590553284,0.372165322303772,0.09796012192964554
1789214676073356500,1.4263564453125,0.4101957678794861,0.35999414324760437,0.33839482069015503
1789214676083387600,1.4363876953125,0.4113641083240509,0.3365061283111572,0.49787822365760803
1789214676093419500,1.44641943359375,0.4567560851573944,0.3159771263599396,0.537818431854248
1789214676103451600,1.45645166015625,0.4793980121612549,0.2700037956237793,0.470569372177124
1789214676113483800,1.46648388671875,0.4352601170539856,0.25151559710502625,0.3447251617908478
1789214676123515600,1.476515625,0.3701961636543274,0.23292753100395203,0.24706251919269562
1789214676133547500,1.486547607421875,0.2706725001335144,0.22632715106010437,0.20633719861507416
1789214676143579600,1.49657958984375,0.16590774059295654,0.1693165898323059,0.20149369537830353
1789214676153611800,1.50661181640625,0.06821500509977341,0.25902092456817627,0.2591484785079956
1789214676163643600,1.5166435546875,0.12009605020284653,0.4163846969604492,0.3233005702495575
1789214676173675800,1.52667578125,0.24800953269004822,0.45362767577171326,0.37918272614479065
1789214676183707000,1.536706787109375,0.23452728986740112,0.4272328317165375,0.43384838104248047
1789214676193738800,1.54673876953125,0.21507768332958221,0.3182421624660492,0.5112928152084351
1789214676203770600,1.5567705078125,0.24061234295368195,0.24630537629127502,0.5896169543266296
1789214676213802500,1.566802490234375,0.21798932552337646,0.21762579679489136,0.6230577230453491
1789214676223835000,1.5768349609375,0.13106827437877655,0.18017056584358215,0.5841531753540039
1789214676233866800,1.58686669921875,-0.02237587980926037,0.17932315170764923,0.5199694037437439
1789214676243898600,1.596898681640625,-0.08474577963352203,0.23911404609680176,0.4472179710865021
1789214676253930500,1.606930419921875,-0.08946117013692856,0.1689613312482834,0.36027082800865173
1789214676263962600,1.616962646484375,-0.07261428236961365,0.20217041671276093,0.3434945046901703
1789214676273993700,1.62699365234375,-0.0007454187725670636,0.2776870131492615,0.35593149065971375
1789214676284025600,1.637025634765625,0.050810184329748154,0.301488995552063,0.30845555663108826
1789214676294057700,1.6470576171875,-0.0023869911674410105,0.45664024353027344,0.2216237336397171
1789214676304089600,1.657089599609375,-0.04376319423317909,0.5239508152008057,0.04303162172436714
1789214676314121700,1.667121826171875,-0.09944643080234528,0.5468924045562744,-0.23274269700050354
1789214676324153600,1.677153564453125,-0.14454945921897888,0.4945783019065857,-0.5317216515541077
1789214676334185700,1.687185791015625,-0.1366526484489441,0.43949320912361145,-0.7456552982330322
1789214676344217900,1.6972177734375,-0.09449055045843124,0.303655743598938,-0.8483850955963135
1789214676354249700,1.707249755859375,-0.027997279539704323,0.0975518599152565,-0.8294055461883545
1789214676364280600,1.717280517578125,0.0359199158847332,-0.09397682547569275,-0.6742079854011536
1789214676374312700,1.727312744140625,0.09127132594585419,-0.22450660169124603,-0.4428013861179352
1789214676384344600,1.737344482421875,0.14261174201965332,-0.28100156784057617,-0.20654411613941193
1789214676394376700,1.747376708984375,0.18085792660713196,-0.23703785240650177,0.007342068944126368
1789214676404408600,1.75740869140625,0.20661309361457825,-0.23912815749645233,0.13866759836673737
1789214676414440700,1.767440673828125,0.19318437576293945,-0.27293646335601807,0.17606264352798462
1789214676424472600,1.77747265625,0.1698492169380188,-0.29701223969459534,0.1348574161529541
1789214676434504700,1.787504638671875,0.11586827784776688,-0.3565450608730316,0.0450843870639801
1789214676444536600,1.79753662109375,0.03966139256954193,-0.4248082935810089,-0.06371240317821503
1789214676454567700,1.807567626953125,-0.034034933894872665,-0.4923223555088043,-0.1818222552537918
1789214676464599600,1.817599609375,-0.07568996399641037,-0.49676528573036194,-0.3154463768005371
1789214676474631400,1.82763134765625,-0.07465533167123795,-0.4611729383468628,-0.46663588285446167
1789214676484663800,1.837663818359375,-0.04944637790322304,-0.40732595324516296,-0.6228550672531128
1789214676494695700,1.84769580078125,-0.0333840548992157,-0.3601326048374176,-0.7213405966758728
1789214676504727600,1.8577275390625,-0.03554308041930199,-0.26788923144340515,-0.7240181565284729
1789214676514759700,1.867759765625,-0.05625874549150467,-0.20989251136779785,-0.6398460268974304
1789214676524791800,1.877791748046875,-0.06907707452774048,-0.15941868722438812,-0.4799700677394867
1789214676534823700,1.88782373046875,-0.048348624259233475,-0.15216316282749176,-0.3225596845149994
1789214676544854500,1.8978544921875,-0.022522885352373123,-0.22246529161930084,-0.21944047510623932
1789214676554886700,1.90788671875,0.0017827199772000313,-0.2791528105735779,-0.16041550040245056
1789214676564918800,1.917918701171875,0.01091762911528349,-0.30494871735572815,-0.13782711327075958
1789214676574950700,1.92795068359375,0.0049737198278307915,-0.344786137342453,-0.15029843151569366
1789214676584982300,1.937982177734375,-0.004712729714810848,-0.3792687654495239,-0.18211893737316132
1789214676595014400,1.948014404296875,0.007821970619261265,-0.4275233745574951,-0.2391854226589203
1789214676605046300,1.95804638671875,0.04884184151887894,-0.47677212953567505,-0.32355809211730957
1789214676615078100,1.968078125,0.05968037247657776,-0.5223976969718933,-0.4103297293186188
1789214676625110300,1.9781103515625,0.010702445171773434,-0.4666489362716675,-0.4520460367202759
1789214676635141400,1.988141357421875,-0.07081159204244614,-0.32623377442359924,-0.427007257938385
1789214676645173200,1.99817333984375,-0.14739584922790527,-0.15198659896850586,-0.3330248296260834
1789214676655205400,2.008205322265625,-0.20656675100326538,0.05043867230415344,-0.21968895196914673
1789214676665237200,2.0182373046875,-0.18809907138347626,0.19783318042755127,-0.1545695960521698
1789214676675269400,2.028269287109375,-0.13791552186012268,0.18551526963710785,-0.1439174860715866
1789214676685301200,2.03830126953125,-0.06124578043818474,0.12736009061336517,-0.10185153037309647
1789214676695333000,2.0483330078125,0.09536300599575043,-0.19721347093582153,0.10236552357673645
1789214676705365200,2.058365234375,0.14703045785427094,-0.47760143876075745,0.5792210102081299
1789214676715397400,2.0683974609375,0.1787726730108261,-0.6564077138900757,0.9256300926208496
1789214676725429200,2.07842919921875,0.13212820887565613,-0.9091027975082397,0.9718548655509949
1789214676735460400,2.08846044921875,-0.007221959996968508,-1.1902873516082764,0.8809020519256592
1789214676745492200,2.0984921875,-0.1333969384431839,-1.1221961975097656,0.7911146283149719
1789214676755524400,2.1085244140625,-0.1520201563835144,-0.6484344601631165,0.7137836217880249
1789214676765556200,2.11855615234375,-0.023151125758886337,0.037765223532915115,0.5068932771682739
1789214676775588400,2.12858837890625,0.09628339111804962,0.47251108288764954,0.3083767294883728
1789214676785620200,2.1386201171875,0.16626061499118805,0.6641353964805603,0.21210533380508423
1789214676795652400,2.14865234375,0.22889363765716553,0.5883532762527466,0.15540051460266113
1789214676805684200,2.158684326171875,0.33755168318748474,0.2690349221229553,0.205025315284729
1789214676815716400,2.16871630859375,0.47517290711402893,-0.17768238484859467,0.3146793842315674
1789214676825747200,2.178747314453125,0.5188181400299072,-0.5560635328292847,0.46077612042427063
1789214676835779000,2.188779052734375,0.4884762167930603,-0.7755132913589478,0.5178064107894897
1789214676845811500,2.1988115234375,0.4583665132522583,-0.925079882144928,0.40555256605148315
1789214676855843300,2.20884326171875,0.491118848323822,-1.0353137254714966,0.13087545335292816
1789214676865875200,2.218875244140625,0.5131013989448547,-0.9844704866409302,-0.18600475788116455
1789214676875907000,2.228906982421875,0.48745089769363403,-0.8641262650489807,-0.40938031673431396
1789214676885939500,2.238939453125,0.4389949440956116,-0.6564098000526428,-0.5400696396827698
1789214676895971300,2.248971435546875,0.37010109424591064,-0.42800194025039673,-0.7378250360488892
1789214676906003200,2.259003173828125,0.3789348006248474,-0.07617945969104767,-0.99919593334198
1789214676916035000,2.26903515625,0.4279358983039856,0.29934224486351013,-1.2825640439987183
1789214676926066400,2.27906640625,0.5023331642150879,0.6763390302658081,-1.4708465337753296
1789214676936098300,2.289098388671875,0.5731282234191895,0.8372001051902771,-1.4155631065368652
1789214676946130200,2.299130126953125,0.6115787029266357,0.6425871849060059,-1.1099355220794678
1789214676956162300,2.309162353515625,0.6611118912696838,0.10386115312576294,-0.6727035641670227
1789214676966194400,2.3191943359375,0.7011160254478455,-0.45543888211250305,-0.4192611873149872
1789214676976226300,2.329226318359375,0.737907350063324,-0.8167049288749695,-0.5088081359863281
1789214676986258200,2.339258056640625,0.7612525820732117,-1.007781744003296,-0.8450766801834106
1789214676996290300,2.349290283203125,0.7206010222434998,-1.066063404083252,-1.2802460193634033
1789214677006322400,2.359322509765625,0.6803010106086731,-1.0886867046356201,-1.6992416381835938
1789214677016353300,2.369353271484375,0.6345556378364563,-1.0698940753936768,-2.098348379135132
1789214677026385400,2.379385498046875,0.7005602121353149,-0.7042338252067566,-2.4742414951324463
1789214677036417300,2.389417236328125,0.834074079990387,-0.3012557029724121,-2.9759395122528076
1789214677046449200,2.39944921875,1.1288501024246216,-0.7618789672851562,-3.3768980503082275
1789214677056481300,2.409481201171875,1.7010324001312256,-1.546075463294983,-3.4415860176086426
1789214677066513400,2.419513427734375,2.094531536102295,-2.1717772483825684,-3.1560142040252686
1789214677076545300,2.429545166015625,2.129767656326294,-2.797189950942993,-2.658202648162842
1789214677086577200,2.4395771484375,1.9906418323516846,-3.8455965518951416,-2.0751614570617676
1789214677096609300,2.449609375,1.6298567056655884,-5.05321741104126,-1.5341600179672241
1789214677106641400,2.459641357421875,1.1848092079162598,-6.412330627441406,-1.2139569520950317
1789214677116672300,2.46967236328125,0.6620338559150696,-7.374763011932373,-1.0913794040679932
1789214677126704000,2.4797041015625,0.173776313662529,-7.563040256500244,-0.9676049947738647
1789214677136736500,2.489736572265625,-0.031002657487988472,-7.444467067718506,-0.9072833061218262
1789214677146768400,2.499768310546875,0.026825755834579468,-7.206927299499512,-0.8819577097892761
1789214677156800300,2.50980029296875,0.25487595796585083,-7.024617671966553,-0.9099323749542236
1789214677166832000,2.51983203125,0.4760704040527344,-6.893915176391602,-0.9136418700218201
1789214677176864500,2.529864501953125,0.7126262187957764,-6.937708377838135,-0.8891741037368774
1789214677186896400,2.539896484375,0.9434351921081543,-6.987214088439941,-0.8314269185066223
1789214677196928300,2.54992822265625,1.1527785062789917,-7.031041145324707,-0.7302435636520386
1789214677206959400,2.55995947265625,1.3264411687850952,-7.070042610168457,-0.5963664650917053
1789214677216991200,2.5699912109375,1.51987886428833,-6.886460304260254,-0.4202556014060974
1789214677227023400,2.5800234375,1.7625033855438232,-6.54327917098999,-0.20313501358032227
1789214677237055200,2.59005517578125,2.05116605758667,-6.1651787757873535,0.03440404683351517
1789214677247087400,2.60008740234375,2.4351537227630615,-6.081177234649658,0.25998684763908386
1789214677257119200,2.610119140625,2.8422582149505615,-6.147921562194824,0.40541940927505493
1789214677267151400,2.6201513671875,3.252004623413086,-6.124274253845215,0.5867819786071777
1789214677277183200,2.630183349609375,3.4321935176849365,-5.548092842102051,0.8189532160758972
1789214677287215400,2.64021533203125,3.4851162433624268,-4.506579875946045,1.1047801971435547
1789214677297246200,2.65024609375,3.5078248977661133,-3.175567626953125,1.3992083072662354
1789214677307278300,2.6602783203125,3.590824604034424,-1.8168023824691772,1.6193214654922485
1789214677317310200,2.670310302734375,3.6860907077789307,-0.6790221929550171,1.6683149337768555
1789214677327342300,2.68034228515625,3.855048418045044,0.3683907985687256,1.5516290664672852
1789214677337374200,2.690374267578125,4.114481449127197,1.4583712816238403,1.2463279962539673
1789214677347406300,2.70040625,4.3759918212890625,2.387502908706665,0.8382664322853088
1789214677357438200,2.710438232421875,4.4977593421936035,3.041823625564575,0.5714325904846191
1789214677367470300,2.72047021484375,4.454620838165283,3.546320915222168,0.6005223393440247
1789214677377502200,2.730502197265625,4.473658084869385,3.683518648147583,0.7966760993003845
1789214677387534300,2.740534423828125,4.4288458824157715,3.592613935470581,0.8822490572929382
1789214677397565400,2.7505654296875,4.28511905670166,3.405799150466919,0.8046736121177673
1789214677407597300,2.760597412109375,3.7702157497406006,3.4564573764801025,1.0638175010681152
1789214677417629200,2.770629150390625,2.9266796112060547,3.4731647968292236,1.675855040550232
1789214677427661000,2.7806611328125,1.9448790550231934,2.8817458152770996,2.4081053733825684
1789214677437693400,2.790693359375,0.9770349860191345,1.0473920106887817,2.993859052658081
1789214677447725300,2.800725341796875,0.8663092255592346,-0.08697857707738876,2.870971441268921
1789214677457757200,2.810757080078125,1.5637242794036865,0.2558453679084778,1.6884238719940186
1789214677467789000,2.8207890625,2.2284324169158936,0.8590015172958374,0.2973800301551819
1789214677477821400,2.830821533203125,2.4517927169799805,1.0042098760604858,-0.5342149138450623
1789214677487852300,2.840852294921875,2.3495099544525146,0.9220649003982544,-0.6837482452392578
1789214677497884200,2.85088427734375,1.9865727424621582,0.7000614404678345,-0.3044150173664093
1789214677507916300,2.860916259765625,1.7463992834091187,1.2489663362503052,0.028988242149353027
1789214677517948400,2.870948486328125,1.3139357566833496,1.355873942375183,0.35558339953422546
1789214677527980300,2.880980224609375,1.0991230010986328,0.2155245691537857,1.018460750579834
1789214677538012200,2.89101220703125,1.1463712453842163,-0.6874500513076782,1.6104968786239624
1789214677548044300,2.901044189453125,1.3218767642974854,-1.0974441766738892,1.6809645891189575
1789214677558076400,2.911076416015625,1.7065999507904053,-1.1926418542861938,1.3423892259597778
1789214677568108300,2.9211083984375,2.1194233894348145,-1.30853271484375,0.9398471117019653
1789214677578140200,2.93114013671875,2.458022117614746,-1.4855831861495972,0.6849613189697266
1789214677588174600,2.941174560546875,2.4673266410827637,-0.3490666449069977,0.937026858329773
1789214677598206500,2.95120654296875,2.139234781265259,-0.5559303164482117,0.9975229501724243
1789214677608238600,2.961238525390625,1.5363802909851074,-0.8796719312667847,1.1693226099014282
1789214677618270700,2.971270751953125,1.0554150342941284,-1.2553757429122925,1.3408195972442627
1789214677628302600,2.981302490234375,0.7951032519340515,-1.6732585430145264,1.469096064567566
1789214677638334500,2.99133447265625,0.6216371655464172,-2.336193323135376,1.6745458841323853
1789214677648366600,3.00136669921875,0.9716607332229614,-2.340765953063965,1.0270466804504395
1789214677658398700,3.011398681640625,1.7870897054672241,0.25784966349601746,1.2782485485076904
1789214677668430600,3.0214306640625,1.7699840068817139,-0.4919779896736145,1.1579078435897827
1789214677678461400,3.03146142578125,1.057788372039795,-2.8105082511901855,1.231634259223938
1789214677688493800,3.041493896484375,1.3952274322509766,-3.833587169647217,0.8665023446083069
1789214677698525700,3.051525634765625,1.5194889307022095,-2.980999708175659,0.613507091999054
1789214677708557600,3.0615576171875,1.3480583429336548,-2.5632894039154053,1.1019114255905151
1789214677718589400,3.07158935546875,1.26482355594635,-3.27813458442688,0.9977666139602661
1789214677728621800,3.081621826171875,1.242246389389038,-3.1483259201049805,1.138522982597351
1789214677738653700,3.09165380859375,1.2179962396621704,-3.0530142784118652,1.3095489740371704
1789214677748685600,3.101685546875,1.094244360923767,-2.6218128204345703,1.3055808544158936
1789214677758717400,3.111717529296875,0.9810512661933899,-2.1469812393188477,1.0740773677825928
1789214677768749800,3.121749755859375,1.1322623491287231,-1.543971061706543,1.1527732610702515
1789214677778780700,3.13178076171875,0.9162017107009888,-1.3156018257141113,1.182015299797058
1789214677788812500,3.1418125,0.6162256598472595,-0.9932475090026855,2.4320857524871826
1789214677798844700,3.1518447265625,0.692863404750824,-1.1935776472091675,1.7240720987319946
1789214677808876500,3.16187646484375,0.5328495502471924,-0.5205140113830566,2.0133299827575684
1789214677818908700,3.17190869140625,0.19081628322601318,-1.5903223752975464,2.367154359817505
1789214677828940500,3.1819404296875,0.5804780125617981,-1.6050448417663574,1.4009824991226196
1789214677838972700,3.19197265625,0.8316215872764587,-1.103191614151001,0.45144230127334595
1789214677849004500,3.202004638671875,0.7891148924827576,-1.204092025756836,0.16180354356765747
1789214677859036700,3.21203662109375,0.55426424741745,-1.4632930755615234,0.21464252471923828
1789214677869067800,3.22206787109375,0.3306143879890442,-1.5456569194793701,0.11890082061290741
1789214677879099600,3.232099609375,0.06157468259334564,-1.369945764541626,-0.02576635032892227
1789214677889131500,3.242131591796875,-0.16147011518478394,-1.196838140487671,-0.11850214749574661
1789214677899163600,3.25216357421875,-0.3108915686607361,-1.1264324188232422,-0.3146681785583496
1789214677909195800,3.26219580078125,-0.4754221737384796,-1.230509877204895,-0.6491913199424744
1789214677919227600,3.2722275390625,-0.6238055229187012,-1.4795217514038086,-1.057312250137329
1789214677929259500,3.282259521484375,-0.6437368988990784,-1.5888357162475586,-1.4021433591842651
1789214677939291600,3.292291748046875,-0.7013906240463257,-1.9273639917373657,-1.9229871034622192
1789214677949323800,3.30232373046875,-0.9754956364631653,-2.0887186527252197,-1.9037116765975952
1789214677959355600,3.312355712890625,-1.300828218460083,-2.683305263519287,-1.8270070552825928
1789214677969386500,3.322386474609375,-1.5251907110214233,-3.1231226921081543,-1.4975066184997559
1789214677979418600,3.332418701171875,-1.3198498487472534,-2.9054315090179443,-1.181200623512268
1789214677989450800,3.34245068359375,-0.9028339982032776,-2.3078534603118896,-0.9948818683624268
1789214677999482600,3.352482666015625,-0.7447428703308105,-1.5215967893600464,-0.8290923833847046
1789214678009514500,3.362514404296875,-0.7393164038658142,-0.9449833035469055,-0.7518207430839539
1789214678019546600,3.372546630859375,-0.9031533002853394,-0.6516022682189941,-0.8287227153778076
1789214678029578800,3.382578857421875,-1.0816844701766968,-0.5167118310928345,-0.8792815208435059
1789214678039610600,3.392610595703125,-1.2583463191986084,-0.6489276885986328,-0.9512438774108887
1789214678049642500,3.402642578125,-1.3405489921569824,-1.0006908178329468,-1.0010141134262085
1789214678059674600,3.412674560546875,-1.3311989307403564,-1.387726902961731,-0.9803857803344727
1789214678069706800,3.422706787109375,-1.2732964754104614,-1.7884535789489746,-0.9265518188476562
1789214678079737600,3.432737548828125,-1.2000752687454224,-1.895438551902771,-0.896534264087677
1789214678089769700,3.442769775390625,-1.2080104351043701,-1.6119464635849,-0.8231910467147827
1789214678099801600,3.452801513671875,-1.1802144050598145,-1.0636907815933228,-0.8792786002159119
1789214678109833700,3.462833740234375,-1.1458077430725098,-0.38652533292770386,-1.0762404203414917
1789214678119865600,3.472865478515625,-1.13030207157135,0.24223659932613373,-1.1854100227355957
1789214678129897500,3.4828974609375,-1.0453940629959106,0.4550042748451233,-1.0939642190933228
1789214678139929600,3.4929296875,-0.8140508532524109,0.2660071849822998,-0.8452247381210327
1789214678149961700,3.502961669921875,-0.6447869539260864,-0.020064787939190865,-0.6537075042724609
1789214678159993600,3.51299365234375,-0.5956807136535645,-0.2011014223098755,-0.5081402063369751
1789214678170025500,3.523025390625,-0.6675500869750977,-0.2574765384197235,-0.39522722363471985
1789214678180057600,3.5330576171875,-0.8239636421203613,-0.12510651350021362,-0.3299217224121094
1789214678190088400,3.54308837890625,-1.1252574920654297,-0.007822769694030285,-0.4097971022129059
1789214678200120600,3.55312060546875,-1.1517287492752075,0.11785127222537994,-0.39839664101600647
1789214678210152700,3.563152587890625,-1.307022213935852,0.10539886355400085,-0.48277518153190613
1789214678220184600,3.5731845703125,-1.4644043445587158,0.05230634659528732,-0.5173084139823914
1789214678230216400,3.583216552734375,-1.6499097347259521,0.0887112244963646,-0.4659527838230133
1789214678240248600,3.59324853515625,-2.3010246753692627,-0.017675399780273438,-0.793491780757904
1789214678250280700,3.60328076171875,-3.370368242263794,-0.06710659712553024,-0.8882678151130676
1789214678260312600,3.6133125,-2.34521746635437,-0.04093704745173454,-0.6369471549987793
1789214678270344700,3.6233447265625,-0.2860722243785858,1.0719982385635376,-0.7520298361778259
1789214678280376600,3.63337646484375,0.9722815155982971,2.0523080825805664,-0.7871524095535278
1789214678290408700,3.64340869140625,1.3692964315414429,1.961915373802185,-0.3744276762008667
1789214678300439600,3.653439453125,1.5084620714187622,1.3439149856567383,0.13962127268314362
1789214678310471400,3.663471435546875,1.702675223350525,0.9517996311187744,0.36171266436576843
1789214678320503800,3.67350390625,1.9100537300109863,0.9986856579780579,0.40693074464797974
1789214678330535700,3.68353564453125,2.0059022903442383,1.6715497970581055,0.22149351239204407
1789214678340567600,3.693567626953125,1.7970848083496094,2.7057998180389404,-0.5834367871284485
1789214678350599400,3.703599365234375,1.378608226776123,2.90788197517395,-0.94278883934021
1789214678360631800,3.7136318359375,1.2428642511367798,1.9182064533233643,-0.6405482888221741
1789214678370663700,3.72366357421875,1.2080327272415161,0.7900317907333374,-0.1790887862443924
1789214678380695600,3.733695556640625,1.2740283012390137,0.20303992927074432,0.2425713688135147
1789214678390727400,3.7437275390625,1.3825122117996216,0.4218748211860657,0.4716828465461731
1789214678400759800,3.753759765625,1.7083756923675537,0.7947077751159668,0.3148450255393982
1789214678410791700,3.763791748046875,1.8252723217010498,1.1388083696365356,0.06469403952360153
1789214678420823600,3.773823486328125,2.039963483810425,1.286780834197998,-0.2164018154144287
1789214678430854700,3.783854736328125,2.5238521099090576,1.5418397188186646,-0.44187408685684204
1789214678440886800,3.79388671875,3.089158773422241,2.1710166931152344,-0.6997247934341431
1789214678450918700,3.803918701171875,3.688887119293213,2.4606330394744873,-0.9508779048919678
1789214678460950500,3.813950439453125,4.468462944030762,2.4589226245880127,-1.0318244695663452
1789214678470982700,3.823982666015625,5.364309310913086,2.370016098022461,-0.8749094009399414
1789214678481014800,3.834014892578125,7.046328067779541,1.756460428237915,-0.22247807681560516
1789214678491046700,3.844046630859375,7.16088342666626,-0.12869353592395782,0.2894509732723236
1789214678501078500,3.85407861328125,5.74625825881958,0.44158512353897095,0.6208286285400391
1789214678511110700,3.864110595703125,3.6722044944763184,1.9220590591430664,0.8541473746299744
1789214678521142800,3.874142822265625,1.1937345266342163,1.607934594154358,0.7102429270744324
1789214678531174700,3.884174560546875,0.11794581264257431,2.310530424118042,1.2422444820404053
1789214678541206500,3.89420654296875,-0.14187031984329224,2.1876473426818848,1.0227004289627075
1789214678551238700,3.90423876953125,-0.3374432921409607,0.23109421133995056,0.6423273086547852
1789214678561270800,3.914270751953125,0.08135344833135605,-1.8636406660079956,-0.045225001871585846
1789214678571302700,3.924302734375,0.326288104057312,-1.2261524200439453,-0.17538033425807953
1789214678581333800,3.934333740234375,0.15547241270542145,-1.3186067342758179,-0.9094133377075195
1789214678591362000,3.944362060546875,0.03551138937473297,-1.3280848264694214,-1.3136132955551147
1789214678601394000,3.954393798828125,-0.07892118394374847,-1.3686126470565796,-1.6499806642532349
1789214678611426000,3.964426025390625,-0.14090226590633392,-1.3652631044387817,-1.9627856016159058
1789214678621458200,3.974458251953125,-0.32351839542388916,-1.562778353691101,-2.189098596572876
1789214678631490000,3.984489990234375,-0.5796263813972473,-1.5674817562103271,-2.245089530944824
1789214678641522000,3.99452197265625,-0.6306865811347961,-1.2849317789077759,-2.0880544185638428
1789214678651554000,4.004553955078125,-0.6144005656242371,-1.0056178569793701,-1.9252039194107056
1789214678661586000,4.0145859375,-0.6423222422599792,-0.6286945939064026,-1.626991629600525
1789214678671618000,4.0246181640625,-0.6755973696708679,-0.04421326890587807,-1.316366195678711
1789214678681650000,4.03464990234375,-0.9671045541763306,0.1497119963169098,-1.1002320051193237
1789214678691682000,4.04468212890625,-1.4171996116638184,0.3291584551334381,-0.793577253818512
1789214678701714000,4.0547138671875,-1.829758644104004,0.08274228125810623,-0.9189178943634033
1789214678711746000,4.06474609375,-2.3076844215393066,-0.7192021012306213,-0.5760878324508667
1789214678721778200,4.074778076171875,-2.3465423583984375,-1.8451237678527832,0.5132800936698914
1789214678731810000,4.08481005859375,-1.0687052011489868,-3.3184359073638916,0.7397286891937256
1789214678741841200,4.094841064453125,0.7781943082809448,-5.171785831451416,0.9457420110702515
1789214678751873000,4.104873046875,2.0163114070892334,-6.471147060394287,1.047540545463562
1789214678761905000,4.11490478515625,2.5881543159484863,-6.3833088874816895,0.9116466641426086
1789214678771937000,4.12493701171875,3.231386423110962,-5.133037567138672,0.40677228569984436
1789214678781969200,4.13496923828125,1.489211916923523,-1.515264868736267,0.5858131647109985
1789214678792001000,4.1450009765625,-0.6082638502120972,0.6016829013824463,0.26936835050582886
1789214678802033000,4.155032958984375,-0.5191057324409485,0.15811240673065186,-1.1327306032180786
1789214678812065000,4.16506494140625,-0.45047956705093384,0.22752396762371063,-0.9038417339324951
1789214678822097200,4.17509716796875,-0.4804683327674866,0.6952989101409912,-0.23858967423439026
1789214678832129000,4.18512890625,-0.3457805812358856,1.4527924060821533,0.004792358260601759
1789214678842161000,4.195160888671875,-0.39030542969703674,1.7632272243499756,0.04929298162460327
1789214678852193000,4.205193115234375,-0.5057931542396545,1.7824259996414185,0.1818568855524063
1789214678862225200,4.21522509765625,-0.5176532864570618,1.645060658454895,0.19762413203716278
1789214678872257000,4.225257080078125,-0.24570509791374207,1.0493229627609253,-0.06780114769935608
1789214678882287900,4.235287841796875,0.07931852340698242,0.8341646194458008,-0.3493683934211731
1789214678892320300,4.2453203125,0.20908556878566742,0.9706186056137085,-0.37366652488708496
1789214678902352100,4.25535205078125,0.24201902747154236,0.9047940373420715,-0.12052109092473984
1789214678912384000,4.265384033203125,0.10067974030971527,0.48299115896224976,0.2337706834077835
1789214678922415900,4.275415771484375,-0.13717703521251678,0.36867284774780273,0.47179150581359863
1789214678932448300,4.2854482421875,-0.33946114778518677,0.4787173271179199,0.4869273006916046
1789214678942480100,4.295480224609375,-0.46416792273521423,0.6391706466674805,0.26466280221939087
1789214678952512000,4.305511962890625,-0.5566858649253845,0.5671678185462952,-0.03802381455898285
1789214678962543900,4.3155439453125,-0.625678539276123,0.011373295448720455,-0.16729284822940826
1789214678972576300,4.325576171875,-0.663720965385437,-0.7960478663444519,-0.10273943096399307
1789214678982608100,4.335608154296875,-0.740069568157196,-0.912297248840332,0.00361683894880116
1789214678992640000,4.345639892578125,-0.8600335121154785,-1.0107665061950684,-0.09071951359510422
1789214679002671900,4.355671875,-1.0654332637786865,-1.2337652444839478,-0.48670148849487305
1789214679012704300,4.365704345703125,-1.2736296653747559,-1.3093154430389404,-0.7839701771736145
1789214679022736100,4.375736083984375,-1.4579379558563232,-0.9804158210754395,-1.0431461334228516
1789214679032768000,4.38576806640625,-1.3938292264938354,-0.5198003053665161,-1.548292875289917
1789214679042799900,4.3957998046875,-1.0400128364562988,0.2671422064304352,-1.8873518705368042
1789214679052831000,4.4058310546875,-0.49463582038879395,1.016821026802063,-1.6364871263504028
1789214679062863000,4.415863037109375,-0.18237939476966858,1.0410823822021484,-1.161849856376648
1789214679072895000,4.42589501953125,-0.3324812650680542,0.5054613351821899,-0.7155314683914185
1789214679082927000,4.435927001953125,-0.6572428345680237,0.06341040134429932,-0.19132468104362488
1789214679092959000,4.445958984375,-0.7769660353660583,-0.17977695167064667,0.21156418323516846
1789214679102991000,4.4559912109375,-0.851698100566864,0.029708627611398697,0.5772398710250854
1789214679113023000,4.46602294921875,-0.8042711615562439,0.5495883226394653,0.8593086004257202
1789214679123055000,4.47605517578125,-0.5098435282707214,1.03207528591156,1.0637496709823608
1789214679133087000,4.4860869140625,0.10302465409040451,1.171799659729004,1.1509803533554077
1789214679143119000,4.496119140625,0.468665212392807,1.772232174873352,0.9952254295349121
1789214679153151000,4.50615087890625,1.256287932395935,2.0704009532928467,0.2768577039241791
1789214679163182800,4.516182861328125,1.9230363368988037,2.513789415359497,-0.15165530145168304
1789214679173215200,4.52621533203125,2.2948238849639893,2.3230762481689453,-0.3223780393600464
1789214679183247000,4.5362470703125,2.4723942279815674,1.8527475595474243,-0.056882988661527634
1789214679193279000,4.546279052734375,2.15631103515625,1.8211475610733032,0.3542393147945404
1789214679203310800,4.556310791015625,1.6087710857391357,1.2679510116577148,0.7109068632125854
1789214679213343200,4.56634326171875,0.5632444620132446,-0.25086256861686707,0.3345441520214081
1789214679223374000,4.5763740234375,1.1331326961517334,0.5090826749801636,-0.7191306948661804
1789214679233406000,4.586406005859375,1.4713608026504517,0.4810342788696289,-0.8182700872421265
1789214679243438000,4.59643798828125,1.005110502243042,-0.7229257225990295,-0.3647630512714386
1789214679253470000,4.606469970703125,0.8922210335731506,-0.9277766346931458,-0.2055494338274002
1789214679263502000,4.616502197265625,1.16598379611969,-0.49872830510139465,-0.24192820489406586
1789214679273534000,4.626533935546875,1.3789196014404297,-0.45413899421691895,-0.4357365667819977
1789214679283566000,4.636566162109375,1.4162174463272095,-0.6668989658355713,-0.6026864051818848
1789214679293598000,4.646597900390625,1.5386157035827637,-0.34909382462501526,-0.5726981163024902
1789214679303630000,4.656630126953125,1.2098277807235718,0.3765566051006317,-0.39465489983558655
1789214679313662000,4.666661865234375,0.7222799062728882,0.4861888289451599,-0.3750407099723816
1789214679323694000,4.676694091796875,0.49060434103012085,0.7216825485229492,-0.327595978975296
1789214679333726000,4.686725830078125,0.2709452211856842,1.0943390130996704,-0.716607391834259
1789214679343758000,4.696758056640625,-0.0029995182994753122,0.7873707413673401,-1.329987645149231
1789214679353790000,4.7067900390625,-0.015057512558996677,0.7145716547966003,-0.8978202939033508
1789214679363822000,4.716822021484375,0.010677145794034004,0.2992492914199829,-0.5673590302467346
1789214679373854000,4.72685400390625,-0.07164968550205231,-0.0011297129094600677,-0.6273888349533081
1789214679383886000,4.736885986328125,-0.06564372777938843,-0.05824386700987816,-0.7794710397720337
1789214679393918000,4.74691796875,-0.029877470806241035,0.058461446315050125,-0.8728600740432739
1789214679403950000,4.7569501953125,-0.0640636682510376,0.27619776129722595,-0.9059189558029175
1789214679413982200,4.766982177734375,-0.17395448684692383,0.380156934261322,-0.9801503419876099
1789214679424013000,4.777012939453125,-0.27722200751304626,0.3609693646430969,-1.0756523609161377
1789214679434045200,4.787045166015625,-0.3103213906288147,0.44347304105758667,-1.1167055368423462
1789214679444077000,4.7970771484375,-0.2507011890411377,0.6214262843132019,-1.207206130027771
1789214679454109000,4.80710888671875,-0.10225260257720947,0.6273464560508728,-1.3152265548706055
1789214679464141000,4.81714111328125,0.038359638303518295,0.3344546854496002,-1.4644006490707397
1789214679474173200,4.827173095703125,0.16196680068969727,0.12304310500621796,-1.7137508392333984
1789214679484205000,4.837205078125,0.23721468448638916,-0.3401256203651428,-1.9421647787094116
1789214679494237000,4.84723681640625,0.20742642879486084,-0.6516180038452148,-1.7750484943389893
1789214679504269000,4.85726904296875,0.1138826236128807,-0.4229384660720825,-1.2464674711227417
1789214679514301200,4.86730126953125,-0.06123912334442139,0.029766151681542397,-0.804791271686554
1789214679524333000,4.8773330078125,-0.2581593692302704,0.3549588918685913,-0.7265231013298035
1789214679534365000,4.887364990234375,-0.41447892785072327,0.5668447613716125,-0.9277662038803101
1789214679544397000,4.89739697265625,-0.6267573833465576,0.6504867076873779,-1.3514975309371948
1789214679554429000,4.907428955078125,-0.874419093132019,0.7401278614997864,-1.867177128791809
1789214679564461000,4.9174609375,-1.0141620635986328,0.7370476722717285,-2.2444024085998535
1789214679574493000,4.927492919921875,-0.8974738121032715,0.43805378675460815,-2.3989500999450684
1789214679584525000,4.937525146484375,-0.6379080414772034,0.11471539735794067,-2.3277132511138916
1789214679594557000,4.947556884765625,-0.5609802603721619,-0.09136639535427094,-2.136563301086426
1789214679604589000,4.957589111328125,-0.7389259934425354,-0.12412514537572861,-2.0424280166625977
1789214679614621000,4.967620849609375,-0.9178107976913452,-0.16969582438468933,-2.131105422973633
1789214679624653000,4.977653076171875,-1.0232013463974,-0.5125722289085388,-2.2366390228271484
1789214679634684200,4.98768408203125,-1.1416510343551636,-0.996059775352478,-2.303549289703369
1789214679644716000,4.997716064453125,-1.2000060081481934,-1.0246975421905518,-2.3577492237091064
1789214679654748000,5.007747802734375,-1.1042184829711914,-0.6277411580085754,-2.4257779121398926
1789214679664779800,5.01777978515625,-1.0480839014053345,-0.23448973894119263,-2.382970094680786
1789214679674812200,5.027812255859375,-1.1382238864898682,-0.12874306738376617,-2.1036276817321777
1789214679684844000,5.037843994140625,-1.3395814895629883,0.10346194356679916,-1.6151230335235596
1789214679694876000,5.0478759765625,-1.4488749504089355,0.175512433052063,-1.1778428554534912
1789214679704907800,5.05790771484375,-1.3586217164993286,0.43614375591278076,-1.1485542058944702
1789214679714940200,5.067940185546875,-0.9094804525375366,-0.20042337477207184,-1.1889245510101318
1789214679724972000,5.077971923828125,-0.7125641703605652,-0.6530529260635376,-0.9566346406936646
1789214679735004000,5.08800390625,-0.8388429880142212,-0.6892444491386414,-0.7341616153717041
1789214679745035800,5.098035888671875,-0.9408761858940125,-0.31507566571235657,-0.5525984764099121
1789214679755068200,5.108068115234375,-0.9271457195281982,0.031499601900577545,-0.5598667860031128
1789214679765100000,5.11810009765625,-0.7921921610832214,-0.1172371432185173,-0.4202593266963959
1789214679775132000,5.1281318359375,-0.7072418332099915,-0.2944105863571167,-0.1488185077905655
1789214679785163800,5.138163818359375,-0.7760286331176758,-0.1679288148880005,0.1146291121840477
1789214679795196200,5.148196044921875,-0.7424211502075195,0.13469283282756805,0.1856423020362854
1789214679805228000,5.15822802734375,-0.2860107123851776,0.22375613451004028,0.21656958758831024
1789214679815260000,5.168260009765625,0.30445045232772827,0.15160657465457916,0.3859860599040985
1789214679825292000,5.1782919921875,0.5997457504272461,0.09413528442382812,0.5955552458763123
1789214679835324200,5.18832421875,0.7145023941993713,0.1499902904033661,0.9563413858413696
1789214679845356000,5.19835595703125,0.8092864751815796,0.18100440502166748,1.3708053827285767
1789214679855388000,5.208387939453125,0.9694023728370667,0.3335486650466919,1.6795153617858887
1789214679865419000,5.2184189453125,1.2442700862884521,0.4738714396953583,1.9186632633209229
1789214679875451100,5.228451171875,1.5377917289733887,0.526533842086792,2.1884467601776123
1789214679885483000,5.23848291015625,1.7591904401779175,0.5072309970855713,2.488779306411743
1789214679895515000,5.248514892578125,1.89386785030365,0.6497306227684021,2.643486738204956
1789214679905547000,5.258547119140625,1.945428729057312,0.6724159717559814,2.7484142780303955
1789214679915579100,5.2685791015625,1.951316237449646,0.7954670190811157,2.7789251804351807
1789214679925611000,5.278611083984375,2.042980432510376,0.8973686099052429,2.629241466522217
1789214679935643000,5.288642822265625,2.184028148651123,0.5255146622657776,2.6099390983581543
1789214679945675000,5.298675048828125,2.3303990364074707,0.32026907801628113,2.5320651531219482
1789214679955707100,5.30870703125,2.477522850036621,0.1492997407913208,2.4240493774414062
1789214679965739000,5.318739013671875,2.6004064083099365,-0.10778798162937164,2.4060235023498535
1789214679975771000,5.32877099609375,2.6149046421051025,-0.2394791692495346,2.30098819732666
1789214679985803000,5.338802978515625,2.454563856124878,-0.2974444627761841,2.059128761291504
1789214679995835100,5.348835205078125,2.1130776405334473,-0.4721289277076721,1.7997533082962036
1789214680005867000,5.358866943359375,1.5998284816741943,-0.5529657006263733,1.62480628490448
1789214680015899000,5.36889892578125,1.0789051055908203,-0.5549876093864441,1.453116774559021
1789214680025931000,5.378930908203125,0.6289156079292297,-0.5332686901092529,1.318528652191162
1789214680035963100,5.388963134765625,0.3529106676578522,-0.6839396953582764,1.2476513385772705
1789214680045995000,5.3989951171875,0.26779788732528687,-0.6010189652442932,1.3113436698913574
1789214680056027000,5.40902685546875,0.39295607805252075,-0.2723042368888855,1.3687387704849243
1789214680066059000,5.41905908203125,0.44938045740127563,0.09084361791610718,1.285966157913208
1789214680076091100,5.429091064453125,0.30286693572998047,0.16231167316436768,1.0423800945281982
1789214680086123000,5.439123046875,0.06253528594970703,0.14781635999679565,0.8995356559753418
1789214680096153900,5.44915380859375,-0.1906125545501709,-0.027530960738658905,0.7777407765388489
1789214680106186000,5.45918603515625,-0.4951370358467102,-0.20400026440620422,0.5828575491905212
1789214680116218000,5.469218017578125,-0.6952107548713684,-0.3158796727657318,0.3315771222114563
1789214680126250000,5.47925,-0.7672958374023438,-0.38526833057403564,-0.005042162723839283
1789214680136281900,5.48928173828125,-0.8545647263526917,-0.26290833950042725,-0.3044072985649109
1789214680146314000,5.49931396484375,-0.9488317966461182,0.010103766806423664,-0.6312453150749207
1789214680156346000,5.50934619140625,-1.0263508558273315,0.323487788438797,-1.0276033878326416
1789214680166378000,5.5193779296875,-1.0796403884887695,0.6094961166381836,-1.3410598039627075
1789214680176409900,5.529409912109375,-1.0958728790283203,0.8290247321128845,-1.4640834331512451
1789214680186442000,5.53944189453125,-1.0464873313903809,0.9096252918243408,-1.4022504091262817
1789214680196474000,5.54947412109375,-0.973114013671875,0.9140754342079163,-1.1766642332077026
1789214680206506000,5.559506103515625,-0.8954431414604187,0.8138598799705505,-0.8752958178520203
1789214680216537900,5.569537841796875,-0.8158556818962097,0.5943850874900818,-0.6382289528846741
1789214680226570000,5.579570068359375,-0.6736553907394409,0.5818117260932922,-0.49735891819000244
1789214680236602000,5.58960205078125,-0.5727987885475159,0.6290551424026489,-0.491563618183136
1789214680246634000,5.599634033203125,-0.518546998500824,0.6971609592437744,-0.5738393068313599
1789214680256665900,5.609665771484375,-0.43766096234321594,0.5334423184394836,-0.6681405305862427
1789214680266698000,5.619697998046875,-0.2895106375217438,0.19237104058265686,-0.7464944124221802
1789214680276730000,5.629730224609375,-0.035646144300699234,-0.024597754701972008,-0.8379500508308411
1789214680286762000,5.639761962890625,0.16236308217048645,-0.1500837802886963,-1.0190351009368896
1789214680296793900,5.6497939453125,0.18986740708351135,0.02383502572774887,-1.2247475385665894
1789214680306826200,5.659826171875,0.11345252394676208,0.2861529290676117,-1.4494425058364868
1789214680316857000,5.669857177734375,-0.07568623870611191,0.6187569499015808,-1.6669063568115234
1789214680326889000,5.679888916015625,-0.23607218265533447,0.8299224972724915,-1.7674052715301514
1789214680336921000,5.689921142578125,-0.33582913875579834,0.9634997248649597,-1.5559250116348267
1789214680346953000,5.699952880859375,-0.40523430705070496,0.9572681784629822,-1.200478196144104
1789214680356985000,5.709985107421875,-0.5085300803184509,0.9464893341064453,-0.9498536586761475
1789214680367017000,5.720016845703125,-0.6610309481620789,1.0055832862854004,-0.874349057674408
1789214680377049000,5.730049072265625,-0.8525130152702332,1.1581534147262573,-0.9293531775474548
1789214680387081000,5.7400810546875,-1.1433852910995483,1.3210080862045288,-1.0912609100341797
1789214680397113000,5.750113037109375,-1.3453288078308105,1.2123161554336548,-1.3812886476516724
1789214680407145000,5.76014501953125,-1.362776279449463,0.7620195746421814,-1.6831231117248535
1789214680417177000,5.770177001953125,-1.2783199548721313,0.08784117549657822,-1.901052474975586
1789214680427209000,5.780208984375,-1.2251089811325073,-0.3255344331264496,-1.9808181524276733
1789214680437241000,5.790240966796875,-1.3268380165100098,-0.26210111379623413,-1.8558765649795532
1789214680447273000,5.80027294921875,-1.6439768075942993,-0.2720818519592285,-1.6676064729690552
1789214680457304800,5.810304931640625,-1.9128023386001587,-0.4041788876056671,-1.5313842296600342
1789214680467337000,5.8203369140625,-1.8817927837371826,-0.6419240832328796,-1.3040093183517456
1789214680477369000,5.830369140625,-1.622721791267395,-0.9853850603103638,-0.9776192903518677
1789214680487401000,5.84040087890625,-1.2653945684432983,-1.1153262853622437,-0.7033219337463379
1789214680497432800,5.850432861328125,-0.8495555520057678,-0.9313551187515259,-0.734387993812561
1789214680507465000,5.86046484375,-0.6342312693595886,-0.8190780878067017,-1.0440722703933716
1789214680517497000,5.8704970703125,-0.5131351947784424,-0.737169623374939,-1.107407569885254
1789214680527529000,5.880529052734375,-0.4818204343318939,-0.6081418991088867,-0.8252198696136475
1789214680537560800,5.890560791015625,-0.5924622416496277,-0.17567062377929688,-0.6374587416648865
1789214680547593000,5.900593017578125,-0.8114699721336365,0.1361442506313324,-0.36667385697364807
1789214680557625000,5.910625,-0.9712854623794556,0.6056528687477112,-0.091790109872818
1789214680567656000,5.920656005859375,-0.9375245571136475,0.9466916918754578,-0.17126202583312988
1789214680577688000,5.93068798828125,-0.7832732200622559,0.5801246166229248,-0.3408643901348114
1789214680587720400,5.940720458984375,-0.6559075713157654,0.09445033967494965,-0.4251883029937744
1789214680597752600,5.950752685546875,-0.49027809500694275,-0.5534932613372803,-0.2746097147464752
1789214680607784400,5.960784423828125,-0.22272175550460815,-0.8162354230880737,-0.15449662506580353
1789214680617816600,5.970816650390625,0.06435901671648026,-0.9221914410591125,-0.0930710881948471
1789214680627848400,5.980848388671875,0.3467307984828949,-0.9087384939193726,-0.09193098545074463
1789214680637880600,5.990880615234375,0.543046236038208,-0.8494423627853394,-0.1034448966383934
1789214680647912400,6.000912353515625,0.7010683417320251,-0.5895469188690186,0.10299402475357056
1789214680657944300,6.0109443359375,0.8578843474388123,-0.030283870175480843,0.29835766553878784
1789214680667976400,6.0209765625,0.9945471286773682,0.4267188310623169,0.5369297862052917
1789214680678008600,6.031008544921875,1.0453064441680908,0.786557137966156,0.7227635383605957
1789214680688040400,6.04104052734375,1.05051589012146,1.0585042238235474,0.8503561019897461
1789214680698072300,6.051072265625,1.0575759410858154,1.045288324356079,0.9914724826812744
1789214680708104700,6.061104736328125,1.1587469577789307,0.8169683218002319,1.1205776929855347
1789214680718136600,6.071136474609375,1.3651635646820068,0.45512622594833374,1.2490673065185547
1789214680728168400,6.08116845703125,1.585723638534546,0.17248468101024628,1.2531757354736328
1789214680738200300,6.091200439453125,1.7234660387039185,-0.21994194388389587,1.3057090044021606
1789214680748232700,6.101232666015625,1.8077300786972046,-0.4425942003726959,1.362687110900879
1789214680758264600,6.1112646484375,1.8989286422729492,-0.5886078476905823,1.4584524631500244
1789214680768296400,6.12129638671875,1.9367899894714355,-0.744109570980072,1.5799448490142822
1789214680778328300,6.131328369140625,1.9305773973464966,-0.9131507873535156,1.7378857135772705
1789214680788360700,6.141360595703125,1.9069825410842896,-0.894658625125885,1.7837120294570923
1789214680798392600,6.151392578125,1.9409810304641724,-0.7844181060791016,1.7257145643234253
1789214680808424400,6.161424560546875,1.9810093641281128,-0.6753216981887817,1.6554614305496216
1789214680818456300,6.171456298828125,1.9231903553009033,-0.7504854202270508,1.6574454307556152
1789214680828487400,6.1814873046875,1.8457149267196655,-0.8774726986885071,1.6857188940048218
1789214680838519600,6.19151953125,1.8075987100601196,-0.9535967707633972,1.7149626016616821
1789214680848551400,6.201551513671875,1.8266615867614746,-0.9072252511978149,1.7017583847045898
1789214680858583600,6.21158349609375,1.8290044069290161,-0.901538074016571,1.6426515579223633
1789214680868615400,6.221615478515625,1.7498224973678589,-0.8275136351585388,1.5804451704025269
1789214680878647600,6.2316474609375,1.5558080673217773,-0.5860695838928223,1.4987585544586182
1789214680888679400,6.241679443359375,1.3293850421905518,-0.5189403891563416,1.2886301279067993
1789214680898711600,6.251711669921875,1.0677201747894287,-0.530268669128418,1.1330705881118774
1789214680908743400,6.261743408203125,0.8655545115470886,-0.5395170450210571,1.146246075630188
1789214680918775600,6.271775634765625,0.7555872797966003,-0.3331958055496216,1.2770472764968872
1789214680928807400,6.281807373046875,0.8163419365882874,-0.029446305707097054,1.4203770160675049
1789214680938839600,6.291839599609375,0.8329321146011353,0.1878442019224167,1.3724377155303955
1789214680948871700,6.30187158203125,0.7741937041282654,0.2252696007490158,1.1664198637008667
1789214680958903600,6.311903564453125,0.573609471321106,0.15487506985664368,0.8663931488990784
1789214680968935400,6.321935302734375,0.30549439787864685,0.31786292791366577,0.6043862700462341
1789214680978967600,6.331967529296875,0.070010244846344,0.4401305019855499,0.4043187201023102
1789214680988999700,6.341999755859375,-0.11561767756938934,0.2964540421962738,0.2776643633842468
1789214680999031600,6.352031494140625,-0.3452199697494507,-0.11970722675323486,0.19357000291347504
1789214681009063400,6.3620634765625,-0.5433823466300964,-0.8000673651695251,0.03323571756482124
1789214681019095300,6.37209521484375,-0.6530331969261169,-1.0618047714233398,-0.19386880099773407
1789214681029127700,6.382127685546875,-0.7359363436698914,-0.7596738934516907,-0.47409752011299133
1789214681039159600,6.39215966796875,-0.8898460268974304,-0.2556498944759369,-0.8253551721572876
1789214681049191400,6.40219140625,-1.0518652200698853,0.07357701659202576,-1.0869039297103882
1789214681059223300,6.412223388671875,-1.1395705938339233,0.24096255004405975,-1.1568063497543335
1789214681069255700,6.422255615234375,-1.1236380338668823,0.32249629497528076,-1.1254513263702393
1789214681079286500,6.43228662109375,-1.0209083557128906,0.4779282212257385,-1.048504114151001
1789214681089318400,6.442318359375,-0.9165106415748596,0.5715731978416443,-0.9351341128349304
1789214681099350500,6.4523505859375,-0.8429703712463379,0.6910713911056519,-0.8152154684066772
1789214681109382400,6.46238232421875,-0.754784345626831,0.966765820980072,-0.7282312512397766
1789214681119414500,6.47241455078125,-0.6921553015708923,1.1153159141540527,-0.7937261462211609
1789214681129446400,6.4824462890625,-0.6255453824996948,1.1230260133743286,-1.0235086679458618
1789214681139478500,6.492478515625,-0.6220026016235352,0.7029075622558594,-1.2015591859817505
1789214681149510400,6.502510498046875,-0.6731757521629333,0.0997854471206665,-0.9998664855957031
1789214681159542500,6.51254248046875,-0.6665327548980713,-0.4775710999965668,-0.5295000672340393
1789214681169574400,6.522574462890625,-0.6142125725746155,-0.8212472200393677,-0.16279929876327515
1789214681179606500,6.5326064453125,-0.6065099239349365,-0.861561119556427,0.03214462101459503
1789214681189638700,6.542638671875,-0.5960268974304199,-0.8980080485343933,0.047629568725824356
1789214681199670500,6.55267041015625,-0.5759338736534119,-0.89555823802948,0.004060521721839905
1789214681209702400,6.562702392578125,-0.5811872482299805,-0.6968344449996948,-0.019843745976686478
1789214681219734500,6.572734619140625,-0.6214566230773926,-0.31791219115257263,-0.05994855612516403
1789214681229766700,6.5827666015625,-0.7283676266670227,0.21313704550266266,-0.15154877305030823
1789214681239798500,6.592798583984375,-0.8914939761161804,0.7741010189056396,-0.39721205830574036
1789214681249830400,6.602830322265625,-1.0958119630813599,1.2046822309494019,-0.7096562385559082
1789214681259862500,6.612862548828125,-1.2305753231048584,1.3093633651733398,-0.8653979301452637
1789214681269894700,6.622894775390625,-1.2181373834609985,0.9258735179901123,-0.8911656141281128
1789214681279926500,6.632926513671875,-1.1489955186843872,0.23584873974323273,-0.9805303812026978
1789214681289958400,6.64295849609375,-1.0812287330627441,-0.33593645691871643,-1.1561267375946045
1789214681299990500,6.652990478515625,-0.9593300223350525,-0.6357322335243225,-1.3806642293930054
1789214681310022700,6.663022705078125,-0.7727651596069336,-0.5832200050354004,-1.5605669021606445
1789214681320053500,6.673053466796875,-0.6589749455451965,-0.301747590303421,-1.5191272497177124
1789214681330085600,6.683085693359375,-0.6210994720458984,-0.018729746341705322,-1.3886520862579346
1789214681340117500,6.693117431640625,-0.7650944590568542,0.24376872181892395,-1.2504547834396362
1789214681350149400,6.7031494140625,-0.8999897241592407,0.1611047387123108,-1.187864899635315
1789214681360181500,6.713181396484375,-1.0743186473846436,-0.06434889882802963,-1.2364354133605957
1789214681370213600,6.723213623046875,-1.200345516204834,-0.23517124354839325,-1.3363507986068726
1789214681380245500,6.73324560546875,-1.3080192804336548,-0.2176593542098999,-1.4417132139205933
1789214681390277400,6.74327734375,-1.3252816200256348,-0.13448670506477356,-1.5988223552703857
1789214681400309500,6.7533095703125,-1.3176679611206055,0.12218955904245377,-1.8116365671157837
1789214681410341400,6.76334130859375,-1.4123730659484863,0.030773624777793884,-1.79413640499115
1789214681420373500,6.77337353515625,-1.7181998491287231,-0.2895769476890564,-1.2573984861373901
1789214681430405400,6.7834052734375,-1.9275749921798706,-0.0989321693778038,-0.8164159655570984
1789214681440437500,6.7934375,-1.6187756061553955,-0.06761499494314194,-0.959596574306488
1789214681450469400,6.803469482421875,-1.0926177501678467,-0.3287573754787445,-1.29477059841156
1789214681460501500,6.81350146484375,-0.8398813605308533,-0.9821943044662476,-1.007570505142212
1789214681470533600,6.82353369140625,-0.8605448603630066,-0.737830638885498,-0.6697796583175659
1789214681480565500,6.8335654296875,-0.8026090860366821,-0.09225749224424362,-0.4782605767250061
1789214681490597400,6.843597412109375,-0.6677317023277283,0.3304535448551178,-0.3539136052131653
1789214681500629500,6.85362939453125,-0.594447135925293,0.4482020139694214,-0.20498616993427277
1789214681510661600,6.86366162109375,-0.533928394317627,0.5578504800796509,0.08634127676486969
1789214681520693500,6.873693603515625,-0.4084649980068207,0.6994156241416931,0.315797358751297
1789214681530725400,6.883725341796875,-0.20128704607486725,0.6734228730201721,0.49753841757774353
1789214681540757500,6.893757568359375,0.07048667967319489,0.6120727062225342,0.6753813624382019
1789214681550789600,6.90378955078125,0.3904966413974762,0.5589277148246765,0.8707777857780457
1789214681560821500,6.913821533203125,0.7362518906593323,0.3764359652996063,1.0905178785324097
1789214681570853400,6.923853271484375,1.0423964262008667,0.25474706292152405,1.256838083267212
1789214681580884500,6.933884521484375,1.295304775238037,0.3631225526332855,1.3578779697418213
1789214681590916000,6.943916015625,1.4456692934036255,0.5956732034683228,1.4611297845840454
1789214681600948200,6.9539482421875,1.5134129524230957,0.893845796585083,1.5431103706359863
1789214681610980400,6.96398046875,1.5492295026779175,0.9870556592941284,1.6168521642684937
1789214681621012200,6.97401220703125,1.6181236505508423,0.9755904674530029,1.677938461303711
1789214681631044000,6.984044189453125,1.7521144151687622,1.1044414043426514,1.5695430040359497
1789214681641076200,6.994076171875,1.865480661392212,0.9442690014839172,1.4043316841125488
1789214681651108400,7.0041083984375,1.883082628250122,0.5578129291534424,1.367488145828247
1789214681661140200,7.01414013671875,1.8856874704360962,0.4030803442001343,1.3810276985168457
1789214681671172000,7.024172119140625,1.96109139919281,0.35569366812705994,1.3794647455215454
1789214681681204200,7.034204345703125,1.9995958805084229,0.21408432722091675,1.3699843883514404
1789214681691236400,7.044236328125,2.002575635910034,-0.03478248044848442,1.3349406719207764
1789214681701268200,7.054268310546875,2.0082268714904785,-0.4519115388393402,1.3311145305633545
1789214681711300000,7.064300048828125,1.9998112916946411,-0.8113335967063904,1.3739820718765259
1789214681721332200,7.074332275390625,1.9932085275650024,-1.0268107652664185,1.5011557340621948
1789214681731364400,7.0843642578125,2.000856637954712,-1.0001064538955688,1.603493332862854
1789214681741396200,7.094396240234375,1.9751731157302856,-0.8286606669425964,1.6169582605361938
1789214681751428400,7.104428466796875,1.8799980878829956,-0.5859164595603943,1.5387725830078125
1789214681761460200,7.114460205078125,1.6922292709350586,-0.37215012311935425,1.4284930229187012
1789214681771492400,7.124492431640625,1.391745924949646,-0.3692163825035095,1.3448846340179443
1789214681781524200,7.134524169921875,1.0760291814804077,-0.38358253240585327,1.3100168704986572
1789214681791556400,7.144556396484375,0.9017878770828247,-0.10478153824806213,1.4177407026290894
1789214681801588200,7.154588134765625,0.8488418459892273,0.040282707661390305,1.460578441619873
1789214681811619300,7.164619384765625,0.7826912999153137,-0.08608029037714005,1.304197907447815
1789214681821651200,7.174651123046875,0.4942600429058075,-0.23828181624412537,1.078904390335083
1789214681831683000,7.18468310546875,0.23310542106628418,-0.29688891768455505,0.9062492251396179
1789214681841715500,7.194715576171875,0.19389943778514862,0.02527100220322609,0.9079807996749878
1789214681851747300,7.204747314453125,0.30543234944343567,-0.006773217581212521,0.79784095287323
1789214681861779200,7.214779296875,0.26766446232795715,-0.2497355341911316,0.6436804533004761
1789214681871811000,7.22481103515625,0.11811305582523346,-0.2481757253408432,0.5402725338935852
1789214681881843500,7.234843505859375,-0.05914401262998581,-0.11819455027580261,0.4077643156051636
1789214681891875300,7.244875244140625,-0.23990660905838013,0.10303530842065811,0.23938728868961334
1789214681901907200,7.2549072265625,-0.34810924530029297,0.28513213992118835,0.08244401216506958
1789214681911939000,7.26493896484375,-0.3977060914039612,0.27137717604637146,-0.08822227269411087
1789214681921971200,7.27497119140625,-0.47784674167633057,0.22728322446346283,-0.23612704873085022
1789214681932003300,7.28500341796875,-0.5232797265052795,0.23510891199111938,-0.4396849572658539
1789214681942035200,7.29503515625,-0.5045025944709778,0.21259482204914093,-0.7102309465408325
1789214681952067000,7.305067138671875,-0.4996497631072998,0.292519211769104,-0.9445593357086182
1789214681962099200,7.31509912109375,-0.4689517617225647,0.44291937351226807,-1.078012466430664
1789214681972131300,7.32513134765625,-0.38727501034736633,0.5546720027923584,-1.0934438705444336
1789214681982163200,7.3351630859375,-0.3217165172100067,0.5287764668464661,-1.0821478366851807
1789214681992195000,7.345195068359375,-0.33563846349716187,0.49019020795822144,-1.0929580926895142
1789214682002227200,7.355227294921875,-0.4156701862812042,0.6630115509033203,-1.0978550910949707
1789214682012259300,7.36525927734375,-0.517950177192688,0.8736521005630493,-1.091262698173523
1789214682022291200,7.375291259765625,-0.6203588843345642,0.9663165211677551,-1.0764646530151367
1789214682032322000,7.385322021484375,-0.7153482437133789,0.7681185007095337,-1.0766340494155884
1789214682042354400,7.3953544921875,-0.8123184442520142,0.38840898871421814,-1.0653331279754639
1789214682052386300,7.40538623046875,-0.839443027973175,0.2067188173532486,-1.0167152881622314
1789214682062418200,7.415418212890625,-0.8348773121833801,0.2681179940700531,-0.9920424222946167
1789214682072450000,7.425449951171875,-0.7974047660827637,0.34548071026802063,-1.0244336128234863
1789214682082482400,7.435482421875,-0.7606874704360962,0.28297603130340576,-1.043048620223999
1789214682092514300,7.445514404296875,-0.774007260799408,0.11405812948942184,-1.0102906227111816
1789214682102546200,7.455546142578125,-0.8182809948921204,-0.060198359191417694,-0.9321127533912659
1789214682112578000,7.465578125,-0.8849308490753174,-0.033789921551942825,-0.8131179213523865
1789214682122610400,7.4756103515625,-1.01482093334198,0.12094400078058243,-0.7598384618759155
1789214682132642300,7.485642333984375,-1.168450951576233,0.46716025471687317,-0.8306841254234314
1789214682142674200,7.495674072265625,-1.3871577978134155,0.7771719098091125,-1.0215680599212646
1789214682152706000,7.5057060546875,-1.4371449947357178,0.4918892979621887,-1.3854557275772095
1789214682162738400,7.515738525390625,-1.2742363214492798,-0.22656789422035217,-1.7492339611053467
1789214682172770300,7.525770263671875,-1.032212257385254,-0.9475910663604736,-2.040980100631714
1789214682182802200,7.53580224609375,-0.8234624266624451,-1.2264448404312134,-2.1850357055664062
1789214682192834000,7.545833984375,-0.6971132755279541,-0.9729041457176208,-2.206137180328369
1789214682202866400,7.555866455078125,-0.6969236731529236,-0.5465317964553833,-2.1675219535827637
1789214682212898300,7.565898193359375,-0.8524671792984009,-0.12775583565235138,-2.1482770442962646
1789214682222930200,7.57593017578125,-1.076006293296814,0.231026291847229,-2.1524360179901123
1789214682232962000,7.585962158203125,-1.1967042684555054,0.3265956938266754,-2.1178605556488037
1789214682242993400,7.595993408203125,-1.1361169815063477,-0.11025460064411163,-1.9892183542251587
1789214682253025300,7.606025390625,-0.9497085213661194,-0.6618375778198242,-1.684061884880066
1789214682263057200,7.61605712890625,-0.8679630756378174,-0.6099496483802795,-1.3409748077392578
1789214682273089300,7.62608935546875,-0.9297230839729309,-0.014711834490299225,-1.1473766565322876
1789214682283121400,7.636121337890625,-1.1439203023910522,0.715346097946167,-1.083121418952942
1789214682293153300,7.6461533203125,-1.3643927574157715,0.9625476598739624,-1.023911714553833
1789214682303185200,7.65618505859375,-1.3491603136062622,0.6163862347602844,-0.6643652319908142
1789214682313217300,7.66621728515625,-1.1316328048706055,0.0008671252289786935,-0.1453007310628891
1789214682323249400,7.67624951171875,-1.0588057041168213,-0.08156703412532806,-0.03867682069540024
1789214682333281300,7.68628125,-1.1069961786270142,-0.07707428187131882,-0.0631033331155777
1789214682343313200,7.696313232421875,-0.94913649559021,-0.06811486929655075,0.022949790582060814
1789214682353345300,7.70634521484375,-0.6619403958320618,-0.1011071726679802,0.060136307030916214
1789214682363377400,7.71637744140625,-0.3626210689544678,-0.17179466784000397,0.10670407861471176
1789214682373409300,7.7264091796875,-0.06816653907299042,-0.14610473811626434,0.23929087817668915
1789214682383441200,7.736441162109375,0.0964338630437851,-0.027537617832422256,0.39542004466056824
1789214682393473000,7.74647314453125,0.24267549812793732,0.1023482084274292,0.6222297549247742
1789214682403505400,7.75650537109375,0.4625079929828644,0.24906814098358154,0.8241673707962036
1789214682413537300,7.766537353515625,0.7031964659690857,0.28167402744293213,1.0148811340332031
1789214682423569200,7.776569091796875,0.9390063285827637,0.24217535555362701,1.2476009130477905
1789214682433601000,7.78660107421875,1.1716350317001343,0.3141272962093353,1.419260025024414
1789214682443633400,7.79663330078125,1.4523484706878662,0.5611339211463928,1.5099334716796875
1789214682453665300,7.806665283203125,1.7122924327850342,0.684403657913208,1.5666974782943726
1789214682463696100,7.816696044921875,1.8644514083862305,0.6184033155441284,1.6334855556488037
1789214682473728300,7.826728271484375,1.949745774269104,0.6469297409057617,1.6509729623794556
1789214682483760400,7.836760498046875,2.0180583000183105,0.7125833630561829,1.6064245700836182
1789214682493792300,7.846792236328125,2.097999095916748,0.6820811033248901,1.5522037744522095
1789214682503824100,7.85682421875,2.2229392528533936,0.5189443826675415,1.5245544910430908
1789214682513856300,7.866856201171875,2.3700356483459473,0.2273024022579193,1.5880522727966309
1789214682523888400,7.876888427734375,2.454404592514038,0.030526483431458473,1.6638256311416626
1789214682533920300,7.886920166015625,2.47780442237854,-0.18049201369285583,1.7000932693481445
1789214682543952100,7.8969521484375,2.442650318145752,-0.3456130623817444,1.667780876159668
1789214682553984300,7.906984375,2.3206303119659424,-0.4451894462108612,1.5849601030349731
1789214682564016400,7.917016357421875,2.124784231185913,-0.5334162712097168,1.5064653158187866
1789214682574048300,7.92704833984375,1.8734674453735352,-0.6452546119689941,1.4386662244796753
1789214682584080100,7.937080078125,1.604905605316162,-0.7945770025253296,1.3643808364868164
1789214682594111700,7.94711181640625,1.4176392555236816,-0.88338303565979,1.2880312204360962
1789214682604143900,7.957143798828125,1.3069812059402466,-0.8617960214614868,1.2320568561553955
1789214682614175700,7.96717578125,1.2046678066253662,-0.909835159778595,1.156923532485962
1789214682624207600,7.97720751953125,1.0522665977478027,-0.8994773030281067,1.136142373085022
1789214682634239700,7.98723974609375,0.8506392240524292,-0.7821480631828308,1.1707916259765625
1789214682644271900,7.99727197265625,0.6334198117256165,-0.534384548664093,1.2488638162612915
1789214682654303700,8.0073037109375,0.38102272152900696,-0.2708978056907654,1.297092318534851
1789214682664334800,8.0173349609375,0.1693405658006668,-0.062063105404376984,1.2560335397720337
1789214682674366700,8.02736669921875,0.04981096461415291,0.06490256637334824,1.1605168581008911
1789214682684398600,8.037398681640624,0.01251312904059887,0.002457564929500222,1.0296998023986816
1789214682694430700,8.0474306640625,0.049075935035943985,-0.2923319935798645,0.8079796433448792
1789214682704462800,8.057462890625,0.048470597714185715,-0.506655752658844,0.5716968178749084
1789214682714494700,8.06749462890625,-0.035892222076654434,-0.5135080814361572,0.24803483486175537
1789214682724526600,8.077526611328125,-0.3318524956703186,-0.3431698679924011,-0.15979579091072083
1789214682734558700,8.087558837890626,-0.744561493396759,0.021988656371831894,-0.3944988548755646
1789214682744590800,8.0975908203125,-0.9715675115585327,0.3301214575767517,-0.35847797989845276
1789214682754622700,8.107622802734374,-0.9716852307319641,0.39230120182037354,-0.2665041387081146
1789214682764654600,8.117654541015625,-0.8541745543479919,0.43065232038497925,-0.30177903175354004
1789214682774686700,8.127686767578124,-0.7470235824584961,0.4390415549278259,-0.4527283310890198
1789214682784718800,8.13771875,-0.6650067567825317,0.43501538038253784,-0.5468726754188538
1789214682794750700,8.147750732421875,-0.5795382261276245,0.38431596755981445,-0.49459534883499146
1789214682804782600,8.157782470703125,-0.45901843905448914,0.37018606066703796,-0.4430703818798065
1789214682814814700,8.167814697265625,-0.3639281392097473,0.47700464725494385,-0.5092243552207947
1789214682824846800,8.177846923828126,-0.3358485698699951,0.5733514428138733,-0.6721954345703125
1789214682834878700,8.187878662109375,-0.36168336868286133,0.45963016152381897,-0.9380971789360046
1789214682844910800,8.197910888671874,-0.4012148082256317,0.29160815477371216,-1.2156691551208496
1789214682854942000,8.20794189453125,-0.4745124578475952,0.11698813736438751,-1.3777475357055664
1789214682864973800,8.217973876953126,-0.6163625121116638,-0.006697850301861763,-1.4253504276275635
1789214682875005700,8.228005615234375,-0.8467690944671631,-0.04277169704437256,-1.3674309253692627
1789214682885037600,8.23803759765625,-1.0739551782608032,-0.05472130328416824,-1.1883211135864258
1789214682895070000,8.248070068359375,-1.1440244913101196,-0.17953912913799286,-1.0008337497711182
1789214682905101800,8.258101806640624,-1.1347756385803223,-0.3572918176651001,-0.8627816438674927
1789214682915133700,8.2681337890625,-1.109560251235962,-0.38620230555534363,-0.7930155992507935
1789214682925165600,8.27816552734375,-1.1067924499511719,-0.2110065072774887,-0.7980297803878784
1789214682935198000,8.288197998046876,-1.0897996425628662,0.2874027490615845,-0.8679718375205994
1789214682945229800,8.298229736328125,-1.1441783905029297,0.8920111656188965,-1.0119879245758057
1789214682955261700,8.30826171875,-1.2194890975952148,0.8727498650550842,-1.269217848777771
1789214682965293600,8.31829345703125,-1.280421257019043,0.34702906012535095,-1.5769679546356201
1789214682975325700,8.32832568359375,-1.3675446510314941,-0.023978836834430695,-1.800702452659607
1789214682985357800,8.33835791015625,-1.4653843641281128,-0.38840898871421814,-1.8316422700881958
1789214682995389700,8.3483896484375,-1.5567110776901245,-0.49882736802101135,-1.697511076927185
1789214683005421600,8.358421630859375,-1.5889681577682495,-0.411430686712265,-1.60096275806427
1789214683015453700,8.36845361328125,-1.5239007472991943,-0.2931751608848572,-1.575431227684021
1789214683025485800,8.37848583984375,-1.2399400472640991,-0.15760640799999237,-1.573044776916504
1789214683035517700,8.388517578125,-1.0728315114974976,-0.08953680843114853,-1.5402381420135498
1789214683045549600,8.398549560546876,-0.8784697651863098,-0.2212117463350296,-1.613523244857788
1789214683055581700,8.408581787109375,-0.8279626369476318,-0.10344809293746948,-1.7889741659164429
1789214683065612800,8.41861279296875,-0.9362145662307739,0.14361043274402618,-1.8939192295074463
1789214683075644700,8.428644775390625,-1.0684345960617065,0.2599567472934723,-1.6577343940734863
1789214683085676500,8.438676513671876,-1.1853498220443726,0.2774984538555145,-1.029068112373352
1789214683095709000,8.448708984375,-1.2426735162734985,0.05882736295461655,-0.4692031741142273
1789214683105740800,8.45874072265625,-1.172818899154663,-0.18623033165931702,-0.3439573645591736
1789214683115772700,8.468772705078125,-1.0663009881973267,-0.1267893761396408,-0.45135945081710815
1789214683125804500,8.478804443359374,-0.9895864725112915,-0.03911784291267395,-0.43650302290916443
1789214683135837000,8.4888369140625,-0.9042651653289795,-0.1394748091697693,-0.3116265833377838
1789214683145868800,8.498868896484375,-0.7871276140213013,-0.3902260661125183,-0.2322436273097992
1789214683155900700,8.508900634765626,-0.5333142280578613,-0.4755931496620178,-0.1631774753332138
1789214683165932500,8.5189326171875,-0.26974251866340637,-0.3150743246078491,-0.1698998212814331
1789214683175965000,8.52896484375,-0.09551986306905746,-0.02479136548936367,0.02412690781056881
1789214683185996800,8.538996826171875,-0.047332894057035446,0.29398396611213684,0.46872007846832275
1789214683196028700,8.549028564453126,-0.039740756154060364,0.5108259916305542,0.8660272359848022
1789214683206060500,8.559060546875,0.12925972044467926,0.6584910750389099,1.0665675401687622
1789214683216093000,8.569093017578124,0.4133510887622833,0.7461466193199158,1.1093727350234985
1789214683226124800,8.579124755859375,0.7094820737838745,0.7742331027984619,1.0799272060394287
1789214683236156700,8.58915673828125,0.9762386679649353,0.6500682830810547,0.9710695147514343
1789214683246188500,8.5991884765625,1.1647475957870483,0.41628724336624146,0.9630797505378723
1789214683256220000,8.609219970703125,1.3736963272094727,0.37728390097618103,1.0450375080108643
1789214683266251800,8.619251708984375,1.591939926147461,0.46875497698783875,1.1817444562911987
1789214683276283600,8.62928369140625,1.7822033166885376,0.5794050693511963,1.3376623392105103
1789214683286315800,8.639315673828126,1.9851090908050537,0.7779964208602905,1.446830153465271
1789214683296348000,8.649347900390625,2.240178108215332,1.0606353282928467,1.4149038791656494
1789214683306379800,8.6593798828125,2.4328484535217285,1.102376937866211,1.3095649480819702
1789214683316411600,8.66941162109375,2.5130889415740967,0.8286662697792053,1.2457237243652344
1789214683326443800,8.67944384765625,2.4923386573791504,0.49560895562171936,1.1566768884658813
1789214683336476000,8.689475830078125,2.3234200477600098,0.15014369785785675,1.1756879091262817
1789214683346507800,8.6995078125,2.1238276958465576,-0.07893023639917374,1.2362372875213623
1789214683356539600,8.70953955078125,2.0282485485076904,-0.1766567975282669,1.1150332689285278
1789214683366571800,8.71957177734375,1.9792640209197998,-0.33594179153442383,0.965718686580658
1789214683376604000,8.72960400390625,1.910670280456543,-0.7053403258323669,0.9214526414871216
1789214683386635800,8.7396357421875,1.6781762838363647,-0.9290482401847839,1.0494705438613892
1789214683396667600,8.749667724609376,1.370617389678955,-1.1528853178024292,1.1952296495437622
1789214683406699800,8.75969970703125,1.1304421424865723,-1.227676510810852,1.2972971200942993
1789214683416732000,8.76973193359375,0.9594695568084717,-1.1164711713790894,1.3805001974105835
1789214683426763800,8.779763671875,0.7732126116752625,-1.011893391609192,1.415526270866394
1789214683436795600,8.789795654296874,0.5900241136550903,-0.9336062669754028,1.38494074344635
1789214683446826800,8.79982666015625,0.4393872320652008,-0.7866660952568054,1.39805006980896
1789214683456858600,8.809858642578124,0.36088281869888306,-0.533783495426178,1.5007327795028687
1789214683466890800,8.819890869140625,0.40379488468170166,-0.4060335159301758,1.5966143608093262
1789214683476922600,8.829922607421874,0.5197201371192932,-0.4811842143535614,1.600888967514038
1789214683486954800,8.839954833984375,0.6160642504692078,-0.521675705909729,1.5009626150131226
1789214683496986600,8.849986572265625,0.6063847541809082,-0.35238921642303467,1.3387614488601685
1789214683507018800,8.860018798828126,0.5008692145347595,-0.13097985088825226,1.1142226457595825
1789214683517050600,8.870050537109375,0.37996596097946167,-0.06790821254253387,0.8150292634963989
1789214683527082800,8.880082763671876,0.2617863416671753,-0.02520708553493023,0.5570712685585022
1789214683537115000,8.890114990234375,0.06069397181272507,-0.026274213567376137,0.3247876763343811
1789214683547146800,8.900146728515624,-0.16824866831302643,0.03604801744222641,0.1488451361656189
1789214683557178600,8.9101787109375,-0.3020320236682892,0.051298342645168304,0.02323128655552864
1789214683567210800,8.920210693359374,-0.35676905512809753,-0.08894265443086624,-0.12627218663692474
1789214683577243000,8.930242919921875,-0.45619097352027893,-0.24463318288326263,-0.31341251730918884
1789214683587274800,8.940274658203125,-0.569412887096405,-0.22588320076465607,-0.540735125541687
1789214683597311200,8.950311279296875,-0.6808805465698242,0.06105749309062958,-0.7554171085357666
1789214683607343000,8.960343017578126,-0.7949591875076294,0.42287883162498474,-0.9185298681259155
1789214683617374200,8.970374267578125,-0.8589046001434326,0.5960639119148254,-0.9685815572738647
1789214683627406000,8.980406005859376,-0.8658972382545471,0.5939906239509583,-0.9335631132125854
1789214683637438000,8.99043798828125,-0.8385735154151917,0.6223700642585754,-0.8484093546867371
1789214683647470300,9.00047021484375,-0.8172026872634888,0.6640943884849548,-0.7879984974861145
1789214683657502200,9.010502197265625,-0.8027153611183167,0.6973125338554382,-0.8016232252120972
1789214683667534000,9.0205341796875,-0.7826790809631348,0.664763867855072,-0.9253382086753845
1789214683677566000,9.03056591796875,-0.7021858096122742,0.4785364866256714,-1.1163784265518188
1789214683687598300,9.040598388671874,-0.5539374947547913,0.10607104003429413,-1.1856228113174438
1789214683697630200,9.050630126953125,-0.4480486214160919,-0.2830772399902344,-1.0829198360443115
1789214683707662000,9.060662109375,-0.38917359709739685,-0.43141213059425354,-0.9654475450515747
1789214683717694000,9.07069384765625,-0.3441145122051239,-0.2926505208015442,-0.9555986523628235
1789214683727726300,9.080726318359375,-0.3476026952266693,-0.09318161010742188,-0.9180824160575867
1789214683737758200,9.09075830078125,-0.464444100856781,0.11202666908502579,-0.8299611210823059
1789214683747790000,9.1007900390625,-0.6750953793525696,0.36515241861343384,-0.8133594989776611
1789214683757822200,9.110822265625,-0.94496089220047,0.5894712805747986,-0.8962684869766235
1789214683767854300,9.120854248046875,-1.2287784814834595,0.8760034441947937,-1.136156678199768
1789214683777886200,9.13088623046875,-1.480973482131958,1.1168805360794067,-1.330953598022461
1789214683787918000,9.14091796875,-1.8075149059295654,1.0393502712249756,-1.5699214935302734
1789214683797949200,9.15094921875,-2.1066839694976807,0.7345008850097656,-1.831403136253357
1789214683807981300,9.160981201171875,-2.2751009464263916,0.37556642293930054,-1.9615886211395264
1789214683818013200,9.17101318359375,-2.238307476043701,0.011768775060772896,-1.9174240827560425
1789214683828045000,9.181045166015625,-2.124586343765259,-0.40967753529548645,-1.9036141633987427
1789214683838077200,9.1910771484375,-1.988088846206665,-0.7156957983970642,-1.9976552724838257
1789214683848109300,9.201109375,-1.7995554208755493,-0.9865136742591858,-2.2186243534088135
1789214683858141200,9.21114111328125,-1.70609712600708,-0.9457129836082458,-2.3746702671051025
1789214683868173000,9.221173095703126,-1.685489296913147,-0.8049151301383972,-2.0899038314819336
1789214683878205200,9.231205078125,-1.737689733505249,-0.6986762881278992,-1.41162109375
1789214683888237300,9.2412373046875,-1.6555540561676025,-0.5584270358085632,-1.1050491333007812
1789214683898269200,9.251269287109375,-1.3618463277816772,-0.28239548206329346,-1.1456562280654907
1789214683908301000,9.261301025390624,-1.022810459136963,-0.046895869076251984,-1.1108700037002563
1789214683918333000,9.2713330078125,-0.8796826004981995,-0.028737371787428856,-0.9144352078437805
1789214683928365300,9.281365234375,-0.9073237776756287,-0.002773682354018092,-0.5368211269378662
1789214683938397200,9.291397216796875,-0.9274762272834778,0.101000115275383,-0.2057020217180252
1789214683948429000,9.301428955078125,-0.6732771992683411,0.033974211663007736,-0.05666647478938103
1789214683958461000,9.3114609375,-0.2204197198152542,0.01708977110683918,-0.05536871775984764
1789214683968493300,9.321493408203125,0.21512030065059662,0.11990536749362946,0.02989957481622696
1789214683978524200,9.331524169921876,0.45609164237976074,0.19093719124794006,0.279928594827652
1789214683988556000,9.34155615234375,0.6410694718360901,0.3991948068141937,0.594382643699646
1789214683998588200,9.351588134765626,0.8971608877182007,0.6837761998176575,0.8663726449012756
1789214684008620300,9.361620361328125,1.2298754453659058,0.8616529703140259,1.0010875463485718
1789214684018652200,9.371652099609374,1.4421272277832031,0.7608563303947449,1.0840293169021606
1789214684028684000,9.38168408203125,1.5824921131134033,0.6859560012817383,1.2302477359771729
1789214684038716200,9.391716064453124,1.7083829641342163,0.7215861678123474,1.2757759094238281
1789214684048748300,9.401748291015625,1.8362396955490112,0.7148361206054688,1.2963825464248657
1789214684058780200,9.4117802734375,1.982046127319336,0.7134659290313721,1.2752892971038818
1789214684068812000,9.42181201171875,2.119479179382324,0.6166197657585144,1.2386173009872437
1789214684078844200,9.43184423828125,2.2180867195129395,0.47502005100250244,1.2529624700546265
1789214684088876300,9.441876220703126,2.2963435649871826,0.32696613669395447,1.3163315057754517
1789214684098908200,9.451908203125,2.375218391418457,0.08776074647903442,1.3529905080795288
1789214684108940000,9.46193994140625,2.4296674728393555,-0.16381396353244781,1.383117437362671
1789214684118972200,9.47197216796875,2.4358487129211426,-0.4215451180934906,1.4437425136566162
1789214684129004300,9.48200439453125,2.3743138313293457,-0.6975852251052856,1.5889431238174438
1789214684139036200,9.4920361328125,2.296682119369507,-0.7719539999961853,1.703183889389038
1789214684149068000,9.502068115234374,2.26251482963562,-0.7160720825195312,1.6777256727218628
1789214684159099100,9.51209912109375,2.218876361846924,-0.743969202041626,1.5783250331878662
1789214684169131300,9.52213134765625,2.1044247150421143,-0.8480982780456543,1.4442492723464966
1789214684179163100,9.5321630859375,1.8584177494049072,-0.9553384780883789,1.3612569570541382
1789214684189195300,9.5421953125,1.5292078256607056,-1.0237572193145752,1.3496249914169312
1789214684199227100,9.55222705078125,1.2093677520751953,-1.1135674715042114,1.2439883947372437
1789214684209259300,9.56225927734375,0.9365932941436768,-1.2049509286880493,1.0786404609680176
1789214684219291100,9.572291015625,0.6926426291465759,-1.1660234928131104,1.0657680034637451
1789214684229323300,9.5823232421875,0.514880359172821,-1.089023232460022,1.220570683479309
1789214684239355100,9.592355224609374,0.4279894232749939,-1.0596171617507935,1.3484548330307007
1789214684249387300,9.60238720703125,0.37969300150871277,-0.9645167589187622,1.321980357170105
1789214684259419100,9.612419189453124,0.27743852138519287,-0.6622879505157471,1.1545301675796509
1789214684269451300,9.622451171875,0.12185586243867874,-0.23503674566745758,0.8919317722320557
1789214684279483100,9.632483154296875,-0.053281862288713455,-0.0011073424248024821,0.6187545657157898
1789214684289515300,9.642515380859376,-0.2843041718006134,0.04207395017147064,0.4165913760662079
1789214684299547100,9.652547119140625,-0.45558854937553406,0.15302149951457977,0.2834058701992035
1789214684309579000,9.6625791015625,-0.5514543652534485,0.4143899977207184,0.20948557555675507
1789214684319610000,9.672610107421875,-0.4916243255138397,0.42100128531455994,0.14412814378738403
1789214684329642000,9.68264208984375,-0.4218337833881378,0.2183733433485031,-0.12854625284671783
1789214684339674000,9.692674072265625,-0.44905343651771545,0.1440969854593277,-0.46557408571243286
1789214684349706200,9.702706298828126,-0.5087026357650757,0.30219075083732605,-0.7092583775520325
1789214684359738000,9.712738037109375,-0.5389396548271179,0.5432041883468628,-0.8143448829650879
1789214684369770000,9.72277001953125,-0.5682751536369324,0.7276906371116638,-0.8107833862304688
1789214684379802000,9.732802001953125,-0.5456372499465942,0.7762051820755005,-0.7861579656600952
1789214684389834200,9.742834228515624,-0.4573878049850464,0.5985883474349976,-0.8228076100349426
1789214684399866000,9.7528662109375,-0.38566726446151733,0.24300917983055115,-0.9179026484489441
1789214684409898200,9.762898193359375,-0.36832982301712036,0.0849204808473587,-1.0201648473739624
1789214684419930000,9.77293017578125,-0.3926745653152466,-0.09822430461645126,-1.237979531288147
1789214684429962200,9.782962158203125,-0.45597073435783386,-0.18843409419059753,-1.515397548675537
1789214684439994000,9.792994140625,-0.5372275114059448,-0.025592710822820663,-1.5937589406967163
1789214684450026200,9.803026123046875,-0.6460453271865845,0.33466747403144836,-1.4565123319625854
1789214684460058000,9.81305810546875,-0.71788489818573,0.502701461315155,-1.1874619722366333
1789214684470090200,9.82309033203125,-0.796345055103302,0.343812495470047,-0.870675265789032
1789214684480121000,9.83312109375,-0.8949949741363525,0.14318245649337769,-0.579440712928772
1789214684490153000,9.843153076171875,-0.9059658646583557,0.03699317201972008,-0.366375595331192
1789214684500185300,9.853185302734374,-0.8523239493370056,-0.006857639644294977,-0.33341366052627563
1789214684510217200,9.86321728515625,-0.751434862613678,-0.07438714802265167,-0.4711850881576538
1789214684520249000,9.8732490234375,-0.6941840648651123,-0.130679190158844,-0.7343112826347351
1789214684530281000,9.883281005859375,-0.744937539100647,0.0729045644402504,-0.9796001315116882
1789214684540313300,9.893313232421875,-1.002404808998108,0.471017062664032,-1.0921056270599365
1789214684550345200,9.90334521484375,-1.4139283895492554,0.5451716780662537,-1.0837196111679077
1789214684560377000,9.913377197265625,-1.6932854652404785,0.27021124958992004,-0.9832254648208618
1789214684570409000,9.923408935546876,-1.8153458833694458,-0.14972397685050964,-0.8608068823814392
1789214684580441300,9.93344140625,-1.8894156217575073,-0.5862869024276733,-0.8870688676834106
1789214684590468900,9.94346875,-1.845601201057434,-0.7883622646331787,-1.094213843345642
1789214684600501000,9.9535009765625,-1.5589932203292847,-0.871284544467926,-1.4131451845169067
1789214684610533000,9.963533203125,-1.2533525228500366,-0.9503647685050964,-1.756134271621704
1789214684620565000,9.97356494140625,-1.0835027694702148,-0.9090220928192139,-2.049943447113037
1789214684630597000,9.98359716796875,-1.1136151552200317,-0.5919243097305298,-2.06596302986145
1789214684640628200,9.993628173828125,-1.3214123249053955,-0.2496601641178131,-1.5862194299697876
1789214684650660000,10.00366015625,-1.5543103218078613,-0.025613484904170036,-0.8306487202644348
1789214684660692000,10.01369189453125,-1.7555139064788818,0.05607791617512703,-0.30110710859298706
1789214684670723800,10.023723876953126,-1.7368420362472534,-0.06472200155258179,-0.3603677749633789
1789214684680756000,10.033755859375,-1.4270846843719482,-0.5221561193466187,-0.6450245380401611
1789214684690788000,10.0437880859375,-1.1661862134933472,-0.9387475252151489,-0.33698147535324097
1789214684700820000,10.053820068359375,-0.8607701659202576,-0.3758529722690582,0.1837834119796753
1789214684710851800,10.063851806640624,-0.4188622534275055,0.3170512020587921,0.22113025188446045
1789214684720884000,10.073884033203125,-0.05949288606643677,0.5511688590049744,0.21761541068553925
1789214684730916000,10.083916015625,-0.009346097707748413,0.7195035815238953,0.36365970969200134
1789214684740948000,10.093947998046875,-0.2545337378978729,0.8517971634864807,0.7347280383110046
1789214684750979800,10.103979736328125,-0.45760005712509155,1.146547794342041,1.0489187240600586
1789214684761012000,10.114011962890626,-0.4050692021846771,1.1372385025024414,1.005338191986084
1789214684771044000,10.124044189453125,-0.09497551620006561,0.6316770315170288,0.7743276357650757
1789214684781076000,10.134075927734376,0.27384379506111145,0.0265426617115736,0.6853221654891968
1789214684791107800,10.14410791015625,0.4953298568725586,-0.2881700098514557,0.958619236946106
1789214684801140000,10.154139892578126,0.6454932689666748,-0.3485097885131836,1.1057308912277222
1789214684811172000,10.164172119140625,0.8257802128791809,-0.2528248131275177,1.2269694805145264
1789214684821203000,10.174202880859376,1.0460214614868164,-0.1388673335313797,1.4009984731674194
1789214684831234800,10.18423486328125,1.3206932544708252,0.11070467531681061,1.598881483078003
1789214684841267200,10.19426708984375,1.6382185220718384,0.44384029507637024,1.7138179540634155
1789214684851299000,10.204299072265625,1.9422308206558228,0.689785897731781,1.7332099676132202
1789214684861331000,10.2143310546875,2.2561707496643066,0.799248456954956,1.6266987323760986
1789214684871362800,10.22436279296875,2.50801944732666,0.8225662708282471,1.431885004043579
1789214684881395200,10.234395263671875,2.528820753097534,0.7709994912147522,1.401556372642517
1789214684891427000,10.244427001953126,2.3363547325134277,0.7738555073738098,1.6358234882354736
1789214684901459000,10.254458984375,2.1720056533813477,0.7505533695220947,1.827207326889038
1789214684911490800,10.26449072265625,2.12113356590271,0.691736102104187,1.6500719785690308
1789214684921523200,10.274523193359375,2.1944494247436523,0.4830228388309479,1.229767918586731
1789214684931555000,10.28455517578125,2.1756298542022705,0.09279092401266098,0.8213473558425903
1789214684941587000,10.2945869140625,1.9580636024475098,-0.29940667748451233,0.5443461537361145
1789214684951618800,10.304618896484374,1.6726691722869873,-1.0650676488876343,0.3506682813167572
1789214684961651200,10.314651123046875,1.4500728845596313,-1.4630624055862427,0.6046454310417175
1789214684971683000,10.32468310546875,1.43269944190979,-1.236328363418579,1.1184544563293457
1789214684981714000,10.3347138671875,1.2104698419570923,-0.3047756254673004,1.584299087524414
1789214684991746000,10.34474609375,0.6020493507385254,0.6332006454467773,1.6144654750823975
1789214685001778000,10.35477783203125,-0.31249213218688965,0.9147170186042786,1.4393248558044434
1789214685011810000,10.36481005859375,-1.0428675413131714,0.5599882006645203,1.3628185987472534
1789214685021842000,10.374842041015626,-1.0161058902740479,0.11022291332483292,1.1471878290176392
1789214685031874000,10.3848740234375,-0.7123937010765076,-0.19229620695114136,1.0062998533248901
1789214685041906000,10.394906005859376,-0.4859800338745117,-0.16114655137062073,1.0090218782424927
1789214685051938000,10.40493798828125,-0.2660157084465027,0.08102215081453323,0.8992421627044678
1789214685061970000,10.414969970703124,-0.05835172161459923,0.2164207249879837,0.6930035352706909
1789214685072002000,10.425001953125,0.12427028268575668,0.3650887608528137,0.5275352001190186
1789214685082034200,10.4350341796875,0.2484055459499359,0.546931266784668,0.3923640549182892
1789214685092066000,10.445066162109375,0.3225298523902893,0.6638584136962891,0.24994298815727234
1789214685102098000,10.455097900390625,0.36193904280662537,0.593100368976593,0.1481681615114212
1789214685112130000,10.465130126953126,0.3760029375553131,0.46135324239730835,0.14101997017860413
1789214685122162200,10.475162109375,0.34986400604248047,0.38966360688209534,0.14602431654930115
1789214685132193000,10.485193115234376,0.23497788608074188,0.28845417499542236,0.011263040825724602
1789214685142225200,10.49522509765625,0.03846696391701698,0.10117828100919724,-0.2916427552700043
1789214685152257000,10.505257080078126,-0.13239505887031555,0.1326773464679718,-0.5779938101768494
1789214685162289000,10.515288818359375,-0.25972211360931396,0.31634756922721863,-0.6988400816917419
1789214685172321000,10.525321044921874,-0.395028293132782,0.39964592456817627,-0.7256439924240112
1789214685182353000,10.535352783203125,-0.5352029800415039,0.4922272562980652,-0.8742201924324036
1789214685192385000,10.545385009765624,-0.7364506125450134,0.744182825088501,-1.2649154663085938
1789214685202417000,10.5554169921875,-1.0199395418167114,0.8477893471717834,-1.6591062545776367
1789214685212449000,10.565448974609374,-1.095275640487671,0.5667651295661926,-1.6535638570785522
1789214685222481000,10.57548095703125,-0.945553719997406,0.16163790225982666,-1.2789812088012695
1789214685232513000,10.585512939453125,-0.8375087380409241,-0.17061887681484222,-0.853042721748352
1789214685242545000,10.595544921875,-0.8719514012336731,-0.34335950016975403,-0.4667418897151947
1789214685252577000,10.605576904296875,-0.9351104497909546,-0.2993321120738983,-0.0708579272031784
1789214685262609000,10.61560888671875,-1.0226645469665527,0.2063284069299698,0.21138760447502136
1789214685272641000,10.62564111328125,-1.2037991285324097,1.2311335802078247,0.027038542553782463
1789214685282671900,10.635671875,-1.2518316507339478,1.7662198543548584,-0.6922237277030945
1789214685292704000,10.6457041015625,-1.077286958694458,1.073849081993103,-1.443924069404602
1789214685302736100,10.655736083984374,-0.8339414596557617,-0.07245795428752899,-1.786789894104004
1789214685312768000,10.66576806640625,-0.6359788179397583,-0.6716180443763733,-1.8570057153701782
1789214685322799900,10.6757998046875,-0.49664437770843506,-0.5010223388671875,-1.7343610525131226
1789214685332832000,10.68583203125,-0.4630403518676758,-0.02004002034664154,-1.5516891479492188
1789214685342864100,10.695864013671875,-0.6045774817466736,0.5619189739227295,-1.4350332021713257
1789214685352896000,10.70589599609375,-0.7621016502380371,1.127267599105835,-1.2928943634033203
1789214685362927900,10.715927978515625,-0.9616727828979492,1.2123039960861206,-1.2035194635391235
1789214685372960000,10.7259599609375,-1.1770974397659302,0.7314925789833069,-1.3186900615692139
1789214685382992100,10.7359921875,-1.2495783567428589,0.36699825525283813,-1.6655800342559814
1789214685393024000,10.74602392578125,-1.229926586151123,0.23780350387096405,-1.961631178855896
1789214685403055900,10.756055908203125,-1.2572929859161377,0.05933789163827896,-2.0323610305786133
1789214685413088000,10.766087890625,-1.2772201299667358,-0.332566499710083,-1.898855447769165
1789214685423120100,10.7761201171875,-1.3306305408477783,-0.5913013815879822,-1.5828015804290771
1789214685433152000,10.786152099609374,-1.4954358339309692,-0.5449578762054443,-1.171865463256836
1789214685443182800,10.796182861328125,-1.6519721746444702,-0.4462350010871887,-0.7843813896179199
1789214685453215000,10.806215087890624,-1.5273516178131104,-0.21885031461715698,-0.9005804061889648
1789214685463247000,10.8162470703125,-1.1930240392684937,-0.46795281767845154,-1.169986367225647
1789214685473279000,10.826279052734375,-1.0008089542388916,-0.951310932636261,-0.8481369018554688
1789214685483310800,10.836310791015626,-0.8939158320426941,-0.6642901301383972,-0.2668021321296692
1789214685493343200,10.84634326171875,-0.6987125277519226,0.015209046192467213,-0.11204078048467636
1789214685503375000,10.856375,-0.39670872688293457,0.10674428939819336,-0.13509656488895416
1789214685513407000,10.866406982421875,-0.15251711010932922,0.24461454153060913,-0.00436065997928381
1789214685523438800,10.87643896484375,0.11674951761960983,0.44098830223083496,0.15779255330562592
1789214685533471200,10.88647119140625,0.4309801459312439,0.6130407452583313,0.3934357166290283
1789214685543503000,10.896503173828124,0.7430909276008606,0.716532826423645,0.5539460182189941
1789214685553535000,10.906534912109375,1.0042937994003296,0.6878257989883423,0.6425179839134216
1789214685563566800,10.91656689453125,1.2819865942001343,0.7825941443443298,0.6868715882301331
1789214685573599000,10.926598876953125,1.6095900535583496,0.8175816535949707,0.7503799796104431
1789214685583631000,10.936631103515625,1.9291342496871948,0.7238644957542419,0.7469186782836914
1789214685593663000,10.9466630859375,2.181706190109253,0.4217078387737274,0.814346194267273
1789214685603694000,10.956694091796875,2.378347158432007,0.29787296056747437,0.9225535988807678
1789214685613726200,10.966726318359376,2.5905253887176514,0.5197920203208923,0.9363927245140076
1789214685623758000,10.976758056640625,2.787809371948242,0.48720934987068176,0.9479066133499146
1789214685633790000,10.9867900390625,2.8818862438201904,0.13446220755577087,0.9452557563781738
1789214685643822000,10.996822021484375,2.881166458129883,-0.35971689224243164,1.011811375617981
1789214685653854200,11.006854248046874,2.794215679168701,-0.5947794914245605,1.106576681137085
1789214685663886000,11.016885986328125,2.666714906692505,-0.6076502799987793,1.1972395181655884
1789214685673918000,11.02691796875,2.5219833850860596,-0.5007331371307373,1.2238913774490356
1789214685683949800,11.03694970703125,2.3738152980804443,-0.4176776707172394,1.2436623573303223
1789214685693982200,11.046982177734375,2.2259528636932373,-0.5922462940216064,1.3445613384246826
1789214685704014000,11.05701416015625,2.035313844680786,-0.8059870600700378,1.4049205780029297
1789214685714046000,11.0670458984375,1.815576195716858,-0.8714411854743958,1.3329981565475464
1789214685724077800,11.077077880859376,1.5363028049468994,-0.8959065675735474,1.1968698501586914
1789214685734110200,11.087110107421875,1.2382268905639648,-0.6638781428337097,1.1608256101608276
1789214685744142000,11.09714208984375,0.9497016072273254,-0.5386509299278259,1.139661192893982
1789214685754173000,11.1071728515625,0.6501010656356812,-0.5026761889457703,1.1447064876556396
1789214685764205000,11.117205078125,0.39944860339164734,-0.4957208037376404,1.158805012702942
1789214685774237200,11.1272373046875,0.2294454425573349,-0.4292895793914795,1.1486791372299194
1789214685784269000,11.13726904296875,0.1383245885372162,-0.4156304895877838,1.1532020568847656
1789214685794301000,11.147301025390625,0.1314925104379654,-0.47268232703208923,1.1588166952133179
1789214685804333000,11.1573330078125,0.24062645435333252,-0.5754161477088928,1.0007051229476929
1789214685814365200,11.167365234375,0.3150026798248291,-0.6638309955596924,0.5559836030006409
1789214685824397000,11.17739697265625,0.12400104105472565,-0.5522690415382385,0.2543204426765442
1789214685834429000,11.187428955078126,-0.1856500208377838,-0.11628799140453339,0.16471917927265167
1789214685844461000,11.1974609375,-0.5127229690551758,0.28692471981048584,0.07479780912399292
1789214685854493200,11.2074931640625,-0.785287082195282,0.40980643033981323,-0.11815939843654633
1789214685864525000,11.217525146484375,-0.9558449983596802,0.2402576059103012,-0.27507951855659485
1789214685874557000,11.227556884765624,-0.9874852299690247,0.11331936717033386,-0.3650836944580078
1789214685884589000,11.237589111328125,-0.8739445209503174,0.06721791625022888,-0.47961321473121643
1789214685894620000,11.247619873046874,-0.7639983296394348,0.06282796710729599,-0.690759539604187
1789214685904652000,11.257652099609375,-0.769660234451294,0.12346414476633072,-0.9395400285720825
1789214685914684200,11.26768408203125,-0.850945234298706,0.3598564565181732,-1.0046415328979492
1789214685924716000,11.277716064453125,-0.8406592607498169,0.5679177641868591,-0.9019317030906677
1789214685934748000,11.287747802734375,-0.703393280506134,0.40741199254989624,-0.8079364895820618
1789214685944780000,11.297780029296876,-0.5864917039871216,0.14824672043323517,-0.8506368398666382
1789214685954812200,11.307812255859375,-0.48210540413856506,-0.06946509331464767,-0.9171090722084045
1789214685964844000,11.317843994140626,-0.4147860109806061,-0.17984700202941895,-0.9320110082626343
1789214685974876000,11.3278759765625,-0.36026203632354736,-0.22982920706272125,-0.944717526435852
1789214685984908000,11.337907958984376,-0.31953033804893494,-0.32215914130210876,-0.9250154495239258
1789214685994940200,11.347940185546875,-0.31172195076942444,-0.3653225898742676,-0.8846954703330994
1789214686004972000,11.357971923828124,-0.3635430634021759,-0.16063015162944794,-0.882790744304657
1789214686015004000,11.36800390625,-0.5752488970756531,0.056235309690237045,-1.065180778503418
1789214686025036000,11.3780361328125,-0.8467587232589722,0.4018379747867584,-1.4954712390899658
1789214686035068200,11.388068115234375,-1.021544098854065,0.3469960391521454,-1.8566863536834717
1789214686045099000,11.39809912109375,-0.9774631857872009,-0.4354894161224365,-1.768860101699829
1789214686055131000,11.408130859375,-1.0441484451293945,-0.9723904132843018,-1.3937163352966309
1789214686065163000,11.4181630859375,-1.2814867496490479,-1.0032165050506592,-0.9622398018836975
1789214686075195100,11.428195068359376,-1.5752451419830322,-0.6831282377243042,-0.6814872026443481
1789214686085227000,11.43822705078125,-1.776936650276184,-0.1635252833366394,-0.7374945282936096
1789214686095259000,11.4482587890625,-1.767081618309021,0.3487212359905243,-1.1418393850326538
1789214686105291000,11.458291015625,-1.5841493606567383,0.49274685978889465,-1.556443452835083
1789214686115323100,11.4683232421875,-1.4927889108657837,0.011438010260462761,-1.6927909851074219
1789214686125355000,11.47835498046875,-1.4420939683914185,-0.5819553136825562,-1.6398411989212036
1789214686135387000,11.488386962890624,-1.4096375703811646,-0.9049389362335205,-1.5792864561080933
1789214686145419000,11.4984189453125,-1.4595669507980347,-0.8784220814704895,-1.5515741109848022
1789214686155451100,11.508451171875,-1.5076583623886108,-0.736716628074646,-1.5489001274108887
1789214686165483000,11.51848291015625,-1.584926724433899,-0.7176761031150818,-1.4326817989349365
1789214686175515000,11.528514892578125,-1.6408270597457886,-0.7342804074287415,-1.288266897201538
1789214686185547000,11.538547119140626,-1.4911377429962158,-0.5525305271148682,-1.221793532371521
1789214686195578000,11.548578125,-1.2365589141845703,-0.33638015389442444,-1.2437028884887695
1789214686205610000,11.55860986328125,-1.024802803993225,-0.5459181666374207,-1.144213080406189
1789214686215641900,11.568641845703125,-1.0683262348175049,-0.5777680277824402,-0.7494353652000427
1789214686225674200,11.57867431640625,-1.33499014377594,-0.40739306807518005,-0.18014474213123322
1789214686235706000,11.5887060546875,-1.4795180559158325,-0.10118653625249863,0.37362340092658997
1789214686245738000,11.598738037109374,-1.1997047662734985,0.3161070942878723,0.546180784702301
1789214686255769900,11.608769775390625,-0.7500681281089783,0.18716110289096832,0.5442726016044617
1789214686265802200,11.61880224609375,-0.4875403642654419,-0.2226802110671997,0.45231127738952637
1789214686275834000,11.628834228515625,-0.269057035446167,-0.2716197967529297,0.4634358286857605
1789214686285866000,11.638865966796875,-0.04820268228650093,-0.299878865480423,0.7031850218772888
1789214686295897900,11.64889794921875,0.23403939604759216,-0.23941445350646973,0.9386095404624939
1789214686305930200,11.65893017578125,0.6052408814430237,-0.034621626138687134,1.0774716138839722
1789214686315962000,11.668962158203126,1.028477430343628,0.14572738111019135,1.1259477138519287
1789214686325994000,11.678993896484375,1.359871506690979,0.11869922280311584,1.2398629188537598
1789214686336025900,11.68902587890625,1.5411585569381714,0.09912578761577606,1.4190664291381836
1789214686346057000,11.699056884765625,1.7307382822036743,0.5468947887420654,1.4854539632797241
1789214686356089000,11.709089111328124,1.918360948562622,0.942108690738678,1.5320239067077637
1789214686366121000,11.719120849609375,2.1394166946411133,1.041560173034668,1.6095939874649048
1789214686376153000,11.729153076171874,2.3069679737091064,0.760838508605957,1.6886217594146729
1789214686386185000,11.73918505859375,2.3539164066314697,0.453276127576828,1.7146261930465698
1789214686396217000,11.749217041015624,2.3384671211242676,0.5262457132339478,1.671513557434082
1789214686406249000,11.7592490234375,2.3282155990600586,0.7745452523231506,1.5875020027160645
1789214686416281000,11.769281005859375,2.2344398498535156,0.6302482485771179,1.5162651538848877
1789214686426313000,11.77931298828125,2.0016698837280273,0.04674167186021805,1.568635106086731
1789214686436345000,11.789344970703125,1.7634028196334839,-0.4272860884666443,1.5977439880371094
1789214686446377000,11.799376953125,1.660310983657837,-0.7194295525550842,1.5869805812835693
1789214686456409000,11.8094091796875,1.5716171264648438,-0.983206570148468,1.477178692817688
1789214686466441200,11.819441162109374,1.4095118045806885,-0.9652382135391235,1.3923181295394897
1789214686476473000,11.82947314453125,1.1590490341186523,-0.4521656036376953,1.4401408433914185
1789214686486505000,11.8395048828125,0.86612868309021,0.06979212909936905,1.4383103847503662
1789214686496536000,11.8495361328125,0.5990695357322693,0.31383463740348816,1.399172067642212
1789214686506568000,11.85956787109375,0.4545576572418213,0.010349043644964695,1.3182567358016968
1789214686516600000,11.86960009765625,0.4010353088378906,-0.499259889125824,1.2814511060714722
1789214686526632200,11.879632080078125,0.4580053687095642,-0.7636744976043701,1.350687861442566
1789214686536664000,11.8896640625,0.542212963104248,-0.7680524587631226,1.4036539793014526
1789214686546696000,11.899696044921875,0.45325884222984314,-0.5526440143585205,1.2467423677444458
1789214686556728000,11.90972802734375,0.1217605248093605,-0.3770543336868286,0.9335119724273682
1789214686566760000,11.919760009765625,-0.21044911444187164,-0.19835996627807617,0.5900915265083313
1789214686576792000,11.9297919921875,-0.45234963297843933,-0.042380478233098984,0.3164959251880646
1789214686586824000,11.939823974609375,-0.6692103147506714,0.18712487816810608,0.22730745375156403
1789214686596856300,11.949856201171874,-0.8001043796539307,0.2574184834957123,0.2664114534854889
1789214686606888200,11.95988818359375,-0.8133906722068787,0.15389502048492432,0.25155606865882874
1789214686616920600,11.969920654296875,-0.7199805378913879,-0.016873788088560104,0.11405307054519653
1789214686626952400,11.979952392578125,-0.6519300937652588,-0.2667134404182434,-0.09968424588441849
1789214686636984300,11.989984375,-0.73051518201828,-0.29580050706863403,-0.3590516448020935
1789214686647015400,12.000015380859375,-0.8484959006309509,0.04036207124590874,-0.6585456728935242
1789214686657047300,12.01004736328125,-0.9140703678131104,0.4323072135448456,-0.8846238255500793
1789214686667079400,12.020079345703126,-0.9106761813163757,0.6688219904899597,-0.9960944056510925
1789214686677111300,12.030111328125,-0.8429208397865295,0.7793951034545898,-1.0416216850280762
1789214686687143400,12.040143310546876,-0.6895970702171326,0.7090471982955933,-1.140098214149475
1789214686697175300,12.05017529296875,-0.49879276752471924,0.4121529459953308,-1.195989966392517
1789214686707207400,12.06020751953125,-0.39029237627983093,0.002008556155487895,-1.181638479232788
1789214686717239300,12.0702392578125,-0.4050617516040802,-0.19979754090309143,-1.1028485298156738
1789214686727271400,12.080271484375,-0.5386956930160522,-0.1403600424528122,-1.0091252326965332
1789214686737303300,12.09030322265625,-0.6923763155937195,0.08637163788080215,-0.9194859266281128
1789214686747335400,12.10033544921875,-0.9228966236114502,0.3721192479133606,-0.7247158885002136
1789214686757367300,12.1103671875,-1.12158203125,0.3468863070011139,-0.5578722953796387
1789214686767399400,12.1203994140625,-1.2332097291946411,0.12590786814689636,-0.47004207968711853
1789214686777431600,12.130431640625,-1.3188987970352173,-0.05594928562641144,-0.4723997712135315
1789214686787462400,12.14046240234375,-1.3925962448120117,-0.032399751245975494,-0.499746710062027
1789214686797494500,12.15049462890625,-1.3338549137115479,0.0938873440027237,-0.6109965443611145
1789214686807526400,12.1605263671875,-1.2651103734970093,0.16905933618545532,-0.8698110580444336
1789214686817558300,12.170558349609376,-1.257779836654663,0.17867174744606018,-1.2275254726409912
1789214686827590400,12.18059033203125,-1.2973397970199585,0.04218180850148201,-1.4879193305969238
1789214686837622500,12.19062255859375,-1.2335277795791626,-0.04545163735747337,-1.5670742988586426
1789214686847654400,12.200654296875,-1.1595531702041626,0.052932724356651306,-1.5121800899505615
1789214686857686300,12.210686279296874,-1.212143063545227,0.14785470068454742,-1.3432669639587402
1789214686867718400,12.220718505859375,-1.322128415107727,0.21537090837955475,-1.2123968601226807
1789214686877750300,12.230750244140625,-1.3272666931152344,0.212587371468544,-1.217282772064209
1789214686887782400,12.240782470703126,-1.2715665102005005,0.032649822533130646,-1.2741252183914185
1789214686897814300,12.250814208984375,-1.1070611476898193,-0.32421934604644775,-1.3284111022949219
1789214686907846400,12.260846435546876,-0.9469870328903198,-0.5153749585151672,-1.33206307888031
1789214686917878300,12.270878173828125,-0.8806011080741882,-0.601405143737793,-1.272666096687317
1789214686927910400,12.280910400390624,-1.062415361404419,-0.3951862156391144,-1.1033521890640259
1789214686937941200,12.290941162109375,-1.3417636156082153,-0.2743002772331238,-0.8051774501800537
1789214686947973400,12.300973388671874,-1.4763603210449219,-0.18614830076694489,-0.577647864818573
1789214686958005500,12.311005615234375,-1.4347833395004272,-0.1783606857061386,-0.4355035424232483
1789214686968037400,12.321037353515624,-1.2144405841827393,-0.3481670320034027,-0.3334139287471771
1789214686978069200,12.3310693359375,-0.9581949710845947,-0.6291545033454895,-0.13757383823394775
1789214686988101400,12.341101318359375,-0.7535393238067627,-0.5733304023742676,0.13172154128551483
1789214686998133500,12.351133544921876,-0.5470476150512695,-0.374521404504776,0.29117244482040405
1789214687008165400,12.361165283203125,-0.3149869740009308,-0.14846403896808624,0.4062713384628296
1789214687018197200,12.371197265625,-0.09017650038003922,0.10685347765684128,0.5936481356620789
1789214687028229400,12.3812294921875,0.19698017835617065,0.2310982048511505,0.7105106115341187
1789214687038261500,12.391261474609376,0.45634782314300537,0.19693464040756226,0.8319347500801086
1789214687048293400,12.40129345703125,0.7371845841407776,0.3554803431034088,1.0005801916122437
1789214687058325200,12.4113251953125,1.0627855062484741,0.6114622950553894,1.0784529447555542
1789214687068357400,12.421357421875,1.3077702522277832,0.7395638227462769,1.0617525577545166
1789214687078388500,12.431388427734374,1.440232753753662,0.9117475748062134,1.0856722593307495
1789214687088420400,12.44142041015625,1.5996711254119873,1.1510357856750488,1.1598879098892212
1789214687098452200,12.4514521484375,1.8194077014923096,1.2587997913360596,1.1954424381256104
1789214687108484400,12.461484375,2.033271551132202,1.191651701927185,1.1301674842834473
1789214687118516500,12.4715166015625,2.173159599304199,0.923812210559845,1.150491714477539
1789214687128548400,12.48154833984375,2.2883684635162354,0.6738077402114868,1.1888151168823242
1789214687138580200,12.491580322265625,2.3809762001037598,0.32850438356399536,1.149443507194519
1789214687148612400,12.5016123046875,2.3517704010009766,-0.0764513611793518,1.0514135360717773
1789214687158644500,12.51164453125,2.1936943531036377,-0.3192341923713684,0.8766122460365295
1789214687168676400,12.52167626953125,1.987996220588684,-0.5163688063621521,0.7749649286270142
1789214687178708200,12.531708251953125,1.7423624992370605,-0.7939221262931824,0.816874086856842
