time,seconds_elapsed,z,y,x
1789214674682681900,0.035681884765625,6.86387629993856,6.282385156249999,0.9801263411590828
1789214674692713700,0.045713623046875,6.752845782470703,6.297049641418457,0.884358347818069
1789214674702745600,0.05574560546875,6.37785394744873,6.075885263061523,0.7778164104737341
1789214674712777700,0.06577783203125,5.737404418835044,5.963506838116049,0.7953238639831541
1789214674722809900,0.075809814453125,5.208734764751791,6.038026949310303,0.8415620296753942
1789214674732841700,0.085841796875,4.893748193359375,6.21205548248291,0.9573815167191437
1789214674742873900,0.095873779296875,4.838532502093911,6.335655558666587,1.0419266715118662
1789214674752905700,0.10590576171875,5.064035201916098,6.373065544128418,1.0908582227402366
1789214674762937900,0.115937744140625,5.32425499485433,6.443844130706787,1.2150574703934602
1789214674772968700,0.12596875,5.376030190277099,6.6142813613891605,1.2105683422806672
1789214674783000800,0.136000732421875,5.601385006061196,6.730400141906738,1.1676221673385239
1789214674793033000,0.146032958984375,5.680841989135742,6.882880860137939,1.1920133159470745
1789214674803064800,0.15606494140625,5.670816854205727,7.098359009552001,1.2237363966125994
1789214674813096700,0.1660966796875,5.634603969573975,7.23946726989746,1.2988544371673836
1789214674823128600,0.176128662109375,5.576992907604574,7.325359254455567,1.373523674508743
1789214674833161000,0.186160888671875,5.495440998077393,7.389853061676025,1.3379097421508281
1789214674843192800,0.19619287109375,5.527613082885742,7.516895387268066,1.1713633631608449
1789214674853224700,0.206224609375,5.769577088165283,7.683740730938315,1.0033201514755374
1789214674863256600,0.216256591796875,6.017826457324624,7.7784619186401365,0.9178770979950204
1789214674873287700,0.22628759765625,6.202029178509116,7.839365007892251,0.9774328277587889
1789214674883319800,0.23631982421875,6.354360843658446,7.98002377090454,1.1354501738617195
1789214674893351700,0.2463515625,6.495767794689536,8.208819082531333,1.2279261033874005
1789214674903383800,0.2563837890625,6.759729112243652,8.337208146557211,1.399111412490718
1789214674913415700,0.266415771484375,7.4591352722167965,8.21660082244873,1.6909049224853514
1789214674923447800,0.27644775390625,8.002020498657227,8.023119400787353,2.12216060611885
1789214674933479700,0.286479736328125,7.943810886272788,7.7768153204768895,2.242468874215521
1789214674943511800,0.29651171875,7.264156889995933,7.6367551078796385,2.1297922700410705
1789214674953544000,0.3065439453125,6.065260993194579,7.633612718200682,1.801337327929586
1789214674963574800,0.31657470703125,5.193472313690186,7.604733245196939,1.3771147943358868
1789214674973607000,0.32660693359375,5.158906027221679,7.518840676116943,1.2002434024201705
1789214674983638800,0.336638671875,5.673060249218344,7.404666599926353,1.2994529145171865
1789214674993670700,0.346670654296875,6.274603416332601,7.325808167266845,1.4832080563309602
1789214675003702800,0.356702880859375,6.610390783691406,7.3675570587158195,1.326088426252734
1789214675013735000,0.36673486328125,6.22447540359497,7.649923217010498,0.8670004405808635
1789214675023766800,0.376766845703125,5.622483323669433,7.885902302661537,0.6061819876297376
1789214675033798700,0.386798583984375,5.352387448883057,7.800009733581542,0.7766191269805653
1789214675043830800,0.396830810546875,5.3850084465026855,7.59096600112915,1.1409866373366675
1789214675053863000,0.40686279296875,5.756109703826904,7.578845355224609,1.3594575753585436
1789214675063893800,0.416893798828125,5.928791498565674,7.821407910919189,1.3477858696647453
1789214675073925600,0.426925537109375,5.595248695263267,8.079532192882894,1.0601825322357936
1789214675083957800,0.436957763671875,5.4706005713313814,8.062473506054282,0.8357258982672822
1789214675093990000,0.446989990234375,5.781846787151694,7.915978291973471,0.7653964208630146
1789214675104021800,0.457021728515625,6.242581553649902,7.815422406768798,0.8882488484548318
1789214675114053600,0.4670537109375,6.685059947967529,7.7389575912475586,1.0048166188446805
1789214675124086000,0.4770859375,7.011569199371337,7.7608046813964835,0.9097966673919933
1789214675134118000,0.487117919921875,7.049278460040688,7.842656450653076,0.9059060257621575
1789214675144149800,0.497149658203125,7.305756728363036,7.985111449432372,0.9317932124815881
1789214675154180900,0.507180908203125,7.179462006267905,7.958775231170654,1.1191394923888147
1789214675164212700,0.517212646484375,6.776039026531577,7.6671315414428705,1.1364976005554202
1789214675174244900,0.527244873046875,6.6621648100703945,7.142053189849854,1.3435959710936995
1789214675184276700,0.53727685546875,6.801477419170737,6.921038449096679,1.035941130828857
1789214675194308900,0.547308837890625,6.916997649273275,7.508964594268798,0.07511804055478422
1789214675204340700,0.5573408203125,6.1469625403255215,7.675211972045898,0.012270173910446491
1789214675214372900,0.567372802734375,5.759550784191489,7.0180030318111175,0.1170165696075186
1789214675224404700,0.57740478515625,6.108955173492432,6.758980924224853,0.5069720919402316
1789214675234436900,0.587436767578125,5.983858136749268,5.776909330749511,-0.015263145181350413
1789214675244468700,0.59746875,5.747879635620117,5.409549013519287,-0.3848677707396447
1789214675254499600,0.60749951171875,5.4432168898433435,5.670517578998208,-0.6194996795654295
1789214675264532000,0.617531982421875,5.495440998077392,6.198288822937011,-0.49141000034492466
1789214675274563800,0.627563720703125,5.7867854125976566,6.635678954204916,-0.14544767778925605
1789214675284595700,0.637595703125,5.811325979614257,6.904578312683105,-0.14230521504506471
1789214675294627800,0.6476279296875,5.648819541931153,6.92732322845459,-0.1818096155028791
1789214675304660000,0.657659912109375,5.517288088226318,6.92657504043579,-0.11252729536425321
1789214675314691800,0.66769189453125,5.971587853240966,7.190685411071777,-0.19018943091128016
1789214675324723700,0.6777236328125,6.366182214355469,7.555800579723716,-0.29299046469423917
1789214675334755800,0.687755859375,6.10341858215332,7.4500073783874505,-0.1174654824187979
1789214675344787000,0.697786865234375,5.568464148712158,7.129633268737793,-0.015712057992629647
1789214675354818800,0.70781884765625,5.379921352496742,6.293607976531982,0.18570012013539672
1789214675364850700,0.7178505859375,4.986673145294189,5.659443811798095,0.6262333717346192
1789214675374882800,0.7278828125,5.15845652988851,5.577591458019614,0.43394897783808395
1789214675384915000,0.7379150390625,6.411073495483398,5.849931896862388,-0.31558559673149145
1789214675394946800,0.74794677734375,7.381472771343589,6.139331022533774,-0.4825813817230985
1789214675404978700,0.757978759765625,7.280766664013266,6.558765810394286,-0.8258500447480006
1789214675415010800,0.7680107421875,6.777685624694824,6.811204447937012,-1.110759896176122
1789214675425043000,0.77804296875,7.04254418334961,6.982389866638183,-0.8450034753661602
1789214675435074800,0.78807470703125,7.075913953509927,7.0449383850097655,-0.47599725409243265
1789214675445105700,0.798105712890625,7.050923889160156,6.7930982978820795,-0.32441436148378994
1789214675455137800,0.8081376953125,7.201907646831869,6.52449821461141,-0.14649521408081057
1789214675465170000,0.818169921875,7.121702475738525,6.1909565803527835,-0.48273105585947634
1789214675475201800,0.828201904296875,7.107636540985107,6.131999364471435,-1.2114659669738264
1789214675485233700,0.838233642578125,7.120804650115966,6.136039579772949,-1.5355810897827147
1789214675495265800,0.848265869140625,6.694636754608154,5.840355674743652,-1.1951555412292478
1789214675505298000,0.8582978515625,7.080851409912109,5.844695165252685,-0.31513679351806634
1789214675515329800,0.868329833984375,8.948029429626464,6.266373932647705,0.27608137893676743
1789214675525361700,0.878361572265625,10.028562566375731,6.3786021354675295,-0.08274966794438665
1789214675535392800,0.888392822265625,9.699060562896728,6.119579443359375,-0.5449801528930663
1789214675545424600,0.898424560546875,9.352799147796631,6.226869605255127,-0.49799387224726377
1789214675555456800,0.908456787109375,9.27019860599935,6.596324264416098,-0.5201402376037091
1789214675565489000,0.918489013671875,9.090035515594481,6.7814259802669286,-0.5497684831481424
1789214675575520800,0.928520751953125,8.873060990142822,6.864774710083007,-0.7384615014892071
1789214675585552600,0.938552734375,8.651746974182128,7.129633268737793,-1.316362000274658
1789214675595584500,0.94858447265625,8.319252218627929,7.157465863037109,-2.1089923143249005
1789214675605616600,0.95861669921875,7.9758339179992666,7.025335858917236,-2.788496746063232
1789214675615648800,0.968648681640625,7.727136805072427,6.634034109607338,-3.3174656022887676
1789214675625679600,0.9786796875,8.383596388244628,5.852925233459472,-3.0509611761230975
1789214675635711700,0.988711669921875,8.438663026428223,6.2970496414184565,-2.4468740966796876
1789214675645743600,0.99874365234375,7.989450939941405,6.834248638916016,-2.0100819313049314
1789214675655775500,1.008775390625,8.254608773803712,6.709001964569092,-1.8818425048828122
1789214675665807600,1.0188076171875,8.962843552398681,6.756736360168458,-1.8598455944670362
1789214675675839700,1.02883984375,9.606285248565673,6.940640975189209,-1.5848117883544415
1789214675685871600,1.03887158203125,10.231321519470214,6.449231084442138,-1.0009260411469265
1789214675695903700,1.04890380859375,10.114903463745117,6.772298670959472,-1.011849476623535
1789214675705935600,1.058935546875,9.516203411102294,7.200411270794271,-0.7980174504486843
1789214675715966700,1.068966796875,8.432677522277832,7.751527149963379,-0.7746738746643065
1789214675725998600,1.07899853515625,8.194903369903564,7.148038109478354,-0.5801449532439932
1789214675736030500,1.089030517578125,8.180388522338866,6.0154316711425775,-0.6901285920074209
1789214675746062800,1.099062744140625,7.734169187927246,6.289567761230469,-1.161337442779541
1789214675756094700,1.1090947265625,8.166621862792969,6.008548341369628,-1.3952210174560546
1789214675766126600,1.119126708984375,8.12816441410482,5.602731159973144,-1.6566378564254376
1789214675776158500,1.129158447265625,6.882880275616049,5.644629689025878,-1.679233207658399
1789214675786190800,1.13919091796875,6.66485887145996,5.589712103924155,-1.4321814507857897
1789214675796222700,1.14922265625,6.676380966949462,5.435885231781005,-1.2225393140488303
1789214675806253600,1.159253662109375,6.4929252647399895,5.499331575775146,-0.9992798631087876
1789214675816285700,1.16928564453125,6.323236222076416,5.623081874084472,-1.0488099464858882
1789214675826317600,1.179317626953125,6.237942787933348,5.721393779754639,-1.2539631012405268
1789214675836349700,1.189349609375,6.189759479522705,5.787234325408935,-1.1866262708801776
1789214675846381600,1.199381591796875,6.0063037773132315,6.002113924407959,-0.9633670391358434
1789214675856413700,1.20941357421875,5.9665001747131345,7.203703882598877,-1.1979986739669926
1789214675866445800,1.21944580078125,5.823596263122558,9.391704924774169,-1.7374420893904752
1789214675876477700,1.229477783203125,5.4602755766719575,9.597306992340087,-1.844283411540184
1789214675886509600,1.239509521484375,6.369174966430663,6.406584367370605,-1.8335094858031717
1789214675896541700,1.249541748046875,6.976254724884033,5.432593204498291,-1.227626965177199
1789214675906572500,1.259572509765625,6.228515618896484,6.482300994873047,-0.803254506285372
1789214675916604700,1.269604736328125,6.120177993774414,6.622062516784668,-0.7474398216468747
1789214675926636800,1.27963671875,6.4284314575195305,6.451176373291015,-0.7170632830523652
1789214675936668700,1.289668701171875,6.453570574951171,6.235249311065673,-0.5750572244838112
1789214675946700500,1.299700439453125,6.399102487182616,6.040270928844809,-0.5398925017646978
1789214675956732700,1.309732666015625,6.111648650360108,6.133046827697753,-0.596904419664014
1789214675966764800,1.319764892578125,5.982062485504151,6.323984410095214,-0.6663362860748544
1789214675976796700,1.329796630859375,5.955726267242431,6.53138212890625,-0.8078935140305198
1789214675986828500,1.33982861328125,5.876867250061035,6.713790367889404,-1.351227671548538
1789214675996859600,1.349859619140625,6.034884559631347,6.906673239135742,-1.7124527556930667
1789214676006891800,1.359891845703125,6.490979975891113,7.082946336364746,-1.6991347897627391
1789214676016923600,1.369923583984375,6.763768743023276,7.488613295635581,-1.3760675229058135
1789214676026955500,1.37995556640625,7.125892328643799,8.298153316497803,-0.9683047969321255
1789214676036988000,1.38998779296875,7.225102059936523,7.481281637573241,-0.764348797806492
1789214676047019800,1.400019775390625,7.302015203747152,6.470927952465415,-0.43095640385940204
1789214676057051600,1.4100517578125,7.3270046835750335,6.0886038748592135,0.22295996110339178
1789214676067083500,1.42008349609375,7.221212066760659,6.250512346649169,0.5880756823111791
1789214676077115600,1.43011572265625,7.186196867480874,6.593781009674072,0.7719804046464968
1789214676087146800,1.440146728515625,7.2072951850891105,6.640916854858398,0.7067385623875772
1789214676097178600,1.4501787109375,7.270441669353842,6.783670544323325,0.4270655886996304
1789214676107210800,1.460210693359375,7.314435124859214,7.408706815227865,0.3072059297368513
1789214676117242600,1.47024267578125,7.452850492858886,7.560588983044028,0.48841708358753655
1789214676127274800,1.480274658203125,7.495197934722899,7.364265031433105,0.4800375002183427
1789214676137306600,1.490306640625,7.325359254455566,7.408857621875405,0.8078934695063914
1789214676147338800,1.5003388671875,7.387009947204589,7.359626850238442,0.8635585884647211
1789214676157370600,1.51037060546875,7.703792754364013,7.040897585186362,1.3376103248085913
1789214676167402800,1.52040283203125,7.202806641498207,7.121552838134765,1.0931026966067323
1789214676177434600,1.5304345703125,6.93315909500122,7.732373536682129,1.0190322003350127
1789214676187465700,1.5404658203125,6.937498585510253,7.568370722961425,1.301847269157681
1789214676197497600,1.55049755859375,6.543502774810791,6.410624582672119,0.9955389001819075
1789214676207529500,1.560529541015625,6.258592777252197,6.6229597578853365,1.0217256315369159
1789214676217561600,1.5705615234375,5.870732108306885,7.434295429992676,0.932840958835697
1789214676227593700,1.58059375,5.69490733936727,7.536946826171874,0.7788639284989797
1789214676237625600,1.59062548828125,5.971886543926597,7.012616078075767,1.122132349495287
1789214676247657700,1.60065771484375,5.729923123168945,6.951265245056152,0.8500912041263422
1789214676257689600,1.610689697265625,5.5341977219730625,7.9351330742985,0.481683610899467
1789214676267721700,1.6207216796875,6.074388887023925,7.908048083496093,0.6527192641327157
1789214676277752600,1.630752685546875,5.673958659362792,7.192780337524414,0.9392753209984396
1789214676287784700,1.64078466796875,5.692513722229004,7.031919913482666,1.2069767840621062
1789214676297816800,1.65081689453125,5.670516409954428,7.085937919396161,0.8023567034956999
1789214676307848700,1.6608486328125,4.8855175406306985,7.561786083874106,-0.4294598679916001
1789214676317880600,1.670880615234375,4.980986916351318,7.725789482116698,-1.0896610671112315
1789214676327912400,1.680912353515625,5.00537784576416,7.577348979187011,-1.3340192009856924
1789214676337944800,1.69094482421875,5.286995816040038,7.59740041809082,-1.2577039865355937
1789214676347976700,1.700976806640625,5.133616687664389,7.554604063415527,-1.3561656759399918
1789214676358008600,1.711008544921875,5.331138909149169,7.4764932342529296,-1.1965021335326136
1789214676368039700,1.721039794921875,5.551555099487306,7.497891411590576,-0.9919476022582501
1789214676378071600,1.731071533203125,5.472696082305908,7.512855171966552,-0.8882487428527324
1789214676388103700,1.741103759765625,5.389646627697348,7.511956761822104,-0.6769604828765614
1789214676398135600,1.751135498046875,5.250184965515136,7.418134568786621,-0.3820248571976088
1789214676408167700,1.761167724609375,5.029918412780762,7.3554364128112795,-0.2181715897491201
1789214676418199800,1.77119970703125,5.106233006176352,7.474847220611572,-0.17387882250361142
1789214676428231700,1.781231689453125,5.068225639343262,7.491456994628906,-0.3435680295639671
1789214676438263600,1.791263671875,5.013159001159668,7.469909179687499,-0.440533142001368
1789214676448295700,1.801295654296875,5.111620544433594,7.3657614074707025,-0.6260836245330049
1789214676458326500,1.811326416015625,5.166238269805907,7.280767248535156,-0.8726864777274894
1789214676468358700,1.821358642578125,5.345354481506347,7.18888975982666,-1.006163128949655
1789214676478390800,1.831390869140625,5.481974198260903,7.109132332500815,-0.9795276720130349
1789214676488422700,1.841422607421875,5.790227077484131,6.871957315063476,-0.8400654818203271
1789214676498454500,1.85145458984375,6.235548001751304,6.603955782207847,-0.7495346818841412
1789214676508486700,1.861486572265625,6.575375584411621,6.364087287902832,-0.715866232454637
1789214676518518800,1.871518798828125,6.80521894378662,6.1741965842098,-0.7293336487590569
1789214676528550700,1.881550537109375,6.9696700857967135,6.085462069702148,-0.6646903363655786
1789214676538582500,1.89158251953125,6.807164232635498,6.081421854400634,-0.7475895231827163
1789214676548613600,1.901613525390625,6.780528739166259,6.093991413116455,-0.7995137260215822
1789214676558645800,1.911645751953125,6.918195334625245,6.053888535308838,-0.8664017897011247
1789214676568677600,1.921677734375,6.890811653137207,6.055684186553954,-0.9151834110647905
1789214676578709500,1.93170947265625,6.9249284422725434,6.171802967071533,-1.0236707011900843
1789214676588741400,1.941741455078125,7.025036583709715,6.281787190356851,-1.1146502912107856
1789214676598773200,1.951773193359375,6.985083343505859,6.401196829113364,-1.188571431864891
1789214676608805000,1.96180517578125,7.1097314674377445,6.597371727642416,-1.1441293558091856
1789214676618837200,1.971837158203125,7.426663912200928,6.752696144866944,-0.9241618042876942
1789214676628869400,1.981869384765625,7.912836486816405,6.644657210430503,-0.5865793336730449
1789214676638900200,1.991900146484375,8.215403721618651,6.6995742110103365,-0.36885691246353086
1789214676648932000,2.00193212890625,8.333766481670736,6.98478348377645,-0.2463034957885743
1789214676658964500,2.011964599609375,8.256105149841309,7.047182949066162,-0.1036988959381357
1789214676668996400,2.021996337890625,7.959822109875083,6.950965385326743,-0.09247618525400764
1789214676679028200,2.0320283203125,7.683442040252685,7.438335645294189,-0.3685574911255389
1789214676689060000,2.04206005859375,7.68658442993164,7.553257324981688,-0.5713164259537123
1789214676699092500,2.052092529296875,7.568519776043295,7.432799053955078,-0.6271311608245596
1789214676709124400,2.062124267578125,8.428786944580077,7.6930188468933105,0.4439747338226065
1789214676719156200,2.07215625,7.57869571762085,7.29079296798706,0.7722798191346227
1789214676729188000,2.08218798828125,7.24590168685913,7.405265150341391,0.2977786853514611
1789214676739219200,2.09221923828125,7.573159126281738,7.60398388813436,-0.26051928734146057
1789214676749251300,2.102251220703125,7.798662410625815,7.217469957622885,0.17387867637313903
1789214676759283200,2.112283203125,7.494300109100341,7.223605683898925,0.3942951589722187
1789214676769315300,2.1223154296875,7.113920735821128,7.434145207867026,-0.028431290844827872
1789214676779347200,2.13234716796875,7.615057655334472,7.154473110961914,0.0851437965393067
1789214676789379300,2.14237939453125,8.292765778240561,6.589890431976318,0.514603719329834
1789214676799411200,2.1524111328125,7.879317663574218,6.721870798492431,0.3423706912718713
1789214676809443300,2.162443359375,7.61655403137207,6.6060512931823725,0.4662707733154297
1789214676819475200,2.17247509765625,7.132326745605468,6.2957023184627285,0.5457283409118652
1789214676829506300,2.18250634765625,6.622810704803467,6.336105055999755,0.4611830217223614
1789214676839538400,2.192538330078125,6.1942486076354975,6.493374177551269,0.44397484342046084
1789214676849570300,2.2025703125,5.889287171173095,6.569838993072509,0.7260415803771467
1789214676859602200,2.212602294921875,5.660341637420654,6.356754460796715,1.1076173968993128
1789214676869634300,2.22263427734375,5.659743087005615,6.136189217376709,1.3308768478393553
1789214676879666400,2.23266650390625,5.9576715560913085,5.866542255401611,1.5988777231078593
1789214676889698300,2.2426982421875,6.424391242218018,5.892130285644531,1.9542672512330115
1789214676899730200,2.252730224609375,6.6531871383666985,5.492597883605956,2.296188883563131
1789214676909762300,2.26276220703125,6.680869510540365,5.555594730266929,2.6785131072998043
1789214676919794400,2.27279443359375,6.3516667822688815,5.366901711925864,2.6952723727904258
1789214676929825300,2.2828251953125,6.2873231971740715,4.802020342254639,2.576161132458597
1789214676939857200,2.292857177734375,6.07738163909912,4.565293653106689,2.628534147644043
1789214676949889300,2.30288916015625,6.083815471538901,3.701584819683433,2.6294318271361288
1789214676959921400,2.31292138671875,6.137086458477378,3.2011966727107763,2.383278115081787
1789214676969953300,2.322953369140625,5.684582344707845,3.6981437393188483,2.161814461517334
1789214676979985200,2.332985107421875,5.212625342449545,3.7024826453059907,2.1600186641417443
1789214676990017300,2.343017333984375,4.9791912651062,3.4032086068302387,2.4117092597961425
1789214677000049400,2.35304931640625,4.942379830059409,3.2019454452514644,2.6337714637756346
1789214677010081300,2.363081298828125,5.008669288524985,3.1802479927062985,2.6354176235474647
1789214677020112400,2.3731123046875,5.161599504089356,3.048117988586425,2.96222600402832
1789214677030144300,2.383144287109375,5.249137502288818,1.625662927246093,3.474286030224711
1789214677040176400,2.39317626953125,4.142417784881592,0.648529959216714,3.745129946899414
1789214677050208300,2.403208251953125,4.5145665054321285,1.042225910186768,3.7822403648927807
1789214677060240400,2.413240478515625,8.219892265209555,2.082057326452434,2.7985221732541916
1789214677070272300,2.423272216796875,7.557596815490721,2.8546365669250493,3.9888893111631276
1789214677080304400,2.433304443359375,5.2350715675354005,1.8531120849609373,3.31342546005249
1789214677090336300,2.443336181640625,4.85828349674642,1.0272621498107908,2.0847510955810544
1789214677100368400,2.453368408203125,6.263530818176269,1.1897685874938966,2.7733833480834953
1789214677110400300,2.463400146484375,7.473051569366454,0.7402572257995605,4.049043920135498
1789214677120431000,2.47343115234375,7.970746239471435,-0.19482816009521464,6.297049056896567
1789214677130463500,2.48346337890625,6.531531766510009,-0.5479729049682618,6.280290229797362
1789214677140495400,2.493495361328125,4.398447724914551,-0.05027823486328087,4.343081811523437
1789214677150527200,2.50352734375,4.414907861328125,0.8985738105773922,5.706878347668051
1789214677160559000,2.51355908203125,5.101595409503578,1.3922282653808593,6.958597487640381
1789214677170591200,2.52359130859375,5.553799079021811,1.7298104072019458,6.854748990631103
1789214677180623400,2.533623291015625,5.03739970844686,2.146251858465373,5.616347597393394
1789214677190655200,2.5436552734375,4.478952755737304,2.290502800750733,5.321411880382895
1789214677200687000,2.55368701171875,3.590704232080281,2.087145297241211,5.237016271862387
1789214677210718500,2.563718505859375,2.8106428191587325,1.7521067024230956,4.716876545715331
1789214677220750300,2.573750244140625,1.916558136694133,1.3422490134641527,3.5389293289184565
1789214677230782200,2.5837822265625,0.44217882684916265,0.6444893055237828,2.7498896597713243
1789214677240814300,2.593814453125,-0.6069302669800816,-0.2922423862732948,3.344548912590742
1789214677250846500,2.603846435546875,-0.7908345897398888,-0.7585130134582521,4.687098662567139
1789214677260878300,2.61387841796875,0.1933321493837982,-0.8251018932618206,7.363216399163006
1789214677270910200,2.62391015625,1.1442783175595104,-1.5230114580016583,9.926810164862871
1789214677280942000,2.633942138671875,1.3842968878597017,-1.9277814684327692,12.010960956463217
1789214677290974500,2.643974365234375,1.5937896792538464,-1.1532569025786592,13.98123986968994
1789214677301005300,2.65400537109375,1.1257242776066063,-0.7731776082245634,15.779434954071043
1789214677311037200,2.664037109375,-0.2732376799434424,-0.431255427905172,17.463454793217778
1789214677321069300,2.6740693359375,-0.381725088799745,0.09546864506825803,18.75228464344442
1789214677331101200,2.68410107421875,0.661248863275349,1.0215758478026835,19.591751600536703
1789214677341133300,2.69413330078125,1.0253164225704972,1.5330376889102153,20.366126199993488
1789214677351165200,2.704165283203125,1.431882084246725,1.083375666698813,21.03710238429606
1789214677361197300,2.714197265625,2.5436900647036733,0.34491453053578747,21.11596023243367
1789214677371229200,2.724229248046875,3.170222200189158,-0.7264902739927166,19.992032190594074
1789214677381261300,2.73426123046875,3.5046618792660533,-2.265962525995076,18.394951214709877
1789214677391293200,2.744293212890625,4.541201341314241,-3.307589885766804,17.790563764080403
1789214677401324300,2.75432421875,4.74560699303667,-2.593070620074868,17.13994063197672
1789214677411356200,2.764356201171875,4.531026861041411,-1.1836337380006907,15.870264979553223
1789214677421388300,2.77438818359375,1.5369277551513165,-1.5396213050842285,14.108431832885742
1789214677431420400,2.78442041015625,-2.6319758125305177,-0.7196075287416575,13.933206198883056
1789214677441452300,2.794452392578125,-3.7129577159605915,2.1196166572570796,13.602507094573975
1789214677451484200,2.804484130859375,-3.025373218945414,1.183633445739746,12.123039521679283
1789214677461516300,2.814516357421875,-2.869749964904785,-1.4191624495357278,13.195492227825522
1789214677471548400,2.82454833984375,-1.4809633644104003,-5.444115299987793,13.83564248123169
1789214677481580300,2.834580322265625,-1.2334627677917482,-6.256050107032061,13.295451316180824
1789214677491611100,2.844611083984375,-0.3136405636109416,-3.6670191177368165,12.55788698272705
1789214677501643300,2.854643310546875,1.1800422893799838,-4.623801371654868,12.806584095653891
1789214677511675400,2.86467529296875,1.8734625068113206,-5.677100464519858,12.333878905376793
1789214677521707300,2.874707275390625,2.7726350139342246,-7.855524700054525,11.93299976490438
1789214677531739100,2.8847392578125,5.2524293834410605,-8.63184517288208,9.073126466369628
1789214677541771300,2.894771240234375,3.9707837456300856,-7.296179921722412,8.38210001220703
1789214677551803400,2.904803466796875,1.4505867847166956,-7.611016855511069,7.76379684894979
1789214677561835300,2.914835205078125,1.6338928493224083,-7.032817154583335,8.014290197643637
1789214677571867100,2.9248671875,2.8305450588501992,-5.504717944988609,10.648660796356202
1789214677581899500,2.9348994140625,3.104082744653523,-4.080767092132568,11.358840279278159
1789214677591933700,2.94493359375,5.230881568499655,-5.046078689464927,12.151471250915527
1789214677601965600,2.954965576171875,3.2823005462095143,-4.989814950451255,11.654673821911215
1789214677611997700,2.964997802734375,4.775384994915871,-3.5173820984989406,9.851392228046059
1789214677622029600,2.975029541015625,3.1747111091062425,-6.329072088623047,10.453982273864746
1789214677632061700,2.985061767578125,3.8747161117553706,-7.895777799987792,10.452036400493979
1789214677642093600,2.995093505859375,4.921730571392923,-8.691849851989746,10.267384181976317
1789214677652125700,3.005125732421875,8.274510867364704,-9.73631974171102,9.304016704449058
1789214677662157600,3.015157470703125,8.807519573565571,-6.893655352130532,11.304373360553384
1789214677672189700,3.025189697265625,-2.1760298877440394,-1.340154963794351,9.824007962036132
1789214677682220800,3.035220703125,9.688286509295553,-6.230311270141602,6.415412985992431
1789214677692252700,3.045252685546875,11.704054523412882,-12.414085245513915,8.523956460571288
1789214677702284500,3.055284423828125,0.316932590893656,-3.360112976947426,7.10539197692871
1789214677712316400,3.06531640625,-6.7580833908632405,-2.4793454566955564,5.17117631072998
1789214677722348800,3.075348876953125,-4.765658550671488,-6.718877461895346,5.987748129925132
1789214677732380700,3.085380615234375,-0.09696545949727287,-6.465540414208173,5.625625128826499
1789214677742412500,3.09541259765625,-1.8576013592042033,-7.619995111736655,7.264606387329101
1789214677752444400,3.1054443359375,1.6310497348509727,-9.326013432201743,8.275857313537596
1789214677762476800,3.115476806640625,1.943792326708883,-9.289052944073081,7.294084410747885
1789214677772508700,3.1255087890625,1.9515737743653356,-8.17829301136434,6.898292948803306
1789214677782539500,3.13553955078125,1.668459135790914,-5.641787743598222,7.18215606765747
1789214677792571600,3.145571533203125,2.138172012384236,-6.320991658020019,6.182726512145996
1789214677802603800,3.155603759765625,2.3728034828186035,-8.495525315856934,6.288071385192871
1789214677812635600,3.1656357421875,4.450821032360941,-5.034107096642256,5.569660665020346
1789214677822667500,3.17566748046875,1.3940239166259765,-7.871835198864339,4.500649623760581
1789214677832699600,3.18569970703125,5.978022124072164,-9.393798682183027,4.363731216320396
1789214677842731800,3.195731689453125,2.6487352241516113,-0.27204233267903266,2.4088667298465967
1789214677852763600,3.205763671875,-1.1061208747312425,1.7604864082336427,0.10250175857543908
1789214677862795500,3.21579541015625,-2.7504886485777793,0.5446808776855461,-1.2204448807865376
1789214677872826600,3.22582666015625,-3.482515806170553,0.6821978355407712,-1.9773112960815427
1789214677882858500,3.2358583984375,-3.3008556090757253,0.9427157346427446,-2.5710727232784025
1789214677892890600,3.245890625,-2.810344128473103,-0.8464993399471048,-1.8722656982421881
1789214677902922800,3.2559228515625,-1.7727563994809983,-1.669955657958984,-0.21053952396809983
1789214677912954600,3.26595458984375,-1.1519101276122032,-1.349580963787437,1.0152911415100112
1789214677922986500,3.275986572265625,-1.0782889380190523,-1.0712550207942728,1.7527052528381342
1789214677933018600,3.2860185546875,-1.3060375170718879,-1.697339339447021,3.1841385704040523
1789214677943050500,3.296050537109375,-1.5888521863190457,-1.4276912084281443,4.260930182537436
1789214677953082600,3.30608251953125,-0.26186556911757225,-4.508729469841718,5.585073338207602
1789214677963114800,3.31611474609375,-0.5810425596708431,-7.16270259464681,6.249314661297201
1789214677973145600,3.3261455078125,0.6666361458042637,-12.479925206646321,8.794351026043294
1789214677983177700,3.336177734375,1.6588826944764707,-16.10788890980184,11.009286836895345
1789214677993209600,3.346209716796875,2.0536272046513853,-15.861884689220787,11.372906214031577
1789214678003241500,3.356241455078125,2.204910091400146,-14.930390021294354,11.903819847649334
1789214678013273600,3.366273681640625,1.8860325039185581,-14.253579139488934,11.119269891136884
1789214678023305700,3.3763056640625,1.2764089062012731,-11.755679788970948,9.007136283111572
1789214678033337600,3.386337646484375,-0.14365268413126464,-9.527276593780517,6.6902972640991205
1789214678043369500,3.396369384765625,-2.163760042627156,-8.182633670917152,4.071190870013833
1789214678053401600,3.406401611328125,-2.9049149479188023,-6.462099918365478,3.482216677093506
1789214678063433700,3.416433837890625,-2.8892034379154445,-5.919513967132568,3.8239889640808107
1789214678073465600,3.426465576171875,-2.4872763958252966,-6.265326469421387,4.508581001281738
1789214678083496400,3.436496337890625,-1.428889186041057,-5.830928505706787,6.038027533832192
1789214678093528600,3.446528564453125,-0.3170819362364705,-5.760897522625327,7.059003735241293
1789214678103560700,3.456560791015625,-0.42362434850484076,-6.102073597285151,7.334937230139971
1789214678113592600,3.466592529296875,-0.8913912055969242,-6.531680819591879,7.576899481853842
1789214678123624400,3.47662451171875,-0.7914335785463451,-6.985683062964678,7.469910933253169
1789214678133656800,3.48665673828125,-1.637035385131836,-7.095515895080567,7.193379472461342
1789214678143688700,3.496688720703125,-2.9454668846681713,-6.656479750171304,7.167042669677734
1789214678153720600,3.506720458984375,-4.103362370300292,-6.819284294018149,7.066186340221762
1789214678163752400,3.51675244140625,-4.658218897302449,-6.4942714186519375,6.631340048217773
1789214678173784800,3.526784912109375,-4.855889295086264,-6.142772687420249,6.95216248615682
1789214678183816700,3.536816650390625,-5.083188230675459,-5.6274201955497265,7.610866633385419
1789214678193847600,3.54684765625,-5.199158542633056,-4.9179900696903465,7.536499082404375
1789214678203879700,3.556879638671875,-4.90242775889933,-4.021061688232422,7.1974196877628565
1789214678213911600,3.56691162109375,-5.427804801177978,-3.569904897418618,7.401375157165526
1789214678223943700,3.576943603515625,-4.636371222631633,-2.938582678112388,6.379200101360678
1789214678233975600,3.5869755859375,-3.5646672890260813,-3.339313350024819,6.124219378119706
1789214678244007700,3.597007568359375,-3.03913914783895,-2.717867212566733,6.210109609112143
1789214678254039600,3.60703955078125,-2.1565777299076316,0.1069903021663432,5.978323298975825
1789214678264071700,3.61707177734375,-3.931727454265952,2.4955074869453906,7.018152084892988
1789214678274103600,3.627103515625,-3.3490389174863693,-1.89605866176188,10.538529273554682
1789214678284135700,3.6371357421875,-0.10474661489278114,-5.159205886951089,6.305879429084062
1789214678294167600,3.64716748046875,0.5261266916021703,-5.426307548357546,3.335421018761397
1789214678304198400,3.657198486328125,-1.012597080120444,-4.878335812433064,2.8758851066589353
1789214678314230800,3.667230712890625,-2.6195564759403465,-4.187010667584836,2.6634008783638468
1789214678324262700,3.6772626953125,-3.4913445709228506,-4.370315855407714,3.426551488494873
1789214678334294500,3.68729443359375,-3.6842280266910787,-3.983203374481201,5.031115513610841
1789214678344326700,3.69732666015625,-4.708646915899962,-3.956567296490073,7.674463199505209
1789214678354358800,3.70735888671875,-8.111106311798096,-5.271134230041503,9.031975540813804
1789214678364390700,3.717390625,-8.683469853918254,-6.836194512286781,8.686763342505692
1789214678374422500,3.727422607421875,-4.771643616430461,-5.879560142406821,8.877997862023115
1789214678384454700,3.73745458984375,-3.239504483795166,-7.685836241912842,10.841842942810057
1789214678394486800,3.74748681640625,-3.789870859771222,-10.130316136932372,15.518317335510254
1789214678404518700,3.7575185546875,-3.348290583337098,-10.716745906066894,19.02507341057658
1789214678414550500,3.767550537109375,0.2436097266599535,-10.236560004645586,18.307564023157955
1789214678424582700,3.777582763671875,0.4626790324337784,-11.435305679321289,14.917822216144202
1789214678434613800,3.78761376953125,0.32650939753428077,-11.139172861480713,12.632106649670003
1789214678444645600,3.797645751953125,0.4017765277035532,-11.181818994030355,10.447846547588705
1789214678454677500,3.807677490234375,-0.09846139714345337,-11.647940714263914,8.040926275634765
1789214678464709600,3.817709716796875,-0.67037646484375,-12.349590853771566,5.730521089062094
1789214678474741800,3.82774169921875,-1.7480662679258732,-12.812719237408041,2.0025988820731637
1789214678484773600,3.837773681640625,-2.7174186650816345,-11.450419077301024,-1.041926634979248
1789214678494805500,3.847805419921875,-2.6762686893738805,-7.415441676440835,-5.463718410602212
1789214678504837600,3.857837646484375,-0.5476742142826319,-9.577555413165689,-7.981669200024008
1789214678514869800,3.867869873046875,-4.405181855475157,-7.18260498046875,-1.7401354018613704
1789214678524901600,3.877901611328125,-6.198588280807621,-3.8676831443786623,11.471069066619872
1789214678534933500,3.88793359375,1.0763437405017204,-4.87175146560669,20.267516188159583
1789214678544965600,3.897965576171875,-6.977152239979338,-2.0549737969547506,15.696087393298743
1789214678554997800,3.907997802734375,0.2126349653023236,-6.470181518012285,6.23390286489278
1789214678565029600,3.918029541015625,5.119701016135816,-8.098536753082275,3.483862690734863
1789214678575061500,3.9280615234375,5.195716503287246,-4.503194047546386,5.075707227270304
1789214678585092600,3.938092529296875,-2.174383636640664,-1.5117887107849128,5.472097824151814
1789214678595121200,3.94812109375,4.3526592392185695,-3.538480416107178,7.927949884796142
1789214678605153000,3.958153076171875,3.3762725960444655,-3.7261253867000335,7.971644065093994
1789214678615185000,3.968184814453125,1.8899226432248948,-4.458452404022216,7.185298165075481
1789214678625217000,3.978217041015625,0.7511809900697322,-4.969164961132408,6.514772062627972
1789214678635249200,3.988249267578125,-0.6792047912046313,-5.683386997443437,5.271134522302448
1789214678645281000,3.998281005859375,-2.6771657843440773,-7.173326279991865,5.108477862493693
1789214678655313000,4.00831298828125,-4.033631685339659,-9.457696277076005,5.651513603320717
1789214678665345000,4.018344970703125,-4.504840061187744,-12.312930225372314,5.5328503990173346
1789214678675377200,4.028377197265625,-5.588067113196105,-12.57165305775106,5.568164873504639
1789214678685409000,4.038408935546875,-6.029497313635051,-11.962626841405033,4.752938623699546
1789214678695441000,4.04844091796875,-5.320215510205179,-11.072583543285727,3.231423760931194
1789214678705473000,4.05847314453125,-5.526116560717671,-7.356483291515707,3.695749537658691
1789214678715505200,4.068505126953125,-3.9653972302861513,-1.7699147463142877,9.449913952636718
1789214678725537000,4.078537109375,-2.811241077312827,2.896835540229082,12.835913650512694
1789214678735569000,4.08856884765625,-4.906766957147419,-2.109740575408935,11.732186685180663
1789214678745600000,4.09860009765625,1.0191811346858741,-8.981697890472411,11.321581100463867
1789214678755631900,4.1086318359375,4.056824491009117,-11.453111969646812,11.012579156439006
1789214678765664000,4.1186640625,4.238634471838176,-10.26035121459961,9.367463632965087
1789214678775696100,4.128696044921875,1.761085250909626,-10.805780280303953,4.5440454056337485
1789214678785728000,4.13872802734375,-4.3441298592716455,-12.59709320395589,-1.0248679481506349
1789214678795760000,4.148760009765625,-13.134290447887777,-21.695359372279047,-24.39721448446065
1789214678805792000,4.1587919921875,-1.000477310998738,-24.741380096325276,-22.87031266795695
1789214678815824100,4.16882421875,9.098415221405029,-8.58725316696167,-1.221791619220376
1789214678825856000,4.17885595703125,-3.8790550177425143,-2.061257407268882,-0.5143047363832589
1789214678835888000,4.18888818359375,-7.514950098419188,-5.606921012878418,0.44951106943339125
1789214678845920000,4.198919921875,-4.634875431115926,-8.35711170142293,1.8622402710512285
1789214678855952100,4.2089521484375,-3.132214614160359,-8.871414976501466,0.45804070510864214
1789214678865984000,4.21898388671875,-3.22065043798238,-8.086416107177733,0.6880339943483471
1789214678876016000,4.22901611328125,-2.417245558874309,-6.150553842815756,-0.9931447761535646
1789214678886047200,4.239047119140625,-2.4884730582639576,-4.429720230534674,2.1359262792840594
1789214678896079000,4.2490791015625,-2.9123972664982083,-5.26021068496704,7.376684952545165
1789214678906111000,4.259111083984375,-2.9117981315612798,-6.451474479454756,5.528809891454875
1789214678916142800,4.269142822265625,-2.7670982764646412,-7.558493472069501,4.973804019109904
1789214678926175200,4.27917529296875,-2.8745386604860426,-8.238149221912025,3.893271174621582
1789214678936207000,4.28920703125,-3.317764950561523,-8.93172009986043,3.790620362964272
1789214678946239000,4.299239013671875,-3.8100726669311524,-9.965564550670981,4.486733618871868
1789214678956270800,4.309270751953125,-4.393659029333293,-11.123461497607828,4.953603527124225
1789214678966303200,4.31930322265625,-4.355201872906089,-11.436053867340087,4.054880078943074
1789214678976335000,4.329335205078125,-4.13747915943563,-11.03801784133911,3.452438793945312
1789214678986367000,4.339366943359375,-4.770746083068847,-10.678588317108154,3.8178538223266605
1789214678996398800,4.34939892578125,-5.608567026519775,-9.98546518292725,3.858853648974001
1789214679006431000,4.359430908203125,-3.6695626647397876,-9.4488664894104,3.72208575592041
1789214679016463000,4.369463134765625,-1.8745105545595284,-9.16171134327352,2.8372788971498606
1789214679026495000,4.379494873046875,-2.598009537781775,-8.092253142768143,1.6262623544439676
1789214679036527000,4.389527099609375,-3.14403656937927,-6.962489818903803,1.700631951251626
1789214679046559000,4.39955908203125,-2.153434171184897,-6.069899174389243,4.902277536773681
1789214679056590000,4.409590087890625,-4.516361572155356,-4.752340657806396,8.239345738220216
1789214679066622000,4.4196220703125,-7.63855046686381,-2.457496612980962,9.340528279766438
1789214679076654000,4.429654052734375,-6.179583537945152,-1.5147802938163286,6.830207254570722
1789214679086686200,4.439686279296875,-3.9794633111700417,-1.8062766840279103,3.8985090752750633
1789214679096718000,4.449718017578125,-3.592800327576697,-2.209998938971758,3.502269285041094
1789214679106750000,4.45975,-2.415448738585413,-1.5246557911425827,4.064605061882734
1789214679116781800,4.46978173828125,-2.6702824545711277,-1.0097539656490087,3.008912936401367
1789214679126814200,4.479814208984375,-3.3946792634159326,-0.5490227062821385,2.8022645746529107
1789214679136846000,4.48984619140625,-3.8726217698246237,-2.2402245658874502,3.1064772385746244
1789214679146878000,4.4998779296875,-4.494664996393025,-6.287172975048422,4.224119916534423
1789214679156909800,4.509909912109375,-5.3754310553401705,-8.68287101124227,2.8311428786128756
1789214679166942200,4.519942138671875,-2.376545299695432,-4.9910132203251125,5.081992298889159
1789214679176974000,4.52997412109375,-4.215141075786948,-5.327098109325766,4.984726687401532
1789214679187006000,4.540005859375,-3.925442382647097,-5.908889112743734,3.785681152996421
1789214679197037800,4.550037841796875,-4.849903206413984,-6.9714657370418305,3.5464106245845555
1789214679207070200,4.5600703125,-4.88731348413676,-8.364890518730878,1.7212813560485842
1789214679217102000,4.57010205078125,-2.016217365320027,-13.953107415661215,2.743455827331543
1789214679227133000,4.5801328125,3.44780002822876,-31.403843597081302,4.931456284984946
1789214679237165000,4.5901650390625,-4.943128310339152,-16.417489111980796,14.164546226556599
1789214679247197200,4.600197265625,-7.627328231103718,-5.867740525275467,10.824635202899575
1789214679257229000,4.61022900390625,-3.2396535368770363,-16.940622174724936,5.042338333892822
1789214679267261000,4.620260986328125,-2.8915967627927657,-18.42502720402181,4.1144352607175705
1789214679277293000,4.63029296875,-3.5691561248779298,-18.547582155066728,2.336142562158406
1789214679287325200,4.6403251953125,-2.765153279876709,-15.681721598815916,0.2275990875795486
1789214679297357000,4.650357177734375,-3.2863410537719724,-13.635426198357344,-0.6144128778204312
1789214679307389000,4.660388916015625,-5.117007498168945,-12.046275430950523,0.6272805426999923
1789214679317421000,4.670421142578125,-5.028271522356569,-10.01733916157186,-0.7330749130800363
1789214679327453200,4.680453125,-2.339434297180176,-8.702923619189857,-0.19452859262675082
1789214679337485000,4.690485107421875,-3.485957324926555,-8.687359554833172,2.3437734954282643
1789214679347517000,4.700516845703125,-0.5389946487426758,-9.910497327965498,3.7499177656978366
1789214679357549000,4.710549072265625,1.388337103161215,-8.889521126556396,4.532523310144246
1789214679367581200,4.720581298828125,-5.386804390008747,-4.836138300433754,5.866541963140667
1789214679377613000,4.730613037109375,-4.065803331756592,-3.504961008343101,5.937619824926555
1789214679387645000,4.74064501953125,-2.8556837378904225,-4.618715446692704,5.0962084557682275
1789214679397677000,4.750677001953125,-2.8586770744875074,-5.838561192542315,5.366154692950845
1789214679407709200,4.760709228515625,-3.231275000110269,-7.729381953650713,5.269339163318277
1789214679417741000,4.770740966796875,-4.112939176940918,-9.918430459052324,4.991162565667927
1789214679427772200,4.780772216796875,-4.80097287902832,-11.793388465118406,4.452018279321491
1789214679437804000,4.790803955078125,-6.135740304565429,-12.586169658881424,3.8694793801456684
1789214679447836000,4.8008359375,-8.026111860601603,-12.178106744384765,3.1004908576413985
1789214679457868000,4.810867919921875,-8.351274373571574,-11.226859912762045,2.4950576973512772
1789214679467900200,4.820900146484375,-7.171531797790527,-9.68439666225016,2.5025389930173754
1789214679477932000,4.83093212890625,-5.784690486145019,-7.855226009368896,3.554342002105713
1789214679487964200,4.840964111328125,-4.355501148113608,-6.821677911156416,4.661210480333865
1789214679497996000,4.85099609375,-2.6934768676757805,-6.653635466656088,6.104615682983398
1789214679508028000,4.86102783203125,-3.253269974297285,-6.766012722557782,6.089950905553996
1789214679518060000,4.87106005859375,-5.083788826917111,-6.05224369071126,4.98278285985738
1789214679528092200,4.881092041015625,-6.271759425078332,-5.679045168846844,4.010286903978884
1789214679538124000,4.8911240234375,-6.2903150724664325,-6.0975815465629095,3.3951270071834325
1789214679548156000,4.901156005859375,-6.058675769585371,-7.047181780022383,2.8353324392572046
1789214679558188000,4.91118798828125,-6.70675710825175,-8.179640334320068,3.0915128936767573
1789214679568220200,4.92122021484375,-8.676737038531899,-9.352350234985352,4.244320993041992
1789214679578252000,4.931251953125,-10.054598340386152,-9.668084409874677,5.917568093761802
1789214679588284000,4.941283935546875,-8.978556085315347,-9.118018332019448,7.406313782611489
1789214679598316000,4.95131591796875,-6.9811945193737746,-8.789265685603024,7.698706244879961
1789214679608348000,4.961347900390625,-5.041889421081542,-9.004443390765786,7.342568163409829
1789214679618380000,4.971380126953125,-4.383782655224204,-8.966434270367026,7.248894146673381
1789214679628412000,4.981411865234375,-4.860080901557207,-7.7874407593876125,7.177218611255287
1789214679638443000,4.991443115234375,-5.485415863147377,-6.251708862957358,7.024288395690919
1789214679648475000,5.001474853515625,-5.697001681298017,-5.308094133648276,7.522431978607177
1789214679658507000,5.011507080078125,-6.281786021313071,-4.8674119750976566,7.972392253112793
1789214679668539100,5.0215390625,-6.255001474761962,-4.698021623119711,7.68703334274292
1789214679678571000,5.031571044921875,-5.5063645431518555,-5.107429522484541,6.682515816442669
1789214679688603000,5.041602783203125,-5.398325024193525,-5.686077551701665,5.660939603313803
1789214679698635000,5.051635009765625,-6.9431853989750145,-5.8092310531616205,4.810549685668945
1789214679708667100,5.061667236328125,-7.48277859813273,-5.112667715398967,4.752190435680746
1789214679718699000,5.071698974609375,-8.12741622608602,-4.182520662689209,4.464587545776367
1789214679728731000,5.08173095703125,-3.0557518444657332,-2.6548718272104854,4.57711619284749
1789214679738763000,5.091762939453125,-0.541686956566573,-3.388692882482707,2.5571564261287447
1789214679748795100,5.101795166015625,-1.1828852577209474,-4.015075891821086,1.1469716482967134
1789214679758827000,5.111826904296875,-3.7256770584106453,-3.2022444281980396,0.5006874221801754
1789214679768859000,5.12185888671875,-7.036408457073568,-2.703053674316406,0.7692869209289555
1789214679778891000,5.13189111328125,-6.1914049086421725,-2.747196475164592,1.669057247814536
1789214679788923100,5.141923095703125,-4.288913583484291,-3.6848259925842286,2.2960393920898436
1789214679798955000,5.151955078125,-3.4323891086071723,-5.2926826295047995,2.5412965936958787
1789214679808987000,5.16198681640625,-4.201225947681069,-5.399075258038938,1.9529209511905905
1789214679819019000,5.17201904296875,-5.865643845257162,-3.051858636419475,0.591367225536704
1789214679829051100,5.182051025390625,-7.460330619481206,-0.15442513029724392,-0.4453226778328414
1789214679839083000,5.1920830078125,-8.252364794269203,1.1968015548706052,0.7885907563358545
1789214679849115000,5.202114990234375,-7.191734627863765,0.5789467199027545,2.472463295966386
1789214679859147000,5.21214697265625,-4.924573539733887,-0.3597287994384759,3.4005145454406738
1789214679869178000,5.22217822265625,-3.791069275775551,-0.6756140732362867,3.3865988328129046
1789214679879210000,5.2322099609375,-3.8824966826289895,-0.17372867344319687,3.059788552635908
1789214679889241900,5.242241943359375,-4.719420384979248,0.169090492248535,2.883366986846924
1789214679899274000,5.25227392578125,-5.5288101837158194,0.06823416279256467,2.9920044716984036
1789214679909306000,5.26230615234375,-6.348524392589926,-0.3699041564941403,3.2258874618530267
1789214679919338000,5.272337890625,-5.696853212738037,-1.1593921539306642,3.1444848976686597
1789214679929369900,5.282369873046875,-5.387852145496011,-2.5007442185550923,2.4826380685001608
1789214679939402000,5.292402099609375,-5.301510663604736,-3.831171569061279,2.4506150367736814
1789214679949434000,5.30243408203125,-4.1572319076538085,-4.752939208221435,2.58020120162964
1789214679959466000,5.312466064453125,-5.0023850936889644,-5.687725318908691,3.0538042175292963
1789214679969497900,5.322497802734375,-6.0791767058223485,-6.21848989944458,4.26437184742391
1789214679979530000,5.332530029296875,-6.730400141906737,-6.5385647338867185,5.531503368322551
1789214679989562000,5.34256201171875,-7.415740367126464,-7.085489591106772,6.4011971213743095
1789214679999594000,5.352593994140625,-7.406163560485839,-7.595006216430663,6.988824283599854
1789214680009625900,5.3626259765625,-6.3925187248781326,-7.981369924816489,7.130081889288126
1789214680019658000,5.372657958984375,-5.467608403778076,-8.390780162268877,6.69433777166158
1789214680029690000,5.382690185546875,-5.015853354810178,-8.19670019019246,6.116287708337605
1789214680039722000,5.392721923828125,-5.325004351916909,-7.781454670715332,5.846790091705322
1789214680049753900,5.40275390625,-5.339069702148437,-7.7970169815063475,6.127211253412067
1789214680059786000,5.412785888671875,-5.380368804003298,-8.221986607140302,6.5409589355468745
1789214680069818000,5.422818115234375,-4.630984561157226,-8.515276310509442,6.888417159216106
1789214680079850000,5.43285009765625,-3.624072833196819,-9.065643417137862,6.376656554357707
1789214680089881900,5.4428818359375,-3.1561566307619207,-10.159794744873047,5.280112194006144
1789214680099913000,5.452912841796875,-4.09872418910563,-11.886164948493242,4.572176982879639
1789214680109945000,5.462945068359375,-5.388450403650104,-14.468159463280438,4.0566751456663015
1789214680119977000,5.47297705078125,-6.404189581188559,-17.490240508812665,3.6821319311946628
1789214680130008800,5.4830087890625,-6.91699852605611,-18.855237652918696,4.146009379632771
1789214680140041200,5.493041259765625,-7.1885910691410295,-18.428319815826413,4.935197517339885
1789214680150073000,5.503072998046875,-7.523928062383829,-16.71526735894084,5.388300181524455
1789214680160105000,5.51310498046875,-7.104793426513671,-14.232479652836918,5.3559781668514015
1789214680170136800,5.52313671875,-6.465541583251953,-11.925069556427003,4.7149315491274
1789214680180169200,5.533169189453125,-6.3429883857727045,-9.918131183844803,4.184316606195271
1789214680190201000,5.543201171875,-6.110002636718749,-8.321946864539385,4.069394926507771
1789214680200233000,5.55323291015625,-5.506813455963135,-7.285106154522299,4.229057665197551
1789214680210264800,5.563264892578125,-4.91948498442322,-6.798484082573652,3.8411967039912938
1789214680220297200,5.573297119140625,-3.9776664908811448,-6.752247232055664,3.0063690971374513
1789214680230329000,5.5833291015625,-3.215562467193603,-6.636278089141846,2.178723510742188
1789214680240361000,5.59336083984375,-3.1206916418880235,-6.37785394744873,1.2140098793029783
1789214680250392800,5.603392822265625,-2.687040989409387,-6.203823660710453,0.0917269743219018
1789214680260425200,5.61342529296875,-2.4173972423046823,-6.4119736591935155,-0.9870078808337448
1789214680270457000,5.62345703125,-2.507776016888022,-6.650043579643965,-1.3955214617073537
1789214680280489000,5.633489013671875,-3.229478179821372,-6.933757645416259,-1.239597909545898
1789214680290520800,5.643520751953125,-4.311957482202351,-7.17602151042521,-0.19752134470194616
1789214680300553000,5.653552978515625,-4.7652094917297365,-7.6479790972054005,1.5854107040956618
1789214680310585000,5.663585205078125,-5.663484611621499,-8.637233295661211,2.8965356804996727
1789214680320616000,5.673615966796875,-6.3706713424682615,-9.86994787543416,4.1139869324281815
1789214680330648000,5.68364794921875,-6.7128922500059005,-10.96304881733358,5.576394649450481
1789214680340680000,5.693679931640625,-6.592284633636474,-11.082160934448241,6.643909606933594
1789214680350712000,5.703712158203125,-6.296450506481527,-10.261846421593427,6.940041547991335
1789214680360744000,5.713743896484375,-5.148281172832846,-9.348608710369467,6.785466487829387
1789214680370776000,5.723776123046875,-4.146458000183106,-8.708759485736488,6.71633479167521
1789214680380808200,5.73380810546875,-4.1620214800179,-8.550592538562416,7.1291852327093475
1789214680390840000,5.743840087890625,-5.383810761150718,-9.055469229125976,7.346158881378173
1789214680400872000,5.753871826171875,-7.326855630493164,-10.392631440845133,7.717410360828041
1789214680410903800,5.76390380859375,-8.571989546856283,-11.911003621673583,7.705139492797851
1789214680420936200,5.773936279296875,-8.652196471515298,-12.348095646777749,6.960543361011148
1789214680430968000,5.783968017578125,-7.973888629150389,-11.72186169052124,7.313837158966063
1789214680441000000,5.794,-7.091027351489663,-10.852318159595132,8.32538794490397
1789214680451031800,5.80403173828125,-6.387580391693114,-10.595540031543374,8.630798294177652
1789214680461064200,5.814064208984375,-5.144690454864501,-10.41836852416992,9.05262611465454
1789214680471096000,5.824095947265625,-3.8679830041080714,-9.509320665851234,8.55523013523519
1789214680481128000,5.8341279296875,-2.313845682415366,-7.667879729461671,6.546794217571616
1789214680491159800,5.844159912109375,-1.0990887841373684,-4.5325230178833005,3.0671225487858056
1789214680501192200,5.854192138671875,-0.955584568566084,-1.2611451399654139,-0.5888245553165676
1789214680511224000,5.86422412109375,-2.173634663170576,1.9051859710693364,-2.976591798511147
1789214680521256000,5.874255859375,-3.762786599621177,3.9770688172489406,-3.2776626572757968
1789214680531287800,5.884287841796875,-4.272902944403887,3.993378147014976,-1.8701707717895513
1789214680541320200,5.8943203125,-4.204070231196284,2.089388399992882,-0.0610509732902047
1789214680551352000,5.90435205078125,-5.06897324284017,-0.9977832496091721,2.226606959423423
1789214680561384000,5.914384033203125,-4.991161688885093,-4.428375537927448,4.32886623916626
1789214680571415000,5.9244150390625,-5.395782353973389,-6.579714490398764,5.697450594109297
1789214680581447000,5.934447021484375,-5.599140442004799,-7.456292157745361,6.26308190536499
1789214680591479600,5.9444794921875,-4.9911611043632025,-7.522430809563398,6.860284997448325
1789214680601511400,5.954511474609375,-6.522254235076904,-7.190236498260497,7.3757871269226065
1789214680611543300,5.964543212890625,-6.229562497600913,-6.120925597271323,7.190385551342368
1789214680621575700,5.97457568359375,-6.3031847831726076,-3.845388018201292,6.161328919330239
1789214680631607600,5.984607666015625,-5.991041910773515,-1.2155068398624658,4.649091295734047
1789214680641639400,5.994639404296875,-4.584745957073569,0.5883759347662325,2.648734055107832
1789214680651671300,6.00467138671875,-4.933551211437583,1.5578779695257543,1.3588584952205416
1789214680661703700,6.01470361328125,-5.693710823059082,1.6811793550238017,0.9062047438472511
1789214680671735600,6.024735595703125,-6.5400611099243156,1.0663178566530345,1.1125555839538572
1789214680681767400,6.034767333984375,-7.158513326263428,0.374991835021973,1.4463970779418949
1789214680691799300,6.04479931640625,-7.751529488050937,-0.9910510187447081,3.0590427027046676
1789214680701831700,6.054831787109375,-7.953237470787763,-3.036296325628459,4.893897246441245
1789214680711863600,6.064863525390625,-7.217319735497236,-4.725106029400229,6.733093034252525
1789214680721895400,6.0748955078125,-5.890335803443193,-5.798158455005288,8.046912364307046
1789214680731927300,6.08492724609375,-4.447977187237143,-6.3235354972839355,7.564778835949301
1789214680741959700,6.094959716796875,-4.05338341064453,-6.477364122992753,6.310966523090005
1789214680751991600,6.104991455078125,-3.74767495520711,-6.233005916053056,5.807885483771562
1789214680762023400,6.1150234375,-3.9290339773982756,-6.015580724224448,5.387851560974121
1789214680772055300,6.12505517578125,-4.1533401609122755,-5.50352084415853,5.058648248180746
1789214680782087700,6.135087646484375,-3.9079356597900388,-4.9640778671264645,4.824914895629882
1789214680792119600,6.14511962890625,-3.493440081897378,-4.510378406092524,4.493618409949541
1789214680802151400,6.1551513671875,-3.648013973015546,-4.392012723430991,4.091540707342326
1789214680812183300,6.165183349609375,-4.063407961052656,-4.364030491527915,3.9217020270749923
1789214680822215700,6.175215576171875,-4.819378304290772,-4.596268052563071,3.4433103155940774
1789214680832246500,6.18524658203125,-5.017200385504961,-5.306899370905757,2.614319452069699
1789214680842278400,6.1952783203125,-5.133468219104409,-5.991340601459145,2.1857570626407856
1789214680852310500,6.205310546875,-5.457732906451821,-6.782774472266436,2.0401593819215895
1789214680862342700,6.2153427734375,-5.784989761352539,-7.926604315406083,2.4313117858886715
1789214680872374500,6.22537451171875,-5.57968813803792,-9.106647043177485,3.3792665902286765
1789214680882406400,6.235406494140625,-6.265475522503257,-9.50647579781413,4.342782536315918
1789214680892438500,6.2454384765625,-7.215973873846233,-8.960599572864174,4.840776481628418
1789214680902470700,6.255470703125,-7.415142693494261,-8.062924172431229,4.8289554031923405
1789214680912502500,6.26550244140625,-7.3246113586977115,-7.943362557983398,4.656722521264851
1789214680922534400,6.275534423828125,-7.191134908404946,-8.278401737323403,4.8503532882690426
1789214680932566500,6.28556640625,-6.969969068743288,-8.565106217083335,5.049819921819865
1789214680942598700,6.2955986328125,-6.318598333142697,-8.11424987052083,5.488408322961627
1789214680952630500,6.305630615234375,-5.510105775506794,-7.601590270996093,5.39518380355835
1789214680962662400,6.315662353515625,-4.793640928705036,-6.739677673339843,5.596745655822753
1789214680972694300,6.3256943359375,-4.027047484643758,-6.468683388409019,5.729473918096721
1789214680982726700,6.3357265625,-3.68063584741801,-7.262212185668945,5.565471250506491
1789214680992758500,6.345758544921875,-3.5003228271484375,-9.42387759410441,5.217414476422221
1789214681002790400,6.355790283203125,-4.258835256084799,-12.344054262432454,3.9796120719909664
1789214681012822300,6.365822265625,-4.925022452545165,-14.830580570542812,3.2498291861936446
1789214681022854700,6.375854736328125,-5.491549835857748,-15.417311952972412,3.75440747833252
1789214681032886500,6.385886474609375,-6.883629048156738,-14.180707964545487,4.252102440698445
1789214681042918400,6.39591845703125,-7.411999134771525,-13.034482166180016,4.296844084222615
1789214681052950300,6.4059501953125,-7.059453232574462,-12.447454431152345,3.5980361824035643
1789214681062982700,6.415982666015625,-6.839186972101032,-11.580156048804522,2.7485435058593746
1789214681073014500,6.4260146484375,-6.837241390991211,-10.726173075103759,2.306364094488323
1789214681083045400,6.43604541015625,-6.7178302909299745,-9.744849669647216,2.0444985801696776
1789214681093077500,6.446077392578125,-6.673837127685546,-9.046490972900392,1.6346411834716794
1789214681103109600,6.456109619140625,-6.888417743737994,-8.574535139685867,1.5016136459901925
1789214681113141500,6.4661416015625,-7.784746697998046,-8.152256068310141,1.5318398574277756
1789214681123173400,6.47617333984375,-8.536825294494628,-8.002169551739096,1.8966563353940842
1789214681133205500,6.48620556640625,-7.693915503472089,-8.141481576317549,2.201019221441448
1789214681143237600,6.496237548828125,-5.238063735088706,-8.5094410284847,1.9237410339355467
1789214681153269500,6.50626953125,-1.7881705339729783,-8.307432601496577,1.9114716272100807
1789214681163301400,6.51630126953125,-0.10818857204020027,-7.514651992255449,2.3551465378358962
1789214681173333500,6.52633349609375,-0.11941197684407179,-6.742820647540688,3.2616511414125564
1789214681183365600,6.53636572265625,-1.6273089408874513,-6.738779263195395,3.4792242172792553
1789214681193397500,6.5463974609375,-3.1018378883361817,-7.064091413769126,3.597437339727581
1789214681203429400,6.556429443359375,-3.3457483515083783,-7.310995213538408,4.197933628137409
1789214681213461500,6.56646142578125,-3.459022263988852,-7.3569316198050965,4.692934236852825
1789214681223493600,6.57649365234375,-3.8663369904667135,-7.343914317321778,5.300164217431844
1789214681233525500,6.586525390625,-4.671387298694253,-7.497742358508706,6.215198456683754
1789214681243557400,6.596557373046875,-6.382491544121503,-7.769034165081381,7.229441550445556
1789214681253589500,6.606589599609375,-7.973439131817221,-7.992293469890952,8.067411839239298
1789214681263621600,6.61662158203125,-8.603114168438315,-8.01937729164958,8.313415475298463
1789214681273653500,6.626653564453125,-8.181285763439536,-7.770530541118979,7.584082086834311
1789214681283685400,6.636685302734375,-6.669947134509682,-7.212981414031981,6.344634691675006
1789214681293717500,6.646717529296875,-4.920383102306723,-6.850857828411459,4.646097374615073
1789214681303749600,6.65674951171875,-3.9071874717712403,-6.415562623596191,3.4261028679445387
1789214681313781500,6.666781494140625,-3.5675101112365724,-5.945999822998046,3.3815099852412933
1789214681323812600,6.6768125,-4.292504885974526,-5.710620456805826,3.884143865314126
1789214681333844500,6.686844482421875,-5.620538619342446,-6.374263229480386,4.30926429759562
1789214681343876600,6.696876708984375,-6.495470273047685,-7.273137484309077,4.442741332410276
1789214681353908500,6.706908447265625,-7.014114792200923,-8.521414374873041,3.962554554206133
1789214681363940400,6.7169404296875,-6.337152519226073,-9.260323108673095,4.139574670410156
1789214681373972500,6.726972412109375,-6.445639781951904,-10.020931048583984,4.283675390569866
1789214681384004600,6.737004638671875,-7.193379472461342,-9.99743736027181,5.232677365875244
1789214681394036500,6.747036376953125,-8.10182878036499,-9.445873737335205,6.147711020605266
1789214681404068400,6.757068359375,-8.007257814788819,-8.421903030285238,6.719775287517905
1789214681414100500,6.7671005859375,-7.301864397099614,-7.83427499127686,6.001065292137861
1789214681424132600,6.777132568359375,-4.569334452930092,-8.186224973407388,5.370793458667397
1789214681434164500,6.78716455078125,-2.550422149437666,-8.915407847484945,5.268140893444418
1789214681444196400,6.7971962890625,-3.443160677990317,-7.432200211279094,4.892849783214927
1789214681454228500,6.807228515625,-4.636071655163168,-3.516034775543212,4.171447480010986
1789214681464260600,6.817260498046875,-5.2186126001656055,-1.4956284341007473,1.8421891244083644
1789214681474292500,6.82729248046875,-3.5537422826468945,-1.176450548498332,0.2781757208675142
1789214681484324400,6.837324462890625,-4.754885666114092,-1.0724538751900194,1.0338467888981109
1789214681494356500,6.8473564453125,-5.754164414978027,-1.1007342132568363,1.5122376235961905
1789214681504388600,6.857388671875,-5.775711645397543,-1.6635212409973148,0.6278793853759765
1789214681514420500,6.86742041015625,-5.8711792675524945,-2.7162211989253757,0.5898702649772165
1789214681524452400,6.877452392578125,-6.188413325610757,-3.509899926050008,1.5358809495121237
1789214681534484500,6.887484375,-6.32069121376872,-3.9423514318719506,2.4001859952628615
1789214681544516600,6.8975166015625,-5.053261294445395,-4.190600508770346,2.341827329796552
1789214681554548500,6.907548583984375,-4.907365215301514,-3.625120880945026,2.2855647598266597
1789214681564580400,6.917580322265625,-5.424363136291504,-2.6126719771236173,2.8459575859069823
1789214681574612500,6.927612548828125,-4.823418519592285,-1.328782213647664,3.284994315338135
1789214681584643600,6.9376435546875,-4.434061474609376,-0.40985710443705337,3.3186621916621917
1789214681594675200,6.94767529296875,-4.629637822723389,0.281617970275879,3.199102330780029
1789214681604707300,6.957707275390625,-5.045929051861166,0.7543237450748688,2.8712457564204925
1789214681614739200,6.9677392578125,-5.595249279785156,0.6798036338806153,2.855983305358887
1789214681624771300,6.977771240234375,-5.237466353717446,0.261566531372071,3.358616016387939
1789214681634803200,6.98780322265625,-5.319168485370278,-0.4649246194034813,3.7039801903873677
1789214681644835300,6.99783544921875,-6.243478794750572,-1.3661907378047706,4.405929605102539
1789214681654867200,7.0078671875,-6.0827703464001415,-2.4138053552925585,5.395035334998369
1789214681664899300,7.0178994140625,-5.367201571655273,-3.8763621253967284,6.148908998218179
1789214681674931200,7.02793115234375,-5.183595647320151,-5.701192118725181,6.476165268597006
1789214681684963300,7.03796337890625,-4.566341116333008,-7.402421451348066,6.085611122784019
1789214681694995200,7.0479951171875,-3.914371245795488,-8.992922464320063,4.942082308417558
1789214681705027300,7.05802734375,-3.7211885148197412,-10.154558013263344,3.858256559863686
1789214681715059200,7.06805908203125,-3.6400855181038376,-10.313473148456216,3.4383734437137843
1789214681725091300,7.07809130859375,-3.939509778705239,-9.626337271991371,3.413383963885903
1789214681735123200,7.088123291015625,-4.380940709796548,-8.055441123199461,3.6083611770629878
1789214681745155300,7.0981552734375,-5.008819802911579,-6.452972609058023,3.8364088851928706
1789214681755187200,7.108187255859375,-5.3882995970025656,-5.6106607839286315,3.97138141926229
1789214681765219300,7.11821923828125,-5.89257919845581,-5.784392379981279,4.046500373132527
1789214681775251200,7.128251220703125,-6.344484469549358,-6.851755069512128,4.3577460044309495
1789214681785283300,7.138283447265625,-5.842900098529458,-8.811260659790038,5.3401174576357
1789214681795315200,7.148315185546875,-5.705980814306438,-10.745924069756269,6.647051704351604
1789214681805347300,7.158347412109375,-6.3458312079831956,-11.954247135594487,7.508964302007854
1789214681815378200,7.168378173828125,-6.066159695599973,-12.331187766596674,7.838168199323118
1789214681825410000,7.17841015625,-5.488557668304443,-12.028767246788739,7.0193500625059
1789214681835442400,7.1884423828125,-5.063137084032594,-11.755080654034018,5.630413824407756
1789214681845474300,7.198474365234375,-5.320065434210002,-11.139620605248211,4.889558048193156
1789214681855506200,7.208506103515625,-6.163273623657226,-10.96155302581787,4.023156322424113
1789214681865538300,7.218538330078125,-6.24078619466573,-11.107000192150473,2.983474543762207
1789214681875570200,7.228570068359375,-6.862230870819091,-11.528679544067382,2.55685744318217
1789214681885602300,7.238602294921875,-7.472453603473305,-11.293750259730219,3.0039751877382397
1789214681895634200,7.24863427734375,-6.743418321172893,-10.473884075164795,3.704278881072998
1789214681905666300,7.258666259765625,-5.969344165967405,-9.757719088092445,3.897012114715576
1789214681915698200,7.2686982421875,-5.451896747644245,-9.182810245403648,3.800196292822063
1789214681925730300,7.278730224609375,-5.008220667974651,-8.903286617058516,3.583969955389201
1789214681935762200,7.28876220703125,-5.1732724062263955,-9.236980811530351,3.032406332452595
1789214681945794300,7.298794189453125,-5.0781017211914055,-9.867853533503412,2.5064301552370187
1789214681955826200,7.308826171875,-4.719420092718303,-10.679935055541991,2.133233679199219
1789214681965858300,7.3188583984375,-4.8711534997135395,-11.406726650568842,1.5710460786566138
1789214681975890200,7.32889013671875,-5.326799126379191,-11.589133720508217,1.5881038887023926
1789214681985922300,7.33892236328125,-6.002712474822998,-11.08410563877523,1.7866726966306568
1789214681995954200,7.3489541015625,-6.413018199810385,-10.299404875615238,2.086246594835818
1789214682005986300,7.358986328125,-6.837092045648396,-9.48014074859619,2.7908909477233883
1789214682016018200,7.36901806640625,-7.093571775275468,-8.983194851031898,3.3234514717653396
1789214682026050300,7.37905029296875,-6.2458738731935615,-8.82278275527954,3.3059435798645023
1789214682036081400,7.389081298828125,-4.557363152368366,-8.693794556316734,2.788646091406047
1789214682046113300,7.39911328125,-2.8197707129880785,-8.496572194561363,2.605639886529744
1789214682056145200,7.409145263671875,-2.366817686407268,-8.15330294701457,3.3182138633728027
1789214682066177000,7.419177001953125,-3.422361343328655,-7.71860629261434,4.454711171667277
1789214682076209400,7.42920947265625,-4.266318013055622,-7.815422406768798,5.0480245628356935
1789214682086241300,7.4392412109375,-4.15378995050639,-7.897273591503501,5.221155270385742
1789214682096273200,7.449273193359375,-4.678568734630942,-7.763347351616621,5.461771660448611
1789214682106305300,7.45930517578125,-5.335926435686647,-7.499536256188154,5.971736321800947
1789214682116337400,7.46933740234375,-4.938042093116045,-7.161955575671791,6.448633118548989
1789214682126369300,7.479369384765625,-4.361337599182129,-6.913855259594321,6.261285961858928
1789214682136401200,7.489401123046875,-4.0222587890625,-7.104644957953692,5.645528099170327
1789214682146433300,7.499433349609375,-4.58325016555786,-7.4512044792175285,5.1529205230712885
1789214682156465400,7.50946533203125,-5.218461208996176,-7.830384998100995,4.640111870464683
1789214682166497300,7.519497314453125,-4.8626241562992325,-7.390003868323563,4.827908232226967
1789214682176529200,7.529529052734375,-4.576966555243731,-6.154894502368569,5.146037777820229
1789214682186561300,7.539561279296875,-4.777628828319907,-4.939537300109864,6.178836226709186
1789214682196593400,7.549593505859375,-5.760149919128417,-4.556913362774253,7.561786376135051
1789214682206625300,7.559625244140625,-6.720224784851074,-4.933700849041343,8.7400325758785
1789214682216657200,7.5696572265625,-6.71019906539917,-6.148458916363119,8.935310233306884
1789214682226689300,7.579689208984375,-6.374113591876626,-8.022970347705483,7.231686699023843
1789214682236721200,7.58972119140625,-5.682186974003911,-9.05905994709432,4.630384841698408
1789214682246752300,7.599752197265625,-4.228310938483476,-8.459463237872718,1.894711923328042
1789214682256784100,7.6097841796875,-2.010230399864912,-6.826317261394858,0.6780073981136079
1789214682266816300,7.619816162109375,-1.8978537284851074,-5.379171995434165,1.775449584087729
1789214682276848400,7.629848388671875,-4.4394484283447255,-5.073911868286133,3.8500259071350094
1789214682286880300,7.63988037109375,-7.873031715172528,-5.1047366301387544,6.527341329082846
1789214682296912100,7.649912109375,-10.596286465996503,-5.926545765465498,7.885451636284589
1789214682306944300,7.6599443359375,-10.085573908886314,-6.687903062438965,7.637503295898437
1789214682316976400,7.669976318359375,-6.816442933112382,-6.308422683826088,4.975599962615966
1789214682327008300,7.68000830078125,-4.151694731792807,-4.801121932110192,2.0952251433223483
1789214682337040100,7.6900400390625,-3.850922563713788,-4.604198845562338,1.531091377148032
1789214682347072300,7.700072265625,-4.337396167102456,-4.2971430671691895,2.306962937164306
1789214682357104400,7.7101044921875,-5.31183565826416,-2.694972366930544,2.1405653372615574
1789214682367136300,7.72013623046875,-5.841402553448081,-1.237054070281982,1.426345639038086
1789214682377168100,7.730168212890625,-4.853944590759277,-1.0580880807071922,1.0751467675358057
1789214682387200300,7.7402001953125,-4.7297447951167815,-0.8770254111140967,1.1885709021419295
1789214682397232400,7.750232421875,-5.731868996539712,-1.5429139168888333,2.3871692773014312
1789214682407264300,7.76026416015625,-5.270985176959634,-2.29469353043884,2.9578870980411778
1789214682417296100,7.770296142578125,-4.841372693955898,-2.0545231305778024,2.201616895073652
1789214682427328300,7.780328369140625,-4.50693557216227,-1.7137994758605957,2.047491916766763
1789214682437360400,7.7903603515625,-3.5239643994987,-1.5239081876456733,1.921644938439131
1789214682447392300,7.800392333984375,-3.1893758865356445,-1.7275667199283844,1.4297878884464508
1789214682457424100,7.810424072265625,-3.914220439147949,-1.849072454181313,1.2033861939579245
1789214682467455200,7.820455322265625,-4.739619707921147,-1.6992834592521193,1.6241653821647168
1789214682477487400,7.8304873046875,-5.352386864361167,-1.8427859212577338,2.4534575667232277
1789214682487519200,7.840519287109375,-6.168810799518227,-2.4973019691467284,3.248333102416992
1789214682497551000,7.850551025390625,-6.326975993126631,-3.2535698340266945,4.182969575500488
1789214682507583200,7.860583251953125,-6.050447454944253,-4.088250141364336,5.066879485431313
1789214682517615400,7.870615478515625,-5.801749757495522,-4.88372305842936,5.969044013977051
1789214682527647200,7.880647216796875,-5.442917030113935,-5.69460806415975,6.609492373546957
1789214682537679000,7.89067919921875,-5.378723667144776,-6.708254361072182,6.709002549090981
1789214682547711200,7.900711181640625,-4.9546506980895995,-7.436988322338461,6.726957892498374
1789214682557743400,7.910743408203125,-4.765357960289716,-7.764245177239179,6.598269261004031
1789214682567775200,7.920775146484375,-4.857236033520102,-7.57854491097331,6.428431165258586
1789214682577807000,7.93080712890625,-5.027822317284345,-7.3739903066337105,6.160879129736125
1789214682587839500,7.940839599609375,-5.079448459625244,-7.317877374267578,5.789179906518757
1789214682597870800,7.950870849609375,-5.128679231262207,-7.55894238488078,5.641487007085979
1789214682607902700,7.96090283203125,-5.4949923775270575,-7.709628620910644,5.491251145172118
1789214682617934600,7.9709345703125,-5.2367181656986475,-7.747637741309404,5.480028324890136
1789214682627966700,7.980966796875,-4.484638107897341,-7.9575769612967955,5.565919724926352
1789214682637998800,7.990998779296875,-4.433311533024907,-8.195500166752934,5.659293589672446
1789214682648030700,8.00103076171875,-4.475511967633665,-8.212861051398516,5.693860752923786
1789214682658062600,8.0110625,-4.547785468944907,-7.988852389526366,5.1174561187192795
1789214682668093700,8.02109375,-4.371513540759683,-8.014291951209305,4.027795672662556
1789214682678125800,8.031125732421875,-3.970783161108195,-8.055890036010743,3.114108171844482
1789214682688157700,8.04115771484375,-4.030489441791177,-8.558224640876055,2.516006669616699
1789214682698189800,8.05118994140625,-4.523097017890215,-9.83927216666341,2.3683143547058103
1789214682708221700,8.0612216796875,-5.130923795318603,-11.639860283660889,3.1844378456115723
1789214682718253800,8.07125390625,-5.969193943841756,-13.774441870337725,4.36058941116333
1789214682728285700,8.08128564453125,-6.562507042749225,-15.770158591681717,5.125836409051716
1789214682738317800,8.09131787109375,-7.233781333215534,-17.004667653656007,5.184344419860839
1789214682748349700,8.101349609375,-7.7811565645515905,-16.941372116309402,4.849755030114949
1789214682758381800,8.1113818359375,-7.651270539966225,-14.781352136993409,4.518756358337402
1789214682768413700,8.12141357421875,-7.041944756151736,-11.828103220146893,3.905391528265178
1789214682778445800,8.13144580078125,-6.20666794422567,-9.834480840733647,3.014599165344238
1789214682788477700,8.141477783203126,-5.399523294067383,-8.95626066687703,2.324470829065144
1789214682798509800,8.151509765625,-5.547663937267661,-8.348431551361085,1.8740613494873046
1789214682808541700,8.161541748046876,-6.448184497998655,-7.978528563910722,1.5092451637819408
1789214682818573800,8.17157373046875,-7.329848674829304,-8.164078023529052,1.6192285102844233
1789214682828605700,8.181605712890626,-7.7319246238708494,-8.820537022179366,1.8836378638669846
1789214682838637800,8.191637939453125,-7.5599904326289895,-9.463680027660727,2.118568901769817
1789214682848669700,8.201669677734374,-6.460604419110716,-9.795129073554277,2.235286817224324
1789214682858700800,8.21170068359375,-5.035006383569538,-9.67197732565999,2.040458657129109
1789214682868732700,8.221732666015624,-3.5749911146417253,-9.120111504906415,1.855655339702964
1789214682878764500,8.2317646484375,-2.5643396156311034,-8.215701243260503,1.7863731291621923
1789214682888797000,8.241796875,-1.7395383127510549,-7.2526365480721,1.9777607934147117
1789214682898828800,8.251828857421875,-0.9956886154174822,-6.511182221442461,2.7361241692692038
1789214682908860700,8.261860595703125,-0.1408095696598295,-5.781250574824213,3.6106063256412746
1789214682918892800,8.271892822265626,-0.3514981467097993,-5.3862055473327635,4.586841468048096
1789214682928924700,8.281924560546875,-1.7571955499947074,-5.165791110560297,5.473594784711301
1789214682938956800,8.291956787109376,-3.868280525749922,-5.4514469580501315,6.12287147064209
1789214682948988700,8.30198876953125,-6.665757866126299,-6.287025675532221,6.618622020941973
1789214682959020800,8.312020751953124,-9.18026757518351,-7.443423323822021,7.548169646453857
1789214682969052700,8.322052734375,-9.354145301708579,-8.54251035439372,8.99307005609721
1789214682979084800,8.332084716796874,-8.215105030933023,-9.81996774673462,9.606284956304728
1789214682989116700,8.34211669921875,-7.8478925977408895,-11.101613822937011,9.003395050756634
1789214682999148800,8.352148681640625,-6.74252020328939,-11.528080993652342,8.376862696075438
1789214683009180700,8.3621806640625,-5.42675733795166,-11.291653579711912,7.756165915679931
1789214683019212800,8.372212890625,-4.6603123624503615,-10.408491273277997,7.190684826549887
1789214683029244700,8.38224462890625,-4.749048630523681,-8.8995468460083,6.5126774284362785
1789214683039276800,8.39227685546875,-6.192899531114101,-6.496066485375166,5.461471508458256
1789214683049308700,8.40230859375,-7.8160215417057275,-5.049222248187661,4.656872451129556
1789214683059340800,8.4123408203125,-7.951143713378905,-4.22007970123291,5.3281461570739745
1789214683069371600,8.42237158203125,-7.480084536743163,-5.687575681304931,5.369446720233559
1789214683079403500,8.432403564453125,-6.110749655693769,-8.047359523552656,4.919335054558515
1789214683089436000,8.442435791015624,-4.43750197045207,-9.682599841961263,4.135533870586753
1789214683099467800,8.4524677734375,-3.690962303382158,-10.071808418384194,3.5067578286319967
1789214683109499600,8.462499755859374,-3.867833366504312,-8.566453832300006,3.9023990684509275
1789214683119531500,8.472531494140625,-4.907663905987143,-6.1976899802610275,4.879532036480308
1789214683129564000,8.48256396484375,-6.030544484600425,-4.441991683086753,4.787953822979331
1789214683139595800,8.492595703125,-5.03635399878621,-4.011335536248982,4.076428186145424
1789214683149627600,8.502627685546875,-3.3773201323360205,-3.762188341467083,3.0346506042480463
1789214683159659800,8.51265966796875,-3.260005420032143,-2.4486706247076393,2.0992665276676417
1789214683169692000,8.52269189453125,-4.035875226482748,-0.6742667502805588,1.115098838695884
1789214683179723800,8.532723876953124,-5.5256660404711955,0.8393187807932492,0.6946165876090502
1789214683189755600,8.542755615234375,-6.741174049377442,1.0661679267883297,2.1830630012512215
1789214683199787800,8.552787841796874,-6.739975779503584,-0.7508809111446144,3.808725343975425
1789214683209820000,8.56281982421875,-5.777805987328291,-2.450015609575808,3.5386288846671587
1789214683219851800,8.572851806640625,-4.1687551721870895,-2.5586536789491765,2.518251818194986
1789214683229883600,8.582883544921875,-2.5873849756538867,-2.5335148537784815,1.1145008728027346
1789214683239915800,8.592915771484375,-2.4812919145882124,-2.4259254166752093,0.6365589509159326
1789214683249948000,8.602947998046876,-3.5517981628417963,-1.98628838326335,1.2422908018916843
1789214683259978800,8.612978759765625,-4.4843391249507665,-1.4983213264465332,1.7770961822509768
1789214683270010600,8.6230107421875,-5.00507740151286,-1.1091127500236038,2.235435578045249
1789214683280042800,8.633042724609375,-4.432414876446128,-1.218498422893882,2.383127892956138
1789214683290075000,8.643074951171876,-3.539229188647866,-1.6564882736206057,2.2759879531860348
1789214683300106800,8.653106689453125,-3.297414236450195,-2.2375305044978866,1.705419185528159
1789214683310138600,8.663138671875,-3.6408325370788566,-2.7651538643986,0.8180693642765284
1789214683320170800,8.673170654296875,-4.18132473090291,-3.106328770014643,0.5029331552803518
1789214683330203000,8.683202880859374,-5.0008887176513666,-3.366097896575927,1.5619173080444337
1789214683340234800,8.69323486328125,-5.7323173248291015,-3.8883331336975098,3.8443396781921377
1789214683350266600,8.7032666015625,-5.320065726470948,-5.109076120647789,5.76793078226298
1789214683360298800,8.713298828125,-5.0951604080200195,-6.722468179863691,6.957849007360637
1789214683370331000,8.723330810546875,-5.4290001484423875,-8.562262518090009,8.2779513632074
1789214683380362800,8.73336279296875,-5.735457960942387,-10.681879175347088,9.543885198754072
1789214683390394600,8.74339453125,-5.219209397014976,-12.990039797863364,10.210222325079142
1789214683400426800,8.7534267578125,-5.3197658667415375,-14.53145616967082,8.990076719500124
1789214683410459000,8.763458984375,-4.793491583362222,-14.01445941772461,7.443722599029542
1789214683420490800,8.77349072265625,-5.447557549396157,-11.952604044562577,6.301389716449379
1789214683430522600,8.783522705078125,-6.185269766888021,-9.717914316448569,5.300612545721233
1789214683440554800,8.7935546875,-5.869084925621747,-8.160784242680668,4.264970105578005
1789214683450585900,8.8035859375,-5.197661582073569,-7.1402569540828456,3.1636379264280197
1789214683460617700,8.81361767578125,-4.786307809337973,-6.711545219311118,2.677764627020061
1789214683470649600,8.823649658203125,-4.666747656194866,-6.681766751641034,2.7811642112180586
1789214683480681700,8.833681640625,-4.719270747375488,-6.919990401348471,2.952050354711711
1789214683490713900,8.8437138671875,-5.035304781994223,-7.635107925194502,3.1317645323053
1789214683500745700,8.853745849609375,-5.473893475396931,-8.60012200088501,3.3801638313293454
1789214683510777600,8.863777587890626,-5.693560308672487,-9.48088893661499,3.5567359115049237
1789214683520809700,8.873809814453125,-5.548112557817995,-9.929500719121098,3.839849965557456
1789214683530841900,8.883841796875,-5.211878323474526,-9.955839275470376,4.105457589013874
1789214683540873700,8.893873779296875,-5.0357545715883365,-10.307337422180174,4.266317720794678
1789214683550905600,8.903905517578124,-4.716576978246867,-10.73170908192098,4.235342736816405
1789214683560937700,8.913937744140625,-4.982483292388916,-10.743231761932371,4.02570016168803
1789214683570969900,8.923969970703125,-5.169380951745808,-10.708815113067626,3.721188222558796
1789214683581001700,8.934001708984376,-5.229685198321938,-11.30557104590535,3.6134491478517656
1789214683591033600,8.94403369140625,-5.836615026910602,-12.265795549231768,4.266018737848103
1789214683601070000,8.954070068359375,-6.93420597370565,-12.460920061925053,5.52940814960897
1789214683611102200,8.964102294921876,-7.631369030927122,-11.744757412940263,6.027701954650878
1789214683621133000,8.974133056640625,-7.198017069134115,-10.60436631207764,5.401019085583091
1789214683631165200,8.984165283203126,-6.591236878149211,-9.37763899002075,4.579958138275146
1789214683641197300,8.994197265625,-6.4688339027956125,-8.429535132598877,3.8218940376281734
1789214683651229200,9.004229248046874,-7.070376777648926,-7.767539542609453,3.1820439362123607
1789214683661261000,9.014260986328123,-7.3946426340401175,-7.5005866420239204,2.97793882920593
1789214683671293200,9.024293212890624,-6.921937736023962,-7.491009835383295,2.830545789502561
1789214683681325300,9.0343251953125,-5.291035446819663,-7.305007371300458,2.223165586797893
1789214683691357200,9.044357177734376,-2.874089163152873,-6.887220350646972,1.597830332946777
1789214683701389000,9.05438916015625,-0.7642001191839571,-6.1459168306648735,1.1807906235292553
1789214683711421200,9.064421142578125,0.5280705191463229,-5.505765408214927,0.9698010177060961
1789214683721453300,9.074453369140626,0.7387605575010179,-5.227440049743652,1.1326070228576657
1789214683731485200,9.084485107421877,0.44232817219197873,-5.147535322901605,1.6111489564642305
1789214683741517000,9.09451708984375,-0.9894055896252394,-5.265749029871821,2.226009870313108
1789214683751549200,9.104549072265623,-2.9915543898433445,-5.891979478996992,2.996343377685547
1789214683761581000,9.1145810546875,-4.12446127243042,-7.006930433654785,4.348917678070069
1789214683771613200,9.12461328125,-5.306448704528808,-8.645313141742347,6.368427362933755
1789214683781645000,9.13464501953125,-7.564329338616131,-10.27366720776856,8.781930520409345
1789214683791677200,9.14467724609375,-8.81006472800374,-11.746553064185381,10.726023729760943
1789214683801708300,9.154708251953124,-8.806621309551597,-13.352462074169516,11.229104769079388
1789214683811740200,9.164740234375,-8.591892517200112,-14.985608050647377,10.48241400310099
1789214683821772000,9.17477197265625,-7.455545723292231,-16.157421294733883,8.945486759406329
1789214683831804200,9.18480419921875,-6.44189825733602,-15.688604344066977,7.941566322216391
1789214683841836300,9.194836181640625,-5.901408401599526,-13.702614651489256,6.996156526184081
1789214683851868200,9.2048681640625,-6.3799482893794766,-11.101164910125732,5.593902541351318
1789214683861900000,9.214900146484377,-6.190807527270913,-8.28782832183838,4.8035167182922365
1789214683871932200,9.22493212890625,-5.214720853424072,-6.589441519165039,4.283226185497641
1789214683881964300,9.23496435546875,-3.623773265728354,-5.54856176289022,3.89461732853353
1789214683891996200,9.24499609375,-2.6608558700561526,-4.434809370367229,2.8380262083858248
1789214683902028000,9.255028076171875,-3.917661519512534,-1.6650170325130222,2.2943927939265967
1789214683912060200,9.26506005859375,-5.999721476313471,1.272517013329268,1.6187807665169238
1789214683922092300,9.27509228515625,-6.810905757251381,2.4905682769775375,1.2430395744323732
1789214683932124200,9.285124267578125,-6.621016222602129,1.347335815209151,2.425477088385821
1789214683942156000,9.295156005859376,-5.976675531768798,-2.111236659185588,4.7955859252929685
1789214683952188200,9.305188232421877,-5.629816150775551,-4.944326287952065,5.918766363635659
1789214683962220300,9.31522021484375,-5.231330042919517,-4.328116882103681,4.687845681542157
1789214683972252200,9.325252197265623,-5.313630724987387,-2.2275053695678713,3.4337340934753415
1789214683982283000,9.335282958984376,-5.143045610266923,-0.9320932183414703,3.3467946456909172
1789214683992315100,9.345315185546877,-5.059847687098384,-0.41659196565002343,3.7705689240604636
1789214684002347300,9.35534716796875,-5.5189358554333445,-0.3969900240793822,3.6632793466866014
1789214684012379100,9.365379150390623,-5.761196797832847,-0.34072511602193156,2.968061870574951
1789214684022411000,9.375410888671874,-6.4814031692504885,-0.29718057332783854,3.399317444610596
1789214684032443100,9.385443115234375,-7.243657122802734,-1.275959847259521,5.293878561291098
1789214684042475300,9.395475341796876,-7.321617145317792,-2.541444477733969,6.706607178387046
1789214684052507100,9.405507080078126,-6.171952604675292,-3.6929064231872557,6.795491915020346
1789214684062539000,9.4155390625,-4.462192759594322,-4.740967615398764,5.732616015514731
1789214684072571400,9.4255712890625,-4.095581214904785,-5.433641252246499,4.556465619006753
1789214684082603300,9.435603271484377,-4.440945973426103,-5.952285186877846,3.6673189774662256
1789214684092635100,9.44563525390625,-4.496610577502847,-6.367529537311196,2.71996330806315
1789214684102667000,9.4556669921875,-4.399793294304609,-6.44863136498332,1.887079236492514
1789214684112699400,9.465699462890624,-4.500499401634931,-6.087706633758544,1.9277806647151707
1789214684122731300,9.475731201171875,-4.7303433455318205,-5.74638209053874,2.3300065436214203
1789214684132763100,9.48576318359375,-4.3432308646053075,-5.765536288341879,2.7328309729427094
1789214684142795000,9.495794921875,-3.2911282880485055,-6.023510932701826,2.7986712263360634
1789214684152827100,9.5058271484375,-2.723555779597163,-6.283584595167636,2.449268882861733
1789214684162858200,9.515858154296875,-2.4175462953865523,-6.475418834143877,2.3965967385992406
1789214684172890000,9.52589013671875,-2.459891983684898,-6.551433567810058,2.7898434844970703
1789214684182922200,9.535922119140626,-2.8140841917842625,-6.753743608093261,3.312228359222411
1789214684192954000,9.5459541015625,-3.0813363675773147,-7.164796936577558,3.57858241713196
1789214684202986200,9.555986328125,-3.2386072426944965,-7.265206106787919,3.815759188134968
1789214684213018000,9.56601806640625,-2.906860967420041,-7.522732422858476,4.17204632268697
1789214684223050200,9.57605029296875,-3.2110745081245895,-8.183382443457841,4.577564813397824
1789214684233082000,9.58608203125,-4.302380383300782,-8.99651025967896,4.876389939062297
1789214684243114200,9.5961142578125,-4.751741815130412,-9.714771342247724,4.9577927955076095
1789214684253146000,9.60614599609375,-5.088875920923054,-10.36150623474121,4.789301145935058
1789214684263178000,9.616177978515625,-5.312584138543904,-11.379791297370195,4.418349818475544
1789214684273210000,9.626210205078126,-5.335178832189738,-12.394183444213866,4.058770364379883
1789214684283242200,9.6362421875,-5.552752492578327,-12.604425446540116,3.5625723625734445
1789214684293274000,9.646274169921876,-5.983259878595173,-12.14982523727417,3.1926679138183593
1789214684303306000,9.656305908203125,-6.749255356763302,-12.29527415717244,3.3312326271608472
1789214684313338400,9.66633837890625,-7.769784106665849,-12.873024360767007,3.9125750100284815
1789214684323369200,9.676369140625,-8.290223108020424,-13.13279640993774,4.117428305053711
1789214684333401000,9.686401123046876,-7.509862127630412,-12.333131301879883,3.995024745178222
1789214684343433200,9.69643310546875,-6.113295248523354,-11.27474511500895,3.7768534111574295
1789214684353465000,9.706465087890624,-5.927444175609946,-9.87757763966024,4.314501029205322
1789214684363497200,9.716497314453123,-6.029197161644697,-8.040625246861577,4.452167040142417
1789214684373529000,9.726529052734374,-5.753117244012653,-6.309620369178058,3.5850180031374093
1789214684383561200,9.736561279296875,-5.269040472632646,-5.398626637488604,2.632275087738037
1789214684393593000,9.746593017578125,-4.817134909278154,-5.337874354884029,2.3424276337772607
1789214684403625200,9.756625244140626,-4.48104885123372,-6.115540397101641,2.768894219970703
1789214684413657000,9.766656982421877,-5.0445831902101625,-7.66698307288289,3.522619122369587
1789214684423689200,9.776689208984376,-6.6524395348697904,-9.414301371985674,4.2260652053833
1789214684433721000,9.78672119140625,-6.9793965300410985,-10.818050563812255,5.577891317749025
1789214684443753200,9.796753173828124,-6.974907401928306,-11.565191119384766,6.727706372778117
1789214684453785000,9.80678515625,-7.06813221359253,-11.470769791412353,7.422773334503174
1789214684463817200,9.816817138671874,-6.15444442051351,-10.805030923241375,6.663811115972697
1789214684473849000,9.82684912109375,-4.0456022552490225,-9.79303414710164,5.110723303332925
1789214684483880200,9.836880126953124,-2.6879408608585593,-8.78462458179891,3.5037644920349122
1789214684493912300,9.846912353515624,-2.9294559533268214,-7.928100106921792,2.652925077056884
1789214684503944200,9.856944091796874,-3.669114628711343,-7.0853417070686815,2.8721447510868314
1789214684513976000,9.86697607421875,-4.361937318640948,-6.9997484131962056,3.357718775287271
1789214684524008200,9.87700830078125,-4.9803871968925,-7.427710206383466,4.80157084492147
1789214684534040300,9.887040283203126,-6.598268968743085,-8.194453288048505,6.274753053936362
1789214684544072200,9.897072265625,-8.413523324474692,-9.197025233238936,7.03595954426229
1789214684554104000,9.90710400390625,-8.729559112659096,-10.120589692687988,6.625803456878662
1789214684564136200,9.91713623046875,-7.089680028533936,-10.755352407836913,6.017077684783936
1789214684574168300,9.927168212890624,-5.258414449200034,-10.625167692565917,5.25437481842041
1789214684584200200,9.9372001953125,-3.4780279932320117,-9.794081025806069,4.570980174310505
1789214684594228000,9.94722802734375,-2.1713906836360692,-8.639774796837568,4.521299320818484
1789214684604259800,9.957259765625,-2.1143805101692683,-6.770055275946855,4.369269561225176
1789214684614292000,9.9672919921875,-2.683599616783857,-3.7605408665209996,4.066401005388796
1789214684624324000,9.977323974609376,-3.5236657088130707,-1.9743185440063473,4.144363073730469
1789214684634356000,9.98735595703125,-4.131194380077719,-1.8879776466369638,4.35131158746928
1789214684644387000,9.997386962890625,-3.997419531360269,-3.7687726882934562,3.8622961906433106
1789214684654419000,10.0074189453125,-3.2887358399540187,-6.442497976794838,3.048717123523354
1789214684664450800,10.017450927734377,-3.568258299255371,-8.008155640411378,3.1566046667903667
1789214684674483000,10.02748291015625,-5.629517460089922,-7.723096589770912,4.068946305957436
1789214684684515000,10.03751513671875,-7.462576937103271,-5.488408030700683,5.388899024200439
1789214684694547000,10.047546875,-6.490381425476074,-2.6168624145507806,5.540931414142251
1789214684704579000,10.0575791015625,-3.1060289102852345,-1.3859440705448387,4.46862834559977
1789214684714611000,10.06761083984375,-2.818575657984614,-0.9374807565987107,3.0678713213264936
1789214684724643000,10.07764306640625,-4.375253896331787,0.21502923660278306,0.7499836700439451
1789214684734675000,10.087675048828125,-6.665307784271241,-0.21188684692382775,-0.3122942635685204
1789214684744707000,10.09770703125,-9.266905409672855,-3.3557720251336693,1.3908803579032427
1789214684754739000,10.107739013671877,-8.334813944897055,-7.92301184387207,3.458424298095703
1789214684764771000,10.11777099609375,-6.597820640453696,-11.202469567871093,4.358793759918212
1789214684774803000,10.127802978515623,-5.169829572296142,-11.744756828418375,4.104111142840981
1789214684784835000,10.1378349609375,-5.275174445343017,-9.25149390552938,3.507954344940185
1789214684794867000,10.147866943359375,-6.225970026066899,-6.019021804589033,3.222445212444663
1789214684804899000,10.157899169921874,-4.806659692493081,-3.9619548347473144,3.244592746844887
1789214684814931000,10.167930908203124,-3.3617584060668944,-2.082805806732177,2.926312979125977
1789214684824961800,10.1779619140625,-2.526031804546714,-0.8412620238155126,1.8420383177608253
1789214684834994200,10.187994140625,-1.6741460953861473,0.12060732410848107,0.42990942012369704
1789214684845026000,10.198026123046876,-1.3880395815193651,1.116894489941001,-0.9819213713496922
1789214684855058000,10.208057861328124,-1.3383587280273437,2.0810101554870606,-1.9409493583679192
1789214684865089800,10.21808984375,-1.4390654198795554,2.611774736022948,-2.327013791546226
1789214684875122200,10.2281220703125,-2.435800914001465,2.736571328514814,-1.0917553725093603
1789214684885154000,10.238154052734377,-3.3068408209651703,1.9292782097965473,1.5469532554075118
1789214684895186000,10.24818603515625,-3.0292624814689155,-0.5776005659908057,3.460219364818931
1789214684905217800,10.2582177734375,-2.3410803108215332,-3.4460037924617537,3.484760224096477
1789214684915250200,10.268250244140624,-0.8794201972961426,-5.570259799957276,2.436100189208984
1789214684925282000,10.278281982421875,-0.02439122167378649,-7.606977224731445,1.1754033775329584
1789214684935314000,10.28831396484375,-0.8119327612176543,-9.790188694542646,0.8825617101922631
1789214684945345800,10.298345703125,-3.5512001969486473,-12.643631083247065,1.459117151044309
1789214684955378200,10.308378173828125,-7.426814718848467,-15.712399061152338,4.312257341931759
1789214684965410000,10.31841015625,-9.382875721630453,-17.643469415062665,9.5697730887264
1789214684975442000,10.32844189453125,-12.146682263073325,-18.29065205132365,13.879785282079874
1789214684985473000,10.33847314453125,-12.849829655401408,-18.825457431682942,16.26007093734741
1789214684995505200,10.348505126953125,-11.111639542388914,-20.169801079338786,15.224128929735718
1789214685005537000,10.358537109375,-9.043798372815548,-21.61694868338704,12.831275469318031
1789214685015569000,10.36856884765625,-9.034519672338664,-21.288791080254313,9.733626557104289
1789214685025601000,10.37860107421875,-9.680056002697349,-18.487426084789632,7.005134490148723
1789214685035633200,10.388633056640623,-8.828319638879597,-15.582212592315674,5.58941312097758
1789214685045665000,10.3986650390625,-7.826496466229855,-14.159161318647861,3.451841120313108
1789214685055697000,10.40869677734375,-7.43758745727539,-11.780969128528238,2.14849642252177
1789214685065729000,10.41872900390625,-6.586897095379233,-8.661173558697104,1.2089222007751466
1789214685075761200,10.42876123046875,-5.598990804401039,-6.213851133728028,0.896029679052532
1789214685085793000,10.43879296875,-4.995052851104736,-4.380492966029047,1.0497080826357004
1789214685095825000,10.448824951171876,-4.124161704961955,-3.56825946829915,0.8988733780458573
1789214685105856800,10.458856689453125,-2.9961931555598973,-3.3987188941955564,0.8539818046569829
1789214685115889200,10.46888916015625,-1.935113491821289,-3.418020976036786,1.010951358740031
1789214685125921000,10.478921142578123,-1.5266028335571293,-3.369090648651122,0.6515221267700197
1789214685135952000,10.488951904296876,-1.4859014053344726,-3.5517981628417967,0.04459200592041013
1789214685145984000,10.49898388671875,-0.979826737158001,-4.313004653167724,-0.7188590484619137
1789214685156016000,10.50901611328125,-0.28251608815938223,-5.604376589092611,-1.1215341324403885
1789214685166048000,10.519048095703123,-1.2752119515016673,-6.9415376317679875,-0.41943420333862447
1789214685176080000,10.529079833984374,-3.5869627074643966,-7.9628154464721685,1.5245079071044922
1789214685186112000,10.539112060546875,-5.494094259643553,-8.714445130157472,4.144961624145508
1789214685196144000,10.54914404296875,-6.997653194482625,-9.689034843444825,6.035333472442626
1789214685206176000,10.559176025390624,-7.636006919860839,-10.994172854393721,6.478559470257163
1789214685216208000,10.569207763671876,-7.905505705536902,-11.469424806544184,7.4501576005131005
1789214685226240000,10.579239990234376,-7.1558201416566956,-10.587459016418457,8.888623300933837
1789214685236272000,10.589272216796877,-4.892700145611166,-9.07252791595459,8.66641175161153
1789214685246304000,10.599303955078126,-2.539649703271687,-7.813329233881831,7.052869762530922
1789214685256336000,10.6093359375,-1.6285060417175297,-7.254879943084716,5.7237879814147945
1789214685266368000,10.619367919921874,-2.4477725068241356,-7.217470542144775,5.17805964050293
1789214685276400000,10.629400146484375,-5.106982070977986,-7.685237691497803,5.129427127020061
1789214685286431000,10.639430908203124,-8.787319812232255,-8.748563672858474,5.510255413110555
1789214685296463000,10.649463134765623,-9.54269043601155,-9.124902246314287,4.4375037240177395
1789214685306495000,10.659494873046874,-6.439803330883384,-8.520963123974203,2.379536882726847
1789214685316526800,10.66952685546875,-3.6863220763608813,-8.142979121398925,1.1505635353088377
1789214685326559000,10.67955908203125,-2.5808009210884566,-8.143727893939614,0.9288011910587555
1789214685336591000,10.689591064453126,-2.5662863657847064,-7.893684627100825,1.617434028083086
1789214685346623000,10.699623046875,-2.972252892524004,-7.556850965559482,2.9107512528568513
1789214685356654800,10.70965478515625,-4.028993065753578,-7.847893766784668,4.202422463989258
1789214685366687000,10.71968701171875,-4.511424992536008,-8.107515593829751,4.734983280292153
1789214685376719000,10.729718994140624,-4.196886749432981,-8.488943014857174,5.021988788825274
1789214685386751000,10.7397509765625,-3.848829975348711,-8.914660828509927,6.388778661566972
1789214685396783000,10.749783203125,-4.796332944267988,-8.944137682884932,8.138039911431074
1789214685406815000,10.75981494140625,-5.258565255847572,-8.582914260974526,8.575880709075928
1789214685416847000,10.76984716796875,-4.849007718878984,-8.36983089774251,7.541437123328446
1789214685426879000,10.77987890625,-3.818601425823569,-7.926601977318525,6.808360748943686
1789214685436911000,10.7899111328125,-3.37118557510376,-7.5912658608585595,6.986579719543457
1789214685446942200,10.799942138671875,-3.8872850859493018,-7.574805139923095,7.283460140880942
1789214685456974000,10.80997412109375,-5.155913275146483,-7.143100068554282,7.148636659893393
1789214685467006000,10.820005859375,-7.798812632751464,-5.269339163318277,6.193800863867998
1789214685477037800,10.830037841796877,-7.4607818703800435,-3.187281544604897,3.7144548226505507
1789214685487070200,10.8400703125,-4.909758832439779,-2.3228233541190617,0.4771931493461139
1789214685497102000,10.85010205078125,-4.4074253966182475,-2.1214117239803083,-1.5379758759647606
1789214685507134000,10.860134033203124,-5.0945630266487605,-1.728464545550942,-2.2909505445182328
1789214685517165800,10.870165771484375,-4.1279023527950045,-1.2696744833797213,-2.0632038651615376
1789214685527198000,10.880197998046874,-4.714182484325766,-1.1972498831599956,-0.5470756638675933
1789214685537230000,10.89022998046875,-5.195118911853433,-1.0782891572147606,0.7312795540958641
1789214685547262000,10.900261962890625,-4.780621580395103,-1.9274808049857621,1.1736071417659515
1789214685557293800,10.9102939453125,-4.817283962360024,-2.678064779010415,2.356194293323159
1789214685567326000,10.920325927734376,-4.668393377575278,-3.073856240954995,3.224690361022949
1789214685577358000,10.930358154296876,-4.746655597907305,-3.48550987342,3.3984207880318165
1789214685587390000,10.940389892578125,-4.682161206164956,-3.3788170928955075,3.621080373382568
1789214685597422000,10.950422119140624,-4.765058685082197,-3.2629964185416696,3.9009015233695505
1789214685607453200,10.960453125,-3.5335417906612157,-3.497479128155112,3.7484219741821283
1789214685617485000,10.970485107421876,-2.968211508178711,-4.0919893278926605,2.801065720257163
1789214685627517000,10.980516845703123,-3.882044262686372,-4.638914769634605,1.807771306499839
1789214685637548800,10.990548828125,-5.146635743713379,-4.597615960040688,2.1769278594970705
1789214685647581200,11.000581298828124,-6.15474311119914,-4.497507234081626,4.283675098308921
1789214685657613000,11.010613037109374,-5.601385006061196,-5.017349438586831,6.264877848871052
1789214685667645000,11.02064501953125,-5.0852837416499845,-5.806237716564536,6.650792352184652
1789214685677677000,11.030677001953125,-4.760121813201905,-6.662315616717934,6.162226160430908
1789214685687709200,11.040709228515626,-4.832248014996946,-7.577948698645829,5.612458188739419
1789214685697741000,11.050740966796877,-5.589263775634765,-8.402599779400228,5.666626124517619
1789214685707773000,11.06077294921875,-6.307523689159751,-9.041402709850669,6.369324604034424
1789214685717805000,11.07080517578125,-6.651988283970952,-9.680803021672368,7.069477782982588
1789214685727837200,11.080837158203124,-6.445940226203202,-9.613469022589921,7.626281352399289
1789214685737869000,11.090869140625,-5.806388815473019,-8.949228284022212,8.138640507672728
1789214685747901000,11.10090087890625,-5.764939491492509,-7.723994999915361,8.128315220752357
1789214685757932000,11.11093212890625,-4.880430738885701,-6.573132189399004,7.538892115020752
1789214685767964200,11.120964111328124,-4.314201753997803,-5.618592161449788,6.055384911346435
1789214685777996000,11.13099609375,-3.943251011060178,-5.355231732398271,4.473865369470417
1789214685788028000,11.14102783203125,-3.7368998786926273,-6.126462773132323,3.3432033432006834
1789214685798060000,11.15106005859375,-3.9160155058711763,-7.414991594585777,2.5020903724670407
1789214685808092200,11.161092041015625,-4.361187377056479,-8.79689486530721,1.959504128973186
1789214685818124000,11.1711240234375,-4.7578784181892875,-10.765229658728838,1.8867805458068851
1789214685828156000,11.181156005859377,-5.814169094085694,-13.95625038986206,2.392406301172077
1789214685838188000,11.19118798828125,-6.579715367181598,-16.12210506668091,4.0249522659301755
1789214685848220200,11.20122021484375,-6.251111189325153,-15.504849951171874,5.2268414993286125
1789214685858252000,11.211251953125,-5.515193161773682,-13.485342019873858,5.319467468316853
1789214685868284000,11.221283935546875,-4.991761992865801,-11.706300548774003,5.0157031326845285
1789214685878316000,11.23131591796875,-5.077801569201052,-10.704923366326092,4.806509178106487
1789214685888348200,11.24134814453125,-5.476438191443682,-10.488100232043863,4.389469468688965
1789214685898379000,11.25137890625,-5.824194521276652,-10.755350069749355,4.248809536632895
1789214685908411100,11.2614111328125,-6.171504276385903,-11.592426332312822,4.1885061668396
1789214685918443000,11.271443115234376,-6.814944511248171,-12.39283553673625,4.000710974121094
1789214685928475100,11.28147509765625,-7.848791592407226,-11.844863216289877,3.3547254386901857
1789214685938507000,11.291507080078125,-7.564181162317096,-10.37497361907959,2.9064111778259276
1789214685948539100,11.3015390625,-6.171055363574624,-8.721479266577958,3.0496146568849674
1789214685958571000,11.311571044921877,-4.864418053978681,-7.415439922875166,2.801065720257163
1789214685968603100,11.32160302734375,-3.524862225121259,-6.41032355389893,2.436548225237428
1789214685978635000,11.331635009765623,-2.3252184325620533,-5.7788534505546085,1.87690387943685
1789214685988667100,11.341667236328124,-1.0027224595770234,-5.818061425349116,1.8999492394596342
1789214685998699000,11.351698974609375,-0.9024632192313673,-6.587345423668623,2.985868160900473
1789214686008731100,11.361731201171876,-2.860323672650754,-7.640497217017412,4.604947910363972
1789214686018763000,11.371762939453124,-4.955847506658732,-9.1498899725765,5.844994148199261
1789214686028795000,11.381794921875,-5.970389583367108,-10.684273961529136,5.962160391943156
1789214686038827000,11.391826904296876,-7.995735719299317,-11.735779156714678,5.889886598370969
1789214686048857900,11.40185791015625,-8.824876512688398,-11.509524177220463,6.763918380627036
1789214686058890000,11.411889892578126,-6.2151990412056435,-9.926210445404053,7.476194251306355
1789214686068922000,11.421922119140625,-3.5145378149837256,-8.782230964660645,6.7191773216247555
1789214686078954000,11.4319541015625,-1.7142483886718751,-8.55582810112834,5.992386603380739
1789214686088985900,11.44198583984375,-1.837997517937422,-8.490137777599692,6.6518398154109715
1789214686099018000,11.45201806640625,-4.159326834106445,-7.6632409637451175,8.34439133605957
1789214686109050000,11.462050048828123,-6.91999157039225,-6.174196584209799,8.218845386505127
1789214686119082000,11.47208203125,-7.0857900353580705,-5.659146290156245,5.977125613623857
1789214686129114000,11.482114013671875,-5.248538951873779,-6.823325093841553,4.567238941955566
1789214686139146000,11.49214599609375,-3.2603035261958833,-7.662342553600668,4.4629403630912305
1789214686149178000,11.50217822265625,-1.2208932090759275,-8.058134600067138,3.9607580261781807
1789214686159210000,11.5122099609375,-0.4324515058219438,-8.31895177437663,2.8036092672601343
1789214686169242000,11.5222421875,-0.9397229825675488,-7.899518155559898,2.3593358062192795
1789214686179274000,11.53227392578125,-2.7145751852840188,-7.626878441509605,2.3392840750545263
1789214686189306000,11.54230615234375,-4.631133614239096,-7.379377844890952,3.3554730421870946
1789214686199337000,11.5523369140625,-7.4770917846679685,-6.350770125690103,5.118205183520913
1789214686209368800,11.562368896484376,-10.103980503192544,-4.61587174769938,7.752275922504067
1789214686219401200,11.572401123046877,-9.122356653484701,-3.39961642755717,10.15754959629476
1789214686229433000,11.58243310546875,-7.267898414611816,-4.36971701273173,8.205677277374267
1789214686239465000,11.59246484375,-4.9854777980297795,-5.772421079419553,3.33841610892415
1789214686249496800,11.602496826171874,-3.720142220637203,-5.321862254498899,-1.3248901746451853
1789214686259529200,11.612529296875,-4.649089542168378,-3.5181291174739595,-3.374178911700845
1789214686269561000,11.62256103515625,-3.4829642805904153,-3.2779604711785915,-2.4027321726143356
1789214686279593000,11.632593017578126,-2.880523287853598,-2.65606746673584,0.17971476211547888
1789214686289624800,11.642624755859377,-3.9522295595467094,-1.5691013743296263,2.01068165076375
1789214686299657200,11.6526572265625,-3.1295208450317378,-1.4764742362976078,2.3205799591064467
1789214686309689000,11.662689208984377,-2.0786147847831256,-1.730558010698855,1.3620003003776073
1789214686319721000,11.672720947265624,-1.532439869147539,-1.7607868524849417,0.03561491873860412
1789214686329752800,11.6827529296875,-1.5705962890625011,-1.183034895324707,-0.7656950339168302
1789214686339785200,11.69278515625,-1.8110645028263335,-0.8873515748172993,-0.9243108939021827
1789214686349816000,11.702816162109375,-2.1383219422489397,-1.0872679979622362,-0.9864110839843754
1789214686359848000,11.712847900390624,-2.7817624693721528,-1.4368196867793799,-1.6382333627447494
1789214686369880000,11.722880126953124,-3.7777497754752636,-1.3817530485957858,-1.561618325097859
1789214686379912200,11.732912109375,-5.471351097437739,-0.5059259073555467,0.7451964357674123
1789214686389944000,11.742944091796875,-4.950013685938716,-0.6088771632641556,3.7017362108528613
1789214686399976000,11.752975830078125,-3.4295436560481782,-2.1697452545166014,5.217563967895507
1789214686410008000,11.763008056640626,-4.169652413287759,-3.9387621752083297,5.848286760003864
1789214686420040200,11.773040283203123,-5.557988931927085,-5.331736875042319,6.790852857042848
1789214686430072000,11.783072021484376,-5.2190609284549945,-7.236175827136635,7.628076711383461
1789214686440104000,11.79310400390625,-4.452617706519366,-10.052205892291664,7.435792390552162
1789214686450136000,11.803135986328124,-5.0008887176513666,-13.003209660559893,7.250241761890054
1789214686460168200,11.813168212890623,-6.189461373358965,-14.969447773963212,8.426991585595905
1789214686470200000,11.823199951171874,-6.6244573029667135,-14.852878911590576,9.932644570104777
1789214686480232000,11.83323193359375,-7.001842755126953,-12.97926589039266,10.31601640319824
1789214686490264000,11.84326416015625,-6.870610576629638,-10.95616607208252,9.264362739452718
1789214686500295000,11.853294921875,-5.518186206109822,-9.348161551123857,7.828291240692138
1789214686510327000,11.8633271484375,-4.077772586491704,-8.430282151573895,6.550834140612185
1789214686520359000,11.87335888671875,-3.7032317101076244,-8.541165369525551,5.6395420104980465
1789214686530391000,11.88339111328125,-4.134188008935749,-9.835529473003744,4.840776481628418
1789214686540423200,11.893423095703126,-5.212328405329584,-11.07527935824096,4.42134257055074
1789214686550455000,11.903455078125,-5.430948067639768,-12.21237492468953,4.286967710113526
1789214686560487000,11.91348681640625,-5.446808192333578,-13.59816760406494,3.8667853187561034
1789214686570519000,11.92351904296875,-5.453841451971233,-14.560636671447753,4.097227228546142
1789214686580551200,11.93355126953125,-5.721990868864953,-13.340190621617435,4.709544010870158
1789214686590583000,11.9435830078125,-5.630264186803996,-11.844115612792969,5.168033921051025
1789214686600615200,11.953615234375,-5.507860626928508,-10.688163954705,4.816535189819335
1789214686610647600,11.9636474609375,-5.188984062360229,-9.696218617469071,4.056526677106321
1789214686620679400,11.973679443359377,-5.335927604730427,-9.114726889258623,3.121590344293416
1789214686630711300,11.983711181640626,-5.850531324060261,-9.452758820673823,2.4679732910707592
1789214686640743200,11.9937431640625,-6.7178299986690275,-10.866831838116049,2.5463828109189866
1789214686650774500,12.0037744140625,-7.292888186700642,-12.095805477795004,2.742109088897705
1789214686660806400,12.013806396484377,-6.86612174077779,-11.7101887883842,2.4250267142698165
1789214686670838300,12.02383837890625,-6.366929817852378,-10.327836604851484,1.9144632102414962
1789214686680870400,12.033870361328123,-6.1867664351865646,-8.980350567516684,1.5617673781797285
1789214686690902500,12.043902587890624,-5.766884195819497,-8.064868292236328,1.6790835517883296
1789214686700934400,12.053934326171875,-4.2087081201300025,-7.428310510364175,2.1790233704715964
1789214686710966300,12.06396630859375,-2.995296206720173,-7.031172894507646,2.9498066674381493
1789214686720998400,12.073998291015624,-2.358139289911091,-6.939744318610429,4.05353363277018
1789214686731030500,12.084030517578125,-2.7379198205143216,-7.275531101447344,5.124040757806599
1789214686741062400,12.0940625,-3.0840307212278244,-7.628075542339682,5.757156874792277
1789214686751094300,12.10409423828125,-3.604619944708049,-7.6656339963614935,6.132747260229289
1789214686761126400,12.11412646484375,-4.115184325519204,-7.46931179831624,6.413169006457924
1789214686771158500,12.124158447265623,-3.816655844713747,-7.029075629967451,7.026382737621665
1789214686781190400,12.1341904296875,-2.8772324296146627,-6.567893704223633,6.640617579650878
1789214686791221500,12.144221435546877,-2.337040680041909,-6.593781594195962,5.709273718371987
1789214686801253400,12.15425341796875,-3.211673058539628,-6.69059712382853,5.442469870868325
1789214686811285200,12.16428515625,-4.223821225848793,-6.613982670703529,5.846641038623451
1789214686821317400,12.1743173828125,-5.259611550030112,-6.913855259594321,5.6003369583129885
1789214686831349200,12.184349365234375,-5.86055850481689,-7.588723190638422,4.681114327460527
1789214686841381400,12.19438134765625,-5.547215608978271,-7.936928725543618,4.381389914868772
1789214686851413500,12.20441357421875,-4.82715887516439,-7.60368519744873,5.090222367095947
1789214686861445400,12.2144453125,-4.4551597922176125,-7.780107932281493,5.717354148975015
1789214686871477200,12.224477294921876,-4.329165514373779,-8.372523790088295,5.9310366471439595
1789214686881509400,12.23450927734375,-4.116829754638672,-8.918101324352623,5.962758650097251
1789214686891541500,12.24454150390625,-4.081665502277016,-8.792855234527586,5.54138032695353
1789214686901573400,12.254573486328123,-4.478504427447914,-8.230517704120278,4.318092916217446
1789214686911605200,12.264605224609374,-5.11356641780436,-7.0826470611572265,4.142417784881591
1789214686921637400,12.274637451171875,-6.131849726867676,-6.015880583953857,5.273378209576011
1789214686931669500,12.28466943359375,-6.003012334552407,-5.537938077545166,6.935852571868896
1789214686941700400,12.294700439453123,-6.199636145892739,-6.444143405914305,7.387758719745278
1789214686951732500,12.304732421875,-6.241833365631103,-7.4942995245784525,7.3075517950862645
1789214686961764400,12.314764404296875,-6.019471886444092,-7.63002141571045,6.588094196209312
1789214686971796200,12.324796142578125,-4.976648010364174,-6.652589172473549,4.744410449329019
1789214686981828400,12.334828369140626,-4.214393472290039,-4.456805805858969,1.9714748450130228
1789214686991860500,12.344860595703125,-3.6578906393855806,-2.7679963943481445,-0.06643909606933729
1789214687001892400,12.354892333984376,-3.6065643567740917,-2.151339244732261,-0.542436898151041
1789214687011924200,12.36492431640625,-3.7532109620243306,-1.3304288118109104,0.20021569835245678
1789214687021956400,12.374956298828126,-4.033033281055092,-0.6455372071415191,0.947505891528726
1789214687031988500,12.384988525390623,-3.9499844109684226,-0.704195147815347,0.9868605813175435
1789214687042020400,12.395020263671874,-3.8616993937939403,-0.3875625627815724,0.8007119867622849
1789214687052052200,12.40505224609375,-3.5740947503238907,-0.12479834605753393,0.7568675843387842
1789214687062084400,12.41508447265625,-3.3393121809810395,0.14784370608031772,0.43664135872721666
1789214687072116500,12.425116455078124,-3.120841864013673,0.6495762533992533,0.7306810036808251
1789214687082147300,12.435147216796874,-3.0711621795654294,0.32501229084432115,1.4411597618103027
1789214687092179200,12.44517919921875,-3.2589573722839353,-0.5461766692012553,1.6105489447444667
1789214687102211600,12.455211669921876,-3.617936814659834,-1.1180910062491893,1.89620713032186
1789214687112243500,12.465243408203126,-4.185512830242515,-1.5650591132014986,2.728940395244956
1789214687122275300,12.475275390625,-4.465186096191407,-2.4763527046203615,3.7398926307678217
1789214687132307200,12.48530712890625,-4.096927368816733,-4.010437418365479,4.547935691070556
1789214687142339600,12.495339599609377,-4.13029830802083,-5.683087137714027,5.563227417102456
1789214687152371500,12.505371337890624,-3.784185361480713,-7.364564306640625,6.841281606292724
1789214687162403300,12.5154033203125,-3.138200995093584,-9.492561254230141,6.992865083423256
1789214687172435200,12.525435302734374,-3.394080128479004,-11.86820726699829,6.356755045318604
1789214687182467600,12.535467529296875,-4.4750621780395505,-13.928266988915205,6.268617912182211
1789214687192499500,12.54549951171875,-5.5036698972404,-15.168164173668622,6.550085660332441
1789214687202531300,12.55553125,-5.888389930072426,-14.927100332099197,6.592883476312458
1789214687212563200,12.565563232421876,-6.125565532031656,-13.549236692157386,6.164770584216713
1789214687222594300,12.57559423828125,-6.06466361182332,-11.973553309088945,5.703886764636636
1789214687232626400,12.58562646484375,-6.270114872741699,-10.501267172130941,5.62128593057841
1789214687242658300,12.595658203125,-6.206967803955077,-9.29608591144979,5.590610221807658
1789214687252690400,12.6056904296875,-5.516390847125649,-8.600570913696288,5.256469744873046
1789214687262722300,12.615722412109376,-4.599111459295451,-8.530839790344238,5.237166493988037
1789214687272754400,12.62575439453125,-4.376002668872475,-9.018060997229814,5.314679064996541
1789214687282786300,12.635786376953124,-5.502923170526325,-9.636212184795736,5.338770134679972
1789214687292818400,12.645818359375,-6.456264928601682,-10.230125587683915,5.420622488458454
1789214687302850600,12.6558505859375,-6.774991855566203,-10.862043434795737,4.93235440286845
1789214687312882400,12.66588232421875,-6.919990109087527,-11.84800502144694,3.9383118010923264
1789214687322914300,12.675914306640625,-6.956502853448688,-12.560132715827226,3.136404467065632
1789214687332946200,12.6859462890625,-7.034763612475991,-12.052711016955971,3.4050036735534666
1789214687342978600,12.695978515625,-6.739827603204548,-10.589254667663575,4.3339539176940916
1789214687353009400,12.706009521484376,-5.930736495153605,-8.895356408581137,4.951508016149699
1789214687363041300,12.716041259765625,-4.754434999737143,-8.041225550842285,5.413140316009521
1789214687373073400,12.726073486328126,-4.718073938806354,-7.869740856933594,5.416731618499755
1789214687383105300,12.736105224609377,-5.52147911017537,-8.437317457038164,5.2476417107731095
1789214687393137400,12.746137451171874,-6.359298884582519,-9.733776486968994,5.156960738372803
1789214687403169300,12.756169189453123,-6.197390997314453,-10.635791962432862,5.147833136804402
1789214687413201400,12.766201416015624,-6.079027360479534,-10.80308504987061,5.143493061773478
1789214687423233300,12.7762333984375,-6.472125345556438,-10.168023644036055,4.598063703808188
1789214687433265400,12.786265380859374,-5.908142093768716,-9.11622326529622,4.236091509357094
1789214687443297300,12.79629736328125,-5.101145619909465,-7.992143832287192,3.704428226415813
1789214687453329400,12.806329345703125,-3.9613554075494406,-7.148335631120204,3.1548087232843036
1789214687463361300,12.816361328125,-2.8648125085026033,-6.506244180518388,2.932598050744831
1789214687473392400,12.826392333984376,-2.3201310462951668,-5.899613334876299,3.0617355950504535
1789214687483424500,12.836424560546876,-2.510469786016643,-5.527911189049481,3.3174650908321137
1789214687493456400,12.846456298828125,-2.8148326720640062,-5.604225782445072,3.3939299063533546
1789214687503488300,12.85648828125,-2.9857194000795486,-5.96904518302083,3.563769463403523
