time,seconds_elapsed,z,y,x
1789323338900019200,0.133019287109375,8.72183895111084,4.371686935424805,-0.18903298676013947
1789323338918869800,0.151869873046875,8.63061237335205,4.357329845428467,-0.13878370821475983
1789323338937720300,0.17072021484375,8.546863555908203,4.316651821136475,-0.02871387079358101
1789323338956571100,0.189571044921875,8.321938514709473,4.295116424560547,0.11964113265275955
1789323338975421700,0.208421630859375,8.219046592712402,4.46979284286499,0.07178468257188797
1789323339022548200,0.25554833984375,8.597112655639648,4.886443138122559,0.01196411345154047
1789323339041398800,0.274398681640625,8.640183448791504,4.666004180908203,0.275174617767334
1789323339060249300,0.293249267578125,8.312366485595703,4.759324073791504,0.41904306411743164
1789323339079100200,0.31210009765625,8.233403205871582,4.960620403289795,0.4142574071884155
1789323339097950700,0.33095068359375,8.455936431884766,5.281258583068848,0.26560330390930176
1789323339116801300,0.34980126953125,8.465507507324219,5.137689113616943,0.33768710494041443
1789323339135651800,0.36865185546875,8.10389232635498,4.872086048126221,0.4549354016780853
1789323339154502700,0.387502685546875,8.039285659790039,4.766502857208252,0.275174617767334
1789323339173353200,0.406353271484375,8.424829483032227,4.867300510406494,-0.064606212079525
1789323339192203800,0.425203857421875,8.781659126281738,4.819443702697754,0.05742774158716202
1789323339211054300,0.444054443359375,8.556434631347656,4.814658164978027,0.16749759018421173
1789323339229905200,0.4629052734375,8.487042427062988,4.728217601776123,0.035892341285943985
1789323339248755700,0.481755615234375,8.599505424499512,4.749752998352051,-0.30658039450645447
1789323339267606300,0.500606201171875,8.475078582763672,4.721039295196533,-0.4381856322288513
1789323339286457000,0.51945703125,8.113463401794434,4.661218643188477,-0.4573282301425934
1789323339305307600,0.5383076171875,7.984251022338867,4.711467742919922,-0.5745765566825867
1789323339324158200,0.557158203125,7.945965766906738,4.72582483291626,-0.6343970894813538
1789323339343009000,0.576009033203125,7.960322856903076,4.60139799118042,-0.4621138870716095
1789323339361859600,0.594859619140625,7.991429328918457,4.481756687164307,-0.3640081584453583
1789323339380710100,0.613710205078125,8.290831565856934,4.409972190856934,-0.5195416212081909
1789323339399561000,0.63256103515625,8.594719886779785,4.529613494873047,-0.6296114325523376
1789323339418411500,0.65141162109375,8.700303077697754,4.634897232055664,-0.5985047817230225
1789323339437262000,0.670261962890625,8.503792762756348,4.553541660308838,-0.49322056770324707
1789323339456113000,0.68911279296875,8.044071197509766,4.543970108032227,-0.36640095710754395
1789323339474963500,0.70796337890625,7.864609718322754,4.603790760040283,-0.3400799036026001
1789323339493814300,0.726814208984375,8.09671401977539,4.60139799118042,-0.2392822653055191
1789323339512664800,0.745664794921875,8.219046592712402,4.656432628631592,-0.30179476737976074
1789323339531515600,0.764515625,7.883752346038818,4.8792643547058105,-0.6559324860572815
1789323339550366200,0.7833662109375,8.336295127868652,5.022833824157715,-0.9984052777290344
1789323339569216800,0.802216796875,9.09990406036377,4.958227634429932,-1.0055837631225586
1789323339588067600,0.821067626953125,9.533304214477539,4.864907741546631,-0.8162516355514526
1789323339616343600,0.849343505859375,9.303593635559082,4.697110652923584,-0.48843491077423096
1789323339635194000,0.868194091796875,8.609076499938965,4.7401814460754395,-0.1746760457754135
1789323339654045000,0.887044921875,7.895716667175293,4.7931227684021,0.2153540402650833
1789323339672895500,0.9058955078125,7.778468132019043,4.563112735748291,0.3329014480113983
1789323339691746300,0.924746337890625,7.996214866638184,3.9406797885894775,0.6272186636924744
1789323339710596900,0.943596923828125,8.240582466125488,3.4139597415924072,0.9505487680435181
1789323339729447700,0.96244775390625,8.152048110961914,3.3134610652923584,1.067797064781189
1789323339748298200,0.98129833984375,7.357032299041748,3.1651060581207275,0.7779664397239685
1789323339767149000,1.000149169921875,6.660421848297119,3.10528564453125,0.8114659786224365
1789323339785999600,1.01899951171875,5.755336761474609,2.286342144012451,1.5538392066955566
1789323339804850400,1.037850341796875,5.6859450340271,1.5227324962615967,1.9776679277420044
1789323339823701000,1.056700927734375,6.605386734008789,1.5442678928375244,1.7189439535140991
1789323339842551800,1.0755517578125,7.175177574157715,1.6710875034332275,1.201795220375061
1789323339861402400,1.09440234375,6.882954120635986,1.3597214221954346,0.9960124492645264
1789323339880253200,1.113253173828125,6.911668300628662,0.8018946647644043,0.9314061999320984
1789323339899103700,1.132103759765625,7.223034381866455,0.6296114325523376,0.4692923426628113
1789323339917954600,1.15095458984375,7.560422420501709,0.5171487927436829,0.12442677468061447
1789323339936805400,1.169805419921875,7.191927433013916,-0.02871387079358101,-0.01196411345154047
1789323339955656000,1.188656005859375,8.041678428649902,-0.8548358678817749,0.12681959569454193
1789323339974506800,1.2075068359375,9.432806015014648,-2.0303099155426025,0.275174617767334
1789323339993357300,1.226357421875,9.918848037719727,-2.944667339324951,0.4262215197086334
1789323340012208000,1.2452080078125,9.20279598236084,-3.5359935760498047,0.4860421121120453
1789323340031058700,1.26405859375,9.116654396057129,-3.7923247814178467,0.15074782073497772
1789323340049909500,1.282909423828125,9.38016414642334,-4.529613494873047,-0.09810572862625122
1789323340068760300,1.30176025390625,10.196415901184082,-5.360520839691162,-0.5841478109359741
1789323340087611000,1.32061083984375,10.96750259399414,-6.234200477600098,-1.8840487003326416
1789323340106461700,1.339461669921875,11.233105659484863,-6.500102519989014,-4.278367042541504
1789323340125312500,1.3583125,10.895419120788574,-6.435197353363037,-5.865406513214111
1789323340144163000,1.3771630859375,10.050453186035156,-6.384948253631592,-6.916453838348389
1789323340163014000,1.396013916015625,9.22433090209961,-6.708278179168701,-7.112964630126953
1789323340181864700,1.41486474609375,9.614660263061523,-6.15762996673584,-8.219046592712402
1789323340200715300,1.43371533203125,9.755837440490723,-6.229414463043213,-8.855836868286133
1789323340219566000,1.452566162109375,9.260522842407227,-5.7720866203308105,-10.656136512756348
1789323340238417000,1.4714169921875,8.410472869873047,-5.458626747131348,-12.727124214172363
1789323340257267500,1.490267333984375,8.16401195526123,-5.140082359313965,-13.533804893493652
1789323340276118300,1.5091181640625,7.050751209259033,-4.194318771362305,-12.82044506072998
1789323340294969000,1.527968994140625,6.317949295043945,-3.0810582637786865,-11.309676170349121
1789323340313819600,1.546819580078125,8.290831565856934,-0.7540382146835327,-9.61944580078125
1789323340332670500,1.56567041015625,10.706385612487793,0.30658039450645447,-6.7896342277526855
1789323340351521300,1.584521240234375,8.40329360961914,0.5458626747131348,-6.171987056732178
1789323340370372000,1.6033720703125,7.675576686859131,0.031106693670153618,-7.412067413330078
1789323340389222700,1.62222265625,6.591030120849609,-0.5865406394004822,-8.908478736877441
1789323340408073500,1.641073486328125,6.09541654586792,-1.378864049911499,-9.339486122131348
1789323340426924300,1.65992431640625,5.556732177734375,-1.9920248985290527,-9.602696418762207
1789323340445775000,1.678775146484375,5.7649078369140625,-3.01405930519104,-8.487042427062988
1789323340464625700,1.697625732421875,5.12811803817749,-3.497708559036255,-6.581458568572998
1789323340483476500,1.7164765625,4.864907741546631,-3.7899320125579834,-4.232903480529785
1789323340502327300,1.735327392578125,5.300401210784912,-3.6726837158203125,-2.5232315063476562
1789323340521178000,1.75417822265625,6.1695942878723145,-3.7253258228302,-2.1714866161346436
1789323340540029000,1.77302880859375,6.207879066467285,-4.000500202178955,-1.970489501953125
1789323340558879500,1.79187939453125,5.9183478355407715,-4.031607151031494,-2.5594229698181152
1789323340577730300,1.810730224609375,4.548755645751953,-4.548755645751953,-4.151247978210449
1789323340596581000,1.8295810546875,3.8928234577178955,-4.919942378997803,-5.90159797668457
1789323340615432000,1.848431884765625,4.371686935424805,-5.748157978057861,-7.357032299041748
1789323340634282500,1.867282470703125,5.1544389724731445,-6.018846035003662,-6.6915283203125
1789323340653133300,1.88613330078125,5.242973327636719,-6.602993965148926,-5.645267009735107
1789323340671984000,1.904984130859375,4.7473602294921875,-8.130212783813477,-5.504090309143066
1789323340690835000,1.9238349609375,4.225724697113037,-7.036394119262695,-5.3318071365356445
1789323340709685800,1.942685791015625,4.943870544433594,-8.19511890411377,-6.183950901031494
1789323340728536600,1.96153662109375,6.392126560211182,-5.690730571746826,-5.776872158050537
1789323340747387100,1.98038720703125,4.599005222320557,-6.557530403137207,-10.222736358642578
1789323340766238000,1.999238037109375,3.2967114448547363,-7.7832536697387695,-10.950753211975098
1789323340785088800,2.0180888671875,5.4658050537109375,-8.970691680908203,-9.26291561126709
1789323340803939600,2.036939697265625,3.5264222621917725,-5.96381139755249,-7.814360618591309
1789323340822790400,2.055790283203125,0.2153540402650833,-3.7205400466918945,-7.974679470062256
1789323340841641200,2.07464111328125,7.043572425842285,-2.724527597427368,-5.312365531921387
1789323340860492000,2.093491943359375,3.2297122478485107,-8.894122123718262,-4.026821613311768
1789323340879342600,2.112342529296875,5.468197822570801,-7.1799635887146,-5.111368179321289
1789323340898193700,2.131193603515625,2.1068804264068604,-15.233606338500977,-6.897311210632324
1789323340917044200,2.150044189453125,2.8824539184570312,-18.03948974609375,-7.977072715759277
1789323340935895000,2.16889501953125,0.0526420995593071,-4.309473514556885,-5.487340450286865
1789323340954745900,2.187745849609375,2.4993033409118652,-11.956037521362305,2.6623141765594482
1789323340973596700,2.2065966796875,5.104189872741699,-13.955241203308105,3.215355396270752
1789323340992447500,2.225447509765625,6.756134510040283,-10.227521896362305,2.403590440750122
1789323341011298300,2.24429833984375,7.666005611419678,-8.539685249328613,2.4681966304779053
1789323341030149000,2.263149169921875,8.003393173217773,-10.03848934173584,-1.6878372430801392
1789323341049000000,2.282,9.61944580078125,-11.530115127563477,-3.256033420562744
1789323341067850800,2.300850830078125,8.534899711608887,-12.102298736572266,-5.235795021057129
1789323341086701600,2.31970166015625,6.317949295043945,-12.904193878173828,-6.116951942443848
1789323341105552400,2.338552490234375,5.609374523162842,-9.640981674194336,-5.5830535888671875
1789323341124403200,2.3574033203125,4.479363918304443,-7.151249408721924,-4.886443138122559
1789323341143254000,2.37625390625,3.8832521438598633,-5.769693374633789,-3.9143588542938232
1789323341162104800,2.395104736328125,5.391627788543701,-4.381258487701416,-4.110570430755615
1789323341180955600,2.41395556640625,6.856633186340332,-5.578267574310303,-3.562314748764038
1789323341199806500,2.432806396484375,8.43440055847168,-8.85344409942627,-2.643171787261963
1789323341218657300,2.4516572265625,8.52054214477539,-9.037691116333008,-3.085843801498413
1789323341237508000,2.470508056640625,6.346662998199463,-7.034001350402832,-1.6328023672103882
1789323341256359000,2.48935888671875,4.148855209350586,-4.491328239440918,-1.6256239414215088
1789323341275209700,2.508209716796875,4.553541660308838,-3.19860577583313,-2.458625316619873
1789323341294060500,2.527060546875,5.472983360290527,-2.8034908771514893,-2.698206663131714
1789323341312911400,2.545911376953125,5.7409796714782715,-2.755634307861328,-1.8577276468276978
1789323341331762200,2.56476220703125,5.66201639175415,-2.5307090282440186,-0.32572299242019653
1789323341350613000,2.583613037109375,6.250949859619141,-2.348555326461792,0.8548358678817749
1789323341369463800,2.6024638671875,5.008476734161377,-2.9015965461730957,-0.04307080805301666
1789323341388314600,2.621314697265625,5.511268615722656,-2.506481647491455,-1.2376874685287476
1789323341407165400,2.64016552734375,5.470590591430664,-2.3772692680358887,-0.41904306411743164
1789323341426016300,2.659016357421875,7.4240312576293945,-1.781157374382019,-0.6607181429862976
1789323341444867000,2.6778671875,6.495316982269287,-1.9968105554580688,-1.6758731603622437
1789323341463718000,2.6967177734375,6.818347930908203,-2.0398812294006348,-2.683849811553955
1789323341482568700,2.715568603515625,5.999703884124756,-2.628814697265625,-2.6096723079681396
1789323341501419500,2.73441943359375,6.471388816833496,-2.8130621910095215,-2.4394826889038086
1789323341520270600,2.7532705078125,6.574280261993408,-3.0092735290527344,-2.8130621910095215
1789323341539121400,2.772121337890625,6.7345991134643555,-3.356531858444214,-2.769991397857666
1789323341557972200,2.79097216796875,7.112964630126953,-4.266402721405029,-2.6407787799835205
1789323341576823000,2.809822998046875,7.139285564422607,-5.097011566162109,-3.069094181060791
1789323341595673900,2.828673828125,7.034001350402832,-5.896812438964844,-3.1148569583892822
1789323341614524700,2.847524658203125,7.237390995025635,-6.432804584503174,-3.239283561706543
1789323341633375500,2.86637548828125,6.698707103729248,-6.636493682861328,-3.085843801498413
1789323341652226300,2.885226318359375,6.847062110900879,-7.089035987854004,-3.0810582637786865
1789323341671077000,2.9040771484375,6.3825554847717285,-8.522934913635254,-3.090928554534912
1789323341689928200,2.92292822265625,5.947061538696289,-10.050453186035156,-2.5929224491119385
1789323341708779000,2.941779052734375,6.428019046783447,-10.993824005126953,-2.389233350753784
1789323341727629800,2.9606298828125,6.602993965148926,-11.044073104858398,-2.2887349128723145
1789323341746480600,2.979480712890625,6.6245293617248535,-11.010573387145996,-2.451446771621704
1789323341765331500,2.99833154296875,6.4905314445495605,-11.278569221496582,-2.3533411026000977
1789323341784182300,3.017182373046875,5.341378211975098,-11.503495216369629,-2.1930220127105713
1789323341803033000,3.036033203125,4.934299468994141,-10.785348892211914,-1.5346965789794922
1789323341821884200,3.05488427734375,5.2477593421936035,-9.875777244567871,-0.3329014480113983
1789323341840735000,3.07373486328125,5.3318071365356445,-9.61226749420166,0.1698904037475586
1789323341859585800,3.092585693359375,5.903990745544434,-10.675278663635254,-0.768395185470581
1789323341878436600,3.1114365234375,6.0762739181518555,-11.218749046325684,-1.3764712810516357
1789323341897287400,3.130287353515625,5.9422760009765625,-10.368699073791504,-1.5825530290603638
1789323341916138200,3.14913818359375,5.022833824157715,-9.375378608703613,-1.8912272453308105
1789323341934989300,3.1679892578125,4.191926002502441,-8.393722534179688,-2.183450698852539
1789323341953840000,3.186840087890625,3.78753924369812,-7.730611801147461,-2.834597587585449
1789323341972691000,3.20569091796875,4.462614059448242,-7.543672561645508,-2.669492721557617
1789323341991541800,3.224541748046875,5.688337802886963,-7.991429328918457,-2.659921407699585
1789323342010392800,3.243392822265625,6.681957244873047,-8.870193481445312,-2.95184588432312
1789323342029243600,3.26224365234375,7.34267520904541,-9.676874160766602,-3.4067811965942383
1789323342048094500,3.281094482421875,7.45274543762207,-9.885348320007324,-3.9813578128814697
1789323342066945300,3.2999453125,6.658029079437256,-9.63619613647461,-4.350151538848877
1789323342085796000,3.318796142578125,6.432804584503174,-8.882157325744629,-4.177569389343262
1789323342104647200,3.337647216796875,6.488138675689697,-8.451150894165039,-4.1057844161987305
1789323342123498000,3.356498046875,6.9930243492126465,-8.999405860900879,-3.6870405673980713
1789323342142348800,3.375348876953125,7.208677291870117,-8.501399993896484,-3.7277185916900635
1789323342161199600,3.39419970703125,7.33549690246582,-7.603792190551758,-3.0092735290527344
1789323342180050700,3.41305078125,8.091927528381348,-6.408876419067383,-3.0667014122009277
1789323342198901500,3.431901611328125,7.670791149139404,-6.813562393188477,-2.1619153022766113
1789323342217752300,3.45075244140625,6.064310073852539,-6.090631008148193,-1.6734803915023804
1789323342236603100,3.46960302734375,4.29033088684082,-3.7253258228302,-2.3605196475982666
1789323342255454200,3.4884541015625,6.045167446136475,-2.2815563678741455,-1.7859430313110352
1789323342274305000,3.507304931640625,6.3993048667907715,-2.7795627117156982,-1.098903775215149
1789323342293155800,3.52615576171875,5.6859450340271,-2.825026273727417,-0.4573282301425934
1789323342312007000,3.5450068359375,4.998905658721924,-3.0786654949188232,-0.9050851464271545
1789323342330857700,3.563857666015625,4.979763031005859,-3.05234432220459,-1.1084750890731812
1789323342349708500,3.58270849609375,5.932704448699951,-2.8992037773132324,-0.8859425783157349
1789323342368559400,3.601559326171875,6.784848690032959,-2.310270309448242,-1.5466607809066772
1789323342387410400,3.620410400390625,5.96381139755249,-1.7189439535140991,-1.6375880241394043
1789323342406261200,3.63926123046875,6.10259485244751,-1.927119493484497,-1.628016710281372
1789323342425112300,3.6581123046875,6.636493682861328,-1.934298038482666,-1.374078392982483
1789323342443963100,3.676963134765625,6.646064758300781,-2.2719850540161133,-1.1682956218719482
1789323342462814000,3.69581396484375,6.3993048667907715,-2.262413740158081,-1.537089467048645
1789323342481665000,3.7146650390625,5.913562297821045,-2.95902419090271,-1.77397882938385
1789323342500515800,3.733515869140625,6.476174354553223,-3.57906436920166,-1.8936200141906738
1789323342519366700,3.75236669921875,6.224628925323486,-3.749253988265991,-2.1164517402648926
1789323342538217700,3.7712177734375,6.238986015319824,-4.000500202178955,-2.777169704437256
1789323342557068500,3.790068603515625,5.886941909790039,-5.43709135055542,-2.9853453636169434
1789323342575919400,3.80891943359375,6.777669906616211,-7.230212688446045,-3.1890344619750977
1789323342594770400,3.8277705078125,7.06271505355835,-8.16401195526123,-3.4067811965942383
1789323342613621200,3.846621337890625,6.756134510040283,-8.920442581176758,-3.2440693378448486
1789323342632472000,3.86547216796875,6.715456962585449,-9.990633010864258,-3.1435706615448
1789323342651323100,3.8843232421875,5.547161102294922,-10.603494644165039,-2.942274570465088
1789323342670174000,3.903174072265625,5.4658050537109375,-10.424033164978027,-2.769991397857666
1789323342689025000,3.92202490234375,6.179165363311768,-9.418449401855469,-2.5713870525360107
1789323342707875800,3.940875732421875,6.569494724273682,-8.635397911071777,-2.2337000370025635
1789323342726726700,3.9597265625,6.825526714324951,-8.86062240600586,-2.588136672973633
1789323342745577700,3.97857763671875,6.250949859619141,-10.153345108032227,-2.7125635147094727
1789323342764428500,3.997428466796875,6.018846035003662,-11.259427070617676,-2.449054002761841
1789323342783279400,4.016279296875,6.258128643035889,-11.951251983642578,-1.6040884256362915
1789323342802130400,4.03513037109375,5.985346794128418,-11.0775728225708,-1.0821540355682373
1789323342820981200,4.053981201171875,5.528018474578857,-9.983454704284668,-1.2664014101028442
1789323342839832300,4.072832275390625,5.439484119415283,-9.655338287353516,-1.7907286882400513
1789323342858683100,4.09168310546875,5.168796062469482,-9.878170013427734,-1.7931214570999146
1789323342877534000,4.110533935546875,4.860121726989746,-10.004989624023438,-1.8768702745437622
1789323342896385000,4.129385009765625,4.342973232269287,-9.624231338500977,-1.2783654928207397
1789323342915235800,4.14823583984375,4.896014213562012,-8.925228118896484,-1.3956137895584106
1789323342934087000,4.1670869140625,5.233402252197266,-8.575576782226562,-1.0007981061935425
1789323342952937700,4.185937744140625,6.071488380432129,-8.467900276184082,-1.4533406496047974
1789323342971788800,4.204788818359375,6.669992923736572,-9.119047164916992,-2.066202402114868
1789323342990639600,4.2236396484375,7.230212688446045,-9.774979591369629,-2.9709885120391846
1789323343009490400,4.242490478515625,7.471887588500977,-9.765408515930176,-4.146462440490723
1789323343028341500,4.261341552734375,7.110571384429932,-9.435198783874512,-4.575077056884766
1789323343047192300,4.2801923828125,6.73938512802124,-8.702695846557617,-4.409972190856934
1789323343066043400,4.29904345703125,6.602993965148926,-8.072785377502441,-4.007678985595703
1789323343084894200,4.317894287109375,6.394519329071045,-8.494221687316895,-3.79471755027771
1789323343103745300,4.336745361328125,6.713063716888428,-7.569993495941162,-3.279961585998535
1789323343122596000,4.35559619140625,7.160820960998535,-6.598208427429199,-3.01405930519104
1789323343141447200,4.374447265625,8.2788667678833,-6.617351055145264,-2.3988046646118164
1789323343160298000,4.393298095703125,7.89332389831543,-6.519245147705078,-1.5873386859893799
1789323343179149000,4.412149169921875,6.006882190704346,-5.96381139755249,-1.9175482988357544
1789323343197999900,4.430999755859375,5.5136613845825195,-4.390829563140869,-2.9542386531829834
1789323343216851000,4.449850830078125,5.729015827178955,-4.079463481903076,-2.5713870525360107
1789323343235701800,4.46870166015625,4.960620403289795,-3.5647075176239014,-1.1850453615188599
1789323343254552800,4.487552734375,4.60139799118042,-1.7955143451690674,-0.12921242415905
1789323343273403600,4.506403564453125,5.978168487548828,-1.9007984399795532,0.6822535395622253
1789323343292254700,4.525254638671875,6.140880107879639,-2.1714866161346436,0.33768710494041443
1789323343311105500,4.54410546875,6.114559173583984,-2.7125635147094727,-0.5602195858955383
1789323343329956600,4.56295654296875,5.219045162200928,-2.8130621910095215,-1.6615161895751953
1789323343348807400,4.581807373046875,6.488138675689697,-2.197807550430298,-0.8883354067802429
1789323343367658500,4.600658447265625,6.784848690032959,-2.255235433578491,-1.1802598237991333
1789323343386509300,4.61950927734375,5.975775241851807,-2.0518453121185303,-1.201795220375061
1789323343405360400,4.6383603515625,5.50648307800293,-2.066202402114868,-1.4653047323226929
1789323343424211200,4.657211181640625,5.7409796714782715,-2.338984251022339,-1.572981834411621
1789323343443062300,4.676062255859375,6.308377742767334,-2.612065076828003,-1.5179468393325806
1789323343461913000,4.6949130859375,5.961418628692627,-2.863311290740967,-1.7907286882400513
1789323343480764200,4.71376416015625,6.109773635864258,-3.1411778926849365,-2.0446670055389404
1789323343499615200,4.732615234375,5.851049423217773,-4.3788652420043945,-2.1068804264068604
1789323343518466000,4.751466064453125,6.028417587280273,-6.49770975112915,-2.6503500938415527
1789323343537317000,4.770317138671875,6.5766730308532715,-8.293224334716797,-3.4498519897460938
1789323343556168000,4.78916796875,5.920740604400635,-8.784051895141602,-3.75643253326416
1789323343575019000,4.80801904296875,6.104988098144531,-9.087940216064453,-3.7301113605499268
1789323343593869800,4.826869873046875,5.7649078369140625,-10.17009449005127,-3.614956855773926
1789323343612721000,4.845720947265625,5.853442192077637,-11.173285484313965,-3.222533941268921
1789323343631571700,4.86457177734375,6.356234073638916,-11.44845962524414,-2.4849462509155273
1789323343650422800,4.8834228515625,6.681957244873047,-11.462817192077637,-1.5179468393325806
1789323343669273900,4.90227392578125,7.153642177581787,-11.597113609313965,-1.3334003686904907
1789323343688124700,4.921124755859375,6.80159854888916,-11.783754348754883,-1.6064813137054443
1789323343706975700,4.939975830078125,6.114559173583984,-11.175678253173828,-1.7261223793029785
1789323343725826600,4.95882666015625,6.74656343460083,-9.607481956481934,-1.6854444742202759
1789323343744677600,4.977677734375,6.284449577331543,-8.345866203308105,-1.628016710281372
1789323343763528400,4.996528564453125,5.362913608551025,-8.355437278747559,-1.9848463535308838
1789323343782379500,5.015379638671875,5.209474086761475,-9.097511291503906,-2.4394826889038086
1789323343801230600,5.034230712890625,5.666802406311035,-9.420842170715332,-2.104487419128418
1789323343820081400,5.053081298828125,5.760122299194336,-9.995418548583984,-1.9752750396728516
1789323343838932500,5.071932373046875,5.242973327636719,-10.107880592346191,-1.9007984399795532
1789323343857783300,5.090783203125,4.955834865570068,-9.976275444030762,-1.7979071140289307
1789323343876634400,5.10963427734375,5.72422981262207,-9.839884757995605,-1.8601205348968506
1789323343895485400,5.1284853515625,6.492924213409424,-10.036096572875977,-1.807478427886963
1789323343914336300,5.147336181640625,6.897311210632324,-9.949954986572266,-2.094916343688965
1789323343933187300,5.166187255859375,6.897311210632324,-9.679266929626465,-2.472982168197632
1789323343952038100,5.1850380859375,6.658029079437256,-9.035298347473145,-3.0933215618133545
1789323343970889200,5.20388916015625,6.380162239074707,-8.257331848144531,-3.828217029571533
1789323343989740300,5.222740234375,6.713063716888428,-7.723433494567871,-4.132105827331543
1789323344008591000,5.241591064453125,7.548458099365234,-7.785646915435791,-4.110570430755615
1789323344027442200,5.260442138671875,7.613363265991211,-8.841479301452637,-3.959822416305542
1789323344046293200,5.279293212890625,7.392924785614014,-8.707481384277344,-4.132105827331543
1789323344065144000,5.29814404296875,6.983452796936035,-7.103393077850342,-3.6798620223999023
1789323344083995100,5.3169951171875,7.414460182189941,-6.198307991027832,-2.3365912437438965
1789323344102846200,5.33584619140625,6.646064758300781,-5.992525100708008,-1.4964114427566528
1789323344121697000,5.354697021484375,5.954239845275879,-4.541577339172363,-2.389233350753784
1789323344140548000,5.373548095703125,6.112166404724121,-3.5336008071899414,-2.856132984161377
1789323344159399000,5.39239892578125,6.059524059295654,-3.13639235496521,-1.8864415884017944
1789323344178250000,5.41125,5.676373481750488,-2.6479573249816895,-0.7372884750366211
1789323344197101000,5.43010107421875,5.736194133758545,-2.949453115463257,-0.1746760457754135
1789323344215952000,5.448951904296875,5.951847076416016,-2.2432711124420166,-0.5506483316421509
1789323344234803000,5.467802978515625,5.053940296173096,-2.5016961097717285,-1.1012966632843018
1789323344253654000,5.486654052734375,5.056333541870117,-1.903191328048706,-1.0031908750534058
1789323344272504800,5.5055048828125,4.967798709869385,-1.2903295755386353,-0.643968403339386
1789323344291356000,5.52435595703125,5.401198863983154,-1.0606186389923096,-0.6822535395622253
1789323344310207000,5.54320703125,5.781657695770264,-1.2113664150238037,-0.5745765566825867
1789323344329058000,5.56205810546875,5.511268615722656,-1.8936200141906738,-0.9146564602851868
1789323344347908900,5.580908935546875,5.456233978271484,-2.3533411026000977,-1.2592228651046753
1789323344366760000,5.599760009765625,6.018846035003662,-2.7436702251434326,-1.5873386859893799
1789323344385611000,5.618611083984375,5.994917869567871,-3.445066452026367,-2.0446670055389404
1789323344404461800,5.6374619140625,6.356234073638916,-4.1368913650512695,-2.8920252323150635
1789323344423313000,5.65631298828125,6.270092487335205,-6.298806667327881,-3.1890344619750977
1789323344442164000,5.6751640625,6.945167541503906,-8.30997371673584,-3.0355947017669678
1789323344461014800,5.694014892578125,7.045965194702148,-9.052047729492188,-3.0355947017669678
1789323344479865900,5.712865966796875,6.6484575271606445,-9.214759826660156,-3.3469607830047607
1789323344498717000,5.731717041015625,6.308377742767334,-9.698409080505371,-3.277568817138672
1789323344517567700,5.750567626953125,6.054738521575928,-10.265807151794434,-3.1004998683929443
1789323344536418800,5.769418701171875,6.423233509063721,-10.6657075881958,-3.3828530311584473
1789323344555270000,5.788269775390625,6.832705020904541,-10.785348892211914,-3.387638568878174
1789323344574121000,5.807120849609375,7.120142936706543,-10.44078254699707,-3.1866414546966553
1789323344592971800,5.8259716796875,6.957131862640381,-9.969097137451172,-3.0475587844848633
1789323344611822800,5.84482275390625,6.035595893859863,-9.650552749633789,-3.122035264968872
1789323344630674000,5.863673828125,6.377769470214844,-9.818050384521484,-2.36291241645813
1789323344649524700,5.882524658203125,6.329913139343262,-10.383355140686035,-1.532303810119629
1789323344668375800,5.901375732421875,5.781657695770264,-11.082358360290527,-2.011167526245117
1789323344687227000,5.920226806640625,5.9662041664123535,-10.799705505371094,-2.169093608856201
1789323344706078000,5.939077880859375,5.968596935272217,-9.823135375976562,-1.5634105205535889
1789323344724928800,5.9579287109375,5.892026424407959,-8.812766075134277,-1.8266209363937378
1789323344743779800,5.97677978515625,5.370092391967773,-8.264510154724121,-2.049452543258667
1789323344762631000,5.995630859375,5.199902534484863,-8.424829483032227,-2.080559253692627
1789323344781482000,6.01448193359375,5.348556995391846,-8.846264839172363,-1.89840567111969
1789323344800332800,6.033332763671875,5.90877628326416,-9.243474006652832,-2.0542383193969727
1789323344819183900,6.052183837890625,6.770491600036621,-9.674481391906738,-2.564208507537842
1789323344838035000,6.071034912109375,7.28046178817749,-10.194023132324219,-3.090928554534912
1789323344856886000,6.089885986328125,7.39053201675415,-10.443175315856934,-3.8688950538635254
1789323344875736800,6.10873681640625,6.818347930908203,-9.892526626586914,-4.584648132324219
1789323344894588000,6.127587890625,6.081059455871582,-9.107083320617676,-4.713860511779785
1789323344913439000,6.14643896484375,5.709873199462891,-8.16401195526123,-4.5583271980285645
1789323344932290000,6.1652900390625,6.011667728424072,-7.613363265991211,-3.8545382022857666
1789323344951140900,6.184140869140625,6.837490558624268,-6.478567123413086,-3.1746773719787598
1789323344969992000,6.202991943359375,7.177570819854736,-5.939883232116699,-1.9872392416000366
1789323344988843000,6.221843017578125,7.445566654205322,-5.824728488922119,-1.1826525926589966
1789323345007694000,6.240694091796875,6.937989234924316,-5.760122299194336,-1.5490535497665405
1789323345026545000,6.259544921875,6.780063152313232,-5.5136613845825195,-2.95184588432312
1789323345045396000,6.27839599609375,5.982954025268555,-4.565505504608154,-3.1794631481170654
1789323345064247000,6.2972470703125,5.8944196701049805,-3.653541088104248,-1.750050663948059
1789323345083098000,6.31609814453125,6.047560214996338,-2.3676979541778564,-0.031106693670153618
1789323345101949200,6.33494921875,6.270092487335205,-2.3844478130340576,-0.42382872104644775
1789323345120800000,6.353800048828125,5.144867897033691,-2.2815563678741455,-1.043868899345398
1789323345139651000,6.372651123046875,4.268795490264893,-2.4059832096099854,-1.194616675376892
1789323345158502100,6.391502197265625,4.103391647338867,-1.7309080362319946,-0.675075113773346
1789323345177353200,6.410353271484375,4.953442096710205,-1.292722463607788,-0.24167509377002716
1789323345196204000,6.4292041015625,5.362913608551025,-1.3094722032546997,-0.19381862878799438
1789323345215055000,6.44805517578125,4.826622486114502,-1.2233306169509888,-0.5937191247940063
1789323345233906200,6.46690625,5.288437366485596,-1.225723385810852,-0.6559324860572815
1789323345262182700,6.4951826171875,5.4514479637146,-1.8218353986740112,-1.319043517112732
1789323345281033700,6.51403369140625,5.855835437774658,-2.348555326461792,-1.9199410676956177
1789323345299884800,6.532884765625,6.0523457527160645,-3.5910286903381348,-2.9709885120391846
1789323345318735600,6.551735595703125,6.7178497314453125,-7.177570819854736,-3.4235310554504395
1789323345337586700,6.570586669921875,7.407281398773193,-10.534102439880371,-4.098606109619141
1789323345356437800,6.589437744140625,7.067500591278076,-12.145369529724121,-3.9406797885894775
1789323345375288800,6.608288818359375,5.573482036590576,-12.504292488098145,-3.5120654106140137
1789323345394140000,6.627139892578125,5.353342533111572,-11.510972023010254,-2.810669183731079
1789323345412990700,6.64599072265625,6.384948253631592,-9.777372360229492,-2.14516544342041
1789323345431841800,6.664841796875,7.163213729858398,-8.63061237335205,-2.4849462509155273
1789323345450692900,6.68369287109375,7.606184959411621,-8.587541580200195,-3.1890344619750977
1789323345469544000,6.7025439453125,7.550850868225098,-10.02173900604248,-3.715754508972168
1789323345488395000,6.72139501953125,6.662814617156982,-11.407781600952148,-3.600599765777588
1789323345507245800,6.740245849609375,6.2892351150512695,-11.719147682189941,-2.7101707458496094
1789323345526097000,6.759096923828125,6.286842346191406,-11.056036949157715,-1.2329018115997314
1789323345544948000,6.777947998046875,5.903990745544434,-10.27777099609375,-1.319043517112732
1789323345563799000,6.796799072265625,5.592624664306641,-10.191629409790039,-2.2743778228759766
1789323345582650000,6.815650146484375,5.9901323318481445,-9.902098655700684,-2.135594129562378
1789323345601501000,6.8345009765625,6.337091445922852,-9.854242324829102,-1.8864415884017944
1789323345620352000,6.85335205078125,6.461817741394043,-9.969097137451172,-2.0231316089630127
1789323345639203000,6.872203125,6.1073808670043945,-9.882955551147461,-1.8888343572616577
1789323345658054100,6.89105419921875,6.136094570159912,-9.571589469909668,-1.9390836954116821
1789323345676905200,6.9099052734375,6.126523494720459,-9.229117393493652,-2.173879384994507
1789323345695756300,6.92875634765625,6.15762996673584,-9.020941734313965,-2.8130621910095215
1789323345714607400,6.947607421875,6.224628925323486,-9.114261627197266,-3.653541088104248
1789323345733458200,6.966458251953125,6.349055767059326,-8.678468704223633,-3.9789650440216064
1789323345752309200,6.985309326171875,6.49770975112915,-7.99382209777832,-3.7851462364196777
1789323345771160300,7.004160400390625,6.961917400360107,-8.314759254455566,-3.468994617462158
1789323345790011400,7.023011474609375,7.512565612792969,-8.592327117919922,-3.7660038471221924
1789323345808862500,7.041862548828125,7.718647480010986,-8.408080101013184,-4.1129631996154785
1789323345827713300,7.06071337890625,7.912466049194336,-7.941180229187012,-4.086641788482666
1789323345846564400,7.079564453125,8.724231719970703,-7.718647480010986,-3.5671002864837646
1789323345865415400,7.09841552734375,8.307580947875977,-7.433602809906006,-2.8776683807373047
1789323345884266500,7.1172666015625,6.1241302490234375,-6.195915222167969,-2.810669183731079
1789323345903117600,7.13611767578125,5.1209397315979,-3.7420754432678223,-3.2344980239868164
1789323345921968600,7.15496875,4.776372909545898,-2.7723841667175293,-2.4945175647735596
1789323345940819700,7.17381982421875,4.5822553634643555,-1.812264084815979,-0.9026923179626465
1789323345959670500,7.19267041015625,5.985346794128418,-1.2352946996688843,-0.038285162299871445
1789323345978521600,7.211521484375,6.143272876739502,-2.755634307861328,0.732502818107605
1789323345997372700,7.23037255859375,4.3070807456970215,-2.7340989112854004,-0.3209373354911804
1789323346016223700,7.2492236328125,4.563112735748291,-2.4227328300476074,-0.5027918815612793
1789323346035074800,7.26807470703125,5.111368179321289,-1.4820544719696045,-0.40229329466819763
1789323346053926000,7.28692578125,5.365306377410889,-1.3645070791244507,-0.6248258352279663
1789323346072776700,7.305776611328125,5.551946640014648,-1.3956137895584106,-0.4573282301425934
1789323346091627800,7.324627685546875,5.796014785766602,-1.6375880241394043,-0.6966105103492737
1789323346110478800,7.343478759765625,5.695516109466553,-1.9776679277420044,-1.0055837631225586
1789323346129330000,7.362329833984375,5.899205207824707,-2.6479573249816895,-1.532303810119629
1789323346148181000,7.381180908203125,5.738586902618408,-3.684647798538208,-2.1571295261383057
1789323346167032000,7.400031982421875,5.573482036590576,-4.893621444702148,-2.997309446334839
1789323346185883100,7.418883056640625,6.116951942443848,-6.751348972320557,-3.3302109241485596
1789323346204734200,7.437734130859375,6.631708145141602,-7.615756034851074,-3.1411778926849365
1789323346223585300,7.456585205078125,6.186343669891357,-8.142476081848145,-3.0643084049224854
1789323346242436000,7.47543603515625,6.401698112487793,-9.688838005065918,-3.2273194789886475
1789323346261287200,7.494287109375,5.90159797668457,-11.146964073181152,-3.5671002864837646
1789323346289563600,7.522563720703125,7.330711364746094,-12.434901237487793,-4.211368083953857
1789323346308414700,7.541414794921875,8.372187614440918,-12.772587776184082,-3.9000017642974854
1789323346327265800,7.560265869140625,8.089534759521484,-12.29372501373291,-3.514458179473877
1789323346346116900,7.579116943359375,7.28046178817749,-10.134202003479004,-3.119642496109009
1789323346364968000,7.597968017578125,6.591030120849609,-8.86062240600586,-2.6886353492736816
1789323346383819000,7.616819091796875,6.016453266143799,-8.896514892578125,-1.9079769849777222
1789323346402670000,7.635670166015625,5.896812438964844,-9.72951602935791,-2.5378875732421875
1789323346421521200,7.654521240234375,5.84147834777832,-9.813264846801758,-2.8058836460113525
1789323346440372000,7.6733720703125,6.236593246459961,-9.61944580078125,-2.183450698852539
1789323346459223000,7.69222314453125,6.368198394775391,-10.02413272857666,-1.6926229000091553
1789323346478074000,7.71107421875,6.035595893859863,-9.734301567077637,-1.9127626419067383
1789323346496925200,7.72992529296875,5.228616714477539,-8.997013092041016,-2.1954147815704346
1789323346515776300,7.7487763671875,4.876871585845947,-8.63779067993164,-2.1475582122802734
1789323346534627300,7.76762744140625,5.458626747131348,-8.542078018188477,-2.338984251022339
1789323346553478400,7.786478515625,6.229414463043213,-8.975478172302246,-2.8752756118774414
1789323346572329500,7.80532958984375,7.065107822418213,-9.365806579589844,-3.7037904262542725
1789323346591180500,7.8241806640625,7.290033340454102,-9.961918830871582,-4.124927043914795
1789323346610031400,7.84303125,7.301997184753418,-10.182058334350586,-4.089034557342529
1789323346628882400,7.86188232421875,6.806384086608887,-10.083952903747559,-3.7827534675598145
1789323346647733500,7.8807333984375,6.756134510040283,-9.214759826660156,-4.182354927062988
1789323346666584600,7.89958447265625,6.346662998199463,-8.187939643859863,-4.386044025421143
1789323346694861000,7.927861083984375,7.421638488769531,-5.9566330909729,-3.325425386428833
1789323346713712000,7.946712158203125,7.615756034851074,-6.200700759887695,-2.4562325477600098
1789323346732563200,7.965563232421875,6.569494724273682,-5.927918910980225,-2.018345832824707
1789323346751414300,7.984414306640625,5.403591632843018,-5.683551788330078,-1.8553348779678345
1789323346770265300,8.003265380859375,6.468996047973633,-4.273581027984619,-0.8353942036628723
1789323346789116400,8.022116455078125,5.9901323318481445,-4.47697114944458,-2.0709879398345947
1789323346807967500,8.040967529296875,4.7835516929626465,-3.418745279312134,-1.7021942138671875
1789323346826818600,8.059818603515625,4.955834865570068,-2.6336004734039307,-1.1491531133651733
1789323346845669400,8.07866943359375,5.3557353019714355,-2.338984251022339,0.19621145725250244
1789323346864520700,8.097520751953125,4.805087089538574,-0.7827520966529846,-0.39511483907699585
1789323346883371500,8.11637158203125,5.326722145080566,-0.7612167000770569,-0.4286143481731415
1789323346902222600,8.13522265625,4.508078098297119,-0.5937191247940063,-0.5769693851470947
1789323346921073700,8.15407373046875,4.7835516929626465,-0.9457631707191467,-0.4980062246322632
1789323346939924700,8.1729248046875,4.994120121002197,-1.4270195960998535,-0.6798607110977173
1789323346958775800,8.19177587890625,4.632504463195801,-2.1571295261383057,-1.0701899528503418
1789323346977627000,8.210626953125,5.01086950302124,-2.334198474884033,-0.5003990530967712
1789323346996478000,8.22947802734375,7.220641613006592,-1.9824535846710205,-0.7037889361381531
1789323347015329000,8.2483291015625,6.119344711303711,-2.975774049758911,-2.762812852859497
1789323347034179800,8.267179931640625,4.896014213562012,-6.234200477600098,-3.3780672550201416
1789323347053031200,8.28603125,6.8757758140563965,-9.301200866699219,-3.7540395259857178
1789323347071882000,8.304882080078125,6.533602237701416,-10.866704940795898,-3.4498519897460938
1789323347090733000,8.323733154296875,6.186343669891357,-11.292926788330078,-3.279961585998535
1789323347109584100,8.342584228515625,5.614160060882568,-11.45563793182373,-3.1794631481170654
1789323347128435200,8.361435302734375,6.126523494720459,-10.770992279052734,-3.5431721210479736
1789323347147286300,8.380286376953125,7.330711364746094,-9.818050384521484,-3.943072557449341
1789323347166137300,8.399137451171875,8.266902923583984,-9.679266929626465,-4.218546390533447
1789323347184988400,8.417988525390625,8.190332412719727,-10.770992279052734,-4.194318771362305
1789323347203839500,8.436839599609375,6.916453838348389,-11.111071586608887,-3.7061831951141357
1789323347222690300,8.455690185546874,6.329913139343262,-10.629815101623535,-2.4945175647735596
1789323347241541400,8.474541259765624,5.683551788330078,-10.332806587219238,-0.9337990283966064
1789323347260392400,8.493392333984374,5.829514026641846,-10.593923568725586,-1.3645070791244507
1789323347279243500,8.512243408203124,6.286842346191406,-10.438389778137207,-2.128415822982788
1789323347298094600,8.531094482421874,6.16480827331543,-9.552447319030762,-2.1882362365722656
1789323347316945700,8.549945556640624,6.231807708740234,-8.965906143188477,-2.3748764991760254
1789323347335796700,8.568796630859374,5.688337802886963,-8.762516975402832,-2.2911276817321777
1789323347354647800,8.587647705078124,5.38205623626709,-8.71226692199707,-2.4777679443359375
1789323347373499000,8.606498779296874,5.32911491394043,-8.963513374328613,-2.0997018814086914
1789323347392350000,8.625349853515624,5.843871116638184,-9.28445053100586,-2.0039889812469482
1789323347411200800,8.64420068359375,6.27487850189209,-9.645767211914062,-2.542673110961914
1789323347430051800,8.6630517578125,6.394519329071045,-9.854242324829102,-2.841775894165039
1789323347458328600,8.69132861328125,6.935596466064453,-9.652945518493652,-3.57906436920166
1789323347486605000,8.71960498046875,7.019644260406494,-9.317950248718262,-3.8760735988616943
1789323347505456000,8.7384560546875,7.514958381652832,-8.9850492477417,-4.067499160766602
1789323347524307200,8.75730712890625,7.366603374481201,-8.587541580200195,-4.108177185058594
1789323347543158300,8.776158203125,7.407281398773193,-7.809575080871582,-3.4713873863220215
1789323347562009300,8.79500927734375,8.252546310424805,-6.909275531768799,-2.683849811553955
1789323347580860400,8.8138603515625,7.45992374420166,-6.526423931121826,-2.444268226623535
1789323347599711200,8.832711181640626,5.980561256408691,-5.640480995178223,-2.4466612339019775
1789323347618562300,8.851562255859376,4.943870544433594,-4.031607151031494,-2.3676979541778564
1789323347637413400,8.870413330078126,5.492125988006592,-2.8776683807373047,-2.317448616027832
1789323347656264400,8.889264404296876,4.836193561553955,-1.3405789136886597,-1.410269856452942
1789323347675115500,8.908115478515626,5.358128070831299,-1.0606186389923096,0.2799602448940277
1789323347693966600,8.926966552734376,6.519245147705078,-1.831406593322754,-0.3520440459251404
1789323347712817700,8.945817626953126,5.099404335021973,-3.085843801498413,-0.46450668573379517
1789323347731668700,8.964668701171876,4.627718925476074,-2.3988046646118164,-0.9481559991836548
1789323347750519800,8.983519775390626,4.510470867156982,-1.9366908073425293,-0.4668995141983032
1789323347769371000,9.002370849609376,4.615755081176758,-1.6663018465042114,-0.20578274130821228
1789323347788222000,9.021221923828126,5.070690155029297,-1.3142578601837158,-0.20099709928035736
1789323347807072800,9.04007275390625,5.266901969909668,-1.410269856452942,-0.5386841893196106
1789323347825923800,9.058923828125,5.484947681427002,-1.9896320104599,-1.2544373273849487
1789323347844775000,9.07777490234375,5.413163185119629,-2.480160713195801,-1.7572290897369385
1789323347863626000,9.0966259765625,5.860620975494385,-2.839383125305176,-2.197807550430298
1789323347882477000,9.11547705078125,5.9183478355407715,-3.5479576587677,-2.975774049758911
1789323347901328100,9.134328125,5.987739562988281,-6.054738521575928,-3.208176851272583
1789323347920179200,9.15317919921875,6.4304118156433105,-8.388936996459961,-3.342175006866455
1789323347939030300,9.1720302734375,6.4375901222229,-9.933204650878906,-3.184248685836792
1789323347957881300,9.19088134765625,5.702694416046143,-11.604292869567871,-3.5718860626220703
1789323347976732400,9.209732421875,5.140082359313965,-12.501899719238281,-3.6269209384918213
1789323348005009000,9.2380087890625,7.208677291870117,-12.736696243286133,-3.1818559169769287
1789323348023860000,9.25685986328125,8.300402641296387,-12.813265800476074,-2.643171787261963
1789323348042711000,9.2757109375,8.226224899291992,-12.262618064880371,-2.8369903564453125
1789323348061562000,9.29456201171875,7.206284523010254,-9.679266929626465,-3.2368907928466797
1789323348080413000,9.313412841796875,6.334698677062988,-7.8454670906066895,-3.0571300983428955
1789323348099264000,9.332263916015625,5.633302688598633,-8.187939643859863,-2.635993242263794
1789323348118115000,9.351114990234375,5.487340450286865,-9.4088773727417,-2.396411895751953
1789323348136966100,9.369966064453125,5.803193092346191,-10.088738441467285,-2.396411895751953
1789323348155817200,9.388817138671875,6.464210510253906,-10.519745826721191,-2.1068804264068604
1789323348174668300,9.407668212890625,6.9475603103637695,-10.840383529663086,-1.8409779071807861
1789323348193519400,9.426519287109375,6.4064836502075195,-10.840383529663086,-1.8529419898986816
1789323348212370400,9.445370361328125,6.126523494720459,-10.143773078918457,-2.520838737487793
1789323348231221200,9.46422119140625,5.860620975494385,-9.52612590789795,-2.8369903564453125
1789323348250072300,9.483072265625,5.618945598602295,-9.337093353271484,-2.9015965461730957
1789323348268923400,9.50192333984375,5.372485160827637,-9.396913528442383,-2.8513472080230713
1789323348287774500,9.5207744140625,5.726622581481934,-9.169296264648438,-3.1244282722473145
1789323348316051200,9.54905126953125,6.780063152313232,-8.717052459716797,-3.559921979904175
1789323348334902000,9.567902099609375,7.385746002197266,-9.28445053100586,-3.6197423934936523
1789323348353753000,9.586753173828125,7.742575645446777,-9.59791088104248,-4.0196428298950195
1789323348372604200,9.605604248046875,7.160820960998535,-9.205188751220703,-4.8553361892700195
1789323348400881000,9.633880859375,7.223034381866455,-6.389733791351318,-3.8928234577178955
1789323348419731700,9.652731689453125,8.106285095214844,-5.9566330909729,-2.26959228515625
1789323348438582800,9.671582763671875,6.581458568572998,-5.949454307556152,-1.8529419898986816
1789323348457433900,9.690433837890625,5.324329376220703,-4.826622486114502,-2.4538395404815674
1789323348476285000,9.709284912109375,5.602196216583252,-4.050749778747559,-2.6383860111236572
1789323348495136000,9.728135986328125,5.403591632843018,-3.248854875564575,-1.6016956567764282
1789323348513987000,9.746987060546875,4.8074798583984375,-2.0039889812469482,0.16031911969184875
1789323348532838100,9.765838134765625,4.768895626068115,-1.6663018465042114,0.4956133961677551
1789323348551689200,9.784689208984375,5.738586902618408,-2.0039889812469482,0.16031911969184875
1789323348570540300,9.803540283203125,5.650052547454834,-1.89840567111969,-1.1228320598602295
1789323348589391000,9.82239111328125,4.026821613311768,-1.92951238155365,-1.953440546989441
1789323348608242200,9.8412421875,3.7683966159820557,-1.3142578601837158,-0.7564310431480408
1789323348627093200,9.86009326171875,5.38205623626709,-1.0582258701324463,0.38315072655677795
1789323348655370000,9.888369873046875,5.590231895446777,-1.2161520719528198,-0.12203395366668701
1789323348674221000,9.907220947265625,5.008476734161377,-1.628016710281372,-1.1778669357299805
1789323348702497500,9.93549755859375,5.358128070831299,-2.784348249435425,-2.0925233364105225
1789323348721348600,9.9543486328125,5.571089267730713,-3.7660038471221924,-2.5857439041137695
1789323348740199700,9.97319970703125,5.5758748054504395,-5.750551223754883,-2.7795627117156982
1789323348759050800,9.99205078125,6.420840263366699,-7.902894973754883,-3.1866414546966553
1789323348777901600,10.010901611328125,7.038786888122559,-9.892526626586914,-3.777967929840088
1789323348796752600,10.029752685546875,7.560422420501709,-12.138191223144531,-4.089034557342529
1789323348815603700,10.048603759765625,6.090631008148193,-13.438092231750488,-4.299902439117432
1789323348834454800,10.067454833984375,5.702694416046143,-12.521042823791504,-4.175176620483398
1789323348853305900,10.086305908203125,7.175177574157715,-10.680065155029297,-3.3469607830047607
1789323348872157000,10.105156982421875,8.501399993896484,-9.856635093688965,-3.054737091064453
1789323348900433400,10.133433349609374,6.8997039794921875,-10.648958206176758,-3.7061831951141357
1789323348919284500,10.152284423828124,5.9183478355407715,-9.801301002502441,-3.442673683166504
1789323348938135600,10.171135498046874,5.8582282066345215,-9.06401252746582,-1.4365909099578857
1789323348956986600,10.189986572265624,5.638088226318359,-9.712766647338867,-0.6248258352279663
1789323348975837700,10.208837646484374,5.9566330909729,-10.412068367004395,-1.6304094791412354
1789323348994688800,10.227688720703124,6.457031726837158,-10.067203521728516,-2.379662036895752
1789323349013539600,10.24653955078125,6.408876419067383,-9.128618240356445,-2.674278497695923
1789323349032390700,10.265390625,5.9901323318481445,-8.66889762878418,-2.8058836460113525
1789323349051241700,10.28424169921875,5.413163185119629,-8.5731840133667,-2.698206663131714
1789323349070092800,10.3030927734375,5.578267574310303,-8.709874153137207,-2.700599431991577
1789323349088943900,10.32194384765625,5.911169052124023,-9.152546882629395,-2.159522533416748
1789323349107795000,10.340794921875,6.696314334869385,-10.000204086303711,-2.5546371936798096
1789323349126646000,10.35964599609375,7.347461223602295,-10.84277629852295,-3.0116662979125977
1789323349145497000,10.3784970703125,8.044071197509766,-11.252248764038086,-3.653541088104248
1789323349164348200,10.39734814453125,7.809575080871582,-10.622636795043945,-4.527220249176025
1789323349183199200,10.41619921875,6.892525672912598,-9.51894760131836,-4.838586330413818
1789323349202050000,10.435050048828124,6.667600154876709,-8.219046592712402,-4.572684288024902
1789323349220901000,10.453901123046874,6.837490558624268,-7.469494819641113,-4.218546390533447
1789323349239752200,10.472752197265624,8.0081787109375,-7.2421770095825195,-3.1076784133911133
1789323349258603300,10.491603271484376,8.68325424194336,-7.4862446784973145,-1.8218353986740112
1789323349277454300,10.510454345703126,6.634100914001465,-7.170392036437988,-1.6256239414215088
1789323349296305400,10.529305419921876,5.180759906768799,-5.8944196701049805,-3.4307093620300293
1789323349315156500,10.548156494140626,3.715754508972168,-4.2592244148254395,-2.7269206047058105
1789323349334007600,10.567007568359376,5.362913608551025,0.11246266216039658,-1.0414760112762451
1789323349352858600,10.585858642578126,4.749752998352051,0.07896314561367035,0.4142574071884155
1789323349371709700,10.604709716796876,4.821836948394775,-0.6080760359764099,0.7301099896430969
1789323349390560800,10.623560791015626,3.3613176345825195,-1.1060823202133179,-0.275174617767334
1789323349409411800,10.642411865234376,5.872584819793701,-2.667099952697754,0.7779664397239685
1789323349428262700,10.6612626953125,4.658825874328613,-2.9925239086151123,-1.5203397274017334
1789323349447114000,10.680114013671876,4.620540618896484,-1.1084750890731812,-0.4262215197086334
1789323349465964800,10.69896484375,8.12542724609375,-1.1371889114379883,-0.8066803216934204
1789323349484816000,10.71781591796875,10.234700202941895,-2.3988046646118164,-1.1443674564361572
1789323349503667000,10.7366669921875,2.9015965461730957,-3.4139597415924072,-2.6575286388397217
1789323349522518000,10.75551806640625,3.1507492065429688,-4.577469825744629,-2.8537402153015137
1789323349541369000,10.774369140625,4.53200626373291,-4.3549370765686035,-1.1371889114379883
1789323349560220200,10.79322021484375,7.603792190551758,-3.7277185916900635,-0.8644071817398071
1789323349579071200,10.8120712890625,5.796014785766602,-5.5998029708862305,-1.3764712810516357
1789323349597922300,10.83092236328125,3.7851462364196777,-6.758527755737305,-2.3270199298858643
1789323349616773400,10.8497734375,2.691028118133545,-6.7417778968811035,-2.7508487701416016
1789323349635624400,10.86862451171875,4.6995038986206055,-6.291627883911133,-1.812264084815979
1789323349654475500,10.8874755859375,11.558829307556152,-5.930311679840088,-2.8369903564453125
1789323349673326600,10.90632666015625,5.932704448699951,-9.530911445617676,-4.7401814460754395
1789323349692177700,10.925177734375,6.3514485359191895,-12.930514335632324,-6.9236321449279785
1789323349711028500,10.944028564453125,6.3442702293396,-15.408282279968262,-6.207879066467285
1789323349729879600,10.962879638671875,7.802396297454834,-16.50240135192871,-3.2273194789886475
1789323349748730600,10.981730712890625,8.231010437011719,-14.81695556640625,-0.5554339289665222
1789323349767581700,11.000581787109375,7.33549690246582,-11.151749610900879,-1.5849459171295166
1789323349786432800,11.019432861328125,7.694719314575195,-9.588339805603027,-2.3365912437438965
1789323349805283800,11.038283935546875,7.034001350402832,-9.27727222442627,-3.3373894691467285
1789323349824135000,11.057135009765625,6.109773635864258,-9.075976371765137,-3.6798620223999023
1789323349842986000,11.075986083984375,5.494519233703613,-8.19511890411377,-2.903989315032959
1789323349861837000,11.094837158203125,4.891228675842285,-7.630113124847412,-2.231307029724121
1789323349880688000,11.113688232421875,4.788337230682373,-7.524529933929443,-1.6040884256362915
1789323349899539200,11.132539306640625,4.555934429168701,-8.003393173217773,-1.4413765668869019
1789323349918390300,11.151390380859375,4.460221290588379,-8.510971069335938,-1.3357932567596436
1789323349937241300,11.170241455078125,4.970191955566406,-8.941978454589844,-1.4413765668869019
1789323349956092400,11.189092529296875,6.030810356140137,-9.578767776489258,-1.5825530290603638
1789323349974943500,11.207943603515625,7.8454670906066895,-10.708778381347656,-2.6958138942718506
1789323349993794600,11.226794677734375,8.987442016601562,-11.101500511169434,-3.9263229370117188
1789323350012645400,11.245645263671875,8.970691680908203,-10.854741096496582,-4.9175496101379395
1789323350031496400,11.264496337890625,8.333902359008789,-10.081560134887695,-5.061119079589844
1789323350050347500,11.283347412109375,7.402495861053467,-9.083154678344727,-5.013262748718262
1789323350069198600,11.302198486328125,6.981060028076172,-8.187939643859863,-4.814658164978027
1789323350088049700,11.321049560546875,7.426424026489258,-7.299604415893555,-4.335794448852539
1789323350106900700,11.339900634765625,7.584649562835693,-6.059524059295654,-2.973381280899048
1789323350125751800,11.358751708984375,6.698707103729248,-5.391627788543701,-2.0470597743988037
1789323350144603000,11.377602783203125,6.121737480163574,-4.543970108032227,-2.7412774562835693
1789323350163454000,11.396453857421875,4.864907741546631,-4.077070713043213,-3.16749906539917
1789323350182305000,11.415304931640625,4.240081787109375,-3.287140130996704,-1.8218353986740112
1789323350201156000,11.434156005859375,4.156033992767334,-1.1611171960830688,0.27756741642951965
1789323350220007200,11.453007080078125,4.893621444702148,-2.449054002761841,1.0701899528503418
1789323350238858200,11.471858154296875,4.292723655700684,-3.07627272605896,0.368793785572052
1789323350257709300,11.490709228515625,5.1209397315979,-1.9776679277420044,-0.08135596662759781
1789323350276560400,11.509560302734375,4.457828521728516,-1.165902853012085,-0.6535396575927734
1789323350295411500,11.528411376953125,4.829015254974365,-0.859621524810791,-0.5889334678649902
1789323350314262500,11.547262451171875,5.324329376220703,-0.8210372924804688,-1.0606186389923096
1789323350333113600,11.566113525390625,5.348556995391846,-1.599302887916565,-0.9601200819015503
1789323350351964700,11.584964599609375,5.994917869567871,-2.286342144012451,-1.2400803565979004
1789323350370815700,11.603815673828125,5.616552829742432,-3.129213809967041,-1.7715860605239868
1789323350389666600,11.62266650390625,5.377270698547363,-3.6125640869140625,-2.3437697887420654
1789323350408518000,11.641517822265625,5.7888360023498535,-3.8234314918518066,-3.200998544692993
1789323350427368700,11.66036865234375,6.380162239074707,-5.118546962738037,-3.248854875564575
1789323350446219800,11.6792197265625,6.602993965148926,-6.277271270751953,-3.3589248657226562
1789323350465070800,11.69807080078125,6.94038200378418,-8.099106788635254,-3.3134610652923584
1789323350483922000,11.716921875,6.574280261993408,-10.04566764831543,-3.6221351623535156
1789323350502773000,11.73577294921875,5.8944196701049805,-11.834003448486328,-3.6053855419158936
1789323350521624000,11.7546240234375,5.791228771209717,-12.485150337219238,-3.7923247814178467
1789323350540475100,11.77347509765625,6.341877460479736,-12.121440887451172,-3.859323740005493
1789323350559326200,11.792326171875,7.306783199310303,-11.245070457458496,-3.4618160724639893
1789323350578177300,11.81117724609375,7.847859859466553,-10.82124137878418,-3.122035264968872
1789323350597028400,11.8300283203125,7.151249408721924,-10.651350975036621,-3.05234432220459
1789323350615879400,11.84887939453125,6.7106709480285645,-10.0073823928833,-2.6862425804138184
1789323350634730500,11.86773046875,6.322734832763672,-9.624231338500977,-1.831406593322754
1789323350653581600,11.88658154296875,5.791228771209717,-9.59073257446289,-1.807478427886963
1789323350672432600,11.9054326171875,5.745765209197998,-9.633803367614746,-2.293520450592041
1789323350691283700,11.92428369140625,6.432804584503174,-9.638588905334473,-2.6096723079681396
1789323350710134500,11.943134521484374,5.96381139755249,-9.676874160766602,-2.2337000370025635
1789323350728985900,11.96198583984375,5.714658737182617,-9.114261627197266,-2.334198474884033
1789323350747836700,11.980836669921874,5.348556995391846,-8.798408508300781,-2.5594229698181152
1789323350766687700,11.999687744140624,5.209474086761475,-8.654540061950684,-2.2671995162963867
1789323350785538800,12.018538818359374,6.071488380432129,-8.896514892578125,-2.6192433834075928
1789323350804390000,12.037389892578124,7.156035423278809,-9.667302131652832,-3.122035264968872
1789323350823241000,12.056240966796874,7.613363265991211,-10.495817184448242,-3.9382870197296143
1789323350842092000,12.075092041015624,7.290033340454102,-10.658529281616211,-4.67078971862793
1789323350860943000,12.093943115234374,6.62931489944458,-9.382556915283203,-4.812265396118164
1789323350879794200,12.112794189453124,6.339484691619873,-8.106285095214844,-4.66361141204834
1789323350898645200,12.131645263671874,6.813562393188477,-7.440781116485596,-4.254438877105713
1789323350917496300,12.150496337890624,7.682755470275879,-7.426424026489258,-4.0435709953308105
1789323350936347400,12.169347412109374,7.936394691467285,-6.880561351776123,-2.968595504760742
1789323350955198500,12.188198486328124,6.937989234924316,-6.284449577331543,-2.262413740158081
1789323350974049500,12.207049560546874,5.798407554626465,-6.002096652984619,-2.5785655975341797
1789323350992900400,12.225900390625,6.1695942878723145,-5.673980712890625,-3.0355947017669678
1789323351011751700,12.244751708984374,5.532804012298584,-4.982155799865723,-2.5857439041137695
1789323351030602500,12.2636025390625,4.884049892425537,-3.4331023693084717,-1.3645070791244507
1789323351049453600,12.28245361328125,5.18315315246582,-2.2887349128723145,0.3089732229709625
1789323351068304600,12.3013046875,5.501697540283203,-2.533101797103882,0.5578267574310303
1789323351087155700,12.32015576171875,4.3310089111328125,-2.2408783435821533,-0.5985047817230225
1789323351106006800,12.3390068359375,4.6540398597717285,-1.4653047323226929,-0.6870391964912415
1789323351124857900,12.35785791015625,4.3788652420043945,-1.2089736461639404,-0.9505487680435181
1789323351143709000,12.376708984375,4.275974273681641,-0.9002995491027832,-0.33050861954689026
1789323351162560000,12.39556005859375,5.113760948181152,-0.8979067206382751,-0.3735794425010681
1789323351181411000,12.4144111328125,5.56151819229126,-1.434198021888733,-0.5291129350662231
1789323351200262100,12.43326220703125,6.198307991027832,-1.8505492210388184,-0.9457631707191467
1789323351219113200,12.45211328125,5.187938690185547,-2.42512583732605,-1.800299882888794
1789323351237964300,12.47096435546875,5.187938690185547,-3.476173162460327,-2.042274236679077
1789323351256815400,12.4898154296875,5.5591254234313965,-4.4482574462890625,-2.6192433834075928
1789323351275666400,12.50866650390625,6.09541654586792,-6.545566558837891,-2.525923490524292
1789323351294517500,12.527517578125,6.595815658569336,-8.40329360961914,-2.2480568885803223
1789323351313368300,12.546368408203126,6.744170665740967,-9.461520195007324,-2.42512583732605
1789323351332219400,12.565219482421876,6.372983932495117,-9.937990188598633,-3.3373894691467285
1789323351351070500,12.584070556640626,6.451947212219238,-10.713563919067383,-4.366901397705078
1789323351379347200,12.61234716796875,7.419245719909668,-12.18365478515625,-5.269294738769531
1789323351398198300,12.6311982421875,7.507780075073242,-12.142976760864258,-5.0347981452941895
1789323351417049300,12.65004931640625,7.65164852142334,-11.235498428344727,-4.1991047859191895
1789323351435900400,12.668900390625,7.392924785614014,-10.095916748046875,-3.583850145339966
1789323351454751200,12.687751220703126,5.9422760009765625,-9.774979591369629,-2.669492721557617
1789323351473602300,12.706602294921876,5.896812438964844,-10.237093925476074,-1.8625133037567139
1789323351492453400,12.725453369140626,6.22702169418335,-10.150951385498047,-1.4294124841690063
1789323351511304400,12.744304443359376,6.55992317199707,-9.719944953918457,-1.92951238155365
1789323351530155500,12.763155517578125,6.291627883911133,-9.499805450439453,-2.059023857116699
1789323351549006600,12.782006591796875,5.980561256408691,-8.874979019165039,-2.255235433578491
1789323351567857700,12.800857666015625,5.736194133758545,-8.424829483032227,-2.7101707458496094
1789323351586708700,12.819708740234375,5.456233978271484,-8.731410026550293,-2.451446771621704
1789323351605559800,12.838559814453125,5.712265968322754,-9.564411163330078,-2.008774518966675
1789323351624411000,12.857410888671875,5.863013744354248,-10.17009449005127,-1.9462621212005615
1789323351643262000,12.876261962890625,6.7417778968811035,-10.220343589782715,-2.903989315032959
1789323351662113000,12.895113037109375,7.526922702789307,-10.225129127502441,-3.9478583335876465
1789323351680964000,12.913964111328125,7.3761749267578125,-10.375877380371094,-4.453042984008789
1789323351699815200,12.932815185546875,6.514459609985352,-9.765408515930176,-4.022035598754883
1789323351718666000,12.951666015625,6.198307991027832,-8.810373306274414,-3.684647798538208
1789323351737517000,12.97051708984375,6.155237197875977,-8.223832130432129,-3.5407793521881104
1789323351756368100,12.9893681640625,6.997809886932373,-8.082356452941895,-3.4953157901763916
1789323351775219200,13.00821923828125,7.558029651641846,-7.483851909637451,-3.617349624633789
1789323351794070300,13.0270703125,7.2349982261657715,-6.681957244873047,-3.7683966159820557
1789323351812921300,13.04592138671875,6.579065799713135,-5.90159797668457,-2.9638099670410156
1789323351831772400,13.0647724609375,6.296413898468018,-4.187140464782715,-1.83619225025177
1789323351850623500,13.08362353515625,6.136094570159912,-3.0667014122009277,-2.2241287231445312
1789323351869474600,13.102474609375,5.925526142120361,-2.090130567550659,-2.5833511352539062
1789323351888325600,13.12132568359375,5.43709135055542,-2.348555326461792,-1.0773683786392212
1789323351907176700,13.1401767578125,5.518447399139404,-2.8369903564453125,0.5889334678649902
1789323351926027800,13.15902783203125,5.147260665893555,-1.7955143451690674,0.29700911045074463
1789323351944878800,13.17787890625,4.6301116943359375,-1.5801602602005005,-0.39511483907699585
1789323351963730000,13.19672998046875,4.1991047859191895,-1.599302887916565,-0.6966105103492737
1789323351982581000,13.2155810546875,4.264009952545166,-1.1419745683670044,-0.1818545162677765
1789323352001431800,13.234431884765625,4.498506546020508,-0.9074779748916626,-0.4142574071884155
1789323352020283000,13.253282958984375,4.91037130355835,-1.3022937774658203,-0.9433703422546387
1789323352039134000,13.272134033203125,4.915156841278076,-1.7356936931610107,-1.1252248287200928
1789323352057985000,13.290985107421875,5.482554912567139,-1.8601205348968506,-1.2161520719528198
1789323352076836000,13.309836181640625,5.678766250610352,-1.9920248985290527,-1.6495521068572998
1789323352095687200,13.328687255859375,5.90159797668457,-3.0499515533447266,-2.659921407699585
1789323352114538200,13.347538330078125,5.90159797668457,-6.540780544281006,-3.1076784133911133
1789323352133389300,13.366389404296875,6.284449577331543,-9.150154113769531,-3.7301113605499268
1789323352152240400,13.385240478515625,6.210271835327148,-11.053644180297852,-3.983750581741333
1789323352171091500,13.404091552734375,5.872584819793701,-12.272189140319824,-3.969393730163574
1789323352189942500,13.422942626953125,6.116951942443848,-12.873086929321289,-3.8617167472839355
1789323352208793600,13.441793701171875,6.887740135192871,-12.882658004760742,-3.6583266258239746
1789323352227644700,13.460644775390625,7.697112083435059,-12.475579261779785,-3.418745279312134
1789323352246495700,13.479495849609375,8.276473999023438,-11.297712326049805,-3.11246395111084
1789323352265346600,13.4983466796875,7.912466049194336,-9.147761344909668,-3.08345103263855
1789323352284198000,13.517197998046875,6.713063716888428,-8.01057243347168,-2.968595504760742
1789323352303048700,13.536048583984375,5.621338367462158,-8.63779067993164,-2.001596212387085
1789323352321899800,13.554899658203125,5.1544389724731445,-9.949954986572266,-1.2640085220336914
1789323352340750800,13.573750732421875,5.650052547454834,-10.048060417175293,-1.6423736810684204
1789323352359602000,13.592601806640625,6.238986015319824,-10.182058334350586,-2.549851655960083
1789323352387878700,13.620878662109375,6.191129684448242,-9.75344467163086,-3.0188448429107666
1789323352406729500,13.6397294921875,5.8944196701049805,-8.898907661437988,-3.6870405673980713
1789323352425580500,13.65858056640625,5.2716875076293945,-8.616254806518555,-3.780360698699951
1789323352444431600,13.677431640625,5.413163185119629,-9.023334503173828,-3.500101327896118
1789323352463282700,13.69628271484375,6.028417587280273,-9.89013385772705,-2.9566314220428467
1789323352482133800,13.7151337890625,6.9068827629089355,-10.27777099609375,-2.848954439163208
1789323352500984800,13.73398486328125,7.345067977905273,-10.363913536071777,-3.284747362136841
1789323352519836000,13.7528359375,7.091429233551025,-10.720743179321289,-3.777967929840088
1789323352538687000,13.77168701171875,6.8279194831848145,-10.708778381347656,-3.85693097114563
1789323352557538000,13.7905380859375,6.509674072265625,-10.225129127502441,-3.811467409133911
1789323352576389000,13.80938916015625,6.133701801300049,-8.695218086242676,-4.309473514556885
1789323352595240200,13.828240234375,6.478567123413086,-7.254140853881836,-4.022035598754883
1789323352614091300,13.84709130859375,7.215855598449707,-6.425626277923584,-3.153141975402832
1789323352632942300,13.8659423828125,7.108178615570068,-5.939883232116699,-2.9542386531829834
1789323352651793400,13.88479345703125,6.260521411895752,-5.379663467407227,-2.4299113750457764
1789323352670644200,13.903644287109374,6.291627883911133,-4.6372904777526855,-1.4844473600387573
1789323352689495300,13.922495361328124,6.260521411895752,-3.660719633102417,-0.5602195858955383
1789323352708346400,13.941346435546874,5.219045162200928,-1.6854444742202759,-0.797109067440033
1789323352727197400,13.960197509765624,4.527220249176025,-1.4533406496047974,-2.30069899559021
1789323352746048500,13.979048583984374,4.958227634429932,-2.30069899559021,-2.7723841667175293
1789323352764899600,13.997899658203124,5.410770416259766,-1.5418751239776611,-1.8170497417449951
1789323352783750700,14.016750732421874,5.166403293609619,-1.5251253843307495,-0.9601200819015503
1789323352802601700,14.035601806640624,5.051547527313232,-1.7261223793029785,-0.39990049600601196
1789323352821452800,14.054452880859374,5.587839126586914,-1.7165511846542358,0.04546362906694412
1789323352840303900,14.073303955078124,5.530411243438721,-2.190629243850708,-0.2225325107574463
1789323352859155000,14.092155029296874,5.384449005126953,-2.5546371936798096,-0.3975076675415039
1789323352878006000,14.111006103515624,5.5591254234313965,-2.4299113750457764,-1.012762188911438
1789323352896857000,14.129857177734374,5.755336761474609,-2.410768747329712,-1.5658032894134521
1789323352915708000,14.1487080078125,5.889334678649902,-2.9805595874786377,-2.26959228515625
1789323352934559000,14.16755908203125,5.743372440338135,-3.490530014038086,-2.635993242263794
1789323352953410000,14.18641015625,6.519245147705078,-4.47697114944458,-2.777169704437256
1789323352972261000,14.20526123046875,6.988238334655762,-6.495316982269287,-3.3756744861602783
1789323352991112200,14.2241123046875,6.80877685546875,-8.982656478881836,-3.890430450439453
1789323353009963300,14.24296337890625,6.823133945465088,-10.514960289001465,-4.1608195304870605
1789323353028814300,14.261814453125,6.768098831176758,-10.852348327636719,-4.036392688751221
1789323353047665400,14.28066552734375,7.349853992462158,-10.888240814208984,-3.9000017642974854
1789323353066516500,14.2995166015625,7.562815189361572,-10.857133865356445,-3.4139597415924072
1789323353085367600,14.318367431640626,7.301997184753418,-10.457531929016113,-2.8992037773132324
1789323353113644000,14.34664404296875,6.842276573181152,-9.37059211730957,-2.9949166774749756
1789323353132495000,14.3654951171875,6.093023777008057,-9.47348403930664,-2.5618157386779785
1789323353151346200,14.38434619140625,6.303592205047607,-10.344770431518555,-2.3054845333099365
1789323353170197200,14.403197265625,6.985845565795898,-11.044073104858398,-1.9968105554580688
1789323353189048300,14.42204833984375,7.5173516273498535,-10.512567520141602,-2.1475582122802734
1789323353207899400,14.4408994140625,7.122535705566406,-9.48066234588623,-2.379662036895752
1789323353226750200,14.459750244140626,6.581458568572998,-8.951549530029297,-2.825026273727417
1789323353245601300,14.478601318359376,6.174379825592041,-9.121439933776855,-3.1435706615448
1789323353264452400,14.497452392578126,5.889334678649902,-9.236295700073242,-3.6125640869140625
1789323353283303400,14.516303466796876,5.819942951202393,-9.028120040893555,-3.9239299297332764
1789323353302154500,14.535154541015626,5.776872158050537,-9.006584167480469,-4.093820571899414
1789323353321005600,14.554005615234376,5.807978630065918,-9.298808097839355,-3.7037904262542725
1789323353339856600,14.572856689453126,6.514459609985352,-9.437591552734375,-3.19860577583313
1789323353358707700,14.591707763671875,7.081857681274414,-9.26291561126709,-3.8162529468536377
1789323353377558500,14.61055859375,7.428816795349121,-8.717052459716797,-4.682754039764404
1789323353396409600,14.62940966796875,8.137690544128418,-8.594719886779785,-4.658825874328613
1789323353415260700,14.6482607421875,8.231010437011719,-8.5133638381958,-4.2592244148254395
1789323353434111700,14.66711181640625,7.46710205078125,-7.488637447357178,-3.4809587001800537
1789323353452962800,14.685962890625,6.787241458892822,-6.586244106292725,-2.4083759784698486
1789323353471814000,14.70481396484375,6.665207386016846,-5.925526142120361,-1.9199410676956177
1789323353490665000,14.7236650390625,6.806384086608887,-5.195116996765137,-1.9558334350585938
1789323353509516000,14.74251611328125,6.078666687011719,-3.6511483192443848,-1.0821540355682373
1789323353528367000,14.7613671875,5.185545921325684,-2.181057929992676,-1.446162223815918
1789323353547218000,14.780218017578125,4.692325115203857,-0.8739784955978394,-2.5450658798217773
1789323353566069000,14.799069091796875,5.283651351928711,-1.9151554107666016,-2.839383125305176
1789323353584920000,14.817920166015625,5.549553871154785,-2.2480568885803223,-1.8146568536758423
1789323353603771100,14.836771240234375,6.112166404724121,-1.7715860605239868,-0.6272186636924744
1789323353622622200,14.855622314453125,6.768098831176758,-1.9199410676956177,-0.766002357006073
1789323353641473300,14.874473388671875,5.935097694396973,-2.0135602951049805,-1.323829174041748
1789323353660324400,14.893324462890625,5.309972763061523,-2.1547367572784424,-1.5801602602005005
1789323353679175400,14.912175537109375,5.1783671379089355,-1.6734803915023804,-0.9481559991836548
1789323353698026200,14.931026123046875,5.899205207824707,-1.6304094791412354,-0.8548358678817749
1789323353716877300,14.949877197265625,5.566303730010986,-2.0231316089630127,-1.2544373273849487
1789323353735728400,14.968728271484375,4.970191955566406,-1.781157374382019,-1.5753746032714844
1789323353754579500,14.987579345703125,5.242973327636719,-2.032702922821045,-1.2448660135269165
1789323353773430500,15.006430419921875,4.922335147857666,-2.5689942836761475,-1.781157374382019
1789323353792281600,15.025281494140625,5.3318071365356445,-3.7731821537017822,-2.173879384994507
1789323353811132700,15.044132568359375,6.222236156463623,-6.401698112487793,-2.5618157386779785
1789323353839409200,15.0724091796875,7.524529933929443,-10.574780464172363,-3.76361083984375
1789323353867685600,15.100685546875,6.937989234924316,-13.253844261169434,-4.977370262145996
1789323353905387800,15.1383876953125,6.689135551452637,-10.754241943359375,-3.9406797885894775
1789323353924238800,15.15723876953125,7.733004570007324,-9.107083320617676,-3.0188448429107666
1789323353943090000,15.17608984375,7.945965766906738,-8.70508861541748,-3.1627132892608643
1789323353961940700,15.194940673828125,6.7896342277526855,-9.425627708435059,-3.6221351623535156
1789323353980791800,15.213791748046875,5.549553871154785,-9.93559741973877,-3.418745279312134
1789323353999643000,15.232642822265625,5.453841209411621,-10.15573787689209,-2.197807550430298
1789323354018494000,15.251493896484375,5.819942951202393,-9.772586822509766,-0.5291129350662231
1789323354037345000,15.270344970703125,6.286842346191406,-9.607481956481934,-1.4892330169677734
1789323354056196000,15.289196044921875,6.396912097930908,-9.63619613647461,-2.5857439041137695
1789323354075047000,15.308046875,6.5288166999816895,-9.52612590789795,-3.0092735290527344
1789323354093898000,15.32689794921875,5.930311679840088,-9.650552749633789,-2.8920252323150635
1789323354112749000,15.3457490234375,5.666802406311035,-9.454340934753418,-2.9374887943267822
1789323354131600100,15.36460009765625,5.712265968322754,-8.9850492477417,-2.825026273727417
1789323354150451200,15.383451171875,5.365306377410889,-8.597112655639648,-2.0853450298309326
1789323354169302300,15.40230224609375,5.911169052124023,-8.846264839172363,-2.2887349128723145
1789323354188153300,15.4211533203125,6.672386169433594,-9.672088623046875,-2.896811008453369
1789323354207004200,15.440004150390624,7.357032299041748,-10.115059852600098,-3.9574296474456787
1789323354225855200,15.458855224609374,7.524529933929443,-10.095916748046875,-4.225724697113037
1789323354244706300,15.477706298828124,7.306783199310303,-9.957133293151855,-3.607778310775757
1789323354263557400,15.496557373046874,7.349853992462158,-9.248259544372559,-3.6822550296783447
1789323354282408400,15.515408447265624,7.201498985290527,-8.13260555267334,-3.928715705871582
1789323354301259500,15.534259521484374,6.868597507476807,-6.447161674499512,-4.1608195304870605
1789323354320110600,15.553110595703124,6.856633186340332,-5.044369220733643,-3.7205400466918945
1789323354338961400,15.57196142578125,6.87099027633667,-4.6540398597717285,-3.308675527572632
1789323354357812500,15.5908125,6.930810928344727,-4.814658164978027,-2.9327032566070557
1789323354376663600,15.60966357421875,6.401698112487793,-4.433900356292725,-2.310270309448242
1789323354395514600,15.6285146484375,5.683551788330078,-3.873680830001831,-1.4796617031097412
1789323354414365700,15.64736572265625,5.013262748718262,-3.8928234577178955,-1.4413765668869019
1789323354433216500,15.666216552734374,5.2956156730651855,-3.006880760192871,-0.6942176818847656
1789323354452067600,15.685067626953124,5.309972763061523,-1.9657038450241089,-0.2946162819862366
1789323354470918700,15.703918701171874,5.358128070831299,-1.714158296585083,-0.6343970894813538
1789323354489769700,15.722769775390624,4.302295207977295,-1.2951152324676514,-0.5697908997535706
1789323354508620800,15.741620849609374,4.017250061035156,-1.1443674564361572,-0.3233301639556885
1789323354527471900,15.760471923828124,4.596612453460693,-1.1754741668701172,0.09571290761232376
1789323354546323000,15.779322998046876,5.587839126586914,-1.6160526275634766,-0.22492532432079315
1789323354565173800,15.798173828125,5.56151819229126,-2.722134828567505,-1.0103694200515747
1789323354584024800,15.81702490234375,5.427519798278809,-2.8776683807373047,-2.0685951709747314
1789323354602876000,15.8358759765625,5.32911491394043,-3.5048868656158447,-2.7915267944335938
1789323354621727000,15.85472705078125,6.468996047973633,-3.9000017642974854,-2.6336004734039307
1789323354640578000,15.873578125,5.860620975494385,-4.752145767211914,-2.8824539184570312
1789323354659429000,15.89242919921875,5.386841773986816,-6.713063716888428,-3.311068296432495
1789323354678280000,15.911280029296876,5.4179487228393555,-8.424829483032227,-3.208176851272583
1789323354697131000,15.930131103515626,5.563910961151123,-8.994620323181152,-3.1244282722473145
1789323354715982000,15.948982177734376,5.24536657333374,-9.911669731140137,-3.1387851238250732
1789323354734833200,15.967833251953126,5.1209397315979,-11.510972023010254,-3.6436707973480225
1789323354753684200,15.986684326171876,5.4418768882751465,-12.961621284484863,-3.983750581741333
1789323354772535000,16.00553515625,7.40488862991333,-14.00549030303955,-2.9925239086151123
1789323354791386000,16.02438623046875,8.357830047607422,-14.498710632324219,-1.446162223815918
1789323354810237200,16.0432373046875,8.518149375915527,-13.514662742614746,-1.6375880241394043
1789323354829088300,16.062088134765624,8.884550094604492,-10.320842742919922,-3.675076484680176
1789323354847939300,16.080939208984375,7.811967849731445,-8.640183448791504,-4.943870544433594
1789323354866790400,16.099790283203124,6.298806667327881,-8.238189697265625,-4.701896667480469
1789323354885641500,16.118641357421875,5.233402252197266,-7.756932735443115,-3.9646079540252686
1789323354904492300,16.1374921875,4.960620403289795,-6.957131862640381,-3.239283561706543
1789323354923343400,16.15634326171875,5.070690155029297,-7.220641613006592,-2.5474588871002197
1789323354942194400,16.1751943359375,5.006083965301514,-8.894122123718262,-1.8768702745437622
1789323354961045500,16.19404541015625,4.500899314880371,-10.14616584777832,-1.3884353637695312
1789323354979896600,16.212896484375,4.280759811401367,-10.569994926452637,-1.3453645706176758
1789323354998747400,16.231747314453123,4.642076015472412,-10.25623607635498,-1.5107684135437012
1789323355017598500,16.250598388671875,5.535196781158447,-10.222736358642578,-2.204986095428467
1789323355036449500,16.269449462890623,6.16480827331543,-10.100702285766602,-2.8274190425872803
1789323355055300600,16.288300537109375,7.057929515838623,-9.772586822509766,-3.5886356830596924
1789323355074151700,16.307151611328123,7.285247802734375,-9.142974853515625,-4.134498596191406
1789323355093002800,16.326002685546875,6.832705020904541,-8.365009307861328,-3.8617167472839355
1789323355111853800,16.344853759765623,6.681957244873047,-7.819146156311035,-3.6942191123962402
1789323355130704600,16.36370458984375,6.686742782592773,-7.5652079582214355,-3.3948171138763428
1789323355149555700,16.3825556640625,6.890132904052734,-7.40488862991333,-3.270390272140503
1789323355168406800,16.40140673828125,7.2421770095825195,-7.694719314575195,-3.2177481651306152
1789323355187257900,16.4202578125,7.536494255065918,-8.02492904663086,-3.555136203765869
1789323355206109000,16.43910888671875,7.654041290283203,-7.5942206382751465,-3.9861433506011963
1789323355224959700,16.457959716796875,7.182356357574463,-6.904489517211914,-3.7971103191375732
1789323355243810800,16.476810791015627,6.806384086608887,-5.633302688598633,-2.777169704437256
1789323355262662000,16.495661865234375,5.915955066680908,-4.395615100860596,-2.2480568885803223
1789323355281513000,16.514512939453127,5.238187789916992,-3.3062827587127686,-2.9063823223114014
1789323355300364000,16.533364013671875,5.66201639175415,-3.059522867202759,-3.2440693378448486
1789323355319215000,16.552215087890627,6.119344711303711,-2.8776683807373047,-1.8577276468276978
1789323355338066000,16.57106591796875,5.937490463256836,-2.063809633255005,-0.24406790733337402
1789323355356917000,16.5899169921875,6.320342063903809,-1.9007984399795532,0.016749758273363113
1789323355375768000,16.60876806640625,5.664409637451172,-2.6647071838378906,-0.9385846853256226
1789323355394619100,16.627619140625,5.6859450340271,-3.308675527572632,-1.7715860605239868
1789323355413470200,16.64647021484375,5.434698581695557,-2.817847728729248,-1.7285152673721313
1789323355432321000,16.665321044921875,5.872584819793701,-2.1164517402648926,-1.350150227546692
1789323355451172000,16.684172119140626,5.851049423217773,-2.169093608856201,-1.4054841995239258
1789323355470023200,16.703023193359375,6.413661956787109,-2.121237277984619,-1.292722463607788
1789323355488874200,16.721874267578126,6.631708145141602,-2.458625316619873,-1.5490535497665405
1789323355507725300,16.740725341796875,5.8821563720703125,-3.045166015625,-1.843370795249939
1789323355526576400,16.759576416015626,6.004489421844482,-3.1316065788269043,-2.276770830154419
1789323355545427500,16.778427490234375,5.999703884124756,-3.3780672550201416,-2.839383125305176
1789323355564278300,16.7972783203125,6.8997039794921875,-4.170390605926514,-3.119642496109009
1789323355583129300,16.81612939453125,6.222236156463623,-5.743372440338135,-3.1435706615448
1789323355601980400,16.83498046875,6.363412857055664,-7.074679374694824,-3.1483564376831055
1789323355620831500,16.85383154296875,6.143272876739502,-8.03210735321045,-3.1172497272491455
1789323355639682600,16.8726826171875,6.372983932495117,-9.006584167480469,-3.0116662979125977
1789323355658533400,16.891533447265626,6.68435001373291,-9.602696418762207,-3.07627272605896
1789323355677384400,16.910384521484374,6.21266508102417,-9.947562217712402,-3.5048868656158447
1789323355696235500,16.929235595703126,6.449554443359375,-10.275378227233887,-3.8473596572875977
1789323355715086600,16.948086669921874,7.024429798126221,-10.275378227233887,-4.096213340759277
1789323355733937700,16.966937744140626,7.184749126434326,-10.512567520141602,-3.9550366401672363
1789323355752788700,16.985788818359374,6.964310169219971,-10.866704940795898,-3.4235310554504395
1789323355771639600,17.0046396484375,6.751348972320557,-10.459924697875977,-2.949453115463257
1789323355790490600,17.02349072265625,6.6939215660095215,-9.954740524291992,-2.2887349128723145
1789323355809341700,17.042341796875,6.380162239074707,-9.952347755432129,-2.1379871368408203
1789323355828192800,17.06119287109375,6.030810356140137,-9.892526626586914,-2.542673110961914
1789323355847043800,17.0800439453125,6.04038143157959,-9.123832702636719,-2.808276414871216
1789323355865895000,17.09889501953125,5.78644323348999,-8.341080665588379,-2.7508487701416016
1789323355884745700,17.117745849609374,5.678766250610352,-8.360222816467285,-2.549851655960083
1789323355903596800,17.1365966796875,5.173581600189209,-8.827122688293457,-2.094916343688965
1789323355922448000,17.15544775390625,5.092225551605225,-8.851051330566406,-2.2600209712982178
1789323355941299000,17.174298828125,5.0587263107299805,-9.040083885192871,-2.3772692680358887
1789323355960150000,17.19314990234375,5.477769374847412,-9.327521324157715,-2.3700907230377197
1789323355979000800,17.212000732421874,6.126523494720459,-9.746265411376953,-2.5016961097717285
1789323355997852000,17.230851806640626,6.301199436187744,-9.645767211914062,-2.8202404975891113
1789323356016703000,17.249702880859374,6.021239280700684,-8.934800148010254,-3.145963668823242
1789323356035554000,17.268553955078126,5.923133373260498,-8.56600570678711,-3.1555347442626953
1789323356054405000,17.287405029296874,5.9422760009765625,-8.219046592712402,-3.191427230834961
1789323356073256000,17.306255859375,6.262914180755615,-7.89332389831543,-3.303889751434326
1789323356092107000,17.32510693359375,6.80877685546875,-7.826324462890625,-3.85693097114563
1789323356110958000,17.3439580078125,7.345067977905273,-8.077570915222168,-4.261617183685303
1789323356129809200,17.36280908203125,7.6875410079956055,-8.67607593536377,-4.371686935424805
1789323356148660200,17.38166015625,7.6253275871276855,-8.72901725769043,-4.242474555969238
1789323356167511000,17.400510986328126,7.156035423278809,-7.395317554473877,-3.653541088104248
1789323356186362000,17.419362060546874,7.057929515838623,-5.563910961151123,-2.786741018295288
1789323356205213200,17.438213134765626,6.545566558837891,-5.477769374847412,-2.3270199298858643
1789323356224064300,17.457064208984374,6.298806667327881,-5.085047245025635,-1.922333836555481
1789323356242915300,17.475915283203125,6.471388816833496,-3.85693097114563,-2.4466612339019775
1789323356261766100,17.49476611328125,7.309175968170166,-4.1991047859191895,-2.564208507537842
1789323356280617200,17.5136171875,7.146463871002197,-3.959822416305542,-2.334198474884033
1789323356299468300,17.53246826171875,5.954239845275879,-3.7540395259857178,-1.7859430313110352
1789323356318319400,17.5513193359375,5.721837043762207,-3.270390272140503,-1.197009563446045
1789323356337170400,17.57017041015625,5.815157413482666,-3.2727832794189453,-1.0295119285583496
1789323356356021200,17.589021240234374,5.422734260559082,-2.5594229698181152,-1.0893324613571167
1789323356374872300,17.607872314453125,5.508875846862793,-1.8457635641098022,-0.9649057388305664
1789323356393723400,17.626723388671873,5.980561256408691,-1.2089736461639404,-0.7253243923187256
1789323356412574500,17.645574462890625,6.21984338760376,-1.5897315740585327,-1.3573286533355713
1789323356431425500,17.664425537109373,5.920740604400635,-1.9558334350585938,-0.9960124492645264
1789323356450276600,17.683276611328125,6.591030120849609,-1.86729896068573,-1.6375880241394043
1789323356469127400,17.70212744140625,5.999703884124756,-2.4777679443359375,-2.032702922821045
1789323356487978500,17.720978515625,5.867799282073975,-2.659921407699585,-2.0207388401031494
1789323356506829600,17.73982958984375,6.3825554847717285,-2.8585257530212402,-2.334198474884033
1789323356525680600,17.7586806640625,5.781657695770264,-3.2297122478485107,-2.6623141765594482
1789323356544531500,17.777531494140625,6.1002020835876465,-4.029214382171631,-2.9303104877471924
1789323356563382500,17.796382568359373,6.586244106292725,-5.815157413482666,-3.10528564453125
1789323356582233600,17.815233642578125,7.182356357574463,-7.646862983703613,-2.8992037773132324
1789323356601084700,17.834084716796873,6.897311210632324,-9.150154113769531,-3.030808925628662
1789323356619935700,17.852935791015625,6.243771553039551,-10.119845390319824,-3.2679975032806396
1789323356638786600,17.87178662109375,5.659623622894287,-10.179665565490723,-3.2297122478485107
1789323356657637600,17.8906376953125,5.776872158050537,-9.887741088867188,-3.284747362136841
1789323356676488700,17.90948876953125,6.277271270751953,-9.471091270446777,-3.4881372451782227
1789323356695339800,17.92833984375,6.902096748352051,-9.20997428894043,-3.7301113605499268
1789323356714190800,17.94719091796875,7.136892795562744,-9.765408515930176,-3.5503506660461426
1789323356733041700,17.966041748046877,6.885347366333008,-11.206785202026367,-3.531208038330078
1789323356751892700,17.984892822265625,6.155237197875977,-11.86750316619873,-3.1339993476867676
1789323356770743800,18.003743896484377,5.475376605987549,-10.895419120788574,-2.11405873298645
1789323356789595000,18.022594970703125,5.743372440338135,-9.011369705200195,-1.599302887916565
1789323356808446000,18.041446044921877,5.398806095123291,-8.633005142211914,-1.6615161895751953
1789323356827296800,18.060296875,5.9183478355407715,-9.200403213500977,-2.3772692680358887
1789323356846147800,18.07914794921875,5.96381139755249,-9.573982238769531,-2.379662036895752
1789323356864999000,18.0979990234375,6.451947212219238,-9.528518676757812,-2.5713870525360107
1789323356883850000,18.11685009765625,5.822335720062256,-9.63619613647461,-2.372483730316162
1789323356902701000,18.135701171875,5.116153717041016,-9.693623542785645,-2.097309112548828
1789323356921552000,18.1545517578125,4.903192520141602,-9.497411727905273,-1.9606190919876099
1789323356940403000,18.17340283203125,5.111368179321289,-8.834300994873047,-1.9127626419067383
1789323356959254000,18.19225390625,5.111368179321289,-8.460721969604492,-2.293520450592041
1789323356978105000,18.21110498046875,5.551946640014648,-8.539685249328613,-2.5112674236297607
1789323356996956000,18.229955810546876,6.21984338760376,-8.762516975402832,-3.030808925628662
1789323357015807000,18.248806884765624,6.6939215660095215,-9.07119083404541,-3.4570305347442627
1789323357034658000,18.267657958984376,7.4001030921936035,-8.692825317382812,-3.983750581741333
1789323357053509000,18.286509033203124,7.603792190551758,-8.724231719970703,-3.9646079540252686
1789323357072360000,18.30535986328125,7.656434059143066,-9.265308380126953,-3.85693097114563
1789323357091211000,18.3242109375,7.587042331695557,-9.50459098815918,-4.110570430755615
1789323357110062000,18.34306201171875,6.971488952636719,-8.52054214477539,-4.709074974060059
1789323357128913200,18.3619130859375,6.8997039794921875,-6.6149582862854,-4.6540398597717285
1789323357147764200,18.38076416015625,7.450352191925049,-5.49930477142334,-3.586242914199829
1789323357166615000,18.399614990234376,7.929215908050537,-5.587839126586914,-2.566601276397705
1789323357185466000,18.418466064453124,6.188736438751221,-5.511268615722656,-1.903191328048706
1789323357204317200,18.437317138671876,5.32193660736084,-5.044369220733643,-2.1260228157043457
1789323357223168300,18.456168212890624,6.0523457527160645,-4.177569389343262,-2.3509483337402344
1789323357242019000,18.47501904296875,6.988238334655762,-3.9167516231536865,-2.128415822982788
1789323357260870100,18.4938701171875,5.839085578918457,-2.9853453636169434,-1.561017632484436
1789323357279721200,18.51272119140625,5.140082359313965,-1.9968105554580688,-0.8500502705574036
1789323357298572300,18.531572265625,5.7720866203308105,-2.3150558471679688,-1.0534402132034302
1789323357317423400,18.55042333984375,5.238187789916992,-2.389233350753784,-0.9960124492645264
1789323357336274200,18.569274169921876,5.6069817543029785,-1.9079769849777222,-0.8548358678817749
1789323357355125200,18.588125244140624,6.562315940856934,-2.166700839996338,-0.6774678826332092
1789323357373976300,18.606976318359376,6.763313293457031,-2.2432711124420166,-1.1778669357299805
1789323357392827400,18.625827392578124,5.803193092346191,-2.3054845333099365,-1.7596219778060913
1789323357411678200,18.64467822265625,5.8944196701049805,-2.293520450592041,-2.073380708694458
1789323357430529300,18.663529296875,6.495316982269287,-2.4466612339019775,-1.9872392416000366
1789323357449380400,18.68238037109375,6.902096748352051,-2.489732027053833,-2.0159530639648438
1789323357468231400,18.7012314453125,5.516054630279541,-2.7101707458496094,-2.4873390197753906
1789323357487082200,18.720082275390624,5.501697540283203,-3.0810582637786865,-2.4466612339019775
1789323357505933300,18.738933349609376,5.939883232116699,-3.7301113605499268,-2.669492721557617
1789323357524784400,18.757784423828124,6.387341022491455,-5.819942951202393,-2.6503500938415527
1789323357543635500,18.776635498046875,6.557530403137207,-7.536494255065918,-2.4011974334716797
1789323357562486500,18.795486572265624,6.720242500305176,-8.851051330566406,-2.7101707458496094
1789323357581337300,18.81433740234375,6.2413787841796875,-9.758230209350586,-2.8537402153015137
1789323357600188400,18.8331884765625,5.714658737182617,-9.894919395446777,-3.224926710128784
1789323357619039500,18.85203955078125,6.030810356140137,-9.669695854187012,-3.339782238006592
1789323357637890300,18.870890380859375,6.842276573181152,-9.664909362792969,-3.5168511867523193
1789323357656741400,18.889741455078124,7.213462829589844,-10.182058334350586,-3.9023945331573486
1789323357675592400,18.908592529296875,6.80877685546875,-11.032109260559082,-3.859323740005493
1789323357694443500,18.927443603515623,6.701099872589111,-11.484352111816406,-3.3828530311584473
1789323357713294300,18.94629443359375,6.727420806884766,-10.536495208740234,-2.597707986831665
1789323357732145400,18.9651455078125,6.255735874176025,-9.305986404418945,-2.2743778228759766
1789323357750996500,18.98399658203125,5.470590591430664,-8.798408508300781,-2.628814697265625
1789323357769847600,19.00284765625,5.370092391967773,-8.762516975402832,-2.98295259475708
1789323357788698400,19.021698486328123,5.800800323486328,-9.439984321594238,-2.755634307861328
1789323357807549400,19.040549560546875,6.358626842498779,-9.966704368591309,-3.122035264968872
1789323357826400500,19.059400390625,5.865406513214111,-9.794121742248535,-2.449054002761841
1789323357845251600,19.07825146484375,5.635695457458496,-9.7366943359375,-1.9079769849777222
1789323357864102400,19.097102294921875,4.998905658721924,-9.471091270446777,-1.7333009243011475
1789323357882953500,19.115953369140627,4.896014213562012,-8.94676399230957,-2.2791635990142822
1789323357901804500,19.134804443359375,4.852943420410156,-8.496614456176758,-2.441875457763672
1789323357920655400,19.1536552734375,5.432305812835693,-8.443971633911133,-2.3988046646118164
1789323357939506400,19.17250634765625,6.08823823928833,-9.095118522644043,-2.566601276397705
1789323357958357500,19.191357421875,6.286842346191406,-9.566803932189941,-2.7269206047058105
1789323357977208600,19.21020849609375,6.830312252044678,-9.559625625610352,-3.0957143306732178
1789323357996059600,19.2290595703125,7.084250450134277,-9.621838569641113,-3.600599765777588
1789323358014910500,19.247910400390627,7.091429233551025,-9.576375007629395,-4.089034557342529
1789323358033761500,19.266761474609375,7.40488862991333,-9.291629791259766,-4.527220249176025
1789323358052612600,19.285612548828126,7.275676250457764,-8.67607593536377,-4.850550651550293
1789323358071463400,19.30446337890625,7.306783199310303,-7.474280834197998,-4.555934429168701
1789323358090314500,19.323314453125,7.244569778442383,-6.315556049346924,-3.9023945331573486
1789323358109165600,19.34216552734375,7.325925827026367,-5.731408596038818,-3.7923247814178467
1789323358128016600,19.3610166015625,7.108178615570068,-5.8821563720703125,-2.6072793006896973
1789323358146867500,19.379867431640626,6.451947212219238,-5.626124382019043,-1.5849459171295166
1789323358165718500,19.398718505859375,5.831906795501709,-5.410770416259766,-2.3916261196136475
1789323358184569600,19.417569580078126,5.913562297821045,-4.934299468994141,-3.169891834259033
1789323358203420400,19.43642041015625,5.664409637451172,-3.507279872894287,-2.0781664848327637
1789323358222271500,19.455271484375,5.458626747131348,-1.434198021888733,-1.048654556274414
1789323358241122600,19.47412255859375,6.3514485359191895,-1.5131611824035645,-0.28983065485954285
1789323358259973600,19.4929736328125,6.296413898468018,-2.3916261196136475,-0.8452646136283875
1789323358278824400,19.511824462890626,6.222236156463623,-2.9542386531829834,-0.8739784955978394
1789323358297675500,19.530675537109374,6.636493682861328,-2.9709885120391846,-1.6734803915023804
1789323358316526600,19.549526611328126,5.812764644622803,-3.308675527572632,-1.6328023672103882
1789323358335377700,19.568377685546874,5.0587263107299805,-1.9848463535308838,-1.378864049911499
1789323358354228500,19.587228515625,5.336592674255371,-1.745265007019043,-1.1922239065170288
1789323358373079600,19.60607958984375,6.4304118156433105,-1.721336841583252,-0.8668000102043152
1789323358391930600,19.6249306640625,5.673980712890625,-1.9414764642715454,-1.1922239065170288
1789323358410781400,19.643781494140626,5.650052547454834,-2.128415822982788,-1.6495521068572998
1789323358429632500,19.662632568359374,6.679564476013184,-2.7173492908477783,-1.8601205348968506
1789323358448483600,19.681483642578126,6.236593246459961,-3.3780672550201416,-2.317448616027832
1789323358467334700,19.700334716796874,5.829514026641846,-4.179962158203125,-2.7484560012817383
1789323358486185500,19.719185546875,6.516852378845215,-5.752943992614746,-2.975774049758911
1789323358505036500,19.73803662109375,7.2421770095825195,-7.34267520904541,-3.160320520401001
1789323358523887600,19.7568876953125,6.954739093780518,-8.134998321533203,-3.7037904262542725
1789323358542738400,19.775738525390626,6.476174354553223,-8.915657043457031,-3.569493293762207
1789323358561589500,19.794589599609374,6.363412857055664,-8.834300994873047,-3.500101327896118
1789323358580440600,19.813440673828126,6.4666032791137695,-9.545269012451172,-3.811467409133911
1789323358599291400,19.83229150390625,6.389733791351318,-10.603494644165039,-3.6460635662078857
1789323358618142500,19.851142578125,6.4905314445495605,-11.359925270080566,-3.2177481651306152
1789323358636993500,19.86999365234375,6.62213659286499,-11.575578689575195,-2.927917718887329
1789323358655844600,19.8888447265625,6.880561351776123,-10.651350975036621,-2.8441689014434814
1789323358674695400,19.9076953125,6.4594244956970215,-9.337093353271484,-3.16749906539917
1789323358693546500,19.92654638671875,5.721837043762207,-8.781659126281738,-3.301496982574463
1789323358712397600,19.9453974609375,6.377769470214844,-8.910871505737305,-2.4634108543395996
1789323358731248400,19.964248291015625,6.914061069488525,-9.545269012451172,-1.9848463535308838
1789323358750099500,19.983099365234374,6.229414463043213,-10.311270713806152,-2.1930220127105713
1789323358768950500,20.001950439453125,5.973382472991943,-10.409675598144531,-1.7620147466659546
1789323358787801300,20.02080126953125,6.090631008148193,-9.902098655700684,-1.2999008893966675
1789323358806652400,20.03965234375,5.774479389190674,-9.140582084655762,-1.8768702745437622
1789323358825503200,20.058503173828125,5.317151069641113,-8.429615020751953,-2.5307090282440186
1789323358844354300,20.077354248046873,5.2166523933410645,-8.534899711608887,-2.9853453636169434
1789323358863205400,20.096205322265625,5.173581600189209,-8.886942863464355,-2.8992037773132324
1789323358882056200,20.11505615234375,5.494519233703613,-8.908478736877441,-2.7891337871551514
1789323358900907300,20.1339072265625,5.886941909790039,-8.903693199157715,-2.5378875732421875
1789323358919758300,20.15275830078125,6.540780544281006,-9.174081802368164,-2.6503500938415527
1789323358938609200,20.171609130859373,6.949953556060791,-9.669695854187012,-3.059522867202759
1789323358957460200,20.190460205078125,7.230212688446045,-9.705587387084961,-3.8473596572875977
1789323358976311300,20.209311279296877,7.5412797927856445,-8.776873588562012,-4.534399032592773
1789323358995162400,20.228162353515625,7.189534664154053,-8.183154106140137,-4.744967460632324
1789323359014013200,20.24701318359375,7.191927433013916,-7.689933776855469,-4.510470867156982
1789323359032864300,20.2658642578125,6.9930243492126465,-7.134500026702881,-3.842574119567871
1789323359051715300,20.28471533203125,6.861418724060059,-6.418447494506836,-3.7372899055480957
1789323359070566100,20.303566162109377,7.483851909637451,-5.867799282073975,-2.865704298019409
1789323359089417200,20.322417236328125,7.431210041046143,-6.404090881347656,-1.9247267246246338
1789323359108268000,20.34126806640625,5.903990745544434,-6.519245147705078,-2.118844509124756
1789323359127119000,20.360119140625,4.960620403289795,-5.7170515060424805,-2.9853453636169434
1789323359145970200,20.37897021484375,6.310770511627197,-4.754538536071777,-3.279961585998535
1789323359164821000,20.397821044921876,7.110571384429932,-4.060320854187012,-2.3365912437438965
1789323359183672000,20.416672119140625,6.49770975112915,-2.6718854904174805,-1.0606186389923096
1789323359202523100,20.435523193359376,5.697908878326416,-2.1930220127105713,-0.4980062246322632
1789323359221374000,20.4543740234375,6.468996047973633,-3.0332016944885254,-0.41186460852622986
1789323359240225000,20.47322509765625,6.301199436187744,-2.8585257530212402,-0.9002995491027832
1789323359259076000,20.492076171875,5.796014785766602,-2.317448616027832,-1.6256239414215088
1789323359277927000,20.510927001953124,5.238187789916992,-2.066202402114868,-1.6256239414215088
1789323359296778000,20.529778076171876,6.176772594451904,-1.7356936931610107,-0.734895646572113
1789323359315629000,20.548629150390624,6.093023777008057,-1.6710875034332275,-1.1491531133651733
1789323359334480000,20.56747998046875,5.7170515060424805,-1.903191328048706,-1.410269856452942
1789323359353331000,20.5863310546875,5.843871116638184,-1.903191328048706,-1.2329018115997314
1789323359372181800,20.605181640625,6.540780544281006,-2.39401912689209,-1.4653047323226929
1789323359391032800,20.62403271484375,6.160022735595703,-2.9159533977508545,-1.8864415884017944
1789323359409884000,20.6428837890625,5.992525100708008,-3.356531858444214,-2.2959132194519043
1789323359438160400,20.671160400390626,6.2653069496154785,-4.357329845428467,-3.028416156768799
1789323359457011200,20.69001123046875,6.504888534545898,-6.203093528747559,-3.006880760192871
1789323359475862300,20.7088623046875,7.1488566398620605,-7.294818878173828,-3.191427230834961
1789323359494713300,20.72771337890625,6.5288166999816895,-8.422436714172363,-3.224926710128784
1789323359513564200,20.746564208984374,6.538387775421143,-9.442377090454102,-3.342175006866455
1789323359532415200,20.765415283203126,6.461817741394043,-10.29452133178711,-3.7731821537017822
1789323359560691700,20.793691650390624,6.2413787841796875,-10.510174751281738,-4.036392688751221
1789323359579542800,20.812542724609376,6.21266508102417,-9.92841911315918,-4.139284133911133
1789323359598393600,20.8313935546875,6.198307991027832,-9.231510162353516,-3.6894333362579346
1789323359617244700,20.85024462890625,6.708278179168701,-9.313164710998535,-2.9638099670410156
1789323359636095500,20.869095458984376,6.705885410308838,-10.36630630493164,-2.7508487701416016
1789323359654946600,20.887946533203124,6.476174354553223,-10.9002046585083,-3.0020952224731445
1789323359673797600,20.906797607421876,6.818347930908203,-10.344770431518555,-2.935096025466919
1789323359692648400,20.9256484375,6.15762996673584,-10.375877380371094,-2.4562325477600098
1789323359711499500,20.94449951171875,5.994917869567871,-10.756634712219238,-2.1020946502685547
1789323359730350300,20.963350341796875,6.504888534545898,-9.993025779724121,-2.5594229698181152
1789323359749201400,20.982201416015624,5.738586902618408,-8.606683731079102,-2.9877381324768066
1789323359768052200,21.00105224609375,4.766502857208252,-7.886145114898682,-2.6192433834075928
1789323359786903300,21.0199033203125,4.735395908355713,-8.063214302062988,-2.403590440750122
1789323359805754400,21.03875439453125,4.77876615524292,-8.53729248046875,-1.8290138244628906
1789323359824605200,21.057605224609375,5.298008441925049,-8.951549530029297,-1.7404793500900269
1789323359843456300,21.076456298828123,5.587839126586914,-9.291629791259766,-1.9657038450241089
1789323359862307000,21.09530712890625,6.155237197875977,-9.61226749420166,-2.557030200958252
1789323359881158100,21.114158203125,6.6149582862854,-10.119845390319824,-3.1387851238250732
1789323359900009200,21.13300927734375,7.227819919586182,-10.098309516906738,-4.110570430755615
1789323359918860000,21.151860107421875,7.158428192138672,-9.734301567077637,-4.817050933837891
1789323359937711000,21.170711181640623,6.890132904052734,-8.879764556884766,-4.364508628845215
1789323359956562000,21.18956201171875,6.748956203460693,-8.55882740020752,-3.770789384841919
1789323359975413000,21.2084130859375,6.760920524597168,-8.17119026184082,-3.9263229370117188
1789323359994264000,21.22726416015625,6.7657060623168945,-7.2589263916015625,-3.7731821537017822
1789323360013115000,21.246114990234375,6.897311210632324,-6.277271270751953,-3.325425386428833
1789323360031966000,21.264966064453127,6.770491600036621,-5.72422981262207,-3.2057840824127197
1789323360050816800,21.283816650390627,6.736992359161377,-5.745765209197998,-2.880061149597168
1789323360079093200,21.31209326171875,6.545566558837891,-5.494519233703613,-1.8792630434036255
1789323360097944300,21.3309443359375,5.896812438964844,-4.7931227684021,-2.025524377822876
1789323360116795400,21.34979541015625,6.567101955413818,-4.098606109619141,-3.02123761177063
1789323360135646200,21.368646240234376,6.665207386016846,-4.563112735748291,-2.856132984161377
1789323360154497000,21.3874970703125,6.643671989440918,-3.9023945331573486,-1.2281162738800049
1789323360173348000,21.40634814453125,6.071488380432129,-2.8537402153015137,-0.7516453862190247
1789323360192199200,21.42519921875,5.676373481750488,-2.5184457302093506,-1.4940186738967896
1789323360211050000,21.444050048828124,5.494519233703613,-2.1475582122802734,-1.2376874685287476
1789323360229901000,21.462901123046876,6.097809314727783,-1.5705889463424683,-0.9864411354064941
1789323360248751900,21.481751953125,5.66201639175415,-1.5705889463424683,-1.2831511497497559
1789323360267603000,21.50060302734375,5.733801364898682,-1.4174482822418213,-1.1204391717910767
1789323360286454000,21.5194541015625,5.911169052124023,-1.5753746032714844,-1.043868899345398
1789323360305304800,21.538304931640624,6.509674072265625,-2.159522533416748,-0.9529415965080261
1789323360324156000,21.557156005859376,6.591030120849609,-2.705385208129883,-1.4318052530288696
1789323360343006700,21.5760068359375,5.66201639175415,-2.9709885120391846,-1.9366908073425293
1789323360361857800,21.59485791015625,6.327520370483398,-3.2416765689849854,-2.396411895751953
1789323360380708600,21.61370849609375,6.363412857055664,-3.4067811965942383,-2.935096025466919
1789323360399559700,21.6325595703125,6.978667259216309,-3.842574119567871,-3.339782238006592
1789323360418410800,21.65141064453125,6.67717170715332,-5.738586902618408,-3.880859136581421
1789323360437261600,21.670261474609376,6.772884368896484,-7.543672561645508,-3.8928234577178955
1789323360456112600,21.689112548828124,6.705885410308838,-8.398508071899414,-3.4785659313201904
1789323360474963500,21.70796337890625,6.478567123413086,-9.157332420349121,-3.5958142280578613
1789323360493814500,21.726814453125,5.700301647186279,-10.088738441467285,-3.945465326309204
1789323360531516400,21.764516357421876,6.203093528747559,-9.308379173278809,-3.411566972732544
1789323360550367200,21.7833671875,6.555137634277344,-8.956335067749023,-3.3852458000183105
1789323360569218300,21.80221826171875,6.404090881347656,-9.806086540222168,-3.2297122478485107
1789323360588069000,21.821069091796875,6.3825554847717285,-11.302497863769531,-3.4809587001800537
1789323360606920200,21.839920166015624,5.851049423217773,-11.752647399902344,-2.839383125305176
1789323360625771000,21.85877099609375,6.085845470428467,-11.312068939208984,-2.0709879398345947
1789323360644622000,21.8776220703125,6.04038143157959,-10.541280746459961,-1.2352946996688843
1789323360663473200,21.89647314453125,6.260521411895752,-9.068798065185547,-1.8218353986740112
1789323360682324000,21.915323974609375,6.195915222167969,-8.532505989074707,-2.535494804382324
1789323360701174800,21.9341748046875,6.181558132171631,-8.937192916870117,-2.9015965461730957
1789323360720025900,21.95302587890625,5.697908878326416,-9.138189315795898,-2.6168506145477295
1789323360738877000,21.971876953125,4.998905658721924,-8.796015739440918,-2.2480568885803223
1789323360757727700,21.990727783203123,4.886443138122559,-8.695218086242676,-2.2743778228759766
1789323360776578800,22.009578857421875,5.164010524749756,-9.044869422912598,-2.3533411026000977
1789323360795429600,22.0284296875,5.463412284851074,-9.411270141601562,-1.9630118608474731
1789323360814280700,22.04728076171875,5.939883232116699,-9.691230773925781,-2.338984251022339
1789323360833131500,22.066131591796875,6.392126560211182,-9.782157897949219,-2.8776683807373047
1789323360851982600,22.084982666015627,6.617351055145264,-9.60508918762207,-3.11246395111084
1789323360870833400,22.10383349609375,6.926024913787842,-9.459127426147461,-3.428316593170166
1789323360889684500,22.1226845703125,6.942774772644043,-8.805587768554688,-3.7731821537017822
1789323360908535300,22.141535400390627,7.144071102142334,-7.902894973754883,-4.16799783706665
1789323360927386400,22.160386474609375,7.371389389038086,-7.172784805297852,-4.031607151031494
1789323360946237200,22.1792373046875,6.914061069488525,-7.019644260406494,-4.000500202178955
1789323360965088300,22.198088134765626,6.28205680847168,-6.7657060623168945,-3.7827534675598145
1789323360983939000,22.21693896484375,6.976274490356445,-5.84865665435791,-3.5814573764801025
1789323361002790100,22.2357900390625,7.881359577178955,-6.27487850189209,-3.1172497272491455
1789323361021641000,22.254640869140626,7.354639530181885,-6.784848690032959,-2.973381280899048
1789323361040492000,22.273491943359375,6.476174354553223,-6.210271835327148,-3.3373894691467285
1789323361059342800,22.2923427734375,6.794419765472412,-4.67078971862793,-3.7205400466918945
1789323361078194000,22.31119384765625,7.740182876586914,-4.625326156616211,-2.975774049758911
1789323361097044700,22.330044677734374,6.236593246459961,-3.699004650115967,-1.55623197555542
1789323361115895800,22.348895751953126,5.101797103881836,-2.0781664848327637,-0.5745765566825867
1789323361134746600,22.36774658203125,4.967798709869385,-2.2743778228759766,0.03349951654672623
1789323361153597700,22.38659765625,5.819942951202393,-2.1092731952667236,-0.12921242415905
1789323361172448500,22.405448486328126,5.439484119415283,-2.008774518966675,-0.9122636318206787
1789323361191299600,22.424299560546874,6.294020652770996,-1.6998014450073242,-1.0151549577713013
1789323361210150400,22.443150390625,6.28205680847168,-1.8888343572616577,-1.450947880744934
1789323361229001500,22.46200146484375,6.305984973907471,-2.1236300468444824,-1.7165511846542358
1789323361247852300,22.480852294921874,6.104988098144531,-2.597707986831665,-1.2735798358917236
1789323361266703400,22.499703369140626,6.451947212219238,-2.4610180854797363,-1.505982756614685
1789323361285554200,22.51855419921875,6.16480827331543,-2.504088878631592,-2.080559253692627
1789323361304405000,22.537405029296874,5.9566330909729,-2.975774049758911,-2.4370899200439453
1789323361323256000,22.556256103515626,6.224628925323486,-3.4307093620300293,-2.7101707458496094
1789323361342107000,22.57510693359375,6.059524059295654,-3.5503506660461426,-3.0236306190490723
1789323361360958000,22.5939580078125,6.432804584503174,-4.273581027984619,-2.973381280899048
1789323361379808800,22.612808837890626,6.686742782592773,-6.10259485244751,-2.786741018295288
1789323361398659800,22.631659912109374,6.756134510040283,-8.20947551727295,-2.8058836460113525
1789323361417510700,22.6505107421875,6.081059455871582,-9.123832702636719,-3.1004998683929443
1789323361436361700,22.66936181640625,5.9662041664123535,-9.10229778289795,-3.279961585998535
1789323361455212500,22.688212646484374,5.78644323348999,-9.22433090209961,-3.3517463207244873
1789323361483489000,22.716489013671875,6.114559173583984,-9.578767776489258,-3.6340994834899902
1789323361502339800,22.73533984375,6.258128643035889,-9.988240242004395,-3.8138601779937744
1789323361521191000,22.75419091796875,6.787241458892822,-10.912168502807617,-3.576671600341797
1789323361540041700,22.773041748046875,7.1488566398620605,-12.150155067443848,-3.256033420562744
1789323361558892800,22.791892822265623,6.770491600036621,-12.334402084350586,-2.8202404975891113
1789323361577743600,22.81074365234375,6.918846607208252,-10.751849174499512,-2.5546371936798096
1789323361596594700,22.8295947265625,6.909275531768799,-9.056833267211914,-2.504088878631592
1789323361615445500,22.848445556640623,6.162415504455566,-8.501399993896484,-3.1746773719787598
1789323361634296300,22.86729638671875,5.819942951202393,-8.66889762878418,-3.08345103263855
1789323361653147400,22.8861474609375,5.403591632843018,-8.55164909362793,-2.8058836460113525
1789323361671998200,22.904998291015627,5.2716875076293945,-8.810373306274414,-2.135594129562378
1789323361690849300,22.923849365234375,5.429912567138672,-9.294022560119629,-2.0757737159729004
1789323361709700000,22.9427001953125,4.951049327850342,-9.633803367614746,-1.6160526275634766
1789323361728551200,22.96155126953125,5.309972763061523,-9.741479873657227,-1.9800606966018677
1789323361747402000,22.980402099609375,5.56869649887085,-9.550054550170898,-2.6814568042755127
1789323361766252800,22.999252685546875,5.798407554626465,-9.052047729492188,-3.224926710128784
1789323361785104000,23.018103759765626,6.203093528747559,-8.910871505737305,-3.8306100368499756
1789323361803954700,23.03695458984375,6.327520370483398,-9.226723670959473,-3.7899320125579834
1789323361822805800,23.0558056640625,6.667600154876709,-9.121439933776855,-3.562314748764038
1789323361841656600,23.074656494140626,6.775277137756348,-8.384151458740234,-3.1483564376831055
1789323361860507400,23.09350732421875,6.207879066467285,-7.907680511474609,-2.848954439163208
1789323361879358500,23.1123583984375,6.08823823928833,-7.591827869415283,-3.2919256687164307
1789323361898209300,23.131209228515626,6.775277137756348,-7.587042331695557,-3.5982069969177246
1789323361917060400,23.150060302734374,7.83111047744751,-7.733004570007324,-3.801896095275879
1789323361935911200,23.1689111328125,8.247760772705078,-7.771289825439453,-3.864109516143799
1789323361954762200,23.18776220703125,8.19272518157959,-6.94038200378418,-3.746861219406128
1789323361973613000,23.206613037109374,7.122535705566406,-6.598208427429199,-3.2991042137145996
1789323361992464000,23.2254638671875,6.4064836502075195,-6.253343105316162,-3.1339993476867676
1789323362011315000,23.24431494140625,6.964310169219971,-5.305186748504639,-3.684647798538208
1789323362030165800,23.263165771484374,8.060821533203125,-5.209474086761475,-3.6293137073516846
1789323362049016800,23.282016845703126,5.822335720062256,-4.381258487701416,-2.683849811553955
1789323362067867600,23.30086767578125,4.194318771362305,-2.389233350753784,-0.7301099896430969
1789323362086718500,23.319718505859374,5.044369220733643,-1.1300104856491089,0.21774685382843018
1789323362105569500,23.338569580078126,5.226223945617676,-1.6040884256362915,-0.13639089465141296
1789323362124420400,23.35742041015625,5.1544389724731445,-1.599302887916565,-0.40707895159721375
1789323362143271400,23.376271484375,5.930311679840088,-1.953440546989441,-1.2352946996688843
1789323362162122200,23.395122314453126,5.530411243438721,-2.276770830154419,-1.3405789136886597
1789323362180973000,23.41397314453125,5.587839126586914,-2.1308085918426514,-1.4868401288986206
1789323362199824100,23.43282421875,5.774479389190674,-2.080559253692627,-1.6328023672103882
1789323362218675000,23.451675048828125,6.023632049560547,-2.1475582122802734,-1.3764712810516357
1789323362237525800,23.47052587890625,6.112166404724121,-2.2671995162963867,-1.342971682548523
1789323362256376800,23.489376953125,6.186343669891357,-2.5546371936798096,-1.9896320104599
1789323362275227600,23.5082275390625,5.915955066680908,-3.0933215618133545,-2.667099952697754
1789323362294078700,23.52707861328125,6.669992923736572,-3.7899320125579834,-3.0236306190490723
1789323362312929500,23.545929443359373,6.679564476013184,-5.1209397315979,-3.07627272605896
1789323362331780400,23.5647802734375,6.198307991027832,-7.072286605834961,-3.5192439556121826
1789323362350631400,23.58363134765625,6.665207386016846,-8.120641708374023,-3.4067811965942383
1789323362369482200,23.602482177734377,6.325127601623535,-8.060821533203125,-3.0020952224731445
1789323362388333000,23.6213330078125,6.104988098144531,-8.199904441833496,-3.253640651702881
1789323362407184100,23.64018408203125,5.935097694396973,-9.133403778076172,-3.890430450439453
1789323362426035000,23.659034912109377,6.21266508102417,-9.997811317443848,-3.9885363578796387
1789323362444885800,23.6778857421875,6.320342063903809,-10.763813972473145,-3.746861219406128
1789323362463736800,23.69673681640625,6.006882190704346,-11.51815128326416,-3.1890344619750977
1789323362482587600,23.715587646484376,6.62931489944458,-11.697612762451172,-2.724527597427368
1789323362501438500,23.7344384765625,7.043572425842285,-11.010573387145996,-2.6551358699798584
1789323362520289500,23.75328955078125,6.760920524597168,-9.952347755432129,-3.332603693008423
1789323362539140400,23.772140380859376,6.705885410308838,-9.310771942138672,-4.057928085327148
1789323362557991200,23.7909912109375,5.903990745544434,-9.444769859313965,-3.5982069969177246
1789323362576842200,23.80984228515625,6.08823823928833,-9.411270141601562,-2.643171787261963
1789323362595693000,23.828693115234376,6.349055767059326,-9.509376525878906,-2.152343988418579
1789323362614544000,23.8475439453125,5.7409796714782715,-9.825528144836426,-2.0039889812469482
1789323362633394700,23.866394775390624,4.958227634429932,-9.669695854187012,-1.7907286882400513
1789323362652245800,23.885245849609376,4.860121726989746,-9.18843936920166,-1.92951238155365
1789323362671096600,23.9040966796875,5.1544389724731445,-9.059226989746094,-2.1547367572784424
1789323362689947400,23.922947509765624,5.32193660736084,-9.341878890991211,-2.2121646404266357
1789323362708798500,23.941798583984376,5.4418768882751465,-9.289237022399902,-2.2983062267303467
1789323362727649300,23.960649169921876,5.97098970413208,-8.992227554321289,-2.7197420597076416
1789323362746500000,23.9795,6.411269187927246,-8.752944946289062,-3.090928554534912
1789323362765351200,23.99835107421875,6.68435001373291,-8.748159408569336,-3.5096726417541504
1789323362784202000,24.017201904296876,6.971488952636719,-8.64496898651123,-4.038785457611084
1789323362803052800,24.036052734375,6.861418724060059,-8.305188179016113,-4.225724697113037
1789323362821904000,24.05490380859375,7.026822566986084,-7.979465484619141,-4.16799783706665
1789323362840754700,24.073754638671875,7.115357398986816,-8.048856735229492,-4.045963764190674
1789323362859605500,24.09260546875,7.069893836975098,-8.453543663024902,-3.904787540435791
1789323362878456300,24.111456298828124,7.5173516273498535,-7.948358535766602,-4.069892406463623
1789323362897307400,24.130307373046875,7.206284523010254,-6.727420806884766,-3.967000722885132
1789323362916158200,24.149158203125,7.409674644470215,-6.02602481842041,-3.19860577583313
1789323362935009000,24.168009033203123,7.165606498718262,-5.738586902618408,-2.7029922008514404
1789323362953859800,24.18685986328125,6.918846607208252,-4.812265396118164,-3.088535785675049
1789323362972711000,24.2057109375,6.389733791351318,-4.400400638580322,-3.270390272140503
1789323362991561700,24.224561767578123,6.09541654586792,-3.746861219406128,-2.5184457302093506
1789323363010412500,24.24341259765625,5.283651351928711,-1.8553348779678345,-1.4676976203918457
1789323363029263600,24.262263671875,5.84865665435791,-1.8290138244628906,-0.6080760359764099
1789323363048114400,24.281114501953127,6.181558132171631,-2.5232315063476562,-0.5458626747131348
1789323363066965200,24.29996533203125,5.673980712890625,-2.9470601081848145,-0.7803592681884766
1789323363085816000,24.318816162109375,5.408377170562744,-2.1092731952667236,-0.8620143532752991
1789323363104667000,24.3376669921875,5.9901323318481445,-1.8529419898986816,-0.8401798605918884
