time,seconds_elapsed,z,y,x
1789213560238507000,0.102507080078125,-0.9113298317760229,-0.2083668561041355,-0.056586577759869396
1789213560248539100,0.1125390625,-0.288020238533616,0.008952537262439728,0.06266995279416442
1789213560258571300,0.1225712890625,0.6191168177276849,-0.00196633163690567,-0.01824928485266864
1789213560268603100,0.13260302734375,2.2068407672017814,0.2523503747373819,0.22225551632819696
1789213560278636300,0.14263623046875,1.746986290669441,0.5910264492750168,0.47009873410575087
1789213560288668200,0.152668212890625,-0.48365094718337054,0.4510761267930269,0.2894870231505483
1789213560298700000,0.162699951171875,-1.71151574883759,-0.28012977754473684,0.26016307604862376
1789213560308732200,0.172732177734375,-1.4018828134328125,-1.2663117289483548,0.4999480019897222
1789213560318764300,0.182764404296875,-1.2516840686589479,-1.5480962879627942,0.1094014549612999
1789213560328796200,0.192796142578125,-1.570920698711276,-1.0132307018488644,-0.10497340938597917
1789213560338829000,0.2028291015625,-1.2391262003809214,-0.8820517148435115,-0.41093474360592663
1789213560348861200,0.212861083984375,-0.8554039464145898,-0.8409668402612209,-0.49442280882745976
1789213560358893000,0.22289306640625,-0.1659860964924097,-0.16787760932743548,-0.23571144769079982
1789213560368925200,0.23292529296875,0.08285890047252177,0.512854245314002,0.013929768552584572
1789213560378958300,0.242958251953125,-0.49574528960287567,0.8292536061137914,-0.29200189204830673
1789213560388990200,0.252990234375,-1.0795721827626228,0.677422291702032,-0.3751036978986114
1789213560399022000,0.26302197265625,-1.2818266934663056,-0.004281038320064544,-0.20404194210972637
1789213560409054000,0.273053955078125,-0.9672855277538299,-0.5858592757701874,0.07425797139303758
1789213560419086300,0.28308642578125,-0.6191682556539774,-0.3736684774637222,0.27486491581909356
1789213560429119200,0.293119140625,0.03240297095477581,0.0013327099084854126,0.1339547535953112
1789213560439151000,0.303151123046875,0.22650690842866897,0.5813175406873226,-0.1802337810209021
1789213560449183200,0.313183349609375,-0.1468763223528862,1.184347731488943,-0.5335979042656719
1789213560459215000,0.323215087890625,-0.09140870215296745,1.5677642805069685,-0.3655050812849775
1789213560469247000,0.3332470703125,-0.9552221649944782,2.010702109029889,1.2714431004874407
1789213560479280000,0.343280029296875,-1.1404875469744205,0.6989110699325799,1.4634363294176755
1789213560489312300,0.353312255859375,0.007236965516209602,-0.4311702338397503,0.5230486723963171
1789213560499344100,0.36334423828125,0.6508733074724674,0.05991290917098522,0.04267436769686173
1789213560509376000,0.3733759765625,0.2091033536851406,0.6197270585805177,-0.18049140904378144
1789213560519408000,0.383408203125,0.15286299554705618,0.604897738239169,0.5788012104848399
1789213560529441000,0.39344091796875,1.1129290934413671,0.6431155329525471,1.8688814626313746
1789213560539473200,0.40347314453125,1.8145809865146874,0.784154819715023,2.591084706954658
1789213560549506000,0.413506103515625,2.04615394616127,0.5760825626432895,2.6688056600168344
1789213560559538200,0.4235380859375,2.7728093475878235,0.4874924250423908,2.0346037936210633
1789213560569571000,0.433571044921875,1.9974737941443919,0.32074528104960914,1.0913565093848854
1789213560579603000,0.44360302734375,-0.6281359904855489,0.4863736501455307,0.39103140793591734
1789213560589635000,0.453635009765625,-3.0864217080175873,0.23469079940617082,0.09439239413887261
1789213560599667200,0.463667236328125,-4.041717522770166,0.13695698588490485,0.2722336540000513
1789213560609699000,0.473698974609375,-3.875169116219878,0.28586452180445193,0.747561703594029
1789213560619732200,0.483732177734375,-1.8713000680804253,0.653082215693593,1.0019802629075945
1789213560629764000,0.49376416015625,2.7023779670119286,1.4004419669747352,-0.2394688274629414
1789213560639796000,0.5037958984375,3.2948125295192003,1.6182698943853377,-2.033934223796427
1789213560649827800,0.513827880859375,0.6064712711662054,0.30809330474734303,-1.8447829402938485
1789213560659861000,0.523861083984375,0.1143809969395399,-0.4114268379718065,-0.5084585676383226
1789213560669893000,0.53389306640625,0.5626099176079035,-0.5255640892833471,0.48062977273128926
1789213560679925000,0.543925048828125,0.2506429862976074,-0.714983668333292,0.7861038348909467
1789213560689957000,0.55395703125,-0.16075871723294258,-0.8342524373143911,1.0050294944103806
1789213560699989000,0.563989013671875,-0.27954584017693995,-0.5502794283449649,1.1965461918700486
1789213560710022000,0.57402197265625,-0.4646797047317028,0.004871989950537681,1.4109490402027964
1789213560720054000,0.584053955078125,0.11911503972411155,0.45637540224492545,0.8424718379966915
1789213560730086100,0.594086181640625,0.6328291167378425,0.6532365294724702,0.1741984829120338
1789213560740118000,0.604117919921875,0.4048883761137724,0.5690162775188684,-0.19795794602092354
1789213560750150000,0.61414990234375,-0.04168167143166065,0.3849444892376661,-0.35590704919323324
1789213560760183000,0.62418310546875,-0.5406061755925416,0.14466449152231214,-0.5678479643918574
1789213560770215000,0.63421484375,-0.6294125862926244,0.06851824043095112,-0.7128988979484886
1789213560780247000,0.6442470703125,-0.5945300734817981,0.2549737089782953,-0.44071043479703365
1789213560790279000,0.65427880859375,-0.34374621740877626,0.3156774762660265,-0.23946163053717462
1789213560800312000,0.66431201171875,0.0045662850022315975,0.2868354126632213,-0.7286115039303899
1789213560810344000,0.674343994140625,-0.28492402608394624,0.5965121872097253,-1.2313428530283272
1789213560820375800,0.684375732421875,-0.7848106532752513,0.8594131820559501,-1.8844532719030975
1789213560830408200,0.694408203125,-0.9043716832011938,1.1220762764930725,-1.8380081854619084
1789213560840440000,0.704440185546875,-0.41345571345090865,0.8536930508434772,-1.327588766079396
1789213560850473000,0.714472900390625,0.04360767105817794,0.17722586790919304,-0.7237848144263028
1789213560860505000,0.724505126953125,0.07012976728081703,0.113121936789155,-0.6545262770220637
1789213560870537000,0.734536865234375,0.015156652599573134,0.31328736625909803,-0.7169699467796832
1789213560880569000,0.744569091796875,0.32455870185792446,0.5195470209509134,-0.7380353850316256
1789213560890602000,0.75460205078125,0.3017348756313324,0.37230829502642154,-0.8436267071202397
1789213560900634000,0.764634033203125,0.20651333719193934,0.28875205993950365,-0.8533074855919927
1789213560910666000,0.774666015625,0.1995610338360071,0.2247837378978729,-0.5629350213764235
1789213560920697900,0.78469775390625,-0.07638356697857379,0.13714929358661174,-0.5741723451077938
1789213560930730000,0.79472998046875,-0.1475596284419298,0.26216391274333,-0.6397700949821621
1789213560940763000,0.804762939453125,-0.023844985967874526,0.3192787156283855,-0.6087225572243332
1789213560950795000,0.814794921875,-0.04359890322983265,0.24594109221696853,-0.5642174989350139
1789213560960827100,0.8248271484375,-0.003023731735348701,0.2253290968209505,-0.5925931506024673
1789213560970859000,0.83485888671875,-0.01830430297553539,0.3834767547726631,-0.784492381106317
1789213560980892000,0.844891845703125,-0.20823884581029414,0.8510241238951682,-0.9135232501670718
1789213560990924000,0.854924072265625,-0.11545417912900448,0.9160346484661102,-0.698171868937835
1789213561000956200,0.8649560546875,0.19466215587854385,0.48214346522986884,-0.7496279154088348
1789213561010988000,0.874988037109375,0.21737141581475733,0.3716916244328022,-0.7445930630467832
1789213561021021200,0.885021240234375,0.3683189331293106,0.5462742843568325,-0.6235901637494564
1789213561031053000,0.895052978515625,0.464675613078475,0.5236147087812424,-0.7586154509194195
1789213561041085000,0.9050849609375,0.7697118683427572,0.20308511630892753,-0.6019566798185929
1789213561051117000,0.915116943359375,0.6172001704514026,-0.004195113602280616,-0.5060728415455669
1789213561061149200,0.925149169921875,0.5832698437988758,0.13036007183790208,-0.5268984431596473
1789213561071182000,0.93518212890625,0.624980156803131,-0.0037029461711645126,-0.4102122380176559
1789213561081214000,0.9452138671875,0.09568623334169388,0.05340133531987667,-0.5490672760762274
1789213561091246000,0.95524609375,0.09526537758111953,0.018017887249588964,-0.5326446586614474
1789213561101278000,0.96527783203125,-0.256412217348814,-0.16906301971971988,-0.4806412805059924
1789213561111310800,0.975310791015625,-0.6864753667294978,-0.04126724541187286,-0.6167753691680729
1789213561121343200,0.98534326171875,-0.8169991046965122,0.15962357572317123,-0.618141908280924
1789213561131375000,0.995375,-0.7815460985213518,-0.07429799287617206,-0.20119990535052493
1789213561141407000,1.005406982421875,-1.223210838368535,0.060952773612737654,-0.4132451029075309
1789213561151440000,1.01543994140625,-1.0355863260418177,0.1877361560076475,-0.5034929811201989
1789213561161472000,1.025471923828125,-0.9576496844023465,-0.46020811227560043,-0.4150309268783778
1789213561171504000,1.035504150390625,-0.9856284091740846,-0.7342582776457071,-0.0574404272433836
1789213561181536000,1.045535888671875,-0.8364239361345768,-0.809863845989108,0.11884911879692225
1789213561191568100,1.055568115234375,-0.7250783613681793,-0.6606903526097536,0.062088417446007946
1789213561201601000,1.06560107421875,-0.8514490713089704,-0.49555531998872754,0.1849581426616758
1789213561211633000,1.0756328125,-0.8585258778274059,-0.38408056588470935,0.1731859814012423
1789213561221665000,1.0856650390625,-0.7466244227439165,-0.2520470078766346,-0.06296372984265908
1789213561231697200,1.095697265625,-0.7360317170590162,-0.1579085884988308,-0.13750522175165825
1789213561241730000,1.10572998046875,-0.5393167203038931,-0.24686872845590113,-0.04142379224703181
1789213561251762000,1.115761962890625,-0.9657716160595416,-0.1153045415252447,-0.36386246517710386
1789213561261794000,1.1257939453125,-0.9184031311631202,-0.007136427751183509,-0.2515413599094376
1789213561271826000,1.135825927734375,-0.7433926012158394,-0.3968582143932581,-0.1560147558425553
1789213561281858800,1.14585888671875,-0.8955483252763747,-0.21892975117266178,-0.046078472485346716
1789213561291891200,1.15589111328125,-0.35553251679241654,0.04492927505075931,0.07778639211435802
1789213561301923000,1.165923095703125,-0.13108897063434125,0.11958967149853705,0.0033417276263586243
1789213561311955000,1.175954833984375,0.11911445520222186,-0.04649579371511936,0.0014952047105296514
1789213561321988000,1.185988037109375,0.3738771517783403,-0.17159575306773184,0.10145390262347645
1789213561332020000,1.19602001953125,0.216422736787796,-0.12481997336745261,0.4789875584822148
1789213561342052000,1.206052001953125,0.33288872330784797,-0.16887305010557174,0.5346127073314041
1789213561352084000,1.216083984375,0.3128571581482887,-0.12842705794870854,0.5970537467405199
1789213561362117000,1.2261171875,0.14817629903554916,-0.10417524474561214,0.7619878499619662
1789213561372149000,1.23614892578125,0.3609668168008327,-0.12113222476541995,0.8177905473351478
1789213561382180900,1.246180908203125,-0.19132044423520564,0.15083470458984374,0.6753443894494324
1789213561392213000,1.256212890625,-0.30985330015718937,0.5348737694203853,0.8301214019242673
1789213561402245000,1.2662451171875,0.005833528459072113,0.07211188100874423,1.199461713990569
1789213561412278000,1.276278076171875,-0.33836569341421124,-0.13478724063038824,1.1715914910946041
1789213561422310100,1.28631005859375,-0.49360301687717434,0.2596259186983108,1.0984300279676913
1789213561432342000,1.296342041015625,-0.0271878666549921,0.42709319365918635,0.8958186666503548
1789213561442374000,1.306373779296875,0.21337387061119079,0.5036474410295486,0.9415271824453025
1789213561452407000,1.316406982421875,-0.26519758135080335,0.9176111040025949,1.013951417338848
1789213561462439200,1.326439208984375,0.4418687379866838,0.6357096406102181,1.2261124050289391
1789213561472471000,1.336470947265625,0.20349486615359783,0.14061433934867382,1.4320824291244147
1789213561482503000,1.3465029296875,-0.5476426501005888,0.30676585553586483,1.3794225598216057
1789213561492536000,1.3565361328125,-0.642966479870677,0.5436223085433244,0.9456044418215751
1789213561502568000,1.36656787109375,-0.7769885813474655,0.7203098317921162,0.7978738407269119
1789213561512600000,1.37660009765625,-0.7055237660706043,0.3271837896645069,0.8101791224833578
1789213561522632200,1.386632080078125,-0.8094283771812916,0.40552141332030295,0.6666853552408516
1789213561532665000,1.3966650390625,-0.7779962970852852,0.8485521808236837,0.5808830947928131
1789213561542696000,1.406696044921875,-0.6208849964439869,1.0831821899533272,0.23224285826478153
1789213561552728000,1.41672802734375,-0.13987258107066153,0.7297317401319742,0.2723725510140881
1789213561562760200,1.42676025390625,-0.15983867977857588,0.2512806996792555,0.21394761537853627
1789213561572793000,1.43679296875,-0.25902795280516144,0.021189503023028373,0.20141676297159863
1789213561582825200,1.4468251953125,-0.6233002408921718,-0.11557225255072116,0.10456797039024532
1789213561592857000,1.456857177734375,-0.1770662934333086,-0.5632727654308081,0.09901824557492508
1789213561602889000,1.466888916015625,-0.7246405544728041,-0.5730196679413319,0.14509882781896738
1789213561612922000,1.476922119140625,-1.1240846937060356,0.06525719280838967,-0.3456747377859428
1789213561622954200,1.486954345703125,-1.3920932408243416,0.4274795626282692,-0.7444504397056997
1789213561632986000,1.496986083984375,-0.6328063203841447,-0.0038221886366605756,-0.7398746562227606
1789213561643018000,1.50701806640625,-0.3523047869175672,-0.518548073041439,-0.3735098163032904
1789213561653051100,1.517051025390625,-0.3318295696437359,-0.5089022928178311,-0.3522654412878677
1789213561663083000,1.5270830078125,-0.46521980295777315,-0.04147767329216003,-0.6760719000063836
1789213561673115100,1.537115234375,-0.22878537475466726,0.29604455503523347,-0.9879369053121656
1789213561683147300,1.547147216796875,0.22136077771186827,0.023861352580785748,-0.5290816689502448
1789213561693180200,1.55718017578125,0.11349603079855441,-0.1064730002939701,-0.2645851120082661
1789213561703212000,1.5672119140625,-0.30569267334640027,0.42127544729113575,-0.6012163463126867
1789213561713244200,1.577244140625,0.12771160315573216,0.08486147246658801,-0.4197768792964518
1789213561723276000,1.587276123046875,-0.006699205377697944,0.07692834137976169,-0.2606856203516945
1789213561733309000,1.597308837890625,0.1875309888243675,0.18657821814417838,-0.3129652216326445
1789213561743341300,1.60734130859375,0.1646703377187252,-0.03418693176209926,-0.4084786556906998
1789213561753373200,1.617373291015625,0.20841127976775167,-0.08268646651506424,-0.4692810610473156
1789213561763405000,1.627405029296875,0.18162907130420206,0.13289163614213464,-0.5210838385967538
1789213561773438200,1.637438232421875,0.3567255259692669,0.11086217516362666,-0.3227748871810734
1789213561783470000,1.647469970703125,0.7311340081453322,0.026765257328748703,-0.20916931332712993
1789213561793502200,1.657502197265625,0.45984395513832566,0.33534313072264194,-0.28770569269172847
1789213561803534000,1.6675341796875,1.0656851117074488,0.2995645458549261,0.16261466556424273
1789213561813566200,1.677566162109375,0.6559118861615657,0.3508025656610727,0.3080834409404546
1789213561823599000,1.68759912109375,0.08498772919476032,0.40756431732475756,-0.16845783863449468
1789213561833631000,1.697630859375,0.08798574196696281,-0.05319850622415542,0.3438475223587826
1789213561843663000,1.7076630859375,-0.5263929413229227,-0.021296470528841017,0.21050602355729786
1789213561853696000,1.717696044921875,-0.34894553961753844,0.34744916357994077,-0.18915035192081703
1789213561863728000,1.72772802734375,-0.4849602762162685,0.26002631619274613,-0.329014767951332
1789213561873760300,1.73776025390625,-0.5531739807426929,0.39796646789610385,-0.44959863811898976
1789213561883792100,1.747792236328125,-0.7234457917302847,0.6277654036074877,-1.034314844801277
1789213561893825000,1.757824951171875,-0.26677579045295713,0.4622732281118631,-0.426997770460695
1789213561903857000,1.76785693359375,-0.7018132211148739,0.7943313458144664,-0.4156029911452904
1789213561913889300,1.77788916015625,-0.7466875511080027,0.8199357426702976,-0.6384248909182846
1789213561923921200,1.787921142578125,-0.3503098137080669,0.8618249193727969,-0.31832842916622756
1789213561933954000,1.7979541015625,-0.1918365770637989,0.3200309953004122,-0.3147123940935358
1789213561943986200,1.807986083984375,0.04317044868469238,0.04457388574182987,-0.2537402216605842
1789213561954018000,1.81801806640625,0.19685235939919948,-0.016598083579540252,-0.07700885927006602
1789213561964050200,1.82805029296875,0.3538356497466564,0.09472586387693882,-0.06463807452935726
1789213561974083000,1.8380830078125,0.5668985547125339,0.24865970352590083,0.29986871643327173
1789213561984115200,1.848115234375,0.48560325029492374,0.5575877055317163,0.1521804931756109
1789213561994147000,1.85814697265625,0.3016466128259897,0.3280927212029695,0.19800876289270816
1789213562004179000,1.868178955078125,0.24276304670274257,0.15295651904940605,0.41403168670795854
1789213562014212000,1.878212158203125,0.16059855823516844,0.28707974281311033,0.20199914770312605
1789213562024244000,1.888243896484375,0.3565373099207878,0.11650690305233001,0.7033734561689198
1789213562034276000,1.898276123046875,0.08949497748613357,0.4193868570655584,0.5171921283878386
1789213562044308200,1.90830810546875,-0.09697802671790122,0.07044599362313747,0.6183883573226631
1789213562054341000,1.918341064453125,-0.1661637911468744,-0.12029402037560939,0.6378592929247766
1789213562064373000,1.928373046875,0.1272422320783138,-0.07516133170723914,0.5632780991930514
1789213562074405000,1.938405029296875,0.4678583347678184,-0.1626221730172634,0.8505031687609851
1789213562084437200,1.948437255859375,0.8040332401394844,-0.29264029954969883,1.0443979204636067
1789213562094470100,1.95847021484375,0.9873837284088134,-0.3646504737496376,1.1862983541000633
1789213562104502300,1.968502197265625,1.1962088496744632,-0.4472644595503807,1.4732896149121224
1789213562114534100,1.9785341796875,1.07254622964859,-0.3022831571638584,1.5057383247047662
1789213562124567000,1.988567138671875,0.5292582676261663,-0.44006665700078007,1.394834356226027
1789213562134599200,1.99859912109375,-0.10597264955639839,-0.6032867959111928,1.447269622992724
1789213562144631000,2.008631103515625,-0.5941711770415306,-0.27518355331420896,1.391903709601611
1789213562154663200,2.0186630859375,-0.34681145019829274,-0.10872399409115314,1.435100461771339
1789213562164696300,2.0286962890625,-0.2469745269179344,0.04490414060950279,1.4236540618665516
1789213562174728200,2.038728271484375,-0.3332172246098518,-0.03455225794315338,1.2724711283609271
1789213562184760000,2.048760009765625,-0.46289165227115153,-0.44329730948507784,1.0953512050442398
1789213562194792000,2.0587919921875,-0.36905309262275693,-0.540773348852992,1.0158839928366243
1789213562204825000,2.0688251953125,-0.48023617030382154,-0.3839022867083549,1.2309326647922396
1789213562214857200,2.078857177734375,-0.3775245683699846,-0.3871592426776886,1.6695561372473835
1789213562224889000,2.08888916015625,-0.3101818014591932,-0.336616803920269,1.8733117001637816
1789213562234921200,2.098921142578125,-0.3882610664397478,-0.41933308105170725,1.9306844233326612
1789213562244954000,2.1089541015625,-0.6128244395852088,-0.668559770810604,1.7985826223939656
1789213562254986000,2.118986083984375,-0.6203530815243721,-0.8370131341993808,1.8025515260249376
1789213562265018000,2.12901806640625,-0.7656675613880157,-0.9143962336093187,1.6776713469028472
1789213562275050200,2.13905029296875,-0.9773626851320266,-1.6390169143378734,1.5674565297320484
1789213562285083100,2.149083251953125,-0.583825139594078,0.08446633566915988,1.5598700201258062
1789213562295115000,2.159114990234375,-1.1198065779954194,0.6082704295426606,1.2705264240339398
1789213562305147100,2.169147216796875,-0.8618108908474444,-0.24822189663052557,1.317016957052052
1789213562315180000,2.179179931640625,-0.7133458379983901,-0.727693512302637,1.3432418238937853
1789213562325212000,2.1892119140625,-0.9638923781841993,-0.45504327685832974,1.269777943754196
1789213562335244300,2.199244384765625,-0.894753375506401,-0.21434709955751893,1.0437452287085354
1789213562345276200,2.209276123046875,-1.0254524700403214,-0.30616321346759795,0.8248859124235809
1789213562355309000,2.21930908203125,-0.8202198203086852,-0.5805383730083704,0.8524209850810468
1789213562365341200,2.229341064453125,-0.5263479331374168,-0.8318003679871558,0.712391679078713
1789213562375373000,2.239373046875,-0.6421703610569238,-0.682780603864789,0.4055531236328184
1789213562385405200,2.2494052734375,-0.6500713434398174,-0.6739204210609198,0.3159454795524478
1789213562395438000,2.25943798828125,-0.8343933070898055,-0.9202724321663379,0.2761329629935324
1789213562405470200,2.26947021484375,-0.8418231648296117,-1.215513854125142,0.1322870213124901
1789213562415502000,2.279502197265625,-0.871019448697567,-1.570890888094902,-0.045772374811396
1789213562425534000,2.289533935546875,-0.975358944094181,-1.7948510346502065,-0.19634528665989637
1789213562435567000,2.299567138671875,-1.2969798389345406,-1.6514076093554495,-0.43774734720773995
1789213562445599000,2.309598876953125,-1.474844589269161,-1.6190104836195707,-0.5138081850379705
1789213562455631000,2.319631103515625,-1.5557371581047772,-1.849347179469466,-0.5335512155797332
1789213562465664300,2.329664306640625,-1.490040989357233,-2.0573019476413728,-0.644893429345265
1789213562475696000,2.339696044921875,-1.4921663109481333,-2.2348335204988716,-0.7437801392287016
1789213562485728000,2.34972802734375,-1.321640232938528,-2.6145804410934446,-0.5127105990596116
1789213562495760100,2.359760009765625,-0.9015314913392066,-3.0412101088941097,-0.22064210804849863
1789213562505793000,2.36979296875,-0.27373043189644813,-3.2950369859248396,-0.14222761976420878
1789213562515825200,2.3798251953125,-0.14710896206498145,-3.3579502459555863,-0.32851153113693
1789213562525857300,2.389857177734375,-0.8120376828968524,-3.0984172662377354,-0.978580682619661
1789213562535889200,2.39988916015625,-1.634968515729904,-2.593424840340018,-1.6421037744373082
1789213562545922300,2.40992236328125,-2.044704916396737,-2.0982202334851023,-2.028207078321278
1789213562555954200,2.4199541015625,-1.820363077047467,-1.9456921689808369,-1.75628574167341
1789213562565986000,2.429986083984375,-1.2744020964235068,-2.0237258412539956,-1.2200953366965055
1789213562576018400,2.440018310546875,-1.1631307559370994,-2.2456045053601263,-1.2300491599559784
1789213562586051300,2.45005126953125,-1.1480308019608259,-2.5081857667326926,-1.3928829298973082
1789213562596083200,2.460083251953125,-1.4910060349971055,-2.5853110919892788,-2.183845676061511
1789213562606115300,2.470115234375,-1.783908200353384,-2.523187228770554,-3.0454508152037856
1789213562616148200,2.480148193359375,-2.0832687480688095,-2.3636408099368214,-3.6411867573440073
1789213562626180000,2.49018017578125,-2.6053987712502478,-1.9793691053941844,-4.280614541694522
1789213562636212200,2.500212158203125,-3.1004280215382574,-1.63064948348701,-4.76126630706191
1789213562646244400,2.510244384765625,-3.559042727142572,-1.3223641632989047,-5.260556721925735
1789213562656277200,2.52027734375,-4.117683156597614,-1.107738831321895,-5.369081394052505
1789213562666309000,2.53030908203125,-4.429527922832966,-1.4532054427824914,-4.2683968651562925
1789213562676341200,2.54034130859375,-4.278887864032387,-2.5724340747594834,-3.011525749248266
1789213562686373000,2.550373046875,-4.153068942755461,-3.33071386398375,-2.945736056998372
1789213562696406000,2.560406005859375,-3.4760938102990386,-3.5621918388232587,-2.819064318284392
1789213562706438400,2.5704384765625,-2.6740152113586664,-3.553464634749293,-2.4670237352609634
1789213562716470300,2.58047021484375,-2.444355391857028,-3.4618118947073815,-1.8350281467378138
1789213562726503200,2.590503173828125,-2.0054718071609736,-3.4096570523172613,-0.814686736100912
1789213562736535300,2.600535400390625,-0.7929284932792187,-3.2307118132695556,0.36317923215329645
1789213562746567200,2.610567138671875,0.28141448359303173,-3.013041999030113,0.7945271606475114
1789213562756599300,2.620599365234375,0.6818393774919211,-2.8266671945035458,0.704664518892765
1789213562766632200,2.630632080078125,0.6448626688808202,-2.6323399696677923,0.564643469262123
1789213562776664300,2.640664306640625,-0.2478548168838024,-2.5937282072007655,0.8948656037092209
1789213562786696200,2.6506962890625,-1.048757211651653,-2.642541630208492,1.5971458578139544
1789213562796728000,2.66072802734375,-0.44691257737278933,-2.017301068903506,2.4124305598080156
1789213562806761200,2.67076123046875,0.15720497027412056,-1.167921935736388,2.735800928664207
1789213562816793000,2.68079296875,0.13750775163546203,-1.0226602089732886,2.714773338204622
1789213562826825200,2.6908251953125,0.05427651071920991,-1.0607945631869136,3.9936762531787156
1789213562836858400,2.7008583984375,-0.1368714995585382,-0.8432594812430441,6.688427963095903
1789213562846890200,2.71089013671875,-0.06475786498412489,-0.23779957907646893,9.08929317279458
1789213562856922000,2.720922119140625,0.10122311694175004,0.21282500455677508,10.315867934638261
1789213562866954200,2.730954345703125,0.2708133754059672,0.3870394156903028,10.069598341119288
1789213562876987100,2.740987060546875,0.04711246430873871,0.8729498322382568,9.291543007323146
1789213562887019300,2.751019287109375,-0.556874004304409,1.3041767647013067,8.504505910170078
1789213562897051400,2.761051513671875,-0.4354391433306038,1.5173153652518987,7.619198408401012
1789213562907084300,2.771084228515625,-1.2988565925918518,0.45654754394143815,6.850377935940027
1789213562917116200,2.7811162109375,-1.7070763050854205,1.1434493193894624,7.004916171222924
1789213562927148300,2.791148193359375,-1.0214837125398217,2.462406596854329,6.7025488429069515
1789213562937180200,2.80118017578125,-0.805069012928009,2.302851117931306,6.625472617489099
1789213562947213000,2.811213134765625,0.06121113228797912,1.8624489453658462,7.69093151922524
1789213562957245400,2.821245361328125,1.2023778936982155,1.7467337772130964,8.416581543001532
1789213562967277300,2.83127734375,0.662873541867733,1.0612795702248812,8.827336180800199
1789213562977309200,2.84130908203125,0.03258475726246834,0.3858195185065269,10.286162532204388
1789213562987342000,2.851342041015625,-0.164077632522583,1.2011673488646746,10.39735379319191
1789213562997374200,2.861374267578125,0.2147532692056149,1.7097464010775087,9.275989464360475
1789213563007406300,2.87140625,0.5652081174075603,0.7930483202666043,8.702773981586098
1789213563017439200,2.881439208984375,-0.8086486249804496,-0.17954174363613126,7.035396065160632
1789213563027471400,2.891471435546875,-1.3336375447243451,0.033790625920891756,5.195633875638246
1789213563037503200,2.901503173828125,-1.594223832887411,0.2182400153428316,4.778623684576154
1789213563047535000,2.91153515625,-1.5489455982685087,-0.9154314218759536,4.398018101325631
1789213563057568300,2.921568359375,-0.9182289436399936,-0.5490414109826087,4.101554444095492
1789213563067600100,2.93160009765625,-1.29366150816679,-0.6003647709846496,2.9480121852368115
1789213563077632300,2.94163232421875,-0.14491159815117716,-1.8930588954240082,2.5603485001683235
1789213563087665400,2.95166552734375,2.310483950897306,-3.824451905417442,2.205886242955923
1789213563097697300,2.961697265625,3.3840199222356078,-4.957271694242954,-0.713068190100789
1789213563107729200,2.971729248046875,0.334364787209779,2.431356209552288,0.5270797545433044
1789213563117761000,2.981760986328125,1.8268175138838587,2.1753999192774294,2.2242793932586906
1789213563127794200,2.991794189453125,1.6932137839496135,-1.1085896029323339,2.852325367373228
1789213563137826300,3.001826416015625,1.4678525384247303,-0.8437339668869972,3.0804765358775854
1789213563147858200,3.011858154296875,1.3498159415870905,-1.0627087262451649,2.015666453438997
1789213563157891300,3.021891357421875,2.6039094094753263,-0.9805126735955476,1.2768646871447562
1789213563167923200,3.031923095703125,1.2573391718111933,-0.4234638972461223,-0.17368775691092014
1789213563177955000,3.041955078125,-2.308814848641306,3.2067256652653215,-1.8535311871558426
1789213563187987200,3.0519873046875,2.32001121930778,2.85036371191144,-2.1970336589366197
1789213563198020000,3.06202001953125,2.2164204964518546,0.4693237311452627,-0.8722259018778801
1789213563208052200,3.07205224609375,1.9819950699836015,-0.2452671384781599,-1.279260057848692
1789213563218084400,3.08208447265625,7.461684956699609,-1.4983230800122023,-2.7052999919384715
1789213563228116200,3.0921162109375,4.6627995030909775,-1.0483312413245438,-2.306805116254091
1789213563238149000,3.102149169921875,-0.1438858992320951,0.030045594173669813,-3.6805695041835307
1789213563248181200,3.11218115234375,6.312436595642566,3.2552754689007997,-2.5361621534168717
1789213563258213400,3.12221337890625,5.060280817818642,3.0472470509707925,-2.763065952208638
1789213563268246300,3.132246337890625,0.4040776442527771,4.7666053300023075,-2.7316093221932647
1789213563278278400,3.1422783203125,-4.790167407375574,5.097874927675724,-2.657738030296564
1789213563288310300,3.152310302734375,-4.438413824599981,0.8148401730969548,-3.900609846946597
1789213563298342100,3.162342041015625,-2.7205168502926824,0.9139598880186677,-3.0882495079666374
1789213563308375000,3.172375,-4.188685030537844,1.1222720913261175,-3.2587019362181424
1789213563318407400,3.182407470703125,-2.693566884046793,0.24842794059664008,-2.8378783243477343
1789213563328439300,3.192439208984375,-2.1518366728603837,-0.25515315719842907,-1.0309592507630585
1789213563338472200,3.20247216796875,-0.914534619166702,-0.14192454516440628,-0.13286942431032656
1789213563348504300,3.21250439453125,0.13228534081205726,0.1525695655584335,0.5005401226639747
1789213563358536200,3.2225361328125,1.016945411523059,-0.033063188429176806,1.4714239671707152
1789213563368568000,3.232568115234375,1.6935609899520874,0.03241904530674219,1.1651520326316356
1789213563378601200,3.242601318359375,1.625059700655937,0.782931415399909,0.6391098044425249
1789213563388633300,3.25263330078125,1.2662111911833285,1.6153811872065067,-0.2559942841976881
1789213563398665200,3.262665283203125,1.246342123109102,0.32414895201325417,-1.2845347833812235
1789213563408698400,3.272698486328125,-0.2769779624503106,-1.1213830335319042,-2.5531840153664347
1789213563418730200,3.282730224609375,1.7248492776632307,-0.7052262444287538,-3.7079631225436924
1789213563428762000,3.29276220703125,0.3002525281190872,2.716681802174449,-4.6322219939976925
1789213563438794200,3.302794189453125,-1.3258406072378157,1.5536434006959199,-4.008310343208909
1789213563448827400,3.312827392578125,-0.8323287757754325,0.9230851514995098,-3.4632197156786915
1789213563458859300,3.322859375,-1.8079495856761931,2.14369369841516,-3.790155083540082
1789213563468891100,3.33289111328125,-0.9696586135607212,3.813780289277434,-3.9795413448423145
1789213563478924300,3.34292431640625,-0.12481884085629134,5.293720740380883,-3.360321066740155
1789213563488956200,3.3529560546875,-2.0570202080905435,4.816828035286068,-2.7954063793212174
1789213563498988000,3.362988037109375,-2.02933140617609,4.777172901245951,-2.341363803938031
1789213563509020400,3.3730205078125,-0.6990496016204357,8.159879987317323,-2.599611420020461
1789213563519053300,3.38305322265625,-2.885367220753431,7.549407663816213,-0.7811106297135353
1789213563529085200,3.393085205078125,-2.7979648316323757,6.715329414024949,0.6111766723781824
1789213563539117300,3.403117431640625,-2.330315755701065,5.773756419676542,1.0211650019794702
1789213563549150000,3.41314990234375,-2.234513787025213,5.1195770563960075,1.3068062364220618
1789213563559181800,3.423181884765625,-1.996499980676174,4.609144485270977,1.4949685088872908
1789213563569214000,3.4332138671875,-1.1381085428833961,2.9800568442732094,1.2822229993075132
1789213563579246000,3.44324609375,-0.9390344157814979,3.110768213766813,1.211905015978217
1789213563589279000,3.453279052734375,-0.3531154822459444,2.242598893803358,2.2298539785206315
1789213563599310800,3.463310791015625,1.5006418783485889,0.8016080588191747,3.0701649852216244
1789213563609343000,3.473343017578125,3.1819618108868597,-1.2046703885495662,3.7425212257057425
1789213563619375900,3.4833759765625,3.0783401083707806,-2.7475650162160394,4.899447281783819
1789213563629408000,3.493407958984375,1.3068062364220618,-2.782034856572747,4.760439793109893
1789213563639440100,3.503440185546875,0.2847616751290858,-3.235546686080098,2.6200357838898896
1789213563649472000,3.513471923828125,-0.9347861106872558,-2.853239559608698,0.18467618391513824
1789213563659505000,3.5235048828125,-1.2515068123959003,-2.177166928949952,-0.7258756492257118
1789213563669537000,3.533537109375,-0.7873497432988137,-1.0110001663178205,-0.2756079162061214
1789213563679569000,3.54356884765625,0.4327706547737121,-0.6943219885766506,-0.5360621024221182
1789213563689601800,3.553601806640625,1.297674835461378,-1.6674293543517589,-1.07497082644701
1789213563699634200,3.56363427734375,2.2795582128882406,-2.0872335600465535,-1.5107289725989101
1789213563709666000,3.573666015625,2.1234207257151603,-1.4584616097450256,-1.6120435672163962
1789213563719698000,3.583697998046875,1.517844357562065,-1.0000257678389548,-1.4901532175600527
1789213563729731000,3.59373095703125,0.7164414659261703,-1.1094611250698565,-1.185481703954935
1789213563739763000,3.603762939453125,0.35717100471444424,-2.121270854204893,-0.2298568033784628
1789213563749795000,3.613795166015625,0.5821979037184268,-4.5798383112877605,0.8635586112976074
1789213563759827000,3.623826904296875,1.1664742211461065,-8.232653547105192,1.8692483962476252
1789213563769860000,3.633860107421875,1.995771812532097,-11.921814938545227,2.4562924978882075
1789213563779892000,3.64389208984375,1.6463912424981593,-12.366343835651874,1.3846464319497347
1789213563789923800,3.653923828125,1.384912389409542,-9.528359128320217,0.06959668331742286
1789213563799957000,3.66395703125,0.14431955054216086,-6.384978100240231,0.40035365529358385
1789213563809988900,3.67398876953125,-0.22572956738062203,-4.13473599820733,0.33882045144438744
1789213563820021000,3.68402099609375,0.1628712524075061,-1.5509797344446181,-2.870214075285196
1789213563830054100,3.69405419921875,-0.1355693309187889,2.0005308436274527,-6.108384680128097
1789213563840086000,3.7040859375,0.9442658136289567,3.8553018017113208,-4.702423072949052
1789213563850118000,3.714117919921875,-0.4609223980247974,5.881500170558691,-2.8373727129131554
1789213563860150000,3.72414990234375,-0.09937222837805747,7.5016779443919654,-1.9838655400305985
1789213563870183000,3.734182861328125,0.19476495866589247,7.960278621470928,-0.4813233810186386
1789213563880215000,3.744215087890625,-0.555313403924182,8.362076630353927,1.0930962657243013
1789213563890247000,3.754246826171875,-1.4522387897074223,8.553768245989083,1.6884598674207925
1789213563900280000,3.764280029296875,-1.8840052358746529,7.347562318435311,2.6359949850440025
1789213563910312000,3.77431201171875,-2.338984215325117,5.4536079354763025,2.1109803463369605
1789213563920343800,3.78434375,-1.5126304223060607,3.5862627425014972,0.4352250621885061
1789213563930376000,3.7943759765625,-0.7609808648765086,2.3770979651421307,-0.10772972235679626
1789213563940408800,3.804408935546875,-0.4231389030754566,1.6200433337986468,-0.039616555595397944
1789213563950441000,3.81444091796875,-0.4214660014271736,1.7317951512783765,-0.024764438900351522
1789213563960473000,3.82447314453125,-0.0034311252261511977,0.8872808476686477,-0.8825497274935244
1789213563970506000,3.834506103515625,0.6862018104851245,1.402587162309885,-1.3526315835297107
1789213563980537900,3.844537841796875,0.8817594538986683,-1.478274563717842,-1.1557885764807463
1789213563990570000,3.854570068359375,0.585873377360776,-2.5812942575633526,0.3845452607870102
1789213564000602000,3.86460205078125,0.10722812951020896,-2.91826820435822,1.4012696499705313
1789213564010635000,3.874635009765625,0.21976269486546515,-3.381943700483441,2.1498469603478907
1789213564020667100,3.884667236328125,-0.007949497699737549,-4.058206300756335,3.11241539645195
1789213564030699000,3.894698974609375,-0.5811784244775772,-4.025411115613579,3.4946488731652496
1789213564040732000,3.90473193359375,-1.036469538617134,-3.685316990971565,2.92761120224297
1789213564050764000,3.914763916015625,-0.6553576132796705,-2.8874995566070076,2.557593063980341
1789213564060796000,3.9247958984375,0.4267888038851321,-2.344585104072094,2.0303344457387924
1789213564070828000,3.934828125,0.9166131790064275,-3.102426501879096,1.988530609232187
1789213564080861200,3.944861083984375,0.6305600027620792,-3.8529058464854953,2.876226467442512
1789213564090893000,3.95489306640625,0.7543057710267603,-4.244535512575507,4.307788379824161
1789213564100925000,3.964925048828125,-0.8028383312664925,-4.695425176885724,4.870467855536938
1789213564110958000,3.9749580078125,-1.853179889500141,-4.190016571402549,4.598361809971928
1789213564120990000,3.984989990234375,-2.636363233834505,-3.574531972697377,3.2623031755805014
1789213564131022000,3.99502197265625,-1.1677448256038128,-3.1217969727814197,1.760017037156224
1789213564141054000,4.005053955078125,0.6627753421902656,-2.4310680402606724,0.5018260708212852
1789213564151087000,4.015087158203125,1.7750328199803829,-1.1133335825890303,-0.8413309973984956
1789213564161119000,4.025118896484375,1.177458556497097,-1.2004051323205231,-2.747538128209114
1789213564171150800,4.03515087890625,2.3061481136500834,-2.8522891270160673,-3.6261937708735466
1789213564181184000,4.04518408203125,2.038378635984659,-3.809366564488411,-3.5989796007335184
1789213564191215900,4.0552158203125,1.028894134926796,-4.306824503228068,-3.489391098767519
1789213564201248000,4.065248046875,0.2914309237599373,-4.404872789525985,-2.270993798160553
1789213564211281200,4.07528125,0.09420852547194808,-2.928643467900157,-1.2160434309571981
1789213564221313000,4.08531298828125,0.4961597156226635,-0.013638649252057074,-0.5503571697562932
1789213564231345000,4.095344970703125,-1.0822808571994305,1.947146459442377,0.4930588269978761
1789213564241376800,4.105376708984375,-1.1749299148023127,2.6063772608935833,1.925586954063177
1789213564251410000,4.115409912109375,-2.469601476794481,3.7025077797472474,1.29159113163352
1789213564261442000,4.125442138671875,-4.333215082025528,3.7342163386970757,1.4329554125666617
1789213564271474000,4.135473876953125,-2.1374229475826025,2.8672651623517273,1.9873574737995863
1789213564281507000,4.145507080078125,-1.8523136280596255,0.43887715495526786,3.015463088697195
1789213564291539000,4.1555390625,-1.488266527030617,2.6070143897533415,2.4969991868078707
1789213564301570800,4.16557080078125,-0.33836627793610097,6.469383645632862,0.4666682482004165
1789213564311603000,4.17560302734375,-3.2544413561642167,6.2811126520961515,-0.48686347948908804
1789213564321635800,4.1856357421875,-2.4909850410848855,8.1127949955374,-1.0820423722684382
1789213564331668000,4.19566796875,-1.667002068850398,8.499463824349641,-2.806427539551258
1789213564341700000,4.2057001953125,-1.195696223977208,8.751697294709086,-3.6605747639030217
1789213564351733000,4.21573291015625,-0.8373229308009147,10.064173977982998,-4.283935795071721
1789213564361764900,4.225764892578125,-1.5254637465246021,10.594531731283665,-5.794821419537067
1789213564371797000,4.235796875,-2.49645967310369,9.584930910369753,-7.3907128933757535
1789213564381829000,4.2458291015625,-2.951580691373348,8.118281317993999,-7.069366139301657
1789213564391862000,4.255862060546875,-3.393182302856445,6.908470059424638,-5.765283774885535
1789213564401894100,4.26589404296875,-3.9393279923975464,5.381003887036442,-4.890988080996275
1789213564411926000,4.275926025390625,-5.063652924600243,7.195561492675543,-4.23250079138875
1789213564421959000,4.285958984375,-3.522602463495731,5.1324564117133615,-1.3316858261346816
1789213564431991000,4.295990966796875,-2.0272440785080192,1.8072639414995908,0.13265665834248064
1789213564442023000,4.30602294921875,1.5140402891039848,-2.5601877566486597,0.42439211800694465
1789213564452055000,4.316054931640625,2.134904242759943,-3.736639766451716,0.5096007964760064
1789213564462088000,4.326087890625,2.3368343438148496,-3.153902422094345,1.8235609963059425
1789213564472120000,4.3361201171875,2.247120755141973,-4.959790983587503,3.734899644786119
1789213564482152000,4.34615185546875,1.9079168573379515,-5.048956875249743,4.547412543979287
1789213564492184800,4.356184814453125,2.455879240912199,-6.202366447639465,5.770255718079209
1789213564502217000,4.366217041015625,1.077104331344366,-4.980747262376546,5.645386060351133
1789213564512249000,4.3762490234375,-0.2280605676114559,-5.070917947167158,5.451217240947485
1789213564522282000,4.386281982421875,-0.43053420095853506,-5.493364776325225,5.723432007583975
1789213564532314000,4.396314208984375,-0.9406312565188855,-7.251954995548725,5.25189469204247
1789213564542346000,4.406345947265625,-1.1393022096473724,-7.250445760029554,2.3650965617030857
1789213564552378400,4.41637841796875,-0.19559505281448364,-6.718632547223567,-1.269763330706954
1789213564562411300,4.426411376953125,-0.16360300074815748,-5.87113133675754,-3.1543530884712934
1789213564572443400,4.436443359375,0.228543382692337,-4.511605902060866,-3.204429078760743
1789213564582475500,4.4464755859375,1.9440229205943642,-3.699847620627284,-2.458365212509036
1789213564592508400,4.45650830078125,2.8043080631792545,-3.9425229890465734,-1.205066109868884
1789213564602540500,4.46654052734375,2.069627176207304,-3.9409769286483525,-0.3202642195343971
1789213564612572400,4.476572509765625,0.6161912856698036,-4.0048499736219645,-1.0207564211785793
1789213564622605300,4.486605224609375,-0.48492184390202164,-4.762673835772276,-2.322447506543994
1789213564632637400,4.496637451171875,-0.7920588708378374,-6.781399676781892,-2.7757804723531008
1789213564642669300,4.50666943359375,-1.604514925277233,-4.054250256606936,-4.964498722887039
1789213564652701400,4.516701416015625,0.14558818223848938,1.690415093141794,-5.048040344926714
1789213564662734600,4.526734619140625,1.0388394826188683,3.777204416552186,-3.0634207716584205
1789213564672766500,4.536766357421875,0.8075732508338987,5.632014537602663,-0.15477672021389008
1789213564682798300,4.54679833984375,1.0010919357657433,4.75880546990633,3.4359634599626063
1789213564692831500,4.55683154296875,0.900408040267229,3.300958192667365,5.063950446242094
1789213564702863400,4.56686328125,-0.5248737689316273,1.249197512540221,6.055136489543318
1789213564712895500,4.5768955078125,-2.644749953907728,2.3043273279637098,10.699843871104717
1789213564722928400,4.586928466796875,-7.00030078638196,4.311796446421742,11.020884335708617
1789213564732960500,4.59696044921875,-4.430364958178997,0.6452806020319461,7.396597859761118
1789213564742992400,4.606992431640625,-0.8795277493238448,1.6639052718788385,2.885513058964908
1789213564753025300,4.617025390625,0.45833559640198945,1.8901637585043907,2.8257103321701287
1789213564763057400,4.627057373046875,0.9941747037231922,5.114586993023753,2.7384529044777155
1789213564773089500,4.637089599609375,1.367071904553473,7.880577308246493,2.714526962228119
1789213564783121400,4.647121337890625,1.155178920149803,7.3011694005727765,2.966411180758476
1789213564793154600,4.657154541015625,1.1931965161159634,4.329372435122728,0.9604255788564682
1789213564803186400,4.6671865234375,-0.030597090576589107,2.980826075080037,0.2341296583920717
1789213564813218300,4.67721826171875,-0.8155939140737056,-0.7230243514478206,0.9880144275277852
1789213564823251500,4.68725146484375,-1.2588763182505964,-3.3739217220693827,3.7048201483428476
1789213564833283300,4.697283447265625,-2.0899474951803683,-3.5059728157341477,4.244084846198558
1789213564843315500,4.7073154296875,-2.3690835855126378,-5.402011019229889,5.251265161967277
1789213564853348600,4.7173486328125,-2.0656176483049986,-7.341795425471663,3.9313720649570225
1789213564863380500,4.72738037109375,-2.092851984450221,-6.8875418376863,1.4640227510035038
1789213564873412400,4.737412353515625,-2.043800368772447,-4.873019293585419,-1.3298019120842217
1789213564883444200,4.7474443359375,-1.067745551368594,-2.2538345735669134,-3.051828533542156
1789213564893477400,4.757477294921875,-0.15193360574245451,-0.49811377229988574,-2.6221470769554376
1789213564903509500,4.767509521484375,1.1138780647292732,-1.268237728574872,-3.7800697428554293
1789213564913541400,4.777541259765625,2.714522286053002,-4.076970037937164,-5.475366178297996
1789213564923574500,4.787574462890625,1.9275375036090612,-4.505272022864222,-5.9817661329060785
1789213564933606400,4.7976064453125,2.055720231407881,-0.988221932798624,-5.250734416091442
1789213564943638300,4.80763818359375,-0.5620335790246724,-1.0362824916124342,-2.183952059045434
1789213564953671400,4.81767138671875,-1.7014643104225395,-3.057356357052922,-1.5993565196007489
1789213564963703300,4.827703369140625,-1.5038082334250211,-3.514016421458125,0.5994488251835107
1789213564973735400,4.8377353515625,-0.0020586860954761505,-3.2741976115137335,2.243262326148152
1789213564983767600,4.847767578125,1.6230775869280099,-1.9716332504451273,3.739692724281549
1789213564993800400,4.857800537109375,1.0413935510158538,-0.26726211266517635,3.2748692271649835
1789213565003832300,4.867832275390625,0.6204840144276619,0.8263070312678813,-0.07821487405896187
1789213565013864400,4.877864501953125,1.5131179135620594,0.5450128861188889,-2.2034365117162467
1789213565023897300,4.8878974609375,3.1399685892879963,-0.5269681108623743,-2.36493932531476
1789213565033929500,4.897929443359375,2.8250165046870706,-0.7113578790515661,-2.7104268334329125
1789213565043961300,4.90796142578125,1.6494477074593306,-0.4990688810676336,-3.0175954245507715
1789213565053994500,4.917994384765625,0.6964607541710138,-0.07740881837308407,-3.297939721629023
1789213565064026400,4.9280263671875,-0.18470950166285036,4.748661677032709,-3.8297891747921704
1789213565074058200,4.938058349609375,0.4277759152263403,3.787162915986776,-3.1609745524376627
1789213565084090400,4.94809033203125,0.3134036861151457,2.150697439697385,-3.299592749533057
1789213565094123300,4.958123291015625,0.4356470869928598,1.0638275011420248,-3.147161715662479
1789213565104155400,4.9681552734375,1.2416823146045208,-0.37719022184908385,-2.300643671014905
1789213565114187500,4.9781875,1.688085773411393,0.04692191017270088,-1.2627958297818898
1789213565124220400,4.988220458984375,1.197265080729127,0.7537579278856515,-1.0103291351884602
1789213565134252300,4.998252197265625,0.8045230694830418,1.7350158668905495,-1.0532722048580645
1789213565144284400,5.008284423828125,0.026454291683435438,2.2746195874422788,-1.9251836339592932
1789213565154317300,5.0183173828125,-1.152351587769389,2.144659913098812,-2.4027415249645707
1789213565164349400,5.028349365234375,-0.4398816558226943,2.3079607160300015,-3.1219331663817167
1789213565174381600,5.038381591796875,1.3760381780803204,2.0321353576809167,-2.7772704186499118
1789213565184414500,5.04841455078125,1.9225255206659435,1.9716718288898467,-0.786523302412033
1789213565194446300,5.0584462890625,-1.9612281762868164,2.7636662561893464,-1.268571490573883
1789213565204478500,5.068478515625,-3.2828514580905437,3.162345840790868,-2.4618185678333044
1789213565214510300,5.07851025390625,-0.1649625986635685,2.7336370286285874,-1.679562859737873
1789213565224543200,5.088543212890625,3.135414579245448,3.187658561223745,-0.1762210747808218
1789213565234575600,5.09857568359375,1.4922534047096967,2.843544679546356,3.5055811860680577
1789213565244607500,5.108607421875,-3.440352050310373,1.5131120683431625,5.015713361817598
1789213565254640400,5.118640380859375,0.1478425370365381,1.3728051875084637,5.2836541043967005
1789213565264672500,5.128672607421875,1.2007517538011074,1.111439147144556,3.0513468875050545
1789213565274704400,5.138704345703125,-0.9925251829504966,1.620869263228774,0.07015490172207355
1789213565284737300,5.1487373046875,-2.244909801094234,3.285161488598585,-0.7522393400162458
1789213565294769400,5.158769287109375,-3.599933248196542,4.957656309646368,0.7632125694513321
1789213565304801500,5.168801513671875,-3.36533772585839,4.744607433205843,0.04674304647445678
1789213565314834400,5.17883447265625,-2.7656840257525444,5.6269350423812865,-2.3260469923406837
1789213565324866300,5.1888662109375,-0.8326721823856235,4.9131280166119335,-2.310783372235298
1789213565334898400,5.1988984375,-0.17032324891388415,3.5119156497865913,-2.6222365088045594
1789213565344930300,5.208930419921875,-0.4426584270596504,2.0087445452213286,-3.324386414527893
1789213565354963200,5.218963134765625,-0.26479455350786446,-0.004869651862978935,-3.1217344289392233
1789213565364995600,5.22899560546875,0.5921370408654213,-1.3980992032408714,-2.1215596080183983
1789213565375027500,5.23902734375,0.614497048972547,-3.4648271508753297,-0.8872463608771562
1789213565385060400,5.249060302734375,1.2407599390625952,-8.052658214482664,0.6262959155768155
1789213565395092500,5.259092529296875,2.506480131858587,-9.997596934747696,2.477923314937949
1789213565405124400,5.269124267578125,1.1925085338518022,-5.46256631795764,3.28533859873116
1789213565415157200,5.2791572265625,-0.902959478315711,2.305749469721317,2.5057535711497065
1789213565425189400,5.289189453125,-0.6484567478500306,3.8500779295831915,0.46003275570869445
1789213565435221500,5.299221435546875,0.918486571662873,1.834748160752654,-0.4921370359778404
1789213565445253400,5.30925341796875,1.6613468195676802,-0.23186346702575683,-0.8345745088756084
1789213565455286500,5.31928662109375,1.836941579143703,-0.2034042652606964,-2.190943525367975
1789213565465318400,5.329318359375,1.4717501303851603,1.1846961065351962,-0.7988368405401706
1789213565475350300,5.339350341796875,-0.7777803162470459,0.7451935131579637,1.1609878986895084
1789213565485383400,5.349383544921875,-0.6262333717346191,0.23524784876704213,1.9714614010095595
1789213565495415600,5.35941552734375,-0.463702091871202,1.950171360221505,0.782229989132285
1789213565505447400,5.369447509765625,-3.999899949999153,3.349592167454958,-0.3829010007113218
1789213565515480300,5.379480224609375,-2.9292297433555126,-0.11951543721854686,-0.11881108834147452
1789213565525512400,5.389512451171875,0.5495348935879767,-14.011743729025124,3.175256175768375
1789213565535544300,5.39954443359375,0.5239326886892318,-6.356114993849396,8.092373554277419
1789213565545576700,5.40957666015625,-0.8765653923869132,-1.0343372027635573,3.389836499559879
1789213565555608800,5.41960888671875,-0.8811350383900105,-3.849642460775375,0.30791385652720926
1789213565565641000,5.429640869140625,-1.2118969788022338,-5.843350764906406,0.08602759363651274
1789213565575673900,5.439673828125,-1.9367149356685578,-6.407383993315697,0.5104787483543157
1789213565585705700,5.449705810546875,-2.420639585226774,-5.060317642697692,0.34427287163138387
1789213565595737900,5.45973779296875,-2.001332807660103,-4.579721991431713,0.8310527644902467
1789213565605770800,5.469770751953125,-1.5998258906781673,-5.717292774176597,0.4647714746683836
1789213565615803000,5.479802978515625,-0.7179167991757393,-4.415450297641754,-0.10196692104637622
1789213565625835000,5.4898349609375,-0.051965457297861575,-3.027013241237402,-0.8836106347233057
1789213565635867000,5.499866943359375,0.07353723763674497,-1.5989976231604814,-0.9569809913605452
1789213565645899800,5.509899658203125,-0.04221095600277185,-0.44797114651501174,-0.3937602483779192
1789213565655932000,5.519931884765625,-0.25289661044329403,0.05634674112200737,0.7440279765099287
1789213565665963800,5.5299638671875,-0.6433458345770835,0.47251872779428955,1.850020548686385
1789213565675996700,5.53999658203125,-1.0333435155510902,0.5976297930628061,2.5871523359417914
1789213565686029000,5.550029052734375,-0.9213944219335913,0.5311246460199356,2.777095062083006
1789213565696061000,5.56006103515625,-0.3957257032319903,0.23405250150263307,3.345574163985252
1789213565706093800,5.57009375,-0.01321925479620695,0.2750035205721855,4.20391007219851
1789213565716126000,5.5801259765625,1.114568385080993,0.03161445092558861,3.999958694449067
1789213565726157800,5.59015771484375,1.6442998231768606,-1.9323434425860642,1.620281818729639
1789213565736190700,5.600190673828125,2.276497656273842,-1.6378642371714114,0.34371465322673317
1789213565746222800,5.610222900390625,0.776204152971506,-1.6044073732495308,-0.6656862612009048
1789213565756255000,5.6202548828125,0.18080372639596462,-1.5635335110694168,-1.566834306180477
1789213565766288000,5.630287841796875,-0.41396249392926693,-1.215301088157296,-1.7163550055623054
1789213565776319700,5.64031982421875,-0.4381584852918982,-0.9092951110780239,-0.700194095480442
1789213565786351900,5.650351806640625,-0.6734066263198852,-2.1814795314520596,-0.5335135869830846
1789213565796384800,5.660384765625,0.3521972348898649,-2.649270646202564,-0.37143969549834727
1789213565806416600,5.670416748046875,1.5012468585044145,-2.2985218565553427,-0.3221370276689529
1789213565816449000,5.680448974609375,2.006045223134756,-0.7238602177500725,0.021986790880560873
1789213565826482000,5.69048193359375,2.580516843450069,0.2197217783331871,-0.12133563838303088
1789213565836513800,5.700513671875,2.9581992327302693,0.6409609852671623,-1.0569260511904954
1789213565846546000,5.7105458984375,2.213245373547077,1.2066186000078916,-1.8799737884014844
1789213565856578800,5.720578857421875,1.7613763428106903,0.7921750445634126,-2.75987329364717
1789213565866610700,5.730610595703125,1.9108301144361495,0.9896551804721355,-2.6432044780313966
1789213565876642800,5.740642822265625,1.8133891463816165,2.0874334665328265,-1.3577145858824253
1789213565886675700,5.75067578125,1.343893565800786,0.7265040102571249,-4.96529893335402
1789213565896707800,5.760707763671875,0.5890443355470896,4.123002890315652,-5.6564276788473125
1789213565906740000,5.770739990234375,0.9367208781421184,3.331547976720333,-6.526907029318809
1789213565916772900,5.78077294921875,1.987566732636094,3.4429829833358525,-7.853078475946187
1789213565926804700,5.7908046875,1.5785253284960985,3.8205268409281965,-6.562220919284224
1789213565936836900,5.8008369140625,1.442391641692817,2.7842139541774986,-5.164439695951343
1789213565946869800,5.810869873046875,1.248908758726716,1.3920803813427687,-3.7641187250077723
1789213565956902000,5.82090185546875,1.3692188534542917,1.0195032062470912,-3.1985417742878197
1789213565966934000,5.83093408203125,0.8290688971966504,1.3857710520654916,-2.819165440571308
1789213565976967000,5.840966796875,-0.3485185463771224,1.6680039393693207,-1.864139090409875
1789213565986998800,5.850998779296875,-0.0037584757506847377,0.7172960369288921,-0.5457862085789442
1789213565997031000,5.861031005859375,0.5225269135445356,-0.6621615942060947,0.46164135994911193
1789213566007063800,5.871063720703125,0.5152370487973094,-0.9745908823311328,0.17939561316370964
1789213566017095700,5.881095703125,0.32652269540727136,-0.6412918246567249,-0.6594558423787356
1789213566027127800,5.8911279296875,-0.2505690442785621,-0.267867092821002,-1.0136077184677124
1789213566037161000,5.901160888671875,-0.21294424702227113,0.10639525888264179,-0.6713935329318046
1789213566047192800,5.91119287109375,0.1363037826731801,-0.3224298731356859,-0.440680404984951
1789213566057224700,5.921224609375,-0.08058277223408222,-0.3112549836486578,-0.6487631834506988
1789213566067257900,5.9312578125,-0.9194716371774673,-0.42946810609698294,-0.5844219364434481
1789213566077289700,5.941289794921875,-1.4920076132550835,-0.9150012137651443,-0.4486100289404392
1789213566087321900,5.95132177734375,-1.0278753132730722,-1.0564145945370196,-0.0900771612882614
1789213566097355000,5.96135498046875,-0.49611763004660603,-0.43128889178335666,0.4255044631630182
1789213566107387000,5.971386962890625,-0.6008002397924661,0.06264905613660812,0.8134995721429585
1789213566117418800,5.981418701171875,-0.4999480019897222,0.655950464606285,1.606079690375924
1789213566127452000,5.991451904296875,-0.5613245539724826,0.7421241887152195,2.3655618411272763
1789213566137483800,6.00148388671875,-0.5259355529442429,-0.2952513588309288,3.145689305022359
1789213566147515600,6.011515625,-0.6867068373978138,-1.453667945727706,3.3923347461163997
1789213566157548800,6.021548828125,-0.9955606051236391,-2.335675821429491,3.9884558881819245
1789213566167581000,6.031580810546875,-1.3482815716266632,-3.169706724947691,4.14787575802654
1789213566177612800,6.04161279296875,-1.2244652223438024,-3.336137642598152,3.767207630933821
1789213566187645000,6.05164501953125,-0.5789990346118807,-2.295805583333969,2.9241698296174405
1789213566197677800,6.061677734375,-0.4019675202310085,-0.43307051450312134,1.1693147052690387
1789213566207709700,6.071709716796875,-0.24550913054049014,1.4742635745108126,0.289917012065649
1789213566217742000,6.0817421875,-0.02521598206013441,2.4521318710774183,0.21035335374623537
1789213566227775000,6.09177490234375,0.15120792181640863,1.8661165279626846,0.041939737845957274
1789213566237806800,6.101806884765625,-0.34011078351587054,0.8314829726010561,-0.3548974337592721
1789213566247839000,6.1118388671875,-0.8183522728711367,-0.05774667104780674,-1.083046288613975
1789213566257872000,6.121871826171875,-1.5351038276597857,-1.1348925034463404,-1.7318348987668752
1789213566267903700,6.13190380859375,-1.9594059292957187,-1.6487638168483971,-1.8995210771754383
1789213566277935600,6.141935546875,-2.0290064120054243,-1.8983190079092978,-1.1613432879984378
1789213566287968800,6.15196875,-1.3978174636900424,-2.1390783135741946,-0.05964315231889486
1789213566298001000,6.1620009765625,-0.6585770137175917,-1.622844362694025,1.3630851730048656
1789213566308032800,6.17203271484375,-0.35606589301675556,-1.0807739597678183,2.1553175007134673
1789213566318066000,6.18206591796875,-0.6531564499735831,-0.8604898713767528,2.310619121584296
1789213566328097800,6.192097900390625,-1.0695543543562291,-0.6201455762535333,2.471824998062849
1789213566338129700,6.202129638671875,-1.473026141670346,-0.46791327982544895,2.189231753014028
1789213566348162800,6.212162841796875,-1.5640876378208397,-0.2973299186706543,1.7107018021062015
1789213566358195000,6.22219482421875,-1.3785688656017183,-0.3451438092470169,0.7157891394972801
1789213566368226800,6.232226806640625,-0.9850555777221918,-0.39036709880828857,-0.2775850614979863
1789213566378260000,6.242260009765625,-0.33101123899817464,-0.603801175174117,-0.7759653757795691
1789213566388291800,6.252291748046875,-0.0032248072654008863,-1.0196838235110044,-0.7018588138222694
1789213566398323700,6.26232373046875,-0.183710553753376,-1.1699269919484854,-0.3606479601100087
1789213566408356900,6.27235693359375,-0.3719032213568687,-0.969071826648712,0.1728416614755988
1789213566418388700,6.282388671875,-0.4973828276768327,-0.8354343405753374,0.6292649945154786
1789213566428420900,6.2924208984375,-0.31433950566053387,-0.7519155148893595,0.8839148783668875
1789213566438454000,6.3024541015625,-0.5757175287231803,-0.5585001442015171,1.2578507745951413
1789213566448486000,6.31248583984375,-1.4693705417722462,-0.8247510339975357,1.650975939939916
1789213566458517800,6.322517822265625,-0.9571776829764247,-1.1209984181284904,1.797440466621518
1789213566468551000,6.332551025390625,0.6193687466621398,-1.049753967604041,1.8164906195282935
1789213566478582800,6.342582763671875,1.8771438256725668,-0.7055535766869783,2.199783834427595
1789213566488615000,6.352614990234375,2.4871353799194096,-0.2595411630243063,2.3902152208685874
1789213566498647800,6.362647705078125,2.095000102394819,-0.038783611902594564,2.4581372489720583
1789213566508680000,6.372679931640625,1.0017588752418756,0.04763035070300102,2.8662019170343873
1789213566518711800,6.3827119140625,-0.26753683795332905,-0.3248912948131561,3.0191856163516637
1789213566528745000,6.392744873046875,-0.8837029891818762,-1.0014917487382888,2.72001825312078
1789213566538776800,6.40277685546875,-1.242433425232768,-1.6323551183611154,1.9709020135611295
1789213566548808700,6.41280859375,-1.0572323406606912,-1.4253385078221559,1.2215092951476574
1789213566558841900,6.422841796875,-0.39042321290969845,-0.8001064220845698,0.6465466764450073
1789213566568874000,6.4328740234375,-0.021025252372026442,-0.7096452299147844,-0.16345160957872867
1789213566578905900,6.44290576171875,0.37033085747361183,-0.2849824782729149,-0.33179099119901656
1789213566588939000,6.45293896484375,0.5696083981931209,-0.14656068053245544,-0.41391573217809197
1789213566598971000,6.462970947265625,1.9697277090847491,-0.028965397721529004,-0.34651042142510413
1789213566609002800,6.473002685546875,2.6084002911537882,-0.3630547289907932,-0.6110521692156792
1789213566619036000,6.483035888671875,2.5623352900713683,-0.8140683119416237,-0.7822317426979541
1789213566629067800,6.49306787109375,2.8993928234964605,-0.5929267299383878,-0.571626167756319
1789213566639100700,6.5031005859375,2.611629190072417,-1.0259440529495476,-1.237455636820197
1789213566649133000,6.513133056640625,2.4155559983521697,-1.9459259777367115,-1.3946972858428954
1789213566659165000,6.5231650390625,1.6658844629973173,-2.609244340762496,-1.4911030656307935
1789213566669197800,6.53319775390625,2.2160680297523734,-1.793406681060791,-0.3883277019351721
1789213566679230000,6.54322998046875,1.7171598922044038,-0.8909835015788674,0.26346388942599297
1789213566689261800,6.55326171875,0.8630939163953065,0.287485108743608,0.11292319934666156
1789213566699294700,6.563294677734375,0.4116968870848417,2.049784411618113,-0.8910545209884643
1789213566709326800,6.573326904296875,0.7787088292688131,3.253450299300253,-2.5435113471359014
1789213566719359000,6.58335888671875,1.4707722252637148,3.6536627925574776,-3.9106893424123523
1789213566729391900,6.593391845703125,1.7028426130384207,2.9938971535772083,-4.217181057181954
1789213566739423700,6.603423828125,1.7677473391473293,1.7393197015643118,-3.524027527862787
1789213566749456000,6.613455810546875,1.511483005836606,0.5585676564797759,-3.0393571745038033
1789213566759488800,6.62348876953125,1.1245943967938423,-0.01921060416549444,-3.0746494371593
1789213566769520600,6.633520751953125,1.0743325285434722,-0.18219255040585994,-3.0239252120941877
1789213566779553000,6.643552978515625,0.7361936296224594,0.6936208545699715,-2.602975928017497
1789213566789586000,6.6535859375,0.0294797769844532,2.3069068230628966,-1.693870786553621
1789213566799617800,6.66361767578125,0.1478384453833103,3.231132376769185,-0.9129863668113947
1789213566809650000,6.67364990234375,0.795161951419711,3.139593910756707,-0.8227595679193734
1789213566819682800,6.683682861328125,1.1335703149318694,2.9355910950809716,-1.5021265639483927
1789213566829714700,6.693714599609375,0.9709674311369657,2.921536850765347,-2.2583611110806463
1789213566839747000,6.7037470703125,0.5318447769880295,2.888829343906045,-2.801084424957633
1789213566849780000,6.713780029296875,0.05697334858775138,2.8069898496091366,-2.624423205193877
1789213566859811800,6.723811767578125,0.20085399625599384,2.4870722515553236,-2.124557036268711
1789213566869844000,6.733843994140625,0.549165914145112,2.030111742898822,-2.0105290905505417
1789213566879876900,6.743876953125,0.47698505955338477,1.5983558181256055,-2.149320890647173
1789213566889908700,6.75390869140625,0.4603019280388951,1.3333838622242211,-1.976486535695195
1789213566899940900,6.76394091796875,0.5987105740368366,1.0958400114744902,-1.3701783461362123
1789213566909973800,6.773973876953125,0.6978232746958732,0.5464280136138201,-0.7736848636269569
1789213566920006000,6.784005859375,0.4157344720378518,-0.020692659416794774,-0.537751955205202
1789213566930038000,6.7940380859375,0.36681262021958827,-0.39754444309175013,0.13028233042657375
1789213566940071000,6.80407080078125,0.45163960589468477,-0.91312548302114,1.1604355255037546
1789213566950102800,6.814102783203125,0.4589046284615993,-1.633243591633439,1.4344552957355976
1789213566960136000,6.824135986328125,0.2825774629577994,-2.585206462571025,1.604630660611391
1789213566970167800,6.834167724609375,0.0020610241830348965,-3.3229923298209902,1.864287558969855
1789213566980200000,6.844199951171875,-0.5240910941213369,-3.6083009713083505,2.1238255071237684
1789213566990232800,6.85423291015625,-0.883035465183854,-3.0446541118681427,2.461983403006196
1789213567000265000,6.864264892578125,-0.6508867514759302,-2.3710943408131597,2.564102007482946
1789213567010296800,6.874296875,-0.4118845186114311,-2.11407714330852,2.531227035102248
1789213567020330000,6.884330078125,-0.6434390658184885,-1.7350591215103863,2.209463516920805
1789213567030361900,6.89436181640625,-0.6971282781690359,-1.2263660875290632,1.528890652233362
1789213567040393700,6.904393798828125,-0.7551599036380648,-1.1773270390719175,0.8611834065988659
1789213567050427000,6.914427001953125,-1.0877332773864268,-1.1649889510244131,0.4413502670705318
1789213567060459000,6.924458984375,-0.909632380208373,-0.8025316034048795,0.1114902439340949
1789213567070491000,6.934490966796875,-1.058099771144986,-0.5943763442248106,0.1605631946608424
1789213567080524000,6.94452392578125,-1.6068886686712502,-0.6416653341442347,0.26418606622070073
1789213567090556000,6.954555908203125,-1.7260042929172514,-0.5123679231017828,0.5829132854461669
1789213567100587800,6.964587890625,-1.5654460666924714,-0.5878454811513424,0.8669701733067631
1789213567110621000,6.974620849609375,-1.1966092471688985,-0.8896388089716434,1.1686433818787336
1789213567120652800,6.98465283203125,-0.8866513175934553,-1.1363117225944994,1.189866494910419
1789213567130685000,6.994684814453125,-0.6989250984579324,-1.0091022237420082,0.7794879969477653
1789213567140717800,7.0047177734375,-0.7272372929677366,-0.840746475508809,0.23901743043363094
1789213567150750000,7.01475,-0.9506462353810667,-0.5635445681095123,-0.07139759525954723
1789213567160781800,7.02478173828125,-1.0331222740158439,-0.4477659793317318,-0.13256430388391016
1789213567170814700,7.034814697265625,-1.1104501361072063,-0.6133908412963152,-0.07084609885662793
1789213567180846800,7.044846923828125,-1.3451552562996745,-0.8125409562438726,0.23655688553899526
1789213567190879000,7.05487890625,-1.9213082538306712,-1.0791478198707103,0.5517559306383133
1789213567200912000,7.064911865234375,-2.332652674216032,-1.3350427353471517,0.6700643301546573
1789213567210944000,7.074944091796875,-2.0152534887239337,-1.3473235402494668,0.6671729926273227
1789213567220975900,7.084975830078125,-1.252124213641882,-1.121543777051568,0.33542087213397026
1789213567231008800,7.0950087890625,-0.5769391794726252,-0.8544178579866886,-0.019136369885504243
1789213567241041000,7.105041015625,-0.30402327882945535,-0.6005459727704525,-0.13972265120595692
1789213567251073800,7.11507373046875,-0.49907180367708204,-0.5052092835187911,-0.2072922126099467
1789213567261105700,7.125105712890625,-0.5423731852650642,-0.4257563920974731,-0.28042613014280793
1789213567271138000,7.135137939453125,-0.6881967836946249,-0.26927345248758794,-0.1676233423054218
1789213567281171000,7.1451708984375,-0.7833955257803201,-0.08465338267385959,0.39759325066953893
1789213567291202800,7.155202880859375,-0.01822714608609676,0.24880700304210185,0.9606769232690334
1789213567301235000,7.16523486328125,0.1500783332645893,0.4904167880564928,1.5772510707765817
1789213567311267800,7.175267822265625,0.48479719460904597,0.3218599642932415,2.039902192290127
1789213567321299700,7.1852998046875,0.4674363099634647,-0.21681845810711384,2.5049393321573734
1789213567331332000,7.19533203125,0.765396635492146,-1.0148130026042461,3.0241023222267627
1789213567341364700,7.20536474609375,1.1104010362684726,-1.8814929607927797,3.0766347657576203
1789213567351396900,7.21539697265625,0.7906970809653401,-2.4957506480515,2.3834113860726354
1789213567361429000,7.225428955078125,0.5661939135745168,-3.0221137787580488,1.526516324317455
1789213567371462000,7.2354619140625,0.5358361847117543,-3.0006624099284407,0.6960416519761085
1789213567381493800,7.24549365234375,0.1308659755334258,-2.092950768649578,-0.20680910526812074
1789213567391525600,7.255525634765625,-0.10468494783341883,-1.1851865204006433,-1.2007394788414238
1789213567401558800,7.265558837890625,-0.20967560061514376,-0.5538958652764558,-1.4786825599968432
1789213567411591000,7.2755908203125,-0.22770985447764394,-0.06161971308887004,-1.1410048488467932
1789213567421622800,7.285622802734375,0.117577454893291,-0.06283025792241097,-1.0261942283183336
1789213567431656000,7.295656005859375,0.5102566300362348,-0.42371933331191536,-0.7055874789565801
1789213567441687800,7.305687744140625,0.2748427770525217,-0.7066355267047881,-0.6171154147773981
1789213567451721000,7.315720947265625,0.20254092642962931,-0.5895809266418218,-0.5818295818626881
1789213567461752800,7.3257529296875,0.5478180066674947,-0.8178858244031667,-0.8973924918383359
1789213567471784700,7.33578466796875,0.651556613561511,-1.4126234031558036,-1.0404361041605472
1789213567481817900,7.34581787109375,0.44577392873167987,-2.103416633084416,-1.2515250787049532
1789213567491850000,7.35585009765625,0.8672738324284553,-2.0207576390981674,-0.7741331919163466
1789213567501881900,7.3658818359375,1.1459972503066063,-1.4630477684915064,-0.040051439881324764
1789213567511915000,7.3759150390625,1.08433311355412,-1.1954308510392904,-0.0027799861073493958
1789213567521947000,7.38594677734375,1.2246031695097683,-0.495783868047595,-0.022726211071014402
1789213567531978800,7.395978759765625,0.7979787624061108,0.8204968836843967,-0.708077542206645
1789213567542012000,7.406011962890625,0.6722673931568861,2.2841595692038537,-2.107778919947147
1789213567552047400,7.41604736328125,1.5637398472964763,3.0078619660437105,-3.624125732427835
1789213567562079200,7.426079345703125,1.96756264000535,2.850072620010376,-4.409533767074346
1789213567572112400,7.4361123046875,1.2247399476319552,2.3948180384889244,-4.428429021680355
1789213567582144300,7.446144287109375,0.4215478344917297,2.4402213607922194,-4.156373829519748
1789213567592177400,7.456177490234375,-0.3323603155195713,2.4130028067380187,-3.6290631888300178
1789213567602209300,7.466209228515625,0.20282617311179638,1.866387746119499,-2.7702994105935095
1789213567612241200,7.4762412109375,0.7687801404505967,1.6273025111466646,-1.8786358177959919
1789213567622274000,7.486274169921875,0.9593097265690564,1.6505787573158741,-1.9755378566682338
1789213567632306400,7.496306396484375,1.5844155555784702,2.0316542961657045,-2.7177438784480095
1789213567642338300,7.50633837890625,1.6728028640836476,2.6852158198088407,-3.3751357740342613
1789213567652371200,7.51637109375,1.1267232255160808,3.237036632376909,-3.206514068341255
1789213567662403300,7.5264033203125,0.8748913216948508,3.3783383694678544,-2.6010166106432675
1789213567672435200,7.536435302734375,0.9463649048000573,3.1482471728116272,-2.244955101540685
1789213567682468000,7.546468017578125,0.5825058736890554,3.0915239995926616,-2.03897309474647
1789213567692500500,7.55650048828125,0.25027210715860126,3.0434166790276764,-1.61694127613008
1789213567702532400,7.566532470703125,0.16258768622577188,2.694945186662674,-1.176195989215374
1789213567712565200,7.576565185546875,0.337614582785964,1.9675690697461365,-1.3840490505784748
1789213567722597400,7.586597412109375,0.24107728557288646,1.3432283798903226,-1.7622773833036423
1789213567732630300,7.59663037109375,-0.13650748855173586,0.885303410115838,-1.777999853092432
1789213567742662100,7.606662109375,-0.4265811524838209,0.5032160638749599,-1.416149239194393
1789213567752694300,7.6166943359375,-0.41976153559684753,0.038783611902594564,-0.8684083894163369
1789213567762727200,7.62672705078125,-0.16008154862374066,-0.5860492453843354,0.0004331307202577591
1789213567772759300,7.63675927734375,-0.10445756881833076,-1.154798980921507,1.1466712040454148
1789213567782791400,7.64679150390625,-0.7323214643642306,-1.6984733119130133,2.296376661220193
1789213567792824300,7.65682421875,-0.8919023699894547,-2.268866138482094,3.241874720057845
1789213567802856200,7.666856201171875,-0.3214434924468398,-3.072045976662636,3.808619545513391
1789213567812888300,7.676888427734375,-0.443110554741323,-3.0134418120026587,3.6582550887838003
1789213567822921200,7.686921142578125,-0.2621820329219103,-2.252803476953506,2.930511599859595
1789213567832953000,7.696953125,-0.5426908729121088,-1.3220575815677642,2.0554723941266535
1789213567842985500,7.7069853515625,-0.6826075853854418,-0.696935970467329,1.1239075835734604
1789213567853018400,7.717018310546875,-0.674624769937992,-0.45791386385858057,0.4834276598215103
1789213567863050200,7.72705029296875,-0.9265051890760659,-0.5307984828054905,0.20776772116720676
1789213567873082000,7.73708203125,-1.342104928818345,-0.8015677268087863,0.23182401179820297
1789213567883115300,7.747115234375,-1.586536493255198,-1.1180664563298224,0.4231768969982862
1789213567893147100,7.757147216796875,-1.7224457236528397,-1.4360527940601109,0.6211085760667919
1789213567903180300,7.76718017578125,-2.176040263007581,-1.6792501405268907,0.8413517479255795
1789213567913212400,7.77721240234375,-2.467100599889457,-2.0182780972421166,1.2086854694098232
1789213567923244300,7.787244384765625,-2.3240517268702385,-1.9374574245989322,0.590250204205513
1789213567933277400,7.79727734375,-1.8564342151209712,-1.3591449109464884,0.3253676801532507
1789213567943309300,7.807309326171875,-1.6249226302728057,-0.8924047665536403,0.3207730458393693
1789213567953341200,7.817341064453125,-1.6705334578469395,-0.5876233628332614,0.1744464663237333
1789213567963374300,7.827374267578125,-1.4968465777188538,-0.3430371923565864,-0.08010317202359438
1789213567973406200,7.83740625,-1.0539268693745136,-0.780499219816923,-0.20771920585036277
1789213567983438300,7.847438232421875,-0.7584110143885016,-1.1285790825158357,0.14840455483347176
1789213567993471500,7.857471435546875,-0.5895742046400905,-1.0269944387853145,0.4705617485076189
1789213568003503400,7.86750341796875,-0.7806661008164286,-1.0271177729040384,0.6630027212053538
1789213568013535200,7.87753515625,-0.9606357144758104,-0.9983364995777606,0.6956219652593135
1789213568023568400,7.887568359375,-1.1038996915504335,-0.8772866923987865,0.6174860016554594
1789213568033600300,7.897600341796875,-1.3286883978843689,-0.759669197756052,0.31850539316833015
1789213568043633200,7.907633056640625,-1.503610665026307,-0.6309691680848598,-0.018031915774941443
1789213568053665300,7.917665283203125,-1.4741168595165013,-0.5079886851042509,-0.4599731344759464
1789213568063697400,7.927697509765625,-0.838713800637424,-0.7021171724975108,-0.8659665492221712
1789213568073730300,7.937730224609375,-0.08882569992244244,-0.9954062913447618,-0.9173144591435789
1789213568083762200,7.94776220703125,-0.0027437457501888274,-1.2994751628816128,-0.30789076791256664
1789213568093794300,7.957794189453125,-0.7395321263954043,-1.461107155817747,0.35187487106770277
1789213568103827200,7.9678271484375,-1.0490481574222446,-1.422132405257225,0.5164475936308502
1789213568113859000,7.977859130859375,-0.11687164471149444,-1.0337731391400098,0.4922565707042813
1789213568123891500,7.987891357421875,0.7308145669326186,-0.19672318006157874,0.735297265304625
1789213568133924400,7.99792431640625,-0.1928647510677576,0.448065839061141,1.5460083757728338
1789213568143956200,8.007956298828125,0.371617390152812,0.5805863038033247,2.498845399196446
1789213568153988400,8.01798828125,0.9507786295890808,0.4257441171377897,2.940529136005044
1789213568164021200,8.028021240234375,0.7627829458624124,-0.25209201606214043,3.0961583813950417
1789213568174053000,8.03805322265625,0.5159571797654032,-1.1974632336497306,3.158363785417378
1789213568184086300,8.048086181640626,-0.40774055067449805,-2.2064193269193173,2.8793726565137505
1789213568194118100,8.0581181640625,-1.0118781181961298,-3.0219559578478337,2.3653207258477806
1789213568204150300,8.068150390625,-0.7374386612474918,-3.218649327293038,1.1434580872178077
1789213568214183400,8.078183349609375,-0.06921323695778846,-2.4289012176156044,0.1728086359888315
1789213568224215300,8.08821533203125,0.28645459665209055,-1.493461611455679,-0.475749964800477
1789213568234247200,8.0982470703125,0.3727238900899887,-0.9711661685794591,-1.0649451069951057
1789213568244280300,8.1082802734375,0.3446820369541645,-0.33971301636993884,-1.119169449135661
1789213568254312200,8.118312255859376,0.5346206714421511,0.022737316986918447,-0.898507759603858
1789213568264344300,8.12834423828125,0.7240583706706762,-0.02079144361615181,-0.9431862747639417
1789213568274377500,8.13837744140625,0.8729185603171586,0.0921077903330326,-1.1625187615185975
1789213568284409300,8.148409423828125,0.9208978705883025,0.2726040582150221,-1.2628338237047194
1789213568294442200,8.158442138671875,0.7821504941552877,0.11612579478025435,-1.6523516122072934
1789213568304474400,8.168474365234376,1.2587532763928175,-0.27140111216604706,-1.4678238968521355
1789213568314506200,8.17850634765625,1.6508336088597773,-0.9889560922920704,-0.5307195723503828
1789213568324539100,8.1885390625,1.7347551701277493,-1.666446188533306,0.47069443497657776
1789213568334571300,8.1985712890625,1.7329548427075148,-1.9400000948190688,1.159241347283125
1789213568344603400,8.208603271484375,1.2919523661613463,-1.2764374016433953,1.216907354310155
1789213568354636300,8.21863623046875,2.2777140463262797,-0.22800211542248724,1.0458142900675536
1789213568364668400,8.22866845703125,3.24505451913774,0.1451250947713852,-0.39962943267226214
1789213568374700300,8.2387001953125,3.34505627759099,0.14707798240482806,-2.561023038429022
1789213568384733200,8.248733154296875,1.7655203107476234,0.6750953100591898,-3.871142344921827
1789213568394765300,8.258765380859375,-0.3918336642295122,1.5923779127597808,-4.435167974546552
1789213568404798200,8.268798095703126,-0.2279477548867464,2.040370102062821,-4.811322423607111
1789213568414830000,8.278830078125,0.33190380392372604,1.8481591387286782,-5.002459327968955
1789213568424862500,8.288862548828124,0.7446440625816583,1.4267922137618063,-4.861717562848329
1789213568434895400,8.298895263671875,1.6150211217224597,1.2798013251185416,-4.330642601189017
1789213568444927200,8.30892724609375,1.8894161550074815,1.7195178535073994,-3.7746798665106294
1789213568454959400,8.31895947265625,1.942834441462159,2.220190662640333,-3.7724674511581657
1789213568464992300,8.3289921875,1.820700930699706,2.392885901382565,-3.7230396956443785
1789213568475024100,8.339024169921874,1.6065081449210643,2.60030349393785,-3.256768337807059
1789213568485056300,8.34905615234375,1.3688929825007914,2.7755566004693506,-2.2993390181571245
1789213568495089400,8.35908935546875,1.0563047044217586,2.765621481910348,-1.3726099571973085
1789213568505121300,8.369121337890626,0.7925228350877761,2.7105595199018717,-0.9959627561837434
1789213568515154400,8.379154541015625,0.8296025656819344,2.5201941844344136,-1.033789505752921
1789213568525186300,8.389186279296876,0.6988485260903835,2.560659465813637,-1.1744658044219016
1789213568535218200,8.39921826171875,0.7178267828047276,2.5885154409885405,-1.014386301624775
1789213568545251300,8.409251220703124,0.5505570762425661,2.3036779241442678,-0.788448132994771
1789213568555280000,8.41927978515625,0.4091355121642351,2.121831995218992,-0.2450052726715803
1789213568565312000,8.42931201171875,-0.023229776678979394,2.1905998264968396,0.6397919414877891
1789213568575345200,8.43934521484375,-0.55596770311445,1.983646344321966,1.3160381751477717
1789213568585377000,8.449376953125,-0.7434580676674842,1.6807576224803924,1.8207386323615908
1789213568595409000,8.459408935546875,-0.685919486412406,1.6166665508419273,2.157289969830215
1789213568605442000,8.469442138671875,-0.849763894701004,1.8938029917895793,2.5008859651133415
1789213568615474000,8.479473876953126,-0.597335194030404,2.1205016233980656,2.852797076538205
1789213568625507000,8.489507080078125,-0.7996908270210027,2.0783447356700897,2.8867095752730965
1789213568635539000,8.4995390625,-1.1234119090110062,2.1363713927030563,3.0238956937387584
1789213568645571000,8.509571044921875,-0.6126815239831804,1.5373042603135108,2.7191177971497176
1789213568655604200,8.519604248046875,-0.24615911888182163,0.7608452557981014,2.637167243693769
1789213568665636000,8.529635986328126,-0.6712970868200063,-0.28797055417299267,2.3818708786323666
1789213568675668000,8.53966796875,-0.649344782730937,-1.7436521778106688,2.5861127637609838
1789213568685701000,8.549701171875,-0.6935194400221109,-2.743302682596445,3.140454326978326
1789213568695733000,8.55973291015625,-0.8845096293896436,-2.8661119006633755,3.1902880329445003
1789213568705765000,8.56976513671875,-1.108563299447298,-2.211640276437998,2.9033953371360894
1789213568715798000,8.579798095703126,-1.091843635314703,-1.9373732534468173,1.9920579065755009
1789213568725830100,8.589830078125,-1.2822677152320743,-2.3980934068977833,0.7336620653182268
1789213568735862000,8.599862060546876,-1.3086615088999272,-3.391448026409745,0.15745207690298557
1789213568745895000,8.60989501953125,-1.573837462940812,-3.3596243166476487,0.040654958732426166
1789213568755927000,8.619927001953124,-1.1102759485840796,-2.970323970288038,0.468282405398786
1789213568765960000,8.6299599609375,-0.7784045856252312,-2.7629344347834586,1.083829547946155
1789213568775991800,8.63999169921875,-0.9411538921535014,-2.4684949768573046,1.4164800785839557
1789213568786024200,8.650024169921876,-0.8657023453280329,-2.303901796028018,1.543323958994448
1789213568796057000,8.66005712890625,-0.7772659369841217,-2.140865196990967,1.7118772756263612
1789213568806089000,8.6700888671875,-1.0610089365899562,-1.7147165907055137,1.3436539118260145
1789213568816121000,8.68012109375,-1.1917159221693874,-1.0706260752409695,0.2650990894123912
1789213568826154000,8.690154052734375,-0.8712064957022666,-0.5522340695440768,-0.8046528333425521
1789213568836185900,8.700185791015626,-0.6589002543225884,-0.3298684987038374,-1.5808774445801972
1789213568846218000,8.710218017578125,-0.8228422777667641,-0.1764940465033054,-1.949436616206169
1789213568856251000,8.7202509765625,-1.0194567367568612,-0.2168418389827013,-2.0595833365768192
1789213568866283000,8.730282958984375,-1.3807616994708776,-0.5549275464117527,-1.8525611730799079
1789213568876316200,8.740316162109375,-1.8395482545107602,-0.9989408952116966,-1.3230141516402363
1789213568886348000,8.75034814453125,-2.1489356907218693,-1.2552969984591007,-0.8311649926930665
1789213568896380000,8.7603798828125,-1.7154367216736077,-1.4385212300002574,-0.6324202436760068
1789213568906413000,8.7704130859375,-0.6331126098543405,-1.644623648303747,-0.5802513727605343
1789213568916445000,8.78044482421875,-0.04544774596691131,-1.4743641122758389,-0.3320899741455912
1789213568926477000,8.79047705078125,0.13955343211889265,-1.1121972720354796,0.010196692104637622
1789213568936510200,8.80051025390625,0.8292977375164627,-0.8579594761162995,0.39630525668561456
1789213568946542000,8.8105419921875,2.0326748713850975,-0.7104454403817653,1.0915049048796295
1789213568956574000,8.820573974609376,2.449987260264158,-0.5277665677636861,1.7748352515816688
1789213568966607000,8.830607177734375,2.1053817956775425,-0.10468787044286727,1.942631320105493
1789213568976639000,8.840638916015624,1.2352481899037957,0.15820786370635032,1.8748034000262617
1789213568986671900,8.850671875,0.13513620019853115,-0.011617957079410553,1.9997870395228265
1789213568996704000,8.8607041015625,-1.2005001171275973,-0.523350504887104,2.469439271970093
1789213569006736100,8.870736083984376,-1.6195622722834349,-1.5426631569981575,2.7975544972658155
1789213569016769000,8.88076904296875,-2.006486829422414,-2.6200579957216976,3.03981017896831
1789213569026801200,8.89080126953125,-2.6699849329292773,-3.4597733746170998,3.3414164597839116
1789213569036833000,8.9008330078125,-2.3751181895017623,-3.6824814752846953,2.5663193912714717
1789213569046866000,8.910865966796875,-1.236964930693805,-3.429684525823593,1.3225859893560408
1789213569056898000,8.92089794921875,-0.6125690035194158,-2.8964316356033084,-0.3995668888300657
1789213569066931000,8.930930908203125,0.014708324310183525,-2.0673422801405192,-1.271117083403468
1789213569076963000,8.940963134765624,0.4731210776016116,-1.0610790792167186,-1.6434814925312995
1789213569086995200,8.9509951171875,0.41663609705269333,-0.26286183187961576,-1.9943413413375615
1789213569097028000,8.961028076171875,0.24030454763472078,0.4084615584254265,-2.174395710670948
1789213569107060000,8.97106005859375,0.6357710154086351,0.7944862441152334,-2.4347423448592425
1789213569117092000,8.981092041015625,1.1719570364713667,0.7914660195112228,-2.701384864321351
1789213569127125000,8.991125,1.4495061498731374,1.1099983006864786,-2.636919114151597
1789213569137156900,9.001156982421875,1.7067010420322417,1.1254442916214464,-2.729182387307286
1789213569147189200,9.011189208984375,2.135277167725563,0.9932716174036264,-2.5381430981010196
1789213569157222100,9.02122216796875,2.0011147809952496,0.8768927246451378,-1.9225877722471951
1789213569167254000,9.03125390625,1.4812456884831189,0.6556856761902571,-0.8327426172733307
1789213569177287200,9.041287109375,1.1906412786751985,0.4801157587945461,0.7103180146098137
1789213569187319000,9.051319091796875,1.0356868638068437,0.23299042522907257,1.7425713968366383
1789213569197351000,9.061350830078124,1.156480650398135,-0.0376969857096672,1.0386281779557467
1789213569207384000,9.071384033203126,1.8533412175416946,0.3697767307221889,-1.1419926908403635
1789213569217416000,9.081416015625,2.6950392946869135,1.5869886209368704,-2.8542542896091936
1789213569227448000,9.091447998046876,2.4638749158412216,2.9657243675380944,-3.9296068088501688
1789213569237481200,9.101481201171875,2.183137235531211,4.182213788697124,-4.650571889680624
1789213569247513000,9.11151318359375,1.5295973391979931,4.789515665468573,-5.2255046977669
1789213569257546000,9.1215458984375,0.807113085976243,4.75149427011013,-4.785353285092115
1789213569267578000,9.131578125,0.6524614534467459,3.874899067106843,-3.4375527749806642
1789213569277610000,9.14160986328125,1.1326356644302606,3.0870950772345065,-2.714134455779195
1789213569287643000,9.151642822265625,1.4964233838707208,3.076855422770977,-2.7533406770080324
1789213569297675000,9.161675048828124,1.5965940691500902,3.400696916270256,-2.531557289969921
1789213569307707100,9.17170703125,1.4285656531751154,3.5548049434423445,-1.9963959357798098
1789213569317740000,9.181739990234375,1.0726578733295202,3.430115318456292,-1.6313199300944805
1789213569327772200,9.191772216796876,0.8039198428928852,3.0637136171251536,-1.6171739158421754
1789213569337804000,9.201803955078125,0.8979162234514951,2.5677058771938084,-1.6173539485841988
1789213569347837000,9.2118369140625,0.7600970677793025,1.9474825595289467,-1.3765601561278105
1789213569357868800,9.221868896484375,0.035250761601328846,1.2427502360969782,-1.0260235479265452
1789213569367902000,9.23190185546875,-0.1753361086398363,0.5096738617122173,-0.3861521114617586
1789213569377934000,9.24193408203125,0.08213350880742072,-0.2656388953775167,0.062141106614470476
1789213569387966000,9.251966064453125,0.01813274580091238,-0.7654425204604863,0.19261632926464078
1789213569397999000,9.2619990234375,0.07428571791648865,-1.0253566084504127,0.18326047189831732
1789213569408031000,9.272031005859375,0.16548340766727923,-1.2122329327583312,0.2539069565296173
1789213569418062800,9.282062744140624,0.1100941134005785,-1.3867933808505535,0.5214993240624666
1789213569428096000,9.292095947265626,0.16869184831976888,-1.6282482675641774,1.0174661474615334
1789213569438127900,9.3021279296875,0.4144850564986467,-2.2349574391394853,1.3984309194132685
1789213569448160000,9.312159912109376,0.37720015872120854,-2.583102768290043,1.5796443956539035
1789213569458193200,9.322193115234375,0.4536848479866981,-2.231624495324492,1.7699997942492365
1789213569468225000,9.33222509765625,0.28180414049774405,-1.781690524303913,2.0198583521708846
1789213569478258200,9.342258056640626,-0.004580313527584075,-1.5679811381280422,2.1148133486285805
1789213569488290000,9.3522900390625,-0.13707652061134576,-1.6586603569626808,1.9423913738697767
1789213569498322000,9.362322021484376,-0.1852700581550598,-1.6515455565214157,1.5627885379210114
1789213569508355000,9.37235498046875,-0.528292637464404,-1.7335960632205007,0.9698258598864078
1789213569518387200,9.38238720703125,-0.9821329682737588,-1.8872119229614734,0.33595892453342674
1789213569528419000,9.392419189453125,-1.024255953732133,-1.9170178631603716,0.0026329788520932196
1789213569538452000,9.402451904296875,-1.2147013686984778,-1.9723077887058258,-0.14752017321437597
1789213569548484000,9.412484130859376,-1.9589058708190916,-2.0383961716413497,0.22920652277618644
1789213569558515200,9.42251513671875,-2.8041476119205355,-2.2802561320245265,0.6478834780067205
1789213569568548400,9.43254833984375,-2.985320463889837,-2.64289935760498,0.6462029775738716
1789213569578580500,9.44258056640625,-3.0320550347968935,-2.4524819996893403,0.5128720732316374
1789213569588613600,9.452613525390625,-2.579906018075347,-1.8985814582377671,0.7179641454488038
1789213569598645500,9.4626455078125,-1.7270955952852964,-1.542766617372632,1.280223934444785
1789213569608677400,9.472677490234375,-0.9743389533966779,-1.0087281297326087,1.7265131192222236
1789213569618710500,9.48271044921875,-0.7689730326741934,-0.3973322616457939,1.4025018221139907
1789213569628742400,9.492742431640625,-0.7419318810135126,-0.020641806012392044,0.9456170090422034
1789213569638774300,9.502774169921874,-0.8196475733786821,-0.03019815438687801,0.809878751297295
1789213569648807200,9.51280712890625,-1.3030132738798856,-0.25203999361395835,0.6763096542850137
1789213569658839600,9.522839599609375,-1.881498221489787,-0.2683329567670822,0.13525573492497206
1789213569668871400,9.532871337890626,-1.7783868065834045,-0.28806115506589414,-0.42594957658201454
1789213569678904300,9.542904296875,-1.4685872824400663,-0.5458943451285362,-0.7268614453926682
1789213569688936400,9.5529365234375,-1.1745081822589039,-0.8848562508702278,-0.8445932140648365
1789213569698968300,9.56296826171875,-0.7758189530462026,-1.1545476365089415,-0.7631386274322867
1789213569709001200,9.573001220703125,-0.30547552346438167,-1.1881968081325291,-0.3242287392511964
1789213569719033600,9.58303369140625,0.10431114608496427,-1.0481330884039401,0.25224194592684507
1789213569729066500,9.59306640625,1.0165753361016512,-0.8021142547756434,0.6306918124482035
1789213569739098400,9.603098388671874,1.5414543657302855,-0.4063116869151592,0.8462164313524961
1789213569749130500,9.613130615234375,1.2823399036854506,0.014292729246616363,1.0029802337303757
1789213569759163400,9.623163330078125,1.326946230392158,0.18338029888570306,1.0876190033569932
1789213569769195300,9.6331953125,0.7884539782136678,0.2349929972231388,1.2774842803478241
1789213569779227400,9.643227294921875,-0.26907705313265323,0.015482231292128562,1.3852563805416225
1789213569789260300,9.65326025390625,-0.614840163321793,-0.3980190748661756,1.5075731389164924
1789213569799292400,9.66329248046875,-0.5011243522927165,-0.7173188332825898,1.7140937826320528
1789213569809324500,9.673324462890625,-0.44751463491916654,-1.0382383018553256,1.6487933352038264
1789213569819357400,9.683357421875,-0.0516004233777523,-1.607498909524083,1.1529460465312003
1789213569829389300,9.693389404296875,-0.13595833023637532,-1.9629396563798187,0.8363748362958431
1789213569839422500,9.70342236328125,-0.5364011251181364,-1.9244079734116792,0.8377087152481079
1789213569849454300,9.713454345703125,-0.9415729943484067,-1.6329238581597805,0.8523883979856968
1789213569859486500,9.723486572265625,-0.9675471012994646,-1.3445061447411775,0.8363847731679678
1789213569869519400,9.733519287109376,-0.4833388124942779,-1.3088614153862,0.7555255220800637
1789213569879551500,9.743551513671875,0.18454115935862064,-1.5568489187389611,0.702892833045125
1789213569889583400,9.753583251953126,0.9132073160856962,-1.6632640513658523,0.6020505321145058
1789213569899616500,9.763616455078125,1.071173772251606,-1.4692507147848606,-0.1478922213971615
1789213569909648400,9.7736484375,1.000100002118945,-0.7460217806756496,-1.014464627557993
1789213569919680300,9.78368017578125,0.7930623487919568,-0.14999007045924662,-1.8193588684409856
1789213569929713400,9.79371337890625,0.9075292704492807,0.28989772284328935,-2.0025603036284445
1789213569939745500,9.80374560546875,0.8240168745040893,0.4624713810324669,-1.477853123435378
1789213569949778400,9.8137783203125,0.7679886978119611,0.3204606188893318,-0.5750239935010671
1789213569959810600,9.823810546875,0.8453846567034721,-0.17824527408480642,0.23693068728744981
1789213569969842400,9.833842529296875,0.9781804312556982,-0.7924977006465196,0.38961014296114443
1789213569979875300,9.843875244140625,1.5691238784223793,-1.0273778851449489,-0.32844226529300213
1789213569989907500,9.853907470703126,1.9571645801097153,-0.5974187806606293,-1.393051272201538
1789213569999939300,9.863939208984375,1.9401047242373226,0.6326151817262172,-2.155195335638523
1789213570009972200,9.87397216796875,1.832445144507289,1.9400667303144932,-3.1193618545889854
1789213570020004600,9.884004638671875,1.6399737766712903,2.6887890021204948,-3.781707573190331
1789213570030036500,9.894036376953125,1.5785732592910526,2.7776912744104862,-3.5706600997000932
1789213570040069400,9.9040693359375,1.950354315572977,2.591861828806996,-3.327918680307269
1789213570050101200,9.914101318359375,1.9536971962600946,3.0579619217306373,-3.724262515437603
1789213570060133400,9.92413330078125,1.6277625298738478,4.074999030125141,-4.112475651082396
1789213570070166300,9.934166259765625,1.4956214198380708,4.345374306374788,-3.857273978567123
1789213570080198400,9.944198486328125,1.529133228817582,3.9933196948260066,-3.342915173909068
1789213570090231300,9.954231201171876,1.65493169182837,3.7123382688879967,-3.083919954329729
1789213570100263400,9.964263427734375,1.240029286700487,3.5583173354774713,-2.730972777855396
1789213570110295300,9.97429541015625,0.9919622883707284,3.2023020036041734,-2.248756831911206
1789213570120328400,9.984328369140625,1.0511252559572457,2.8314947607904672,-1.6961176886975764
1789213570130360300,9.9943603515625,0.8102432006955146,2.3411440237075087,-1.153709432119131
1789213570140392200,10.00439208984375,0.9520148933857678,1.726245700457692,-0.7235498366266488
1789213570150425300,10.01442529296875,0.8899947828024626,1.1541361330986022,-0.6108516782075166
1789213570160457500,10.02445751953125,0.7978530901998281,0.6806915226310492,-0.8756412632793188
1789213570170489300,10.0344892578125,0.8261141390442848,0.3750497026890516,-1.0257043989747763
1789213570180522500,10.0445224609375,0.5459574734926224,0.19581658661067486,-0.7520254050046206
1789213570190554400,10.054554443359375,0.24056933605074882,-0.03293547039628029,-0.18492752832770346
1789213570200587500,10.06458740234375,0.27250410497188565,-0.4304126934707165,0.5880079782366753
1789213570210619400,10.074619384765626,0.4334767572164535,-1.023694228196144,1.3479548238903283
1789213570220651300,10.0846513671875,0.46651919511854645,-1.7868448383271693,1.9995970699086785
1789213570230684200,10.09468408203125,0.45079029558897016,-2.8580110117942095,2.262522322413325
1789213570240716500,10.104716552734375,0.15167787741571664,-3.3093343913465736,2.2865797820881006
1789213570250748400,10.11474853515625,-0.0022118308305740355,-2.980501665431261,2.2549483800277113
1789213570260781300,10.12478125,-0.33066227943003174,-2.104293415918946,2.1806512639343736
1789213570270813400,10.1348134765625,-0.4965928463429212,-1.45181384229362,2.0305732229307294
1789213570280845300,10.14484521484375,-0.17572247760891913,-1.349486855763197,1.6647478601828216
1789213570290878200,10.154878173828125,-0.08185673769265413,-1.5498276418000458,0.7684998622044921
1789213570300910600,10.16491064453125,-0.24429449405372142,-1.6649726088494061,0.09839373873472212
1789213570310942500,10.1749423828125,-0.9481628941327332,-1.8539461976975202,0.2323562189787626
1789213570320975400,10.184975341796875,-1.6372610105812548,-2.2987211785197257,0.48173166955858465
1789213570331007500,10.195007568359374,-2.04963272818774,-2.662490193259716,0.8937520895093679
1789213570341039400,10.205039306640625,-2.137459187939763,-2.8748481648266315,1.5055124069944024
1789213570351072300,10.215072265625,-2.178300901415944,-2.684586289733648,1.8234166193991899
1789213570361104400,10.2251044921875,-2.5261978087633845,-2.2186942866027355,1.7228689175009726
1789213570371137300,10.23513720703125,-2.3537726191341877,-1.5145792182862758,1.609500020213425
1789213570381169400,10.24516943359375,-1.8827903071269392,-0.5795224739640951,1.2997721000015734
1789213570391201500,10.255201416015625,-0.9537491698324679,-0.19935995830595493,0.5734340939611197
1789213570401234400,10.265234375,-0.3840399416133761,-0.1999444801956415,0.24078970080316064
1789213570411266300,10.275266357421875,-0.6401084600910544,-0.3546481351733207,0.16290449708998203
1789213570421298400,10.28529833984375,-1.2674591454178095,-0.7233353170931339,0.321454306101799
1789213570431331300,10.295331298828126,-1.7085162747606635,-0.9751888482242822,0.6730363317027688
1789213570441363500,10.305363525390625,-1.858366644488275,-1.2501087821662424,0.8945590219780802
1789213570451395600,10.3153955078125,-1.689244295796752,-1.2569798369795084,0.5343263646706938
1789213570461428500,10.325428466796875,-1.1009890648007392,-1.065610292905569,0.006893851166963577
1789213570471460400,10.33546044921875,-0.5424874592944979,-0.8905980093926191,-0.12966682887673378
1789213570481492200,10.3454921875,-0.3247954332232475,-0.8205699489206075,-0.01118453409820795
1789213570491525400,10.355525390625,-0.5657148978859186,-0.7720505404233932,-0.041376258744299406
1789213570501557200,10.36555712890625,-0.8666822962760925,-0.8265957850813865,0.14659575184583662
1789213570511590400,10.37559033203125,-1.0120628271132708,-1.0128688827991486,0.5048468799471855
1789213570521622500,10.38562255859375,-0.6570148789674043,-1.202196107390523,0.8116618353217839
1789213570531654400,10.395654296875,0.1803857932448387,-1.1264379788339138,1.0551245547264814
1789213570541687600,10.4056875,0.05480769498646259,-0.6398831269025802,1.1186030474245547
1789213570551719700,10.4157197265625,-0.02928074728101492,-0.15969605643749235,0.9164484899640083
1789213570561751600,10.42575146484375,0.36395109330862757,0.16459259630739687,0.9783402979925274
1789213570571784400,10.435784423828125,1.0770151917561888,0.04004091848731041,1.1968830956742167
1789213570581816600,10.445816650390626,1.7337036152482033,0.020223872861266135,1.2078726917222142
1789213570591848700,10.4558486328125,1.4831731494143605,-0.14047639218270777,1.4295260226398705
1789213570601881600,10.465881591796874,1.0151572859972715,-0.451402290007472,1.5718091719835996
1789213570611913700,10.475913818359375,-0.2139510859772563,-0.8368126431912183,1.812472323797643
1789213570621945600,10.485945556640624,-0.6317310923680662,-1.344274089550972,1.9835183340281246
1789213570631978500,10.495978515625,-0.45859775446951384,-1.9010820428818462,1.7102993587851523
1789213570642010600,10.5060107421875,-0.3196674226850271,-2.057035990181565,0.9479887066096067
1789213570652043500,10.51604345703125,-0.036507483664155,-1.9492992535620928,0.14316460835337638
1789213570662075400,10.526075439453125,0.40749943539500233,-1.597103772237897,-0.5490870036900043
1789213570672107800,10.536107666015624,0.7933376586019992,-1.1406553047567605,-0.9945371072947978
1789213570682140700,10.546140625,0.7856400898367166,-0.6439256802916526,-1.2413146503359078
1789213570692172500,10.556172607421875,0.6372206296950579,-0.14779928241670132,-1.0402128167986868
1789213570702204700,10.56620458984375,0.6867407396674156,0.05743044470548629,-1.1210264751791954
1789213570712237600,10.576237548828125,0.8626654618501662,0.04074468284249305,-1.4717629898667335
1789213570722269400,10.58626953125,1.0249819299191236,-0.2473579732775688,-1.706372540730238
1789213570732301800,10.5963017578125,1.3439648774713278,-0.6318126331716776,-1.4762234764069317
1789213570742334700,10.606334716796875,1.2372761886000632,-0.9700766197770834,-0.7109627422541379
1789213570752366600,10.61636669921875,1.3155465922385454,-1.4176777639359235,0.2516898650020361
1789213570762398700,10.626398681640625,1.613200336036086,-1.8517834667056798,0.6371288597583771
1789213570772431600,10.636431640625,1.0952420455813408,-1.5421388408631085,0.12471125229597091
1789213570782463500,10.64646337890625,0.4862631755083799,-0.18701193338632582,-1.067128296253085
1789213570792496600,10.65649658203125,1.0492331586003303,1.5270003084421158,-2.552710552635789
1789213570802528500,10.666528564453126,2.0789047076404095,2.816111898219585,-3.860411107549071
1789213570812560600,10.676560546875,2.46641407893002,3.7404637086540458,-4.6895554080694914
1789213570822593800,10.68659375,1.5550374854028224,4.506499518832564,-4.907936877709627
1789213570832625700,10.696625732421875,0.9064356299936771,4.940070384073257,-4.555307681143284
1789213570842657500,10.706657470703124,1.295416242879629,4.551704103693366,-4.311113140332699
1789213570852690700,10.716690673828126,2.057424112716317,3.518905947065353,-3.997998208031058
1789213570862722600,10.72672265625,2.228426576066017,2.5189561670720577,-3.6804818259000776
1789213570872754700,10.736754638671876,1.9842209293395279,2.202271559590101,-3.305180778798461
1789213570882787600,10.74678759765625,1.352582483690977,2.5204116265773773,-2.6208149515688417
1789213570892819700,10.75681982421875,0.6249304724425077,2.801540936553478,-1.6623042664229868
1789213570902852600,10.7668525390625,0.466592844876647,2.450806175431609,-1.0492249752938747
1789213570912884700,10.776884765625,0.5102075301975012,1.9301789580285549,-0.9031658145427703
1789213570922916600,10.78691650390625,0.433871309491992,1.6153595598965882,-0.7959937260687351
1789213570932949500,10.796949462890625,0.18424714484810828,1.2876362565279007,-0.7626005750328302
1789213570942981600,10.806981689453124,0.12848317205011844,0.9071025694698095,-0.7701449990630149
1789213570953013800,10.817013671875,0.28358021025955676,0.579716535231471,-0.7443149767577648
1789213570963046700,10.827046630859375,0.29295535684823987,0.3764659992277622,-0.6520686547368765
1789213570973078500,10.83707861328125,-0.010593874728679656,0.24878069955706594,-0.5136497796058654
1789213570983110700,10.847110595703125,-0.08539543321281672,0.050582770767807955,-0.2648059516847133
1789213570993143600,10.8571435546875,-0.006777239049971104,-0.1906599344998598,0.12668693628311156
1789213571003175400,10.867175537109375,0.10476590411514043,-0.4480272606164217,0.5913865147590637
1789213571013207600,10.87720751953125,0.06025982291251421,-1.0998416483312845,1.1128402461141347
1789213571023240400,10.887240478515626,-0.03702098614424467,-2.1060773767262697,1.6695400628954171
1789213571033272600,10.8972724609375,-0.2244306866765022,-2.6788229039013385,2.201480701473355
1789213571043305700,10.9073056640625,-0.3207517107903957,-2.5722727467179296,2.2233082101389763
1789213571053337600,10.917337646484375,0.3528407934904098,-2.620906136983633,2.6231381338194013
1789213571063369500,10.927369384765624,-0.13479045550078153,-2.836293100982904,2.875919885711372
1789213571073402600,10.937402587890626,-0.5612339530795812,-3.1127813071548935,2.992177782438695
1789213571083434500,10.9474345703125,-0.8260358131110668,-3.2220559208661315,2.8535867656111717
1789213571093466600,10.957466552734376,-1.0216261897504328,-2.8416338774889707,2.047793237800896
1789213571103499800,10.967499755859375,-1.1379185732692478,-2.0916525455325843,1.1978481413140891
1789213571113531600,10.97753173828125,-1.1460317370980977,-1.3840724314540624,0.5224874583169817
1789213571123563500,10.9875634765625,-1.1629662130251526,-0.9815706582158803,0.161020875300467
1789213571133596700,10.9975966796875,-1.6129729570209979,-0.7503244463056326,0.27967998795062304
1789213571143628500,11.007628662109376,-1.7084095995157955,-0.5566612383365631,0.6465373240947723
1789213571153660400,11.017660400390625,-1.4579004687309265,-0.6352782634556293,0.9121201053708792
1789213571163693600,11.027693603515624,-1.3637281470835207,-0.9455003969252109,0.5710837314426899
1789213571173725700,11.0377255859375,-0.9350357015341519,-0.8989367986708879,-0.004582651615142822
1789213571183758600,11.047758544921875,-0.21747195357978344,-0.7462871536135673,-0.3607470365703106
1789213571193790700,11.057790771484376,-0.02974251957386732,-0.9472416876345873,-0.18799860633611679
1789213571203822600,11.067822509765625,-0.2868950338959694,-0.9655249478220939,0.25232903968840836
1789213571213855500,11.07785546875,-0.5049009482219815,-1.1993360417842864,0.751714731620252
1789213571223887600,11.0878876953125,-0.5247267616763711,-1.6094827768176794,1.2665429073557257
1789213571233919700,11.097919677734374,-0.9024161652192473,-1.703158839380741,1.45463912884742
1789213571243952600,11.10795263671875,-1.274052552333474,-1.3681225826501846,1.3813845075443387
1789213571253984800,11.11798486328125,-1.6361825676947832,-0.9505494970083236,1.1197726757258175
1789213571264016600,11.1280166015625,-1.906075028863549,-0.4704080192506313,0.6352350088357925
1789213571274049500,11.138049560546875,-1.2183815185159443,0.15589666415452957,0.3225932470038533
1789213571284081700,11.14808154296875,0.05712181714773178,0.6114607500165701,0.05413783290088176
1789213571294113500,11.158113525390625,0.93970193977952,0.8744289648801088,-0.19030980588793753
1789213571304146400,11.168146484375,1.0949515382021664,0.9552624970048665,-0.41188364182859655
1789213571314178800,11.1781787109375,0.8885743946105241,0.7222258945465088,-0.3994534915834665
1789213571324211700,11.188211669921875,0.7260477909222245,0.10933365042209625,0.030336101552844046
1789213571334243600,11.19824365234375,0.4573462931036949,-0.611457242885232,0.403771939304471
1789213571344275700,11.208275634765625,-0.41168782699555156,-1.0579308443188666,0.534991842842102
1789213571354308600,11.21830859375,-1.9664654924184082,-1.2159142516195773,0.48781303529888387
1789213571364340500,11.228340576171876,-2.7316934933453796,-1.7039269011437892,0.44365182201117276
1789213571374372600,11.23837255859375,-1.8323884458839892,-2.3553432294517753,0.6289765329629182
1789213571384405500,11.248405517578124,0.3908499138891697,-2.541283149692416,0.7898989163249731
1789213571394437600,11.258437744140625,0.9312439080357551,-2.082303702428937,0.941242447219789
1789213571404469500,11.268469482421875,0.33785891293585296,-1.7432283994406461,1.4045403422042726
1789213571414502700,11.278502685546876,0.3823918821454048,-1.7051807005971669,1.8587486295431852
1789213571424534500,11.288534423828125,0.11045067175328731,-1.4065233327150344,2.273651034671068
1789213571434566400,11.29856640625,0.4807914660990238,-1.1895312716066837,2.174952760031819
1789213571444599600,11.308599609375,0.868557442498207,-1.1013596516788005,1.862770140144229
1789213571454631700,11.318631591796875,0.8821750489622354,-1.0660352403193711,1.5310162660852074
1789213571464663600,11.32866357421875,0.5911445226967335,-0.8699567879021167,1.0536366542562843
1789213571474696700,11.33869677734375,0.45425417230725285,-0.6758014125019312,0.30219430983662604
1789213571484728600,11.348728515625,0.5961357551127672,-0.43007776242792606,-0.6658142714947461
1789213571494761700,11.35876171875,1.0123258619636297,0.08913491200208663,-1.2290361835211514
1789213571504793600,11.368793701171874,1.4209253675550222,0.44209962413311005,-1.360848207733035
1789213571514825500,11.378825439453125,1.667059936517477,0.42751521846354007,-1.5601257484525441
1789213571524858600,11.388858642578125,1.8229063317894934,0.1770832445681095,-1.7951491408139466
1789213571534890800,11.398890869140626,1.1364216127097606,-0.35965514968037604,-1.746145748192072
1789213571544922600,11.408922607421875,0.18563947598934172,-1.0283318248689175,-1.4800596935689447
1789213571554956300,11.418956298828125,0.1441395908653736,-1.721756572344899,-1.1190730030238627
1789213571564988200,11.42898828125,0.5746715268015861,-2.387977671074867,-0.38947511840462684
1789213571575020000,11.43902001953125,1.0064818121105432,-2.6192951946556566,0.7588479445010423
1789213571585053200,11.44905322265625,1.4015192408174275,-2.199313294306397,2.1855448811948297
1789213571595085000,11.4590849609375,1.7704244494020938,-1.6165543226391077,2.7708196350753305
1789213571605118000,11.469117919921874,2.0545055949211117,-0.9261492152452468,1.8006582596242426
1789213571615150300,11.479150390625,1.993445269280672,-0.2886106056421995,-0.009157119923830032
1789213571625182200,11.48918212890625,1.8853256708234547,1.0438497119963168,-1.500259016510844
1789213571635215000,11.499215087890626,1.7879291264325379,2.282728075096011,-2.4943454574286936
1789213571645247200,11.509247314453125,1.3712714020699261,2.641822083762288,-3.127318366551399
1789213571655279000,11.519279052734374,1.0344687201887368,3.0000434012472628,-3.564611467185616
1789213571665312000,11.52931201171875,1.5364461821794508,3.3651796126872298,-3.934385275298357
1789213571675344100,11.53934423828125,2.4112094935804604,2.9703660558640954,-3.922010362371802
1789213571685376300,11.549376220703126,2.48670575633049,2.468373980826139,-3.6169320215314626
1789213571695409200,11.5594091796875,0.8210340593010187,2.5363778419941663,-2.9695787048786877
1789213571705441300,11.569441162109374,0.12444997101128101,2.7369869235783812,-2.3858804065346715
1789213571715473200,11.57947314453125,0.6848585791826248,2.592496035057306,-2.11877728382349
1789213571725506000,11.589506103515625,1.4775690457969903,2.4377485409379003,-2.3417028266340494
1789213571735538200,11.5995380859375,1.6381681885540484,2.7465637302190062,-2.4855916576087473
1789213571745571000,11.609571044921875,0.9169085086911917,2.924676902356744,-2.022835614416003
1789213571755603200,11.619603271484374,0.5830506480902433,2.699066650506854,-1.4112468541055916
1789213571765635300,11.62963525390625,0.5702729995816945,2.1767484112769364,-0.9657312840491533
1789213571775668200,11.639668212890625,0.6818903770267963,1.6624492278516292,-0.7910404875755309
1789213571785700000,11.6497001953125,0.4524421544492244,1.3525205243706702,-0.703599520009756
1789213571795732200,11.659732177734375,-0.00743570295870304,1.090097668430209,-0.5807476318448782
1789213571805765000,11.66976513671875,-0.26156243971884247,0.7324976977139711,-0.6247808348387479
1789213571815797000,11.679796875,-0.07007832935452461,0.3810170866608619,-0.6343354296475648
1789213571825829400,11.689829345703124,-0.1807131255030632,0.1868821695268154,-0.44147184762358666
1789213571835862300,11.6998623046875,-0.10203531010746955,0.1035714336335659,0.05656769039630889
1789213571845894100,11.70989404296875,0.3592585515782237,-0.06013385844528675,0.359644043764472
1789213571855926000,11.719926025390626,0.6225955997541547,-0.3608101649343967,0.34193361502885816
1789213571865959200,11.729959228515625,0.3309872736006975,-0.7427373521775007,0.4664163192659616
1789213571875991000,11.739990966796874,-0.31229251000285146,-1.059970825713873,1.0621166055709124
1789213571886023200,11.750023193359375,-0.8111503786683082,-1.5731553258955477,1.6740990413740275
1789213571896056000,11.76005615234375,-0.5846329488456249,-2.501717447501421,1.6367413706213234
1789213571906088200,11.770088134765626,-0.3306409443810582,-3.087092154625058,1.9236311438202858
1789213571916121300,11.780121337890625,-0.46259939132630823,-2.9283143820762634,2.366677693414688
1789213571926153200,11.7901533203125,-0.7784238748475909,-2.0390432373732326,2.1227470642372963
1789213571936185000,11.80018505859375,-0.44934155808538195,-0.9678647889465093,1.6518626596465706
1789213571946218200,11.81021826171875,-0.014358780220150946,-0.2756131769031286,1.6112413109228014
1789213571956250000,11.82025,-0.20588848329186438,0.024457564908266068,1.2723662066817283
1789213571966282200,11.8302822265625,-0.2661161575004458,-0.010755202770233153,0.5201479094535112
1789213571976315100,11.840315185546874,0.0380433149293065,-0.12316869902908802,0.22915070093572137
1789213571986347300,11.85034716796875,0.13155366553664208,-0.29013445420861245,0.36595775695592164
1789213571996379100,11.860379150390624,-0.224932790979743,-0.5708025764137507,0.4467749224677682
1789213572006412300,11.870412353515626,-0.5932555235013366,-1.076199491459131,0.7759177372455597
1789213572016444200,11.880444091796875,-1.0930547646701336,-1.7296745058625935,1.2488356934905052
1789213572026476000,11.89047607421875,-1.1737883435517549,-2.1398896299570795,1.5336048212736844
1789213572036509000,11.900509033203125,-1.1955562309846282,-2.155960474792123,1.222013445277512
1789213572046541300,11.910541259765624,-0.982682711111009,-1.7754940077513455,1.106058623149991
1789213572056573200,11.9205732421875,-0.7730497805938125,-1.05870767391026,1.265975628861785
1789213572066606000,11.930606201171875,-0.7964423466190695,-0.577025396451354,0.9982473599895835
1789213572076638200,11.94063818359375,-0.7988760035067797,-0.39539164897203444,0.48443508329838514
1789213572086670000,11.950670166015625,-0.7602963897436856,-0.48984278756082056,-0.04235562517046928
1789213572096703000,11.960702880859374,-0.8022454799398779,-0.5587099875599145,-0.36104397369027136
1789213572106735000,11.970735107421875,-0.8389689444422721,-0.7012304527908563,-0.4110743712723255
1789213572116768000,11.98076806640625,-0.9940098685503005,-0.7589806309700011,-0.24666911423057317
1789213572126800100,11.990800048828126,-1.2138771928340195,-0.6383364819824695,-0.26778642880022524
1789213572136832300,12.000832275390625,-1.3485183029919863,-0.4406096778362989,-0.5418444852158427
1789213572146865200,12.010865234375,-1.4371172084212303,-0.26890169656574725,-0.8456041446730495
1789213572156897000,12.02089697265625,-1.434551157325506,-0.2404308043628931,-1.0246072513878346
1789213572166929200,12.03092919921875,-1.0386398683935403,-0.30779929023683067,-1.1676283596172927
1789213572176962000,12.040962158203126,0.036813480873405934,-0.40404841815829273,-1.2022288406163453
1789213572186994200,12.050994140625,0.9821201087921857,-0.39532501347661014,-0.9400213809922336
1789213572197026300,12.0610263671875,0.7559627444535494,-0.37434652285575865,-0.21099574330300092
1789213572207059200,12.07105908203125,-0.06757248401343822,-0.5766676690548658,0.6994844859063625
1789213572217091000,12.081091064453124,-0.8140180430591106,-0.7970511261671781,1.103755606904626
1789213572227123200,12.091123291015625,-1.5015782824158668,-0.8609528127133845,0.9314590120911598
1789213572237156000,12.101156005859375,-1.677285854716599,-0.7973089003205299,0.8194730935946106
1789213572247188000,12.11118798828125,-0.8159276760727167,-0.7746405569165945,1.089627712830901
1789213572257220000,12.12122021484375,0.50690848865211,-0.36775311594009397,1.4592629892557858
1789213572267253200,12.131253173828124,0.5503182990506291,0.49645139204561706,1.6212708297669887
1789213572277285000,12.14128515625,0.33047055625021454,0.6075415307462215,1.8336603655159471
1789213572287317000,12.15131689453125,1.3466992708712815,0.5157996511161327,1.9600711152061818
1789213572297350100,12.16135009765625,0.8670926306426524,0.6304752470880747,2.166389222086966
1789213572307382000,12.171382080078125,-0.3040983898922801,0.2990063274502754,2.0674632761716842
1789213572317415200,12.181415283203124,-0.8946139670357107,-0.29381051237285133,1.946997114099562
1789213572327447300,12.191447265625,-0.863126649621129,-0.805277687242627,1.785161415284872
1789213572337479200,12.201479248046875,-0.2223836910188198,-1.1194447589457035,1.430306651623547
1789213572347512300,12.21151220703125,0.8898118274509906,-1.4978765052884817,0.759872319112718
1789213572357544200,12.221544189453125,0.3523024488300085,-1.913112087893486,0.3475809732660651
1789213572367576000,12.231576171875,-0.3691284959465265,-1.871156860217452,0.15489742398411036
1789213572377609200,12.241609130859375,-0.2803057186335325,-1.6319892076581715,-0.05697042597830295
1789213572387641000,12.25164111328125,0.05108019889593124,-1.3350333829969168,-0.22739538170099258
1789213572397673200,12.261673095703125,0.3611369126707315,-1.1557979288309812,-0.2467833882600069
1789213572407706400,12.271706298828125,0.586066781041026,-1.1249667372375727,-0.2614244925528765
1789213572417738200,12.28173828125,1.0332248576074838,-1.3148603635400533,-0.2248836911410093
1789213572427770000,12.29177001953125,1.2622691755592823,-1.430342015197873,-0.06728957541882992
1789213572437803000,12.301802978515624,1.1524106244802474,-1.1301274810016155,-0.17870996898710725
1789213572447835100,12.311835205078125,1.179030920380354,-0.7216881344079971,-0.5674257934570313
1789213572457867300,12.3218671875,1.0665753385454415,-0.36218846755027767,-0.6993050376862288
1789213572467900200,12.331900146484376,1.2905050899624824,0.0176285956710577,-0.4136088581860065
1789213572477932300,12.341932373046875,1.800148556536436,0.19830489629507064,-0.2203010395258665
1789213572487964200,12.351964111328124,2.04768363994658,0.31397534852325915,0.1373597214668989
1789213572497997000,12.3619970703125,1.9949656107157467,0.5575479580432177,0.8161410265624522
1789213572508029200,12.372029296875,2.1117712044537065,0.6858563580483198,0.8262216910719871
1789213572518061000,12.38206103515625,2.1686785020679236,1.0052221674382686,-0.30397593255639077
1789213572528094000,12.392093994140625,1.8024083181619643,2.138665056598186,-1.9233435590505599
1789213572538126300,12.402126220703124,2.0306565173000095,2.984495703503489,-3.229660550650954
1789213572548159200,12.4121591796875,2.972064091953635,3.2055712345331906,-3.8751603483915327
1789213572558191400,12.42219140625,2.2126813099235294,3.48446474828124,-4.127440580502152
1789213572568223200,12.43222314453125,0.5702969649791717,3.535502861601114,-4.241436377516389
1789213572578256400,12.44225634765625,0.08037585148513317,2.9070564899921414,-3.7803053051769733
1789213572588288300,12.452288330078124,0.6799766523599624,1.8687872084766626,-2.5352871241480113
1789213572598320000,12.462320068359375,1.614279947966337,0.946373088106513,-2.0312591593682763
1789213572608353300,12.472353271484375,1.745126926538348,1.0063917957395314,-2.1836264803528787
1789213572618385400,12.482385498046876,1.3581097226798533,1.9247469961076973,-2.451720367667079
1789213572628417300,12.492417236328125,1.1225573380082845,2.680130479368567,-2.18407130151093
1789213572638450400,12.502450439453124,0.9311240810483693,2.9057360550433398,-2.0453309393405914
1789213572648482300,12.512482421875,0.8439666065990924,2.9789287170261143,-2.064373493462801
1789213572658514200,12.52251416015625,0.5405605828851461,2.8992496156334875,-1.7199451390087603
1789213572668547300,12.53254736328125,0.2462023735016584,2.524731243342161,-1.0127215832829475
1789213572678579500,12.542579345703125,0.49890521493852136,1.9069103106439111,-0.8696621888697147
1789213572688611300,12.552611328125,0.5509715022623539,1.5260457841962576,-1.0452899739325046
1789213572698644200,12.562644287109375,-0.19126725274324416,1.4096119463801384,-0.872390152528882
1789213572708676400,12.57267626953125,-0.744351801636815,0.9741489837825298,-0.339600788167119
1789213572718708200,12.582708251953125,-0.6243281226351857,0.09694061731696128,-0.1661386567056179
1789213572728741000,12.5927412109375,-0.6183639535337686,-0.6342343073606491,-0.28325813869833943
1789213572738773200,12.602773193359376,-0.6778583450317383,-1.0199895284593106,-0.1126467204928398
1789213572748806100,12.61280615234375,-0.8982622604101895,-1.2044739891946314,0.3788537711471319
1789213572758838300,12.62283837890625,-0.8633081436678767,-1.3118553365051746,0.973156465613842
1789213572768870400,12.632870361328125,-0.7448878082096576,-1.4187076915055512,1.4119313292384146
1789213572778903300,12.6429033203125,-0.7735884175151586,-1.4334265372097492,1.6783572833403944
1789213572788935200,12.65293505859375,-0.7995008574068546,-1.4166554351508616,1.8232786722332237
1789213572798967300,12.66296728515625,-0.576984479919076,-1.550178354933858,1.9531974300444126
1789213572809000200,12.673000244140624,-0.3814724292129278,-1.512670754316449,2.02319567990005
