time,seconds_elapsed,z,y,x
1789213560220952000,0.0849521484375,-0.14884567260742188,-0.31654173135757446,-0.1252516657114029
1789213560230985200,0.094985107421875,-0.15045875310897827,-0.6353055834770203,-0.029414614662528038
1789213560241017000,0.10501708984375,-0.08563128113746643,-0.8530874848365784,-0.04345693066716194
1789213560251049000,0.115049072265625,-0.03308338299393654,-1.01906156539917,-0.19463126361370087
1789213560261081300,0.125081298828125,0.015254586935043335,-1.3787424564361572,-0.3943536877632141
1789213560271113200,0.13511328125,0.10657038539648056,-1.5041970014572144,-0.5027534365653992
1789213560281146000,0.14514599609375,0.17781980335712433,-1.051192045211792,-0.4340457320213318
1789213560291178200,0.15517822265625,0.16304831206798553,-0.3748215436935425,-0.26614218950271606
1789213560301210000,0.165210205078125,0.0683194026350975,-0.019996345043182373,-0.11004740744829178
1789213560311242000,0.175241943359375,-0.060916345566511154,0.1399802714586258,-0.0004269047058187425
1789213560321274000,0.185274169921875,-0.1353391855955124,0.23595499992370605,0.08178168535232544
1789213560331307300,0.195307373046875,-0.2123897522687912,0.23541012406349182,0.06986696273088455
1789213560341339100,0.205339111328125,-0.30522969365119934,0.1500568687915802,-0.06862353533506393
1789213560351371000,0.21537109375,-0.32584893703460693,-0.13242381811141968,-0.24152341485023499
1789213560361403100,0.225403076171875,-0.24556395411491394,-0.47833940386772156,-0.38392582535743713
1789213560371435300,0.235435302734375,-0.15287981927394867,-0.5957768559455872,-0.4815368056297302
1789213560381468200,0.24546826171875,-0.07423188537359238,-0.44850215315818787,-0.5484614968299866
1789213560391500300,0.255500244140625,-0.03899187222123146,-0.1845828890800476,-0.6328924894332886
1789213560401532200,0.2655322265625,0.00785366166383028,0.05922071263194084,-0.8020693063735962
1789213560411564000,0.27556396484375,0.10049597918987274,0.2462547868490219,-1.011296033859253
1789213560421596200,0.28559619140625,0.17174139618873596,0.20784081518650055,-1.2206354141235352
1789213560431629000,0.295629150390625,0.17992982268333435,0.021336181089282036,-1.363450050354004
1789213560441661200,0.3056611328125,0.12301141023635864,-0.04279486835002899,-1.4408165216445923
1789213560451693000,0.315693115234375,0.09393235296010971,-0.10791634768247604,-1.41147780418396
1789213560461725200,0.32572509765625,0.30629655718803406,-0.11237581074237823,-1.099184274673462
1789213560471758000,0.335758056640625,0.39290040731430054,0.1433161497116089,-0.7571545243263245
1789213560481790000,0.3457900390625,0.30033132433891296,0.2604968249797821,-0.49649524688720703
1789213560491822300,0.355822265625,0.1910991221666336,0.11210549622774124,-0.281120628118515
1789213560501854200,0.365854248046875,0.14659982919692993,0.02304113656282425,-0.1673024445772171
1789213560511886000,0.375885986328125,0.3071516752243042,0.21848919987678528,-0.27701297402381897
1789213560521919200,0.385919189453125,0.6631782650947571,0.4445399045944214,-0.5925378799438477
1789213560531951000,0.395951171875,1.0450760126113892,0.45808419585227966,-0.9154555201530457
1789213560541984000,0.40598388671875,1.3341851234436035,0.24336205422878265,-1.1591637134552002
1789213560552016100,0.41601611328125,1.3747825622558594,-0.2184590995311737,-1.2363075017929077
1789213560562048000,0.426048095703125,1.2268387079238892,-0.6405778527259827,-1.1298154592514038
1789213560572081200,0.4360810546875,1.0885244607925415,-0.7436014413833618,-0.7677522897720337
1789213560582113000,0.446113037109375,0.9302093982696533,-0.554481565952301,-0.18590755760669708
1789213560592145000,0.456144775390625,0.7483791708946228,-0.15848392248153687,0.4814545214176178
1789213560602177000,0.466177001953125,0.5956020951271057,0.2586438059806824,1.1182173490524292
1789213560612210000,0.4762099609375,0.5030061602592468,0.37247928977012634,1.629493236541748
1789213560622242000,0.486241943359375,0.41724544763565063,-0.26790493726730347,1.7213128805160522
1789213560632274000,0.49627392578125,0.19959352910518646,-0.7940781712532043,1.4264883995056152
1789213560642306000,0.50630615234375,-0.22266103327274323,-0.7471399903297424,1.1181648969650269
1789213560652338000,0.516337890625,-0.6384867429733276,-0.6973524689674377,0.8677244782447815
1789213560662370800,0.526370849609375,-0.9210302829742432,-0.8044629096984863,0.642711341381073
1789213560672403200,0.5364033203125,-1.104029655456543,-0.8553252816200256,0.49308907985687256
1789213560682435000,0.54643505859375,-1.1501076221466064,-0.7529004216194153,0.4359874427318573
1789213560692467000,0.556467041015625,-1.0463416576385498,-0.5641217231750488,0.530119001865387
1789213560702498800,0.566498779296875,-0.8839625716209412,-0.07186433672904968,0.5682637095451355
1789213560712532000,0.576531982421875,-0.7823224663734436,0.3336227238178253,0.4797021448612213
1789213560722564000,0.586564208984375,-0.7226998805999756,0.5104140043258667,0.2669938802719116
1789213560732596000,0.596595947265625,-0.7151631712913513,0.5679776668548584,0.03284982591867447
1789213560742628000,0.606628173828125,-0.7187999486923218,0.524520754814148,-0.08804543316364288
1789213560752661000,0.616660888671875,-0.7377437949180603,0.41758179664611816,-0.10798079520463943
1789213560762692900,0.62669287109375,-0.759657084941864,0.20013974606990814,-0.034685809165239334
1789213560772725000,0.63672509765625,-0.7330092787742615,0.05988303944468498,0.05577830970287323
1789213560782757000,0.646757080078125,-0.6119797825813293,0.04755047336220741,0.07338234037160873
1789213560792789000,0.6567890625,-0.460554301738739,0.04019429162144661,0.033856768161058426
1789213560802822100,0.666822265625,-0.2977707087993622,0.12937796115875244,0.05399665609002113
1789213560812854000,0.67685400390625,-0.18918004631996155,0.34690895676612854,0.168190598487854
1789213560822886000,0.686885986328125,-0.07832542806863785,0.5563138127326965,0.33408477902412415
1789213560832918000,0.69691796875,0.027451597154140472,0.594673752784729,0.42878037691116333
1789213560842951200,0.706951171875,0.05156465619802475,0.5327200889587402,0.3775150775909424
1789213560852983000,0.716983154296875,-0.006780407857149839,0.5679944753646851,0.24091674387454987
1789213560863015000,0.727014892578125,-0.0962839275598526,0.6430657505989075,0.1049189567565918
1789213560873047000,0.737047119140625,-0.15708602964878082,0.6154181957244873,0.012954680249094963
1789213560883079200,0.7470791015625,-0.19508560001850128,0.5223247408866882,0.01763731613755226
1789213560893112000,0.757112060546875,-0.19715967774391174,0.3618290424346924,0.10422174632549286
1789213560903144200,0.767144287109375,-0.17829996347427368,0.15821120142936707,0.2229718267917633
1789213560913176000,0.777176025390625,-0.195890411734581,0.04294800013303757,0.3368336856365204
1789213560923208000,0.7872080078125,-0.24218973517417908,-0.020743094384670258,0.4170478284358978
1789213560933241000,0.797240966796875,-0.32190319895744324,-0.05835651606321335,0.4384215474128723
1789213560943273000,0.80727294921875,-0.40659597516059875,-0.0707082599401474,0.4335956573486328
1789213560953305000,0.81730517578125,-0.47599929571151733,-0.09492145478725433,0.4280725121498108
1789213560963337000,0.8273369140625,-0.48195305466651917,-0.08719348907470703,0.3878191113471985
1789213560973369000,0.837369140625,-0.3502618670463562,0.0032509206794202328,0.3057157099246979
1789213560983402000,0.847402099609375,-0.16858422756195068,0.04879496991634369,0.18207553029060364
1789213560993433900,0.857433837890625,-0.10831981897354126,0.016829846426844597,0.05564035847783089
1789213561003466200,0.86746630859375,-0.13685958087444305,-0.023490412160754204,0.012310728430747986
1789213561013498000,0.877498046875,-0.15540477633476257,-0.05739937722682953,0.022299446165561676
1789213561023531000,0.887531005859375,-0.13210824131965637,-0.04518691822886467,0.10249681025743484
1789213561033563100,0.897563232421875,-0.08702331781387329,-0.07484814524650574,0.19947609305381775
1789213561043595000,0.907594970703125,-0.040337834507226944,-0.06192168965935707,0.28302425146102905
1789213561053627100,0.917627197265625,0.017426127567887306,-0.07487104833126068,0.33436891436576843
1789213561063660000,0.927659912109375,0.045692652463912964,-0.17620831727981567,0.32903462648391724
1789213561073692200,0.937692138671875,0.0761546865105629,-0.18389500677585602,0.3230147957801819
1789213561083724000,0.94772412109375,0.10400229692459106,-0.1921936720609665,0.2981017231941223
1789213561093756000,0.957755859375,0.13926228880882263,-0.1609737128019333,0.26490116119384766
1789213561103788000,0.9677880859375,0.18203797936439514,-0.10737305879592896,0.2389446645975113
1789213561113821000,0.977821044921875,0.22456572949886322,-0.11591435223817825,0.19808538258075714
1789213561123853000,0.98785302734375,0.24610458314418793,-0.2343648374080658,0.160641610622406
1789213561133885000,0.997885009765625,0.2519238591194153,-0.2661355435848236,0.12915851175785065
1789213561143917000,1.0079169921875,0.2988916337490082,-0.32339751720428467,0.021028053015470505
1789213561153950000,1.017949951171875,0.3062856197357178,-0.2827904224395752,-0.1271241307258606
1789213561163981800,1.02798193359375,0.2772316038608551,-0.20303992927074432,-0.2278755009174347
1789213561174014200,1.03801416015625,0.20610736310482025,-0.10950811952352524,-0.2706812918186188
1789213561184046000,1.048046142578125,0.1277017742395401,-0.03886883705854416,-0.25548264384269714
1789213561194079000,1.058078857421875,0.1304357647895813,0.03332120552659035,-0.18288113176822662
1789213561204111000,1.068111083984375,0.18379992246627808,0.09951353818178177,-0.11258486658334732
1789213561214143000,1.07814306640625,0.21390190720558167,0.09124255925416946,-0.06240478903055191
1789213561224175000,1.088175048828125,0.2208559513092041,0.05836077779531479,-0.03431669622659683
1789213561234208000,1.0982080078125,0.20646555721759796,-0.03863048180937767,-0.028848426416516304
1789213561244240100,1.108240234375,0.18835313618183136,-0.044203948229551315,0.008837699890136719
1789213561254272000,1.11827197265625,0.21396714448928833,-0.053401440382003784,0.030535005033016205
1789213561264303900,1.128303955078125,0.1604812890291214,-0.04398130625486374,0.008673915639519691
1789213561274336000,1.1383359375,0.10905724763870239,0.045816756784915924,0.018790731206536293
1789213561284369000,1.148368896484375,0.06613614410161972,0.09732122719287872,-0.0074605792760849
1789213561294401000,1.158401123046875,0.028000742197036743,0.1382651925086975,-0.0564318522810936
1789213561304433200,1.16843310546875,0.014220747165381908,0.11826805025339127,-0.10490244626998901
1789213561314465000,1.178465087890625,0.03472309187054634,0.09841818362474442,-0.10506782680749893
1789213561324498000,1.188497802734375,0.1050579771399498,0.09004627168178558,-0.07220309227705002
1789213561334530000,1.198530029296875,0.1325945258140564,0.07321322709321976,-0.01582689955830574
1789213561344562200,1.208562255859375,0.14314304292201996,0.05137051269412041,0.040101345628499985
1789213561354594000,1.218593994140625,0.17153766751289368,0.05090552568435669,0.038491733372211456
1789213561364627200,1.228627197265625,0.19354043900966644,0.005659483373165131,-0.01685301586985588
1789213561374659000,1.2386591796875,0.17980970442295074,0.022826751694083214,-0.047376036643981934
1789213561384691000,1.24869091796875,0.20578138530254364,0.06067133694887161,-0.09954656660556793
1789213561394722800,1.258722900390625,0.21243822574615479,-0.015090536326169968,-0.15264946222305298
1789213561404756000,1.268755859375,0.17911195755004883,-0.1036028265953064,-0.14744484424591064
1789213561414788000,1.2787880859375,0.22436758875846863,-0.12131816893815994,-0.11949896812438965
1789213561424820000,1.288820068359375,0.2745593786239624,-0.22221896052360535,-0.14530472457408905
1789213561434852000,1.29885205078125,0.3079543709754944,-0.30050843954086304,-0.1961948126554489
1789213561444885000,1.308885009765625,0.34195175766944885,-0.10515464842319489,-0.22110122442245483
1789213561454916900,1.318916748046875,0.3075341284275055,0.022109296172857285,-0.3055812120437622
1789213561464949200,1.32894921875,0.24300067126750946,0.19160804152488708,-0.33946382999420166
1789213561474981000,1.338981201171875,0.1833421289920807,0.41905850172042847,-0.2466191053390503
1789213561485013000,1.349012939453125,0.06963420659303665,0.4867560565471649,-0.07746683061122894
1789213561495046100,1.359046142578125,-0.024336764588952065,0.39357686042785645,0.10794271528720856
1789213561505078000,1.369078125,-0.0841606855392456,0.10646705329418182,0.24066826701164246
1789213561515110000,1.37910986328125,-0.09200582653284073,-0.16378414630889893,0.3162996470928192
1789213561525142000,1.38914208984375,-0.03508581593632698,-0.3200342059135437,0.34513208270072937
1789213561535175200,1.399175048828125,0.017115071415901184,-0.320537269115448,0.34247666597366333
1789213561545206000,1.4092060546875,0.053878411650657654,-0.29641303420066833,0.283324658870697
1789213561555238000,1.41923779296875,0.025434786453843117,-0.22416172921657562,0.20711323618888855
1789213561565270300,1.429270263671875,-0.015935024246573448,-0.1914921998977661,0.1563888043165207
1789213561575303200,1.43930322265625,-0.02858557179570198,-0.1671580970287323,0.1480374038219452
1789213561585335000,1.4493349609375,-0.02544623799622059,-0.26891028881073,0.052265603095293045
1789213561595367200,1.4593671875,-0.04271683841943741,-0.23406203091144562,0.046960316598415375
1789213561605399000,1.46939892578125,-0.10356820374727249,-0.10388804972171783,0.1416679173707962
1789213561615432000,1.479431884765625,-0.17797932028770447,0.09997240453958511,0.27856719493865967
1789213561625464300,1.48946435546875,-0.2375744730234146,0.14319683611392975,0.2903258502483368
1789213561635496200,1.49949609375,-0.2302292138338089,0.059109658002853394,0.22052757441997528
1789213561645528000,1.509528076171875,-0.19769443571567535,-0.1119486391544342,0.15752677619457245
1789213561655561200,1.519561279296875,-0.1532670557498932,-0.19309303164482117,0.14130918681621552
1789213561665593000,1.529593017578125,-0.1746399849653244,-0.17662642896175385,0.1360611617565155
1789213561675625000,1.539625,-0.20804640650749207,-0.1979684680700302,0.11400513350963593
1789213561685657000,1.549656982421875,-0.259228378534317,-0.17206630110740662,0.09067637473344803
1789213561695690200,1.559690185546875,-0.31875693798065186,0.025235049426555634,0.024690166115760803
1789213561705722000,1.56972216796875,-0.3823111653327942,0.1392899751663208,-0.11410792917013168
1789213561715754000,1.57975390625,-0.42505887150764465,0.2515462040901184,-0.20469242334365845
1789213561725786000,1.5897861328125,-0.45564156770706177,0.26432088017463684,-0.23315869271755219
1789213561735819000,1.599819091796875,-0.44948700070381165,0.13387471437454224,-0.1968960165977478
1789213561745851100,1.60985107421875,-0.3969271183013916,-0.11523977667093277,-0.13021552562713623
1789213561755883300,1.61988330078125,-0.2973206341266632,-0.3271637558937073,-0.015678562223911285
1789213561765915100,1.6299150390625,-0.19507308304309845,-0.4347914159297943,0.10354476422071457
1789213561775948000,1.639947998046875,-0.13228294253349304,-0.5073087215423584,0.22735965251922607
1789213561785980200,1.649980224609375,-0.12224414944648743,-0.46115216612815857,0.3875112533569336
1789213561796012300,1.66001220703125,-0.1603718250989914,-0.5424060225486755,0.481144517660141
1789213561806044200,1.670044189453125,-0.22249272465705872,-0.6209461092948914,0.5863444209098816
1789213561816077000,1.6800771484375,-0.30633676052093506,-0.6364030838012695,0.5942489504814148
1789213561826109200,1.690109130859375,-0.3499489426612854,-0.6588804125785828,0.49699538946151733
1789213561836141000,1.70014111328125,-0.30545657873153687,-0.5053595900535583,0.39768317341804504
1789213561846173000,1.7101728515625,-0.18442364037036896,-0.42126548290252686,0.3768572509288788
1789213561856206000,1.7202060546875,-0.07257246971130371,-0.40620157122612,0.46120622754096985
1789213561866238200,1.73023828125,0.0337076298892498,-0.4761926531791687,0.5279820561408997
1789213561876270000,1.74027001953125,0.07501139491796494,-0.4758687913417816,0.4948299825191498
1789213561886302000,1.750302001953125,0.08890031278133392,-0.4971455931663513,0.35429203510284424
1789213561896335000,1.760335205078125,0.07207552343606949,-0.3452135920524597,0.20529137551784515
1789213561906367000,1.770366943359375,-0.08111988753080368,-0.13367150723934174,0.004851746838539839
1789213561916399000,1.780399169921875,-0.21612350642681122,-0.020953752100467682,-0.11698813736438751
1789213561926431200,1.79043115234375,-0.2197752296924591,0.08551463484764099,-0.232802614569664
1789213561936464100,1.800464111328125,-0.08148553967475891,-0.0004572647449094802,-0.29671794176101685
1789213561946496000,1.81049609375,0.03960946202278137,-0.22340832650661469,-0.22440913319587708
1789213561956528000,1.820528076171875,0.09017650038003922,-0.5098326206207275,0.014188789762556553
1789213561966560000,1.83056005859375,0.11374121159315109,-0.7682359218597412,0.26627084612846375
1789213561976593000,1.840593017578125,0.13497726619243622,-0.9632472395896912,0.4446890354156494
1789213561986625300,1.850625244140625,0.1418602019548416,-1.0348093509674072,0.47396010160446167
1789213561996657200,1.8606572265625,0.18054234981536865,-0.9671727418899536,0.40416425466537476
1789213562006690000,1.87068994140625,0.1965082585811615,-0.7868293523788452,0.37183213233947754
1789213562016722200,1.88072216796875,0.1841679811477661,-0.6785372495651245,0.37565430998802185
1789213562026754000,1.890754150390625,0.14213158190250397,-0.6026813387870789,0.25497451424598694
1789213562036786200,1.9007861328125,0.14076350629329681,-0.516974687576294,0.07912331074476242
1789213562046819300,1.9108193359375,0.18948817253112793,-0.43492457270622253,-0.080116406083107
1789213562056851200,1.920851318359375,0.20926640927791595,-0.41381341218948364,-0.17669008672237396
1789213562066883000,1.930883056640625,0.1907193511724472,-0.32602524757385254,-0.1536896973848343
1789213562076915000,1.9409150390625,0.15485456585884094,-0.09231901168823242,-0.11786671727895737
1789213562086948000,1.950947998046875,0.1572391539812088,0.30044904351234436,-0.13133059442043304
1789213562096980000,1.96097998046875,0.12415390461683273,0.5955283641815186,-0.07804393768310547
1789213562107012000,1.97101220703125,-0.017959026619791985,0.643770158290863,0.034458909183740616
1789213562117044200,1.981044189453125,-0.1785644143819809,0.7187280654907227,-0.014752048067748547
1789213562127077000,1.9910771484375,-0.22718362510204315,0.8685111403465271,-0.22252148389816284
1789213562137109000,2.00110888671875,-0.24396339058876038,1.0801246166229248,-0.4467298090457916
1789213562147141000,2.01114111328125,-0.27421265840530396,1.259351372718811,-0.5988543629646301
1789213562157173200,2.02117333984375,-0.27319425344467163,1.2301591634750366,-0.5723212957382202
1789213562167206100,2.0312060546875,-0.18454933166503906,0.9949803948402405,-0.4057845175266266
1789213562177238300,2.04123828125,0.0369444340467453,0.5517036318778992,-0.14644350111484528
1789213562187270100,2.051270263671875,0.2454683482646942,-0.04175649955868721,0.13527926802635193
1789213562197303000,2.061302978515625,0.3712928593158722,-0.44205039739608765,0.31967654824256897
1789213562207335000,2.0713349609375,0.3900652229785919,-0.48629987239837646,0.27874401211738586
1789213562217367300,2.0813671875,0.3219253122806549,-0.30643129348754883,0.10861116647720337
1789213562227399200,2.091399169921875,0.22157101333141327,-0.08458039909601212,-0.08627363294363022
1789213562237432000,2.10143212890625,0.14436277747154236,0.11982627213001251,-0.24208906292915344
1789213562247464200,2.111464111328125,0.1277901828289032,0.23835265636444092,-0.3698180019855499
1789213562257496000,2.12149609375,0.15098179876804352,0.23051603138446808,-0.4962443709373474
1789213562267528000,2.13152783203125,-0.016281235963106155,0.0988842323422432,-0.4340481162071228
1789213562277561000,2.14156103515625,0.02750592678785324,-0.08781294524669647,-0.2692621052265167
1789213562287593200,2.15159326171875,0.15160150825977325,-0.1622570902109146,-0.040111999958753586
1789213562297625000,2.161625,0.201344832777977,-0.2534354627132416,0.12136104702949524
1789213562307657000,2.171656982421875,0.17168067395687103,-0.30582916736602783,0.18787482380867004
1789213562317690000,2.181690185546875,0.09643785655498505,-0.2943677008152008,0.18699145317077637
1789213562327722000,2.191721923828125,-0.001068193931132555,-0.37382739782333374,0.09769486635923386
1789213562337754000,2.201754150390625,-0.09098450094461441,-0.4194507896900177,-0.06306258589029312
1789213562347786200,2.2117861328125,-0.12258344143629074,-0.43745535612106323,-0.28387007117271423
1789213562357819100,2.221819091796875,-0.11321710050106049,-0.4300198256969452,-0.5438398718833923
1789213562367851000,2.23185107421875,-0.08390235900878906,-0.30730482935905457,-0.7462313175201416
1789213562377883100,2.241883056640625,-0.04445454850792885,-0.151621475815773,-0.8742406964302063
1789213562387916000,2.251916015625,-0.021995313465595245,0.0018048242200165987,-0.9373953938484192
1789213562397948000,2.261947998046875,-0.02587074600160122,0.07730597257614136,-0.9960427284240723
1789213562407980300,2.271980224609375,-0.030483607202768326,0.06947308033704758,-1.059875249862671
1789213562418012200,2.28201220703125,-0.010736001655459404,-0.056104280054569244,-1.1313968896865845
1789213562428045000,2.292045166015625,0.07022569328546524,-0.16079074144363403,-1.187187910079956
1789213562438077200,2.3020771484375,0.20580296218395233,-0.27667978405952454,-1.1917462348937988
1789213562448109000,2.312109130859375,0.34645596146583557,-0.4212801158428192,-1.1846619844436646
1789213562458141200,2.32214111328125,0.46088212728500366,-0.6700664758682251,-1.1861988306045532
1789213562468174300,2.33217431640625,0.5319706797599792,-0.9673528075218201,-1.2012799978256226
1789213562478206200,2.342206298828125,0.5800591111183167,-1.2495181560516357,-1.2598570585250854
1789213562488238000,2.352238037109375,0.6047801971435547,-1.5764398574829102,-1.3678141832351685
1789213562498271000,2.36227099609375,0.5966436862945557,-2.122877836227417,-1.5665512084960938
1789213562508303000,2.37230322265625,0.5634689331054688,-2.7780299186706543,-1.848564863204956
1789213562518335000,2.3823349609375,0.5211933851242065,-3.254918336868286,-2.137347936630249
1789213562528367000,2.3923671875,0.4843837320804596,-3.5189626216888428,-2.384455442428589
1789213562538400300,2.402400146484375,0.48014184832572937,-3.634486675262451,-2.5778021812438965
1789213562548432400,2.412432373046875,0.5345457196235657,-3.687465190887451,-2.686208963394165
1789213562558464300,2.42246435546875,0.6788264513015747,-3.8705689907073975,-2.7135369777679443
1789213562568496000,2.43249609375,0.8438412547111511,-4.166776180267334,-2.6501946449279785
1789213562578529000,2.442529052734375,0.9963117241859436,-4.613483428955078,-2.5402884483337402
1789213562588561400,2.4525615234375,1.1069674491882324,-5.0301833152771,-2.3817315101623535
1789213562598593300,2.46259326171875,1.1510038375854492,-5.345119953155518,-2.185271739959717
1789213562608625200,2.472625244140625,1.1592903137207031,-5.578135967254639,-1.9711381196975708
1789213562618658300,2.482658203125,1.1447629928588867,-5.740579128265381,-1.7152751684188843
1789213562628690200,2.492690185546875,1.1406539678573608,-5.8007941246032715,-1.4129371643066406
1789213562638722300,2.502722412109375,1.1537178754806519,-5.809758186340332,-1.0544437170028687
1789213562648755200,2.512755126953125,1.22590172290802,-5.7582879066467285,-0.621051549911499
1789213562658787300,2.522787353515625,1.3604623079299927,-5.6969075202941895,-0.0902838259935379
1789213562668819200,2.532819091796875,1.5073329210281372,-5.76918888092041,0.4673389494419098
1789213562678851000,2.54285107421875,1.6742560863494873,-5.787166595458984,0.9273510575294495
1789213562688884200,2.55288427734375,1.8834905624389648,-5.815542697906494,1.2413345575332642
1789213562698916000,2.562916015625,2.1426401138305664,-5.901951789855957,1.4309446811676025
1789213562708948200,2.5729482421875,2.46059513092041,-5.891831398010254,1.5322939157485962
1789213562718980400,2.58298046875,2.8665990829467773,-5.694565296173096,1.5733377933502197
1789213562729013200,2.59301318359375,3.3395400047302246,-5.5347394943237305,1.5753884315490723
1789213562739045000,2.603045166015625,3.7662999629974365,-5.347911834716797,1.548539161682129
1789213562749077200,2.6130771484375,4.060755729675293,-5.043489456176758,1.4983681440353394
1789213562759110100,2.623110107421875,4.1941609382629395,-4.70017147064209,1.4623167514801025
1789213562769142300,2.633142333984375,4.187962532043457,-4.184901237487793,1.4498482942581177
1789213562779174400,2.64317431640625,3.984363555908203,-3.5840377807617188,1.4856864213943481
1789213562789206300,2.653206298828125,3.5942258834838867,-3.234367847442627,1.4810820817947388
1789213562799239200,2.6632392578125,3.191944122314453,-3.0530805587768555,1.296571135520935
1789213562809271300,2.673271240234375,2.8560194969177246,-2.8670551776885986,0.9382718801498413
1789213562819303200,2.68330322265625,2.6448814868927,-2.6598567962646484,0.515993058681488
1789213562829335300,2.693335205078125,2.613391637802124,-2.403815984725952,0.1499602049589157
1789213562839368400,2.703368408203125,2.7345802783966064,-2.028407573699951,-0.1518545150756836
1789213562849400300,2.713400390625,2.9287009239196777,-1.4514744281768799,-0.38518789410591125
1789213562859432200,2.72343212890625,3.045729398727417,-0.7981789112091064,-0.5027092099189758
1789213562869465300,2.73346533203125,3.0656940937042236,-0.13216416537761688,-0.49220648407936096
1789213562879497200,2.743497314453125,2.973484754562378,0.5297206044197083,-0.3759211599826813
1789213562889529300,2.753529296875,2.776139974594116,0.8998368382453918,-0.23978303372859955
1789213562899561200,2.763561279296875,2.599886178970337,1.2065807580947876,-0.07470007240772247
1789213562909594400,2.773594482421875,2.6153271198272705,1.6750417947769165,0.02618393301963806
1789213562919626200,2.783626220703125,2.5019431114196777,1.9260263442993164,0.10632883757352829
1789213562929658000,2.793658203125,2.1922316551208496,2.033172845840454,0.1350446343421936
1789213562939691300,2.803691162109375,1.8033502101898193,1.8622846603393555,0.08657217770814896
1789213562949723100,2.81372314453125,1.4728761911392212,1.5586895942687988,-0.0760636106133461
1789213562959755300,2.82375537109375,1.2150485515594482,1.6151552200317383,-0.282731831073761
1789213562969787100,2.833787109375,1.186443567276001,2.056074380874634,-0.5307472348213196
1789213562979820300,2.8438203125,1.4592220783233643,2.929609537124634,-0.935535728931427
1789213562989852200,2.85385205078125,1.7935478687286377,3.6156976222991943,-1.2997674942016602
1789213562999884000,2.863884033203125,1.9629929065704346,3.807410955429077,-1.3637685775756836
1789213563009916400,2.87391650390625,1.7426961660385132,3.7796449661254883,-0.8701902627944946
1789213563019949300,2.88394921875,1.234946370124817,3.413479804992676,0.02581588365137577
1789213563029981200,2.893981201171875,0.8240361213684082,2.875260353088379,0.8964972496032715
1789213563040013300,2.904013427734375,0.805686891078949,2.4625484943389893,1.3622065782546997
1789213563050046200,2.914046142578125,0.971476137638092,1.9136772155761719,1.3996959924697876
1789213563060078000,2.924078125,0.8625574111938477,1.5177834033966064,1.357614517211914
1789213563070110200,2.934110107421875,0.5917650461196899,0.8764524459838867,1.44033682346344
1789213563080142300,2.944142333984375,0.08265998959541321,-0.2980037331581116,1.866668939590454
1789213563090175200,2.95417529296875,-0.790584146976471,-1.7051900625228882,2.5984368324279785
1789213563100207400,2.964207275390625,-0.5368035435676575,-1.8658721446990967,3.050201654434204
1789213563110239200,2.9742392578125,-0.05534261837601662,-1.7234278917312622,2.7581627368927
1789213563120272100,2.984272216796875,-0.010439591482281685,-1.3441845178604126,2.280977725982666
1789213563130304300,2.99430419921875,-0.25508421659469604,-1.0036593675613403,1.766327142715454
1789213563140336400,3.00433642578125,-0.6380470395088196,-0.894364058971405,1.3588489294052124
1789213563150368300,3.0143681640625,-0.9697458744049072,-1.390707015991211,0.7781029343605042
1789213563160401400,3.0244013671875,-1.0803099870681763,-2.104196786880493,0.44752371311187744
1789213563170433300,3.034433349609375,-0.9520358443260193,-1.4132567644119263,0.5812783241271973
1789213563180465200,3.044465087890625,-0.8569298386573792,-1.8286200761795044,0.8299299478530884
1789213563190498000,3.054498046875,-0.7515674829483032,-2.3660106658935547,0.9427565932273865
1789213563200530200,3.0645302734375,-0.7458821535110474,-2.6696887016296387,0.8251418471336365
1789213563210562300,3.074562255859375,-0.9217341542243958,-3.807140350341797,0.5619693398475647
1789213563220594200,3.08459423828125,-1.071666955947876,-3.1755056381225586,0.32015296816825867
1789213563230627300,3.09462744140625,-1.2465423345565796,-2.0387606620788574,0.8061665296554565
1789213563240659200,3.1046591796875,-1.0539348125457764,-2.1409308910369873,0.9492544531822205
1789213563250691000,3.114691162109375,-0.8565263748168945,-2.583786725997925,0.6820909380912781
1789213563260724200,3.12472412109375,-0.42477738857269287,-2.557692766189575,0.4647519588470459
1789213563270756400,3.13475634765625,-0.14892609417438507,-1.8814021348953247,0.4627138376235962
1789213563280788200,3.144788330078125,-0.42462265491485596,-1.4511187076568604,0.5188511610031128
1789213563290820000,3.154820068359375,-0.4686228632926941,-1.5198463201522827,0.6495596170425415
1789213563300853200,3.164853271484375,-0.3622996211051941,-1.396168828010559,0.8306868076324463
1789213563310885000,3.174885009765625,-0.229271799325943,-1.4504286050796509,1.0497139692306519
1789213563320917200,3.184917236328125,-0.08576497435569763,-1.6147807836532593,1.4649207592010498
1789213563330949400,3.194949462890625,0.1292213648557663,-1.7767058610916138,1.7770956754684448
1789213563340982300,3.204982177734375,0.4218207597732544,-1.697360634803772,1.9008456468582153
1789213563351014100,3.21501416015625,0.7313429117202759,-1.4528931379318237,1.9674874544143677
1789213563361046300,3.22504638671875,0.9646883010864258,-1.00249183177948,1.8364686965942383
1789213563371079200,3.2350791015625,1.1155520677566528,-0.39883339405059814,1.6125600337982178
1789213563381111000,3.245111083984375,1.2415425777435303,0.12395256757736206,1.5525741577148438
1789213563391143400,3.255143310546875,1.1252079010009766,0.0022032330743968487,1.0819501876831055
1789213563401175300,3.26517529296875,0.7463676929473877,-0.09087105095386505,1.4201152324676514
1789213563411208200,3.275208251953125,0.5821473002433777,-0.6775785088539124,2.215566635131836
1789213563421240300,3.285240234375,1.079829216003418,-0.583917498588562,1.5383096933364868
1789213563431272200,3.295272216796875,1.4807220697402954,-0.05728805810213089,1.1335854530334473
1789213563441305000,3.30530517578125,1.6534762382507324,-0.11211268603801727,1.226784586906433
1789213563451337200,3.315337158203125,1.7392897605895996,0.11470634490251541,1.4950528144836426
1789213563461369300,3.325369384765625,1.7609894275665283,0.49350452423095703,1.4245219230651855
1789213563471401200,3.335401123046875,1.6233348846435547,0.6911635398864746,0.8283301591873169
1789213563481434400,3.345434326171875,1.3112385272979736,0.9685572981834412,0.23214535415172577
1789213563491466200,3.35546630859375,0.9398055672645569,0.8394952416419983,0.7054223418235779
1789213563501498000,3.365498046875,0.5726427435874939,0.5591509342193604,0.040098682045936584
1789213563511531000,3.375531005859375,0.324311763048172,0.6395661234855652,-0.2799301743507385
1789213563521563400,3.3855634765625,0.32341721653938293,0.2682945728302002,-0.18956167995929718
1789213563531595300,3.39559521484375,0.3044288754463196,-0.2096075564622879,-0.08863133192062378
1789213563541627000,3.405626953125,0.22885341942310333,-0.5960996150970459,-0.03623976185917854
1789213563551660000,3.415659912109375,0.23442421853542328,-0.8255745768547058,0.07245022803544998
1789213563561692000,3.42569189453125,0.24123898148536682,-1.0498002767562866,0.015442606061697006
1789213563571724000,3.43572412109375,0.2971102297306061,-0.9577550292015076,-0.07239750027656555
1789213563581757200,3.445757080078125,0.24919570982456207,-0.8415836691856384,0.059672385454177856
1789213563591789000,3.4557890625,-0.08257556706666946,-0.8067705631256104,0.13749980926513672
1789213563601821000,3.465821044921875,-0.5086871981620789,-0.7344657182693481,0.0702696368098259
1789213563611852800,3.475852783203125,-0.6004139184951782,-0.5107410550117493,0.0498272106051445
1789213563621886000,3.485885986328125,-0.05096198245882988,-0.2615581154823303,0.07643724977970123
1789213563631918000,3.49591796875,0.5483281016349792,-0.15557654201984406,0.08399130403995514
1789213563641950000,3.505949951171875,0.5497318506240845,-0.21653497219085693,0.13687795400619507
1789213563651983000,3.515983154296875,0.0884433165192604,-0.445090651512146,0.208537757396698
1789213563662015000,3.526014892578125,-0.3392462432384491,-0.7571481466293335,0.31283992528915405
1789213563672046800,3.536046875,-0.3045303523540497,-0.9005098342895508,0.30344271659851074
1789213563682079000,3.546078857421875,0.0009406284661963582,-0.5831193327903748,0.29879388213157654
1789213563692112000,3.55611181640625,0.007656854577362537,-0.3288300931453705,0.2956486940383911
1789213563702144000,3.56614404296875,-0.09114322811365128,-0.2901119887828827,0.25560835003852844
1789213563712176000,3.576176025390625,-0.2006995528936386,-0.35915976762771606,0.16521719098091125
1789213563722209000,3.586208984375,-0.45355311036109924,-0.34997931122779846,0.02148425206542015
1789213563732241000,3.596240966796875,-0.7511709332466125,-0.1543022245168686,-0.21968895196914673
1789213563742273000,3.60627294921875,-0.8906753063201904,0.24533119797706604,-0.5112646222114563
1789213563752305200,3.61630517578125,-0.8106632828712463,0.6952189803123474,-0.7552253603935242
1789213563762338000,3.626338134765625,-0.41227197647094727,0.922686755657196,-0.6706447005271912
1789213563772370200,3.6363701171875,0.3351287245750427,0.969605565071106,-0.3380371630191803
1789213563782402000,3.646402099609375,0.7003085613250732,0.8312961459159851,-0.04471820220351219
1789213563792435000,3.65643505859375,1.0349606275558472,0.6235677003860474,0.11869283020496368
1789213563802466800,3.666466796875,1.7310733795166016,0.1425318419933319,0.2372325211763382
1789213563812499000,3.6764990234375,2.2753632068634033,-0.0659680962562561,0.22190096974372864
1789213563822531000,3.686531005859375,2.0421760082244873,0.004555603489279747,0.3930932283401489
1789213563832564000,3.69656396484375,1.7138416767120361,-0.5521878004074097,0.49565449357032776
1789213563842596000,3.70659619140625,1.5351872444152832,-0.8137765526771545,0.5669577121734619
1789213563852628000,3.7166279296875,1.4285694360733032,-0.5675894021987915,0.4115079343318939
1789213563862660900,3.726660888671875,1.215295433998108,0.005515406373888254,0.06603627651929855
1789213563872693000,3.73669287109375,0.6331095695495605,0.538104772567749,-0.12371448427438736
1789213563882725000,3.74672509765625,-0.2718392312526703,1.0107375383377075,-0.3589629530906677
1789213563892757000,3.756757080078125,-0.8550475239753723,1.3089679479599,-0.4632587432861328
1789213563902790100,3.7667900390625,-0.8198554515838623,1.5924012660980225,-0.5136542320251465
1789213563912822000,3.776822021484375,-0.7695824503898621,1.7533093690872192,-0.6385839581489563
1789213563922854000,3.78685400390625,-0.8239218592643738,1.6640362739562988,-0.6876998543739319
1789213563932887000,3.796886962890625,-0.8919070363044739,1.4319130182266235,-0.7716333270072937
1789213563942919000,3.8069189453125,-0.9076455235481262,1.1603888273239136,-0.922909140586853
1789213563952951000,3.816950927734375,-1.035862922668457,0.7263790369033813,-1.1146527528762817
1789213563962983000,3.82698291015625,-1.1192493438720703,0.06655745208263397,-1.1187806129455566
1789213563973016000,3.83701611328125,-1.509882926940918,-0.5634207725524902,-1.0523537397384644
1789213563983048000,3.8470478515625,-1.658660650253296,-1.1071221828460693,-0.9350374341011047
1789213563993079800,3.857079833984375,-1.6158554553985596,-1.3844672441482544,-0.906324565410614
1789213564003113000,3.867113037109375,-1.562411904335022,-1.3277511596679688,-1.0247646570205688
1789213564013145000,3.87714501953125,-1.4711426496505737,-0.9449049830436707,-1.085626482963562
1789213564023177000,3.887177001953125,-1.2998193502426147,-0.4840835928916931,-1.0473698377609253
1789213564033209000,3.897208984375,-1.1900633573532104,-0.2450086921453476,-0.9746045470237732
1789213564043242000,3.907241943359375,-1.0845201015472412,-0.392530232667923,-0.843485414981842
1789213564053273900,3.91727392578125,-0.9964872002601624,-0.839758574962616,-0.7080402374267578
1789213564063306000,3.927305908203125,-0.90737384557724,-1.1846529245376587,-0.44165438413619995
1789213564073339000,3.9373388671875,-0.795444130897522,-1.2209885120391846,-0.12538987398147583
1789213564083371000,3.94737109375,-0.6422732472419739,-0.9935029149055481,0.09349080175161362
1789213564093403100,3.957403076171875,-0.44451725482940674,-0.3944024443626404,0.2804891765117645
1789213564103435000,3.96743505859375,-0.16691309213638306,0.18118256330490112,0.415467232465744
1789213564113468000,3.977468017578125,0.17712284624576569,0.681343138217926,0.6021474003791809
1789213564123499800,3.987499755859375,0.30368876457214355,0.8735535740852356,0.7712066769599915
1789213564133532200,3.9975322265625,0.5273767113685608,1.0300934314727783,0.7639045715332031
1789213564143565000,4.00756494140625,0.688672661781311,1.2549054622650146,0.7020811438560486
1789213564153597000,4.017596923828125,0.9487316608428955,1.6889420747756958,0.6325258016586304
1789213564163629000,4.027629150390625,1.168379306793213,1.530608892440796,0.5551678538322449
1789213564173661000,4.037660888671875,1.1566795110702515,1.3942854404449463,0.5931035280227661
1789213564183693800,4.04769384765625,1.1651790142059326,1.4295361042022705,0.718551754951477
1789213564193726000,4.057725830078125,1.4127179384231567,1.3651832342147827,0.9192292094230652
1789213564203758000,4.067758056640625,1.914627194404602,1.2752608060836792,1.072482705116272
1789213564213791000,4.077791015625,2.181955099105835,1.2282218933105469,0.9094942808151245
1789213564223823000,4.087822998046875,2.0239460468292236,1.3354583978652954,0.7174758315086365
1789213564233855000,4.09785498046875,1.801064133644104,0.9828464984893799,0.8571658134460449
1789213564243887900,4.107887939453125,1.3214097023010254,0.8181933760643005,1.1848558187484741
1789213564253920000,4.117919921875,0.8348064422607422,1.2433606386184692,1.6488860845565796
1789213564263952100,4.1279521484375,0.4994044899940491,1.5080173015594482,1.8272523880004883
1789213564273984000,4.13798388671875,0.28199493885040283,1.4020129442214966,1.9153624773025513
1789213564284017200,4.14801708984375,0.2724941074848175,1.3476777076721191,2.1994168758392334
1789213564294049000,4.158049072265625,0.37251392006874084,0.7526583075523376,1.6282694339752197
1789213564304081000,4.168080810546875,0.23186439275741577,0.27351489663124084,1.4472565650939941
1789213564314114000,4.178114013671875,0.17475369572639465,-0.457048237323761,1.456751823425293
1789213564324146000,4.18814599609375,0.09104974567890167,-0.9155601263046265,1.329917073249817
1789213564334178000,4.198177978515625,0.05450771749019623,-1.0319222211837769,1.0779016017913818
1789213564344210000,4.2082099609375,0.15107153356075287,-1.0483392477035522,0.7597489953041077
1789213564354243000,4.2182431640625,0.30782148241996765,-1.028188943862915,0.3491460084915161
1789213564364275000,4.22827490234375,0.3824498951435089,-1.0200968980789185,0.0018807243322953582
1789213564374306800,4.238306884765625,0.14992691576480865,-1.0996932983398438,-0.3126974403858185
1789213564384340000,4.248340087890625,-0.018736137077212334,-1.175169587135315,-0.6693599820137024
1789213564394372000,4.2583720703125,-0.19336892664432526,-1.1696044206619263,-1.3521872758865356
1789213564404404000,4.268404052734375,-0.6434402465820312,-0.7742786407470703,-1.6241732835769653
1789213564414435800,4.278435791015625,-1.0098483562469482,-0.7188271284103394,-1.6623879671096802
1789213564424469000,4.288468994140625,-1.2201889753341675,-0.31745171546936035,-1.4282588958740234
1789213564434500900,4.2985009765625,-1.0889554023742676,-0.28075844049453735,-1.7310017347335815
1789213564444533000,4.308532958984375,-0.9921196699142456,-0.09931433945894241,-1.7651472091674805
1789213564454566000,4.31856591796875,-1.0281985998153687,-0.33897486329078674,-1.439137578010559
1789213564464598000,4.328597900390625,-1.0317291021347046,-1.0311509370803833,-1.0464800596237183
1789213564474630000,4.3386298828125,-0.985289454460144,-1.5755255222320557,-0.587505042552948
1789213564484662000,4.348662109375,-0.7465008497238159,-2.03157901763916,-0.35339826345443726
1789213564494695000,4.35869482421875,-0.2326662689447403,-1.9919630289077759,-0.40568679571151733
1789213564504726800,4.368726806640625,0.15390008687973022,-1.5768922567367554,-0.4053381681442261
1789213564514759200,4.37875927734375,0.2671329081058502,-1.0134222507476807,-0.41534578800201416
1789213564524792000,4.3887919921875,0.4664830267429352,-0.5116118788719177,-0.4552689790725708
1789213564534824000,4.398823974609375,0.6564875841140747,-0.3153363764286041,-0.3903200626373291
1789213564544856300,4.408856201171875,0.6166456341743469,-0.4747593402862549,-0.4491485059261322
1789213564554889500,4.418889404296875,0.5296124815940857,-0.937860906124115,-0.40856966376304626
1789213564564921300,4.42892138671875,0.5243649482727051,-1.3568345308303833,-0.3181348443031311
1789213564574953200,4.438953125,0.5484005212783813,-1.4251928329467773,-0.4521259069442749
1789213564584985600,4.448985595703125,0.6082297563552856,-0.9316800236701965,-0.7398192286491394
1789213564595018500,4.4590185546875,0.6574321985244751,-0.0433858223259449,-1.0647538900375366
1789213564605050400,4.46905029296875,0.7678799033164978,0.9685147404670715,-1.2025316953659058
1789213564615082500,4.47908251953125,1.4514009952545166,1.7240979671478271,-1.1658451557159424
1789213564625115400,4.489115478515625,2.4898509979248047,1.6671923398971558,-1.1587976217269897
1789213564635147300,4.499147216796875,3.5610768795013428,1.6579042673110962,-0.9744341373443604
1789213564645179400,4.509179443359375,4.467578887939453,1.4634373188018799,-0.6873258948326111
1789213564655212300,4.51921240234375,4.664581775665283,1.3479433059692383,-0.5923141837120056
1789213564665244400,4.529244384765625,4.543707847595215,1.6873836517333984,-0.6309829950332642
1789213564675276500,4.539276611328125,4.2778544425964355,1.90364670753479,-0.7947056293487549
1789213564685308400,4.549308349609375,3.6141934394836426,1.944389820098877,-0.921114981174469
1789213564695341300,4.55934130859375,2.6741831302642822,1.486418604850769,-0.9034286737442017
1789213564705373200,4.569373291015625,0.7386634349822998,0.5773504376411438,-0.9004470109939575
1789213564715405600,4.579405517578125,0.013424995355308056,0.42079490423202515,-0.779306173324585
1789213564725438500,4.5894384765625,-0.08310767263174057,-0.15061640739440918,-0.7537062764167786
1789213564735470300,4.59947021484375,-0.05072709172964096,-0.6165249943733215,-0.8110902309417725
1789213564745502500,4.60950244140625,-0.22195503115653992,-1.0174130201339722,-0.9734796285629272
1789213564755535400,4.619535400390625,-0.4762432277202606,-1.171189308166504,-1.271030068397522
1789213564765567200,4.629567138671875,-0.8889570236206055,-1.1469521522521973,-1.6393826007843018
1789213564775599400,4.639599365234375,-1.452934980392456,-1.0545356273651123,-1.9627283811569214
1789213564785632300,4.64963232421875,-2.0399794578552246,-1.3180428743362427,-2.2758731842041016
1789213564795664400,4.659664306640625,-2.4849748611450195,-1.6669471263885498,-2.6163408756256104
1789213564805696500,4.669696533203125,-2.915304660797119,-2.003415107727051,-2.678177833557129
1789213564815728400,4.679728271484375,-3.3522121906280518,-2.2851972579956055,-2.565434694290161
1789213564825761300,4.68976123046875,-3.688472270965576,-2.2995035648345947,-2.2118351459503174
1789213564835793400,4.69979345703125,-3.426475763320923,-2.0773820877075195,-1.770495057106018
1789213564845825500,4.709825439453125,-2.891547203063965,-1.823238730430603,-1.3704546689987183
1789213564855858400,4.7198583984375,-2.540705442428589,-1.5790534019470215,-0.9304914474487305
1789213564865890600,4.729890625,-2.093705415725708,-1.687415599822998,-0.6116644740104675
1789213564875922400,4.73992236328125,-1.4816645383834839,-2.044008255004883,-0.3263522684574127
1789213564885955300,4.749955322265625,-1.1123507022857666,-2.2844300270080566,-0.16876637935638428
1789213564895987500,4.759987548828125,-0.8185209631919861,-1.140027642250061,-0.48109737038612366
1789213564906019300,4.770019287109375,-0.29300472140312195,-0.24302570521831512,-0.8699308633804321
1789213564916052200,4.78005224609375,-0.23867781460285187,-0.9995570778846741,-0.8775309920310974
1789213564926084400,4.79008447265625,-0.21464785933494568,-2.2271435260772705,-0.9723044037818909
1789213564936116500,4.800116455078125,-0.20549190044403076,-1.5642974376678467,-1.00105881690979
1789213564946148400,4.8101484375,-0.6283100247383118,-0.45999422669410706,-0.9374944567680359
1789213564956181200,4.82018115234375,-0.9017806649208069,0.33801984786987305,-0.7418799996376038
1789213564966213400,4.83021337890625,-0.9589625000953674,0.49821406602859497,-0.5407199859619141
1789213564976245500,4.84024560546875,-0.5842730402946472,0.014940067194402218,-0.3412124514579773
1789213564986278400,4.8502783203125,-0.14684776961803436,-0.14606159925460815,-0.10792167484760284
1789213564996310500,4.860310546875,-0.10923460870981216,0.19010229408740997,0.04761652275919914
1789213565006342400,4.87034228515625,-0.24058197438716888,0.3279981017112732,0.17871995270252228
1789213565016375300,4.880375244140625,-0.3985638916492462,0.04050002247095108,0.2008044719696045
1789213565026407400,4.890407470703125,-0.48604580760002136,-0.27869555354118347,0.07657067477703094
1789213565036439300,4.900439208984375,-0.44606083631515503,-0.36736762523651123,0.0448838509619236
1789213565046471400,4.910471435546875,-0.3338930308818817,-0.6350225210189819,0.1815844476222992
1789213565056504600,4.920504638671875,-0.11720571666955948,-0.6062305569648743,0.4326462149620056
1789213565066536400,4.930536376953125,0.10163182020187378,-1.1297718286514282,0.4286549389362335
1789213565076568300,4.940568359375,0.2759021520614624,-1.520052433013916,0.4940004050731659
1789213565086601500,4.9506015625,0.21372027695178986,-1.1602684259414673,0.5788071751594543
1789213565096633300,4.96063330078125,0.036485038697719574,-0.48182976245880127,0.49028289318084717
1789213565106665500,4.97066552734375,-0.11225304007530212,-0.08670107275247574,0.31092220544815063
1789213565116698600,4.98069873046875,-0.11788642406463623,0.4754357635974884,0.2108381986618042
1789213565126730500,4.99073046875,-0.038176413625478745,1.2608336210250854,0.1771654635667801
1789213565136762400,5.000762451171875,0.08190445601940155,2.3668699264526367,0.10134952515363693
1789213565146795500,5.01079541015625,0.24987055361270905,3.652014970779419,0.0046996804885566235
1789213565156827400,5.020827392578125,0.3089384138584137,4.078113555908203,-0.05808034539222717
1789213565166859300,5.030859375,0.45786237716674805,3.2260537147521973,-0.13093724846839905
1789213565176891400,5.040891357421875,0.60378098487854,0.9406529664993286,0.15926368534564972
1789213565186924500,5.050924560546875,0.6752892136573792,0.7965258955955505,0.5412440896034241
1789213565196956400,5.060956298828125,0.6669825911521912,2.290771007537842,0.5994370579719543
1789213565206988300,5.07098828125,0.6607672572135925,2.409391164779663,0.4130520224571228
1789213565217021400,5.081021484375,0.603268563747406,1.4277890920639038,0.03446503356099129
1789213565227053300,5.09105322265625,0.8490034937858582,0.8871405124664307,-0.17341706156730652
1789213565237085400,5.10108544921875,1.1810909509658813,0.914024293422699,0.13305792212486267
1789213565247118600,5.11111865234375,1.6118358373641968,0.5119817852973938,0.06282184273004532
1789213565257150500,5.121150390625,1.8237504959106445,0.30678921937942505,-0.27932965755462646
1789213565267182300,5.131182373046875,1.6990245580673218,0.30912935733795166,-0.494030237197876
1789213565277214200,5.141214111328125,1.4530614614486694,0.265428751707077,-0.48785489797592163
1789213565287247400,5.151247314453125,1.52723228931427,0.3960679769515991,-0.21722286939620972
1789213565297279200,5.161279296875,1.7847565412521362,0.37507960200309753,0.19906623661518097
1789213565307311400,5.171311279296875,1.7901337146759033,0.4181876480579376,0.7065600752830505
1789213565317344500,5.181344482421875,1.6239359378814697,0.38021203875541687,1.1798650026321411
1789213565327376400,5.19137646484375,1.350750207901001,0.3517194092273712,1.5756951570510864
1789213565337408300,5.201408203125,0.8845694661140442,0.39060238003730774,1.780282974243164
1789213565347441400,5.21144140625,0.4294339120388031,0.46545371413230896,1.788804292678833
1789213565357473300,5.221473388671875,0.07843222469091415,0.24746492505073547,1.9759001731872559
1789213565367505400,5.23150537109375,-0.14318645000457764,0.38037770986557007,1.983534336090088
1789213565377538600,5.24153857421875,-0.25578781962394714,0.6570135354995728,1.6181020736694336
1789213565387570400,5.2515703125,-0.17070409655570984,0.8758037090301514,1.1657929420471191
1789213565397602300,5.261602294921875,0.10311173647642136,1.194865345954895,0.6755251884460449
1789213565407634400,5.271634521484375,0.42227694392204285,1.3819196224212646,0.7222029566764832
1789213565417667300,5.281667236328125,0.5557612180709839,1.0129410028457642,1.054497241973877
1789213565427699200,5.29169921875,0.6812006235122681,0.4687517583370209,1.1275285482406616
1789213565437731600,5.301731689453125,0.9035546183586121,0.2414429783821106,0.944122314453125
1789213565447764500,5.311764404296875,0.7495498657226562,-0.189742773771286,0.581011176109314
1789213565457796400,5.32179638671875,0.6497556567192078,-0.18808655440807343,0.10980638861656189
1789213565467828500,5.331828369140625,0.7218231558799744,-0.08038724958896637,-0.08100590109825134
1789213565477861400,5.341861328125,1.0842127799987793,0.08657723665237427,-0.2877899706363678
1789213565487893200,5.351893310546875,1.234473466873169,-0.22261150181293488,-0.4974622428417206
1789213565497925400,5.36192529296875,0.9725313186645508,0.19958847761154175,-0.27298519015312195
1789213565507958500,5.37195849609375,0.46052980422973633,0.39780303835868835,-0.003100185887888074
1789213565517990400,5.381990478515625,-0.5395881533622742,-0.2415069043636322,-0.2580139636993408
1789213565528022300,5.392022216796875,-0.5371640920639038,-0.30675992369651794,-0.8180761933326721
1789213565538055400,5.402055419921875,-0.8380448818206787,-0.5071771740913391,-0.461041659116745
1789213565548086800,5.412086669921875,-1.1517162322998047,-0.3004351854324341,-0.050026681274175644
1789213565558119000,5.422118896484375,-1.0807116031646729,0.18820133805274963,-0.051543883979320526
1789213565568150800,5.43215087890625,-0.7247936725616455,0.4176872670650482,-0.2930648922920227
1789213565578184000,5.442183837890625,-0.6260785460472107,0.2203637957572937,-0.4905705153942108
1789213565588215800,5.4522158203125,-0.6788554787635803,-0.036425117403268814,-0.6686092019081116
1789213565598247700,5.46224755859375,-0.7430115342140198,0.07098975777626038,-0.9035735130310059
1789213565608280800,5.47228076171875,-0.7185925245285034,0.10036681592464447,-1.0495156049728394
1789213565618313000,5.48231298828125,-0.6386752724647522,-0.03506743907928467,-1.0883835554122925
1789213565628344800,5.4923447265625,-0.5101868510246277,-0.12897689640522003,-1.1336184740066528
1789213565638378000,5.5023779296875,-0.4394599199295044,-0.1538524180650711,-1.1600159406661987
1789213565648409900,5.512409912109375,-0.45865917205810547,-0.11192440241575241,-1.1288561820983887
1789213565658441700,5.522441650390625,-0.485586941242218,-0.042935483157634735,-1.0335283279418945
1789213565668475000,5.532474853515625,-0.4678604006767273,0.0726236030459404,-0.9509170651435852
1789213565678506800,5.5425068359375,-0.4419398605823517,0.21678903698921204,-0.9848098158836365
1789213565688539000,5.552538818359375,-0.4260013699531555,0.39411163330078125,-1.0562310218811035
1789213565698572000,5.562572021484375,-0.2859249711036682,0.5070410966873169,-1.0799139738082886
1789213565708604000,5.57260400390625,-0.08580545336008072,0.49281635880470276,-1.2309870719909668
1789213565718635800,5.5826357421875,-0.022128472104668617,0.5716723203659058,-1.5597589015960693
1789213565728669000,5.5926689453125,-0.12620587646961212,0.40914037823677063,-2.0145859718322754
1789213565738700800,5.60270068359375,-0.4021351933479309,0.49958744645118713,-2.336787462234497
1789213565748733000,5.61273291015625,-0.7151197195053101,0.3683958649635315,-2.4267568588256836
1789213565758765800,5.622765869140625,-1.0157911777496338,0.2745271623134613,-2.2845826148986816
1789213565768798000,5.6327978515625,-1.1174019575119019,-0.23925146460533142,-2.1170849800109863
1789213565778829800,5.642829833984375,-1.178060531616211,-0.4472307562828064,-2.0832486152648926
1789213565788861700,5.65286181640625,-1.2627812623977661,-0.32661911845207214,-2.049464702606201
1789213565798894800,5.662894775390625,-1.3846083879470825,-0.14795270562171936,-1.9113472700119019
1789213565808926700,5.6729267578125,-1.3052247762680054,-0.02329493686556816,-1.5909162759780884
1789213565818958800,5.682958740234375,-1.1641616821289062,-0.1082891896367073,-1.2321265935897827
1789213565828992000,5.692991943359375,-1.0971155166625977,-0.27855491638183594,-1.0188734531402588
1789213565839023900,5.70302392578125,-1.0345696210861206,-0.5044706463813782,-0.9173199534416199
1789213565849055700,5.7130556640625,-0.9831604957580566,-0.7350577712059021,-0.8149869441986084
1789213565859089000,5.7230888671875,-0.8461531400680542,-0.8137573599815369,-0.5806146264076233
1789213565869120800,5.733120849609375,-0.5538402795791626,-1.0051177740097046,-0.11964783817529678
1789213565879153000,5.74315283203125,-0.5704930424690247,-0.42736998200416565,0.16857756674289703
1789213565889185800,5.753185791015625,-0.4907694458961487,-0.023564714938402176,0.5310039520263672
1789213565899218000,5.763218017578125,-0.48519864678382874,0.16508455574512482,0.5162857174873352
1789213565909249800,5.773249755859375,-0.33672502636909485,0.24426646530628204,0.4906751811504364
1789213565919283000,5.783282958984375,-0.1919633150100708,0.2630920708179474,0.5761029720306396
1789213565929314800,5.793314697265625,-0.06441254168748856,0.305632084608078,0.6559235453605652
1789213565939346700,5.8033466796875,0.13050714135169983,0.41659241914749146,0.7692301273345947
1789213565949379800,5.8133798828125,0.3067804276943207,0.6085717082023621,0.7671693563461304
1789213565959412000,5.823411865234375,0.5421508550643921,0.7484904527664185,0.719448447227478
1789213565969443800,5.83344384765625,0.8254422545433044,0.7607215642929077,0.6727719902992249
1789213565979477000,5.84347705078125,1.0709567070007324,0.5414179563522339,0.5158271193504333
1789213565989508900,5.8535087890625,1.261391282081604,0.28364184498786926,0.342239648103714
1789213565999540700,5.863540771484375,1.4250156879425049,0.14267300069332123,0.25546133518218994
1789213566009574000,5.873573974609375,1.5607692003250122,0.0270148403942585,0.1814102679491043
1789213566019605800,5.883605712890625,1.6606616973876953,-0.056768208742141724,0.12775157392024994
1789213566029638000,5.893637939453125,1.747423529624939,-0.07497304677963257,0.11505521833896637
1789213566039671000,5.903671142578125,1.8171004056930542,0.1660291850566864,0.139030322432518
1789213566049703000,5.913702880859375,1.7908961772918701,0.023808127269148827,0.30297133326530457
1789213566059734800,5.92373486328125,1.7753946781158447,-0.05313326045870781,0.41398730874061584
1789213566069768000,5.933767822265625,1.7219568490982056,-0.12382233887910843,0.4906219244003296
1789213566079799800,5.9437998046875,1.6368261575698853,-0.2724027633666992,0.5424720644950867
1789213566089832000,5.95383203125,1.5258454084396362,-0.3601893484592438,0.4812481105327606
1789213566099864800,5.96386474609375,1.4076052904129028,-0.41849765181541443,0.4796012341976166
1789213566109897000,5.97389697265625,1.3952313661575317,-0.5997422933578491,0.6194667220115662
1789213566119928800,5.9839287109375,1.4709930419921875,-0.6973351240158081,0.8474910855293274
1789213566129962000,5.9939619140625,1.6476240158081055,-0.6207761764526367,1.0020239353179932
1789213566139993900,6.003993896484375,1.7552452087402344,-0.614242672920227,1.164999008178711
1789213566150025700,6.014025634765625,1.8608534336090088,-0.7000899314880371,1.3364511728286743
1789213566160059000,6.024058837890625,1.9552289247512817,-0.906390368938446,1.4682643413543701
1789213566170091000,6.034091064453125,2.047297239303589,-1.241068720817566,1.4935740232467651
1789213566180123000,6.044122802734375,2.0418930053710938,-1.556594729423523,1.3378994464874268
1789213566190155800,6.05415576171875,1.67934250831604,-1.8803850412368774,1.256661295890808
1789213566200188000,6.06418798828125,1.1642085313796997,-1.8991621732711792,1.0961799621582031
1789213566210219800,6.0742197265625,0.7350510954856873,-1.6356227397918701,0.8769762516021729
1789213566220252700,6.084252685546875,0.3853903114795685,-1.2159417867660522,0.7528825402259827
1789213566230285000,6.09428515625,0.16326402127742767,-0.6249472498893738,0.8029339909553528
1789213566240317000,6.10431689453125,0.01829857937991619,-0.14353825151920319,0.8319307565689087
1789213566250349800,6.114349853515625,0.05687606707215309,-0.027690216898918152,0.6675229072570801
1789213566260382000,6.1243818359375,0.1750120222568512,-0.1533413529396057,0.4412420988082886
1789213566270413800,6.134413818359375,0.26987409591674805,-0.06238720938563347,0.30111828446388245
1789213566280446700,6.14444677734375,0.21565665304660797,0.0950106680393219,0.20543943345546722
1789213566290478800,6.154478759765625,0.11640357226133347,0.18329311907291412,0.09430839121341705
1789213566300511000,6.164510986328125,0.012952283956110477,0.16908782720565796,-0.06812259554862976
1789213566310544000,6.1745439453125,-0.0899735614657402,0.0933680310845375,-0.26658695936203003
1789213566320576000,6.184575927734375,-0.14418034255504608,-0.004118045791983604,-0.48976197838783264
1789213566330607900,6.19460791015625,-0.22930748760700226,-0.08520890027284622,-0.6666094660758972
1789213566340640800,6.204640869140625,-0.32229840755462646,-0.0005864280392415822,-0.8326205015182495
1789213566350673000,6.2146728515625,-0.4022377133369446,0.11724406480789185,-0.960042417049408
1789213566360705000,6.224705078125,-0.41613543033599854,0.23098528385162354,-1.0738672018051147
1789213566370737700,6.234737548828125,-0.3588247299194336,0.24808703362941742,-1.1741565465927124
1789213566380770000,6.24477001953125,-0.2875097990036011,0.11364907026290894,-1.1947818994522095
1789213566390802000,6.254802001953125,-0.2477394938468933,-0.06524238735437393,-1.1532760858535767
1789213566400834800,6.264834716796875,-0.2556546628475189,-0.134881392121315,-1.096712350845337
1789213566410867000,6.274866943359375,-0.3536403477191925,-0.03610660508275032,-1.0530351400375366
1789213566420898800,6.28489892578125,-0.5268560647964478,0.09893137216567993,-1.054708480834961
1789213566430931700,6.294931640625,-0.6754647493362427,0.23938170075416565,-0.988891065120697
1789213566440963800,6.3049638671875,-0.8005819320678711,0.49063947796821594,-0.9078497886657715
1789213566450996000,6.314995849609375,-0.9176544547080994,0.7668687105178833,-0.9185471534729004
1789213566461028900,6.32502880859375,-0.967514157295227,0.7806699872016907,-0.8752212524414062
1789213566471060700,6.335060791015625,-0.9038659334182739,0.5118531584739685,-0.7241611480712891
1789213566481092900,6.3450927734375,-0.7971570491790771,0.1275574266910553,-0.4740820825099945
1789213566491125800,6.355125732421875,-0.7351733446121216,-0.09300317615270615,-0.19971923530101776
1789213566501158000,6.365157958984375,-0.894892692565918,-0.09766637533903122,-0.09886159747838974
1789213566511190000,6.37518994140625,-0.9300634860992432,0.041194308549165726,-0.17568926513195038
1789213566521223000,6.385222900390625,-1.1678017377853394,0.18600262701511383,-0.4114155173301697
1789213566531254800,6.3952548828125,-1.2981051206588745,0.3429538905620575,-0.6996062994003296
1789213566541287000,6.405286865234375,-1.4961804151535034,0.28546077013015747,-1.0605498552322388
1789213566551319800,6.41531982421875,-1.292022466659546,-0.04211869090795517,-1.4899989366531372
1789213566561351700,6.4253515625,-1.2835674285888672,-0.4152595102787018,-1.807024598121643
1789213566571384000,6.435384033203125,-1.1164886951446533,-0.6116018891334534,-1.9680403470993042
1789213566581417000,6.4454169921875,-1.1219152212142944,-0.4553297162055969,-2.0013999938964844
1789213566591448800,6.45544873046875,-0.9262682199478149,-0.35741832852363586,-1.955267310142517
1789213566601481000,6.46548095703125,-1.0072258710861206,-0.30953946709632874,-1.8043925762176514
1789213566611513900,6.475513916015625,-1.0321357250213623,-0.1503538191318512,-1.6145789623260498
1789213566621545700,6.485545654296875,-1.1398289203643799,-0.27874481678009033,-1.5300533771514893
1789213566631577900,6.495577880859375,-1.093563199043274,-0.4009069502353668,-1.4299758672714233
1789213566641610800,6.50561083984375,-1.2788816690444946,-0.313890278339386,-1.2995104789733887
1789213566651643000,6.515642822265625,-1.3577804565429688,-0.05939941108226776,-1.1040197610855103
1789213566661674800,6.5256748046875,-1.467003583908081,-0.22237661480903625,-0.867100715637207
1789213566671708000,6.5357080078125,-1.3787744045257568,-0.3108702600002289,-0.5115269422531128
1789213566681739800,6.54573974609375,-1.3955185413360596,-0.09043882042169571,-0.2025885283946991
1789213566691771600,6.555771728515625,-1.1497342586517334,0.12680481374263763,0.026816166937351227
1789213566701804800,6.5658046875,-1.0330086946487427,0.12192270904779434,0.3062502145767212
1789213566711837000,6.5758369140625,-0.779904842376709,0.172655388712883,0.5050309300422668
1789213566721868800,6.585868896484375,-0.7088202834129333,0.25305357575416565,0.5795043706893921
1789213566731902000,6.59590185546875,-0.48674407601356506,0.36117950081825256,0.7056340575218201
1789213566741933800,6.605933837890625,-0.36594629287719727,0.44316011667251587,0.7828697562217712
1789213566751965700,6.615965576171875,-0.1491985321044922,0.5288339853286743,0.8202645182609558
1789213566761998800,6.625998779296875,-0.03524453938007355,0.4111345410346985,0.8363311290740967
1789213566772030700,6.63603076171875,0.1375485360622406,0.2806583046913147,0.8844326138496399
1789213566782062800,6.646062744140625,0.2573455274105072,0.18546625971794128,0.9453526735305786
1789213566792096000,6.656095947265625,0.4928909242153168,0.24693015217781067,0.9960350394248962
1789213566802128000,6.6661279296875,0.6282716393470764,0.34629055857658386,1.013325572013855
1789213566812161000,6.6761611328125,0.8364017009735107,0.5552123785018921,1.0012441873550415
1789213566822193000,6.68619287109375,0.9804571270942688,0.650270938873291,0.9938163161277771
1789213566832224800,6.696224853515625,1.2002291679382324,0.6996723413467407,0.9906501173973083
1789213566842257700,6.706257568359375,1.299254059791565,0.6442559361457825,0.9837818145751953
1789213566852289800,6.716289794921875,1.4186922311782837,0.617758572101593,0.9919686317443848
1789213566862322000,6.726322021484375,1.4505138397216797,0.6372398734092712,1.023996353149414
1789213566872354800,6.736354736328125,1.5391201972961426,0.7379605770111084,1.0206913948059082
1789213566882387000,6.746386962890625,1.6491729021072388,0.750013530254364,0.9808211922645569
1789213566892418800,6.756418701171875,1.7700960636138916,0.7012233734130859,0.9612208604812622
1789213566902451700,6.76645166015625,1.8584529161453247,0.6149356365203857,0.9082311391830444
1789213566912483800,6.77648388671875,1.8940247297286987,0.46843352913856506,0.8754113912582397
1789213566922516000,6.786515869140625,1.907752275466919,0.2989201247692108,0.8595847487449646
1789213566932548900,6.796548828125,1.9211844205856323,0.06962541490793228,0.8118822574615479
1789213566942581000,6.8065810546875,1.9081761837005615,-0.16640415787696838,0.7596323490142822
1789213566952612900,6.81661279296875,1.84132981300354,-0.4144435226917267,0.6651002168655396
1789213566962645800,6.826645751953125,1.7130285501480103,-0.7703790068626404,0.627097487449646
1789213566972678000,6.836677978515625,1.553843379020691,-0.994564414024353,0.6759890913963318
1789213566982709800,6.846709716796875,1.3909629583358765,-1.0151578187942505,0.7673674821853638
1789213566992742700,6.85674267578125,1.2184717655181885,-0.9189900159835815,0.8676493763923645
1789213567002775000,6.866775146484375,0.9746972322463989,-0.8526298999786377,0.9205533266067505
1789213567012807000,6.876806884765625,0.7839507460594177,-0.6982158422470093,1.0108696222305298
1789213567022839800,6.88683984375,0.6581411361694336,-0.5571860074996948,1.0827672481536865
1789213567032872000,6.896871826171875,0.5361933708190918,-0.5869633555412292,1.052690863609314
1789213567042903800,6.90690380859375,0.4177764654159546,-0.5545580387115479,1.0588374137878418
1789213567052936700,6.916936767578125,0.34309104084968567,-0.4896559715270996,1.0729337930679321
1789213567062969000,6.926968994140625,0.3136069178581238,-0.5340338349342346,1.0655089616775513
1789213567073001000,6.9370009765625,0.3028799891471863,-0.5050445199012756,1.0185153484344482
1789213567083033900,6.947033935546875,0.31425565481185913,-0.3766210377216339,0.9185516834259033
1789213567093065700,6.957065673828125,0.2891378104686737,-0.2775983214378357,0.8384174108505249
1789213567103099000,6.967098876953125,0.18952839076519012,-0.1738351732492447,0.771165132522583
1789213567113130800,6.977130859375,0.0229916013777256,-0.01019937451928854,0.6856915354728699
1789213567123162600,6.98716259765625,-0.16407708823680878,0.12476616352796555,0.5751221776008606
1789213567133195800,6.99719580078125,-0.2887180745601654,0.16174815595149994,0.4339309334754944
1789213567143228000,7.007227783203125,-0.3279570937156677,0.06193713843822479,0.2587146461009979
1789213567153259800,7.017259765625,-0.3078169524669647,-0.057014551013708115,0.07320737093687057
1789213567163293000,7.02729296875,-0.3191724121570587,-0.07302094995975494,-0.1127350702881813
1789213567173324800,7.03732470703125,-0.3474051058292389,-0.02064455859363079,-0.30813732743263245
1789213567183356700,7.047356689453125,-0.3608125150203705,0.030063891783356667,-0.43627771735191345
1789213567193389800,7.057389892578125,-0.3925448954105377,0.1738881766796112,-0.5027725696563721
1789213567203422000,7.067421875,-0.4293915927410126,0.2881236672401428,-0.5732411742210388
1789213567213453800,7.077453857421875,-0.46429604291915894,0.27015504240989685,-0.6720049977302551
1789213567223487000,7.087487060546875,-0.5121567845344543,0.2324308454990387,-0.7891793251037598
1789213567233518800,7.097518798828125,-0.5505076050758362,0.19140857458114624,-0.8538491129875183
1789213567243550700,7.10755078125,-0.5828934907913208,0.17683522403240204,-0.8637209534645081
1789213567253584000,7.117583984375,-0.6217346787452698,0.2276020050048828,-0.8455075621604919
1789213567263615700,7.12761572265625,-0.662444531917572,0.3738769292831421,-0.7899473905563354
1789213567273647900,7.13764794921875,-0.7098245620727539,0.44052866101264954,-0.7217403650283813
1789213567283681000,7.147680908203125,-0.7136291861534119,0.34501224756240845,-0.720041811466217
1789213567293713000,7.157712890625,-0.7012976408004761,0.37611398100852966,-0.6782019138336182
1789213567303744800,7.167744873046875,-0.7352359294891357,0.4392277002334595,-0.6559315323829651
1789213567313778000,7.17777783203125,-0.7861284017562866,0.3768295645713806,-0.5589429140090942
1789213567323809800,7.187809814453125,-0.8320455551147461,0.16590188443660736,-0.43526625633239746
1789213567333842700,7.1978427734375,-0.9077765345573425,0.08040829002857208,-0.3726271092891693
1789213567343874800,7.207874755859375,-1.1080681085586548,0.22083091735839844,-0.29127657413482666
1789213567353907000,7.217906982421875,-1.3138500452041626,0.5007123351097107,-0.3408670425415039
1789213567363939800,7.22793994140625,-1.3736449480056763,0.5996485352516174,-0.5645568370819092
1789213567373972000,7.237971923828125,-1.3309701681137085,0.2490343153476715,-0.8106129765510559
1789213567384003800,7.24800390625,-1.1903009414672852,-0.187447652220726,-1.0928236246109009
1789213567394036700,7.25803662109375,-1.0185365676879883,-0.42904138565063477,-1.365692377090454
1789213567404068900,7.26806884765625,-0.9037697911262512,-0.4642108082771301,-1.5392037630081177
1789213567414101000,7.27810107421875,-0.8558017611503601,-0.34725624322891235,-1.5709095001220703
1789213567424134000,7.2881337890625,-0.8890747427940369,-0.14512576162815094,-1.5058565139770508
1789213567434166000,7.298166015625,-0.959291934967041,0.20578564703464508,-1.4070289134979248
1789213567444198000,7.308197998046875,-0.9795567393302917,0.3575003445148468,-1.3596904277801514
1789213567454230800,7.318230712890625,-1.0350558757781982,0.18202438950538635,-1.3932499885559082
1789213567464263000,7.328262939453125,-1.104478359222412,-0.0998176708817482,-1.4630647897720337
1789213567474294800,7.338294677734375,-1.196295976638794,-0.21281985938549042,-1.5231842994689941
1789213567484327700,7.34832763671875,-1.2585707902908325,-0.27437669038772583,-1.514084815979004
1789213567494360000,7.358360107421875,-1.254058837890625,-0.3270207345485687,-1.4045319557189941
1789213567504393000,7.36839306640625,-1.3034110069274902,-0.2862549424171448,-1.1748393774032593
1789213567514424800,7.3784248046875,-1.316091537475586,-0.15617123246192932,-0.9074015617370605
1789213567524456700,7.388456787109375,-1.195183277130127,-0.02352636493742466,-0.6884103417396545
1789213567534489900,7.39848974609375,-0.9382886290550232,-0.05120193585753441,-0.5245401859283447
1789213567544521700,7.408521728515625,-0.6921350359916687,-0.1751510500907898,-0.2780076563358307
1789213567554557400,7.418557373046875,-0.5778428316116333,-0.11872478574514389,-0.02972700260579586
1789213567564590300,7.42859033203125,-0.4622533917427063,0.10599620640277863,0.15349528193473816
1789213567574622500,7.43862255859375,-0.2853630483150482,0.2220277339220047,0.22801639139652252
1789213567584654300,7.448654296875,-0.09426604956388474,0.29276928305625916,0.2559734582901001
1789213567594687200,7.458687255859375,0.004249606281518936,0.2650556266307831,0.48790550231933594
1789213567604719000,7.468718994140625,0.10631285607814789,0.34254854917526245,0.6945228576660156
1789213567614751200,7.478751220703125,0.30400168895721436,0.5219734311103821,0.7727752923965454
1789213567624784100,7.4887841796875,0.5851398706436157,0.671485424041748,0.8311659097671509
1789213567634816300,7.498816162109375,0.8297067880630493,0.7371142506599426,0.8824917078018188
1789213567644848400,7.508848388671875,1.0171751976013184,0.7785389423370361,0.8890689015388489
1789213567654881300,7.51888134765625,1.1681334972381592,0.7958230972290039,0.856860876083374
1789213567664913200,7.5289130859375,1.317284107208252,0.8039917945861816,0.8479307889938354
1789213567674946300,7.5389462890625,1.4920014142990112,0.9038795232772827,0.8540613651275635
1789213567684978200,7.548978271484375,1.6443469524383545,0.9189711213111877,0.8529817461967468
1789213567695010300,7.55901025390625,1.7611212730407715,0.889066755771637,0.8420063257217407
1789213567705043200,7.569043212890625,1.8477059602737427,0.8831771612167358,0.842441737651825
1789213567715075300,7.579075439453125,1.8911644220352173,0.861565887928009,0.8606566786766052
1789213567725107200,7.589107177734375,1.919925332069397,0.8125799894332886,0.8447403311729431
1789213567735140400,7.599140380859375,1.9257214069366455,0.6946570873260498,0.8299837112426758
1789213567745172200,7.609172119140625,1.9233274459838867,0.5555782914161682,0.8477209210395813
1789213567755204000,7.6192041015625,1.9553592205047607,0.371721088886261,0.8180772662162781
1789213567765237200,7.6292373046875,1.9964509010314941,0.06239413470029831,0.7728434801101685
1789213567775269400,7.639269287109375,2.0373780727386475,-0.21642018854618073,0.7649557590484619
1789213567785301200,7.64930126953125,2.038661241531372,-0.40753474831581116,0.8195542693138123
1789213567795334400,7.65933447265625,1.9295389652252197,-0.6150797009468079,0.8159627318382263
1789213567805366300,7.6693662109375,1.75972580909729,-0.6413688063621521,0.8451416492462158
1789213567815399200,7.679399169921875,1.5312424898147583,-0.6590223908424377,0.9061344265937805
1789213567825431300,7.689431396484375,1.2648574113845825,-0.6729635000228882,0.9665527939796448
1789213567835463200,7.699463134765625,1.078689694404602,-0.7470981478691101,1.044642448425293
1789213567845496000,7.70949609375,0.9731454253196716,-0.9915646314620972,1.0363744497299194
1789213567855528400,7.719528564453125,0.8931163549423218,-1.1471068859100342,1.043044090270996
1789213567865560300,7.729560302734375,0.8121898174285889,-1.162752628326416,1.1188030242919922
1789213567875593200,7.73959326171875,0.7441215515136719,-1.048278570175171,1.208179235458374
1789213567885625300,7.749625244140625,0.6583664417266846,-0.9311870336532593,1.1729685068130493
1789213567895657200,7.7596572265625,0.5328205227851868,-0.7816721200942993,1.0038660764694214
1789213567905690000,7.769690185546875,0.3927651345729828,-0.6089975833892822,0.8020588755607605
1789213567915722500,7.779722412109375,0.2570722699165344,-0.4380210340023041,0.592728316783905
1789213567925754400,7.78975439453125,0.14629222452640533,-0.2549540102481842,0.401980996131897
1789213567935787300,7.799787353515625,0.07804500311613083,-0.13674187660217285,0.27988171577453613
1789213567945819400,7.8098193359375,0.018340658396482468,-0.06521975249052048,0.18289072811603546
1789213567955852300,7.819852294921875,-0.00615296745672822,-0.06536488980054855,0.0463469922542572
1789213567965884200,7.82988427734375,-0.1147335097193718,-0.10384410619735718,-0.1234244629740715
1789213567975916300,7.839916259765625,-0.2216796576976776,-0.08574153482913971,-0.2419511079788208
1789213567985949200,7.84994921875,-0.23146304488182068,-0.09597233682870865,-0.33975356817245483
1789213567995981300,7.859981201171875,-0.22335505485534668,-0.10208641737699509,-0.4635423719882965
1789213568006013200,7.87001318359375,-0.28407779335975647,-0.05963137373328209,-0.618657648563385
1789213568016046300,7.88004638671875,-0.3868992328643799,0.03441097214818001,-0.7480925917625427
1789213568026078200,7.890078125,-0.4602093994617462,0.17857293784618378,-0.8326745629310608
1789213568036110000,7.900110107421875,-0.4945644438266754,0.31517019867897034,-0.8702648282051086
1789213568046143200,7.910143310546875,-0.5090193152427673,0.3921225070953369,-0.900858461856842
1789213568056175000,7.920175048828125,-0.5248928070068359,0.38996586203575134,-0.9883451461791992
1789213568066207200,7.930207275390625,-0.5347094535827637,0.28767919540405273,-1.0866097211837769
1789213568076240400,7.940240478515625,-0.5172138214111328,0.12097116559743881,-1.122096061706543
1789213568086272300,7.950272216796875,-0.5183984041213989,0.051004860550165176,-1.0657196044921875
1789213568096305400,7.960305419921875,-0.5510178804397583,0.1346699297428131,-1.0033427476882935
1789213568106337300,7.970337158203125,-0.5901216268539429,0.1863701492547989,-0.9591243863105774
1789213568116369200,7.980369140625,-0.5866427421569824,0.13569843769073486,-0.9015247821807861
1789213568126402300,7.99040234375,-0.5482199788093567,0.16158117353916168,-0.7405145764350891
1789213568136434400,8.000434326171876,-0.5715063810348511,0.10209280997514725,-0.5984978079795837
1789213568146466300,8.01046630859375,-0.6122183799743652,0.009476060047745705,-0.396641343832016
1789213568156499500,8.02049951171875,-0.7170337438583374,-0.029809294268488884,-0.21477702260017395
1789213568166531300,8.03053125,-0.8642229437828064,-0.04272589087486267,-0.1573222428560257
1789213568176563200,8.040563232421874,-1.0071734189987183,0.14576758444309235,-0.22189004719257355
1789213568186596000,8.05059619140625,-1.1414494514465332,0.39672204852104187,-0.3503076732158661
1789213568196628200,8.060628173828125,-1.2151751518249512,0.6079160571098328,-0.5671124458312988
1789213568206660400,8.070660400390626,-1.1820424795150757,0.4304262101650238,-0.8600257635116577
1789213568216693200,8.080693359375,-1.0872125625610352,-0.016472982242703438,-1.181650161743164
1789213568226725400,8.090725341796874,-0.9676774144172668,-0.4202880859375,-1.5061230659484863
1789213568236758300,8.10075830078125,-0.8541889190673828,-0.6413546800613403,-1.7286884784698486
1789213568246790100,8.1107900390625,-0.7843661904335022,-0.6141670346260071,-1.800101637840271
1789213568256822300,8.120822265625,-0.7974028587341309,-0.39085856080055237,-1.7756725549697876
1789213568266855200,8.130855224609375,-0.8525865077972412,-0.070804663002491,-1.6759791374206543
1789213568276887300,8.14088720703125,-0.8839931488037109,0.11020532995462418,-1.638701319694519
1789213568286919400,8.15091943359375,-0.9643654823303223,0.09943311661481857,-1.712891697883606
1789213568296952300,8.160952392578125,-1.007271647453308,-0.11039255559444427,-1.779110312461853
1789213568306984200,8.170984130859376,-1.055240273475647,-0.29946792125701904,-1.7431976795196533
1789213568317016300,8.181016357421875,-1.1432710886001587,-0.41435298323631287,-1.5699247121810913
1789213568327049200,8.19104931640625,-1.2289923429489136,-0.4145931899547577,-1.2741369009017944
1789213568337081000,8.2010810546875,-1.1851495504379272,-0.2056487649679184,-0.9730895161628723
1789213568347114200,8.2111142578125,-0.9915302991867065,-0.27752694487571716,-0.7765295505523682
1789213568357146400,8.221146484375,-0.8397391438484192,-0.3261996805667877,-0.6989487409591675
1789213568367178200,8.23117822265625,-0.7745534777641296,-0.2788681089878082,-0.6214683651924133
1789213568377211400,8.24121142578125,-0.6444839239120483,-0.0932532474398613,-0.6466274857521057
1789213568387243300,8.2512431640625,-0.4010715186595917,0.016402941197156906,-0.6828550100326538
1789213568397275100,8.261275146484374,-0.18575681746006012,-0.17141808569431305,-0.37592196464538574
1789213568407308300,8.271308349609376,-0.039088811725378036,-0.010067281313240528,0.04181775450706482
1789213568417340200,8.281340087890625,0.07621381431818008,0.4596477448940277,0.3960040509700775
1789213568427372300,8.291372314453126,0.2455700784921646,0.8270164132118225,0.5467533469200134
1789213568437405400,8.301405517578125,0.41527628898620605,0.8778213262557983,0.5772351026535034
1789213568447437300,8.311437255859374,0.5642154216766357,0.8514621257781982,0.6788879632949829
1789213568457470200,8.32147021484375,0.7308433055877686,0.9624903798103333,0.8380158543586731
1789213568467502300,8.33150244140625,0.9326238036155701,1.0691676139831543,0.980370283126831
1789213568477534200,8.3415341796875,1.1152524948120117,0.9988356232643127,0.9981415867805481
1789213568487567000,8.351567138671875,1.2358657121658325,0.7899484634399414,1.0050325393676758
1789213568497599500,8.361599609375,1.362243890762329,0.6905574202537537,1.0430201292037964
1789213568507631400,8.37163134765625,1.4890282154083252,0.6555658578872681,1.1037122011184692
1789213568517664300,8.381664306640625,1.599918246269226,0.6555794477462769,1.1639617681503296
1789213568527696400,8.3916962890625,1.7065863609313965,0.576524019241333,1.1888457536697388
1789213568537728300,8.401728271484375,1.8239401578903198,0.5140710473060608,1.2062345743179321
1789213568547758000,8.411758056640625,2.013206720352173,0.43488195538520813,1.2381789684295654
1789213568557790000,8.4217900390625,2.251589059829712,0.2783895432949066,1.2794488668441772
1789213568567822800,8.43182275390625,2.4059841632843018,0.02275058627128601,1.3087623119354248
1789213568577855200,8.441855224609375,2.434391498565674,-0.25257977843284607,1.3136042356491089
1789213568587887000,8.45188720703125,2.3293330669403076,-0.4447079598903656,1.35919189453125
1789213568597920000,8.461919921875,2.1409926414489746,-0.2998562157154083,1.5588611364364624
1789213568607952100,8.4719521484375,1.9401493072509766,-0.1921587884426117,1.6007810831069946
1789213568617984000,8.48198388671875,1.7915468215942383,-0.3045575022697449,1.578253984451294
1789213568628017000,8.492016845703125,1.7108969688415527,-0.4268091022968292,1.5630090236663818
1789213568638049000,8.502049072265624,1.7333638668060303,-0.4519549310207367,1.5319641828536987
1789213568648081200,8.5120810546875,1.7081962823867798,-0.8484383821487427,1.4680968523025513
1789213568658114000,8.522114013671874,1.5933293104171753,-1.1820088624954224,1.3934776782989502
1789213568668146200,8.532146240234376,1.3943365812301636,-1.3810943365097046,1.3430739641189575
1789213568678179000,8.542178955078125,1.1610466241836548,-1.2766443490982056,1.3220405578613281
1789213568688211000,8.5522109375,0.881808340549469,-0.8802540898323059,1.3513683080673218
1789213568698243000,8.5622431640625,0.6341138482093811,-0.4737960696220398,1.3933802843093872
1789213568708276000,8.57227587890625,0.4274469316005707,-0.3107733130455017,1.2771750688552856
1789213568718308000,8.58230810546875,0.2211928367614746,-0.32758399844169617,1.022051215171814
1789213568728340000,8.592340087890625,0.12784238159656525,-0.5232323408126831,0.7711625099182129
1789213568738373000,8.602373046875,0.10572189837694168,-0.6394233703613281,0.6526683568954468
1789213568748405000,8.612405029296875,0.12279196828603745,-0.6092202067375183,0.5343696475028992
1789213568758436900,8.622436767578124,0.06420055776834488,-0.5508178472518921,0.43672218918800354
1789213568768470000,8.632469970703125,-0.03413107246160507,-0.45650362968444824,0.35445502400398254
1789213568778502000,8.642501953125,-0.2002904862165451,-0.3980158269405365,0.2177954465150833
1789213568788534000,8.652533935546876,-0.4099563658237457,-0.4252359867095947,0.018514828756451607
1789213568798567200,8.662567138671875,-0.5772098302841187,-0.32435303926467896,-0.20620882511138916
1789213568808599000,8.67259912109375,-0.7068154811859131,-0.10322438925504684,-0.4019778072834015
1789213568818632200,8.682632080078125,-0.7742981314659119,0.11691489815711975,-0.5776031613349915
1789213568828664000,8.6926640625,-0.8222208619117737,0.2958660125732422,-0.6765561103820801
1789213568838696000,8.702696044921876,-0.8227550983428955,0.3746979832649231,-0.6887634992599487
1789213568848729000,8.71272900390625,-0.7707976698875427,0.39857667684555054,-0.6644797325134277
1789213568858761000,8.722760986328124,-0.6870167255401611,0.4829613268375397,-0.6088537573814392
1789213568868793000,8.73279296875,-0.5982887148857117,0.5240381956100464,-0.5055851340293884
1789213568878826200,8.742826171875,-0.5366940498352051,0.5665369033813477,-0.402835875749588
1789213568888858000,8.752858154296876,-0.5273730158805847,0.6394521594047546,-0.37080204486846924
1789213568898891000,8.76289111328125,-0.5769280195236206,0.6975090503692627,-0.4788840413093567
1789213568908923000,8.7729228515625,-0.6388121843338013,0.724533200263977,-0.6267086267471313
1789213568918955000,8.782955078125,-0.6842041611671448,0.7188438773155212,-0.7230373024940491
1789213568928988000,8.79298779296875,-0.7978793382644653,0.640553891658783,-0.7531938552856445
1789213568939020000,8.80302001953125,-0.9169389009475708,0.5373175144195557,-0.7732663750648499
1789213568949052200,8.81305224609375,-0.9188217520713806,0.46198439598083496,-0.772051990032196
1789213568959085000,8.8230849609375,-0.8996562957763672,0.4109955132007599,-0.683069109916687
1789213568969117000,8.833116943359375,-0.8953928351402283,0.2976529896259308,-0.4461921453475952
1789213568979149000,8.843149169921874,-0.9311345815658569,0.18778641521930695,-0.14908082783222198
1789213568989182000,8.853181884765625,-1.0113812685012817,0.2914707362651825,0.0687100887298584
1789213568999213800,8.8632138671875,-1.1689692735671997,0.3791470527648926,0.06952475011348724
1789213569009246200,8.87324609375,-1.4197947978973389,0.435599148273468,-0.10657864063978195
1789213569019279000,8.883279052734375,-1.6467225551605225,0.5241771936416626,-0.3959318995475769
1789213569029311000,8.89331103515625,-1.8151488304138184,0.5519518256187439,-0.703986644744873
1789213569039344000,8.90334423828125,-1.8311083316802979,0.04418530315160751,-1.0354598760604858
1789213569049376000,8.9133759765625,-1.7138264179229736,-0.5145570635795593,-1.3008311986923218
1789213569059408000,8.923407958984376,-1.5472105741500854,-0.7992833256721497,-1.5158913135528564
1789213569069441000,8.93344091796875,-1.3794095516204834,-0.980374813079834,-1.6952189207077026
1789213569079473000,8.943472900390624,-1.2480525970458984,-1.0964518785476685,-1.8437831401824951
1789213569089505000,8.953505126953125,-1.151929259300232,-1.0715616941452026,-1.9284676313400269
1789213569099538200,8.9635380859375,-1.1082271337509155,-0.9721280932426453,-1.9331459999084473
1789213569109570000,8.973570068359376,-1.1572431325912476,-0.8086246252059937,-1.893337368965149
1789213569119603000,8.98360302734375,-1.1842116117477417,-0.5915054082870483,-1.817806363105774
1789213569129635000,8.993635009765624,-1.2202156782150269,-0.3730185925960541,-1.7027231454849243
1789213569139667000,9.0036669921875,-1.2053853273391724,-0.20027503371238708,-1.6002154350280762
1789213569149699800,9.013699951171875,-1.1418758630752563,-0.046956323087215424,-1.4729235172271729
1789213569159732200,9.023732177734376,-1.0856258869171143,0.09044680744409561,-1.2934291362762451
1789213569169764000,9.03376416015625,-1.057639479637146,0.11098617315292358,-1.0630215406417847
1789213569179797000,9.043796875,-1.0245167016983032,0.09127558767795563,-0.8306497931480408
1789213569189829000,9.0538291015625,-0.9699304699897766,0.05168263614177704,-0.6957665681838989
1789213569199861000,9.063861083984374,-0.8483179807662964,-0.1472933143377304,-0.5498013496398926
1789213569209894000,9.073893798828125,-0.6385037899017334,-0.40907832980155945,-0.3475662171840668
1789213569219926000,9.083926025390625,-0.4155258238315582,-0.41652530431747437,-0.20653559267520905
1789213569229959000,9.093958984375,-0.22523817420005798,-0.29518264532089233,-0.02093217894434929
1789213569239991000,9.103990966796875,-0.020565729588270187,0.03869892656803131,0.28142181038856506
1789213569250023200,9.114023193359374,0.19652903079986572,0.3953950107097626,0.5430046916007996
1789213569260056000,9.12405615234375,0.37947461009025574,0.5980905890464783,0.648760974407196
1789213569270088000,9.134087890625,0.5709487199783325,0.7115519046783447,0.7512569427490234
1789213569280120000,9.1441201171875,0.804186999797821,0.8173100352287292,0.8609078526496887
1789213569290153000,9.154153076171875,1.0382649898529053,0.8485462069511414,0.8977593183517456
1789213569300185000,9.16418505859375,1.214682936668396,0.8124300241470337,0.9075829386711121
1789213569310218000,9.174218017578125,1.3448145389556885,0.809424638748169,0.9331684708595276
1789213569320250000,9.18425,1.449972152709961,0.8609235286712646,0.9426194429397583
1789213569330282000,9.194281982421876,1.5774515867233276,0.9230700135231018,0.9514422416687012
1789213569340315100,9.204315185546875,1.7092177867889404,0.9081642627716064,0.9494278430938721
1789213569350347000,9.214346923828124,1.8206919431686401,0.864102303981781,0.9182574152946472
1789213569360379000,9.22437890625,1.8972487449645996,0.7290717959403992,0.893622100353241
1789213569370412000,9.234412109375,1.9107333421707153,0.5350205302238464,0.9342315793037415
1789213569380444200,9.244444091796876,1.8801711797714233,0.36217445135116577,1.0108624696731567
1789213569390476000,9.25447607421875,1.8362314701080322,0.19141390919685364,1.064277172088623
1789213569400509200,9.26450927734375,1.8168278932571411,-0.015535283833742142,1.0866740942001343
1789213569410541000,9.274541015625,1.8136579990386963,-0.2311333566904068,1.0985167026519775
1789213569420574000,9.284573974609375,1.8015488386154175,-0.45991140604019165,1.111646056175232
1789213569430606000,9.294606201171876,1.7282629013061523,-0.6801777482032776,1.0900126695632935
1789213569440638000,9.304637939453125,1.5814249515533447,-0.8549966812133789,1.1065943241119385
1789213569450670800,9.3146708984375,1.4078036546707153,-0.9512238502502441,1.1596242189407349
1789213569460703200,9.324703125,1.2678710222244263,-1.0117484331130981,1.1525516510009766
1789213569470735000,9.334735107421874,1.1272372007369995,-1.090877652168274,1.145124077796936
1789213569480768000,9.34476806640625,0.9332835078239441,-1.1204872131347656,1.1459484100341797
1789213569490800000,9.354800048828125,0.7902483344078064,-1.1179428100585938,1.150637149810791
1789213569500832000,9.36483203125,0.6769917607307434,-1.1329326629638672,1.1121275424957275
1789213569510865000,9.374864990234375,0.5683524012565613,-0.9840742349624634,1.0751415491104126
1789213569520897000,9.38489697265625,0.4894282817840576,-0.7515912055969238,1.0027989149093628
1789213569530930000,9.394929931640625,0.42974579334259033,-0.5621932744979858,0.8857854604721069
1789213569540962000,9.404962158203125,0.40229499340057373,-0.4774898588657379,0.7454307675361633
1789213569550993400,9.414993408203125,0.39066949486732483,-0.32875925302505493,0.5883641839027405
1789213569561026300,9.4250263671875,0.31232088804244995,-0.14121411740779877,0.39533481001853943
1789213569571058400,9.435058349609376,0.17689035832881927,0.0823446735739708,0.2217145562171936
1789213569581090600,9.445090576171875,0.08571197837591171,0.22527626156806946,0.10908281058073044
1789213569591123500,9.45512353515625,-0.006943393498659134,0.32345983386039734,-0.0035244273021817207
1789213569601155300,9.4651552734375,-0.08109938353300095,0.3329468071460724,-0.10049039125442505
1789213569611187500,9.4751875,-0.18091411888599396,0.3133624494075775,-0.16826890408992767
1789213569621220400,9.485220458984376,-0.2700541317462921,0.2102632224559784,-0.2376442551612854
1789213569631252200,9.495252197265625,-0.33354654908180237,0.03940226882696152,-0.32495012879371643
1789213569641284400,9.505284423828124,-0.3924354314804077,-0.04246862977743149,-0.42844295501708984
1789213569651317200,9.515317138671875,-0.4436141848564148,0.07076205313205719,-0.5119833946228027
1789213569661349400,9.525349365234375,-0.46914565563201904,0.2367214560508728,-0.5885511636734009
1789213569671382500,9.535382568359376,-0.46957680583000183,0.37481382489204407,-0.6642054319381714
1789213569681414400,9.545414306640625,-0.4985448122024536,0.4317189157009125,-0.7333632111549377
1789213569691446300,9.5554462890625,-0.5599749088287354,0.47870373725891113,-0.8164359927177429
1789213569701479400,9.5654794921875,-0.620533287525177,0.530486524105072,-0.8846113085746765
1789213569711511300,9.57551123046875,-0.6812925338745117,0.5371809005737305,-0.8888683319091797
1789213569721543400,9.58554345703125,-0.7312960624694824,0.4080372750759125,-0.8469555377960205
1789213569731576300,9.595576416015625,-0.7256019115447998,0.3140687048435211,-0.7498340606689453
1789213569741608400,9.6056083984375,-0.6856358647346497,0.2382754236459732,-0.575027346611023
1789213569751640300,9.615640380859375,-0.7073134779930115,0.2142864614725113,-0.44876182079315186
1789213569761673500,9.625673583984375,-0.753304123878479,0.2748779058456421,-0.3732622563838959
1789213569771705300,9.635705322265625,-0.8229979872703552,0.37622982263565063,-0.33548131585121155
1789213569781738200,9.64573828125,-0.9146464467048645,0.3725607991218567,-0.33638253808021545
1789213569791770400,9.655770263671876,-1.002389907836914,0.4550119936466217,-0.4187203049659729
1789213569801802500,9.665802490234375,-1.0799317359924316,0.5603421330451965,-0.5049452185630798
1789213569811835400,9.67583544921875,-1.1901576519012451,0.5524149537086487,-0.5811733603477478
1789213569821867500,9.685867431640625,-1.3162013292312622,0.5105117559432983,-0.634346067905426
1789213569831899400,9.6958994140625,-1.3722251653671265,0.454393595457077,-0.7596265077590942
1789213569841932300,9.705932373046876,-1.31778085231781,0.32329684495925903,-1.0016969442367554
1789213569851964400,9.71596435546875,-1.2551286220550537,0.07665242999792099,-1.2384223937988281
1789213569861996300,9.725996337890624,-1.251883864402771,-0.1655263751745224,-1.3744808435440063
1789213569872029200,9.736029296875,-1.309700846672058,-0.2406642735004425,-1.416656494140625
1789213569882061600,9.7460615234375,-1.3738592863082886,-0.2864144444465637,-1.4011234045028687
1789213569892094500,9.756094482421876,-1.437116265296936,-0.264533132314682,-1.3525763750076294
1789213569902126300,9.766126220703125,-1.4017729759216309,-0.2354966700077057,-1.2936952114105225
1789213569912158500,9.776158447265624,-1.3226439952850342,-0.227739155292511,-1.2722264528274536
1789213569922191400,9.78619140625,-1.2155524492263794,-0.3272036910057068,-1.3198384046554565
1789213569932223200,9.79622314453125,-1.0962008237838745,-0.4567502439022064,-1.3680517673492432
1789213569942255600,9.806255615234376,-1.0172321796417236,-0.5196016430854797,-1.3761019706726074
1789213569952288500,9.81628857421875,-1.0146424770355225,-0.47527703642845154,-1.2834450006484985
1789213569962320400,9.8263203125,-1.0516269207000732,-0.3141385018825531,-1.1233959197998047
1789213569972352500,9.8363525390625,-1.0606987476348877,-0.27913522720336914,-0.9505304098129272
1789213569982385400,9.846385498046875,-1.020340085029602,-0.3955438733100891,-0.7225102782249451
1789213569992417300,9.856417236328125,-0.8984400033950806,-0.4914320409297943,-0.4984414875507355
1789213570002449400,9.866449462890625,-0.7084966897964478,-0.45193737745285034,-0.3330541253089905
1789213570012482300,9.876482421875,-0.48101428151130676,-0.32167282700538635,-0.2337413877248764
1789213570022514400,9.886514404296875,-0.34201139211654663,-0.2813693583011627,-0.1328568458557129
1789213570032547600,9.896547607421875,-0.23291687667369843,-0.22683341801166534,0.1257334202528
1789213570042579500,9.906579345703125,-0.05450611934065819,-0.02906360849738121,0.32044219970703125
1789213570052611300,9.916611328125,0.23467110097408295,0.14431563019752502,0.4242897629737854
1789213570062644500,9.92664453125,0.5176143646240234,0.26901841163635254,0.5399577617645264
1789213570072676400,9.93667626953125,0.7315048575401306,0.4410809874534607,0.6786719560623169
1789213570082708500,9.94670849609375,0.9414849877357483,0.6546103358268738,0.7930504679679871
1789213570092741400,9.956741455078125,1.1691827774047852,0.8296998143196106,0.748081386089325
1789213570102773500,9.9667734375,1.380486249923706,0.8689907789230347,0.6590356826782227
1789213570112805400,9.976805419921876,1.573115348815918,0.8111429214477539,0.6461374759674072
1789213570122838500,9.986838623046875,1.717162013053894,0.7730045914649963,0.6094433665275574
1789213570132870400,9.996870361328124,1.788055419921875,0.6369881629943848,0.6151095032691956
1789213570142903300,10.0069033203125,1.8260009288787842,0.5190932154655457,0.6639577746391296
1789213570152935400,10.016935302734375,1.8682072162628174,0.46380868554115295,0.7131319642066956
1789213570162967600,10.026967529296876,1.9196182489395142,0.35961437225341797,0.7739540338516235
1789213570173000400,10.03700048828125,1.9680755138397217,0.22824355959892273,0.8446044921875
1789213570183032600,10.047032470703124,2.008878469467163,0.06763444095849991,0.9000051617622375
1789213570193064400,10.057064453125,2.0314671993255615,-0.1700071543455124,0.9400375485420227
1789213570203097300,10.067097412109375,2.028681516647339,-0.48215731978416443,0.9763838052749634
1789213570213129200,10.077129150390626,1.9672960042953491,-0.7554916739463806,1.008554220199585
1789213570223161300,10.087161376953125,1.8178657293319702,-0.962885856628418,1.0322703123092651
1789213570233194200,10.0971943359375,1.584403157234192,-1.0198479890823364,1.1393351554870605
1789213570243226400,10.107226318359375,1.3672047853469849,-1.0211118459701538,1.1980373859405518
1789213570253258500,10.117258544921874,1.1783899068832397,-0.9614032506942749,1.2712713479995728
1789213570263291400,10.12729150390625,0.9750972390174866,-0.825101375579834,1.3676069974899292
1789213570273323300,10.1373232421875,0.8104310631752014,-0.7934046983718872,1.433438777923584
1789213570283356400,10.1473564453125,0.7182542681694031,-0.82756108045578,1.4715861082077026
1789213570293388300,10.15738818359375,0.6370992064476013,-0.8663638234138489,1.50660240650177
1789213570303420400,10.16742041015625,0.6177241802215576,-0.8632377982139587,1.4872169494628906
1789213570313453300,10.177453369140625,0.6511700749397278,-0.7463911175727844,1.3593751192092896
1789213570323485400,10.1874853515625,0.6147534251213074,-0.7240277528762817,1.1253818273544312
1789213570333517300,10.197517333984376,0.49271541833877563,-0.6350315809249878,0.871959388256073
1789213570343550500,10.207550537109375,0.3229426443576813,-0.41553089022636414,0.599980890750885
1789213570353582300,10.217582275390624,0.11205276846885681,-0.09642241150140762,0.40492433309555054
1789213570363614200,10.2276142578125,-0.10891982913017273,0.1773127317428589,0.35073140263557434
1789213570373647400,10.2376474609375,-0.21076469123363495,0.4570077657699585,0.37477973103523254
1789213570383679500,10.247679443359376,-0.24631284177303314,0.559181272983551,0.2968393862247467
1789213570393711400,10.25771142578125,-0.26662343740463257,0.3959449529647827,0.10942503064870834
1789213570403744500,10.26774462890625,-0.3184448182582855,0.1606471985578537,-0.126139298081398
1789213570413776400,10.2777763671875,-0.4253731369972229,0.019161710515618324,-0.325806587934494
1789213570423809300,10.287809326171875,-0.5052778124809265,0.02377723529934883,-0.42173445224761963
1789213570433841400,10.29784130859375,-0.5360096096992493,0.083497554063797,-0.453011155128479
1789213570443873300,10.307873291015625,-0.5468705296516418,0.19830989837646484,-0.5294318795204163
1789213570453906200,10.31790625,-0.551413893699646,0.25603416562080383,-0.66611248254776
1789213570463938600,10.3279384765625,-0.5318335294723511,0.24975444376468658,-0.8215194344520569
1789213570473970400,10.337970458984374,-0.5277737975120544,0.2306545227766037,-0.9327380657196045
1789213570484003300,10.34800341796875,-0.5609184503555298,0.28703922033309937,-0.9079488515853882
1789213570494035500,10.358035400390625,-0.6332999467849731,0.38435912132263184,-0.787369966506958
1789213570504067300,10.3680673828125,-0.7254496216773987,0.4637058675289154,-0.6798922419548035
1789213570514100200,10.378100341796875,-0.8239330053329468,0.5025265216827393,-0.6913099884986877
1789213570524132600,10.388132568359374,-0.885776162147522,0.48436400294303894,-0.78169184923172
1789213570534164500,10.39816455078125,-0.8792583346366882,0.4810667634010315,-0.7862242460250854
1789213570544197400,10.408197265625,-0.8853055834770203,0.42892420291900635,-0.6887102127075195
1789213570554229500,10.4182294921875,-0.9484808444976807,0.3694976270198822,-0.5383151173591614
1789213570564262700,10.4282626953125,-0.9816781878471375,0.26624739170074463,-0.3962802290916443
1789213570574294500,10.43829443359375,-0.9943660497665405,0.12064572423696518,-0.2607343792915344
1789213570584326400,10.448326416015625,-1.0466268062591553,0.07858642190694809,-0.10538261383771896
1789213570594359600,10.458359619140625,-1.1069202423095703,0.140972301363945,-0.0347803495824337
1789213570604391700,10.4683916015625,-1.1790673732757568,0.3111805319786072,-0.04553233087062836
1789213570614423600,10.478423583984375,-1.2762954235076904,0.38761723041534424,-0.1712718904018402
1789213570624456700,10.488456787109374,-1.4518449306488037,0.36029374599456787,-0.44331884384155273
1789213570634488600,10.498488525390625,-1.5280989408493042,0.27713945508003235,-0.8330104351043701
1789213570644520400,10.5085205078125,-1.4981095790863037,-0.023752467706799507,-1.1834062337875366
1789213570654553600,10.5185537109375,-1.4601012468338013,-0.45197224617004395,-1.4682809114456177
1789213570664585500,10.52858544921875,-1.3930106163024902,-0.6914668679237366,-1.7106807231903076
1789213570674617600,10.53861767578125,-1.2704870700836182,-0.6415634751319885,-1.7885874509811401
1789213570684650800,10.548650634765625,-1.1351021528244019,-0.4337487816810608,-1.694286823272705
1789213570694682600,10.5586826171875,-1.0803091526031494,-0.13374021649360657,-1.541810154914856
1789213570704715500,10.568715576171876,-1.1004767417907715,0.0787384882569313,-1.3932076692581177
1789213570714747600,10.57874755859375,-1.1363849639892578,0.12760695815086365,-1.315118432044983
1789213570724779500,10.588779541015626,-1.1358810663223267,0.024270718917250633,-1.3218626976013184
1789213570734812400,10.5988125,-1.1180192232131958,-0.07388700544834137,-1.2773412466049194
1789213570744844800,10.6088447265625,-1.1418899297714233,-0.14036643505096436,-1.0732216835021973
1789213570754876700,10.618876708984375,-1.2064322233200073,-0.11050280928611755,-0.7503030300140381
1789213570764909600,10.62890966796875,-1.178144931793213,0.03413853049278259,-0.47724246978759766
1789213570774941700,10.638941650390626,-1.0203595161437988,0.006898918654769659,-0.3097788989543915
1789213570784973600,10.6489736328125,-0.8261858224868774,-0.22725924849510193,-0.11669012904167175
1789213570795006500,10.65900634765625,-0.6601829528808594,-0.3005603551864624,0.15555444359779358
1789213570805038600,10.66903857421875,-0.4551600515842438,-0.16965347528457642,0.3940975069999695
1789213570815070700,10.67907080078125,-0.18129362165927887,0.16213564574718475,0.4320387542247772
1789213570825103600,10.689103515625,0.14613217115402222,0.4344491958618164,0.4884091019630432
1789213570835135700,10.6991357421875,0.41691067814826965,0.5890177488327026,0.6248316764831543
1789213570845168600,10.709168701171874,0.6017367243766785,0.7458510398864746,0.740591824054718
1789213570855200500,10.719200439453125,0.7607468962669373,0.9311098456382751,0.714302659034729
1789213570865232600,10.729232666015625,0.9460173845291138,0.9786323308944702,0.6797462701797485
1789213570875265500,10.739265625,1.1759775876998901,0.9269124269485474,0.6126876473426819
1789213570885297700,10.749297607421875,1.379196286201477,0.8496255874633789,0.521224856376648
1789213570895329800,10.759329833984374,1.5074762105941772,0.8226829171180725,0.48738935589790344
1789213570905362700,10.76936279296875,1.5778383016586304,0.8511220216751099,0.5045912861824036
1789213570915394600,10.77939453125,1.650346040725708,0.8342311978340149,0.5134840607643127
1789213570925426700,10.7894267578125,1.727164626121521,0.7302704453468323,0.47574231028556824
1789213570935459600,10.79945947265625,1.8126475811004639,0.5957033038139343,0.44028788805007935
1789213570945491500,10.809491455078126,1.8960473537445068,0.4449138045310974,0.4399922788143158
1789213570955524600,10.819524658203125,1.978070855140686,0.23014718294143677,0.44610610604286194
1789213570965556700,10.829556640625,2.0446817874908447,0.015361911617219448,0.4441593289375305
1789213570975588600,10.839588623046875,2.0872385501861572,-0.21747879683971405,0.45310595631599426
1789213570985621800,10.849621826171875,2.1094021797180176,-0.4482265114784241,0.4986092746257782
1789213570995653600,10.859653564453126,2.102816343307495,-0.6787582635879517,0.5653813481330872
1789213571005685500,10.869685546875,2.0351126194000244,-0.8842357993125916,0.6382947564125061
1789213571015718700,10.87971875,1.8702365159988403,-1.0461910963058472,0.6810024976730347
1789213571025750500,10.88975048828125,1.6594377756118774,-1.1454132795333862,0.7316081523895264
1789213571035782700,10.89978271484375,1.4479763507843018,-0.9897657036781311,0.8524424433708191
1789213571045815800,10.90981591796875,1.3090161085128784,-0.9737315773963928,0.902138888835907
1789213571055847700,10.91984765625,1.1999473571777344,-0.9758778214454651,0.9303209781646729
1789213571065879600,10.929879638671874,1.073669672012329,-0.9619433879852295,0.9828497171401978
1789213571075912700,10.93991259765625,0.8971768617630005,-0.931870698928833,1.0575023889541626
1789213571085944600,10.949944580078125,0.7576064467430115,-0.8572862148284912,1.1078811883926392
1789213571095977500,10.9599775390625,0.6410271525382996,-0.7204686999320984,1.1307661533355713
1789213571106009600,10.970009521484375,0.5591698288917542,-0.5259402394294739,1.1056627035140991
1789213571116041700,10.980041748046874,0.4509136378765106,-0.5636399388313293,0.9847938418388367
1789213571126074600,10.99007470703125,0.34623783826828003,-0.7495903372764587,0.8010993599891663
1789213571136106500,11.0001064453125,0.32196685671806335,-0.7362819910049438,0.6886138319969177
1789213571146138600,11.010138671875,0.2920486330986023,-0.6054369211196899,0.6102508306503296
1789213571156171500,11.020171630859375,0.2056136131286621,-0.39749038219451904,0.5389463305473328
1789213571166203400,11.030203369140626,0.08400595188140869,-0.1238846629858017,0.4407201409339905
1789213571176235800,11.04023583984375,0.013648434542119503,0.038841672241687775,0.26540425419807434
1789213571186268700,11.0502685546875,-0.07159535586833954,0.012032161466777325,0.07882770150899887
1789213571196300500,11.060300537109375,-0.13470028340816498,-0.03620567545294762,-0.03725096583366394
1789213571206332700,11.070332763671875,-0.21756668388843536,-0.02756105363368988,-0.12456003576517105
1789213571216365600,11.080365478515626,-0.3046901226043701,-0.03569381684064865,-0.26990097761154175
1789213571226397400,11.0903974609375,-0.36950987577438354,-0.008254467509686947,-0.4472310245037079
1789213571236429600,11.1004296875,-0.4119036793708801,0.05439959093928337,-0.6004517674446106
1789213571246462500,11.11046240234375,-0.47266608476638794,0.10696027427911758,-0.6700713038444519
1789213571256494600,11.12049462890625,-0.5457922220230103,0.24894244968891144,-0.6770243048667908
1789213571266527700,11.13052783203125,-0.594761073589325,0.37281352281570435,-0.6809319257736206
1789213571276559600,11.1405595703125,-0.6119837760925293,0.36798813939094543,-0.7145008444786072
1789213571286591500,11.150591552734374,-0.5914124250411987,0.289609432220459,-0.7609359622001648
1789213571296624600,11.160624755859375,-0.517421543598175,0.23057249188423157,-0.7814971804618835
1789213571306656500,11.170656494140625,-0.42892393469810486,0.21867801249027252,-0.7419010400772095
1789213571316688600,11.180688720703126,-0.3669804036617279,0.20297308266162872,-0.6582500338554382
1789213571326721800,11.1907216796875,-0.35263848304748535,0.1329471319913864,-0.6098122000694275
1789213571336753700,11.200753662109374,-0.3935805857181549,0.10578102618455887,-0.5822948217391968
1789213571346785500,11.21078564453125,-0.48358798027038574,0.25775137543678284,-0.4696931838989258
1789213571356818700,11.220818603515625,-0.6426335573196411,0.5334655046463013,-0.34002068638801575
1789213571366850600,11.2308505859375,-0.8198549151420593,0.6824579238891602,-0.3189612030982971
1789213571376882400,11.24088232421875,-0.9484778642654419,0.5205457210540771,-0.4958459734916687
1789213571386915600,11.25091552734375,-0.939268171787262,0.3052707016468048,-0.6778163313865662
1789213571396947700,11.26094775390625,-0.8982173800468445,0.20628446340560913,-0.7042937278747559
1789213571406980600,11.270980712890625,-0.9653050899505615,0.1493775099515915,-0.6102644205093384
1789213571417012700,11.2810126953125,-1.0149586200714111,0.18647852540016174,-0.4747063219547272
1789213571427044600,11.291044677734375,-1.1052964925765991,0.0801909789443016,-0.408330500125885
1789213571437077500,11.301077392578126,-1.1956381797790527,-0.1752770096063614,-0.36045539379119873
1789213571447109600,11.311109619140625,-1.292540431022644,-0.40194210410118103,-0.35467472672462463
1789213571457141800,11.321141845703124,-1.375924825668335,-0.4218391180038452,-0.4618041217327118
1789213571467174700,11.331174560546875,-1.4482296705245972,-0.33712875843048096,-0.7258999347686768
1789213571477206800,11.341206787109375,-1.459994912147522,-0.3039063513278961,-1.0600627660751343
1789213571487238700,11.35123876953125,-1.3551816940307617,-0.39498966932296753,-1.3338910341262817
1789213571497271600,11.361271484375,-1.2142975330352783,-0.4716743230819702,-1.4913963079452515
1789213571507303700,11.3713037109375,-1.0858615636825562,-0.37890416383743286,-1.4968065023422241
1789213571517335600,11.38133544921875,-1.0083364248275757,-0.17907094955444336,-1.3724994659423828
1789213571527368400,11.391368408203125,-0.9959431290626526,0.04027658328413963,-1.2487224340438843
1789213571537400800,11.40140087890625,-1.023985743522644,0.1349801868200302,-1.1919389963150024
1789213571547433700,11.411433837890625,-1.0555044412612915,0.07731156796216965,-1.1803725957870483
1789213571557466000,11.421466064453124,-1.1042464971542358,0.04482446238398552,-1.1853806972503662
1789213571567498200,11.431498291015625,-1.1476317644119263,0.09438616037368774,-1.111953854560852
1789213571577531100,11.44153125,-1.1447094678878784,0.1878652423620224,-0.9137356281280518
1789213571587563000,11.45156298828125,-1.1003414392471313,0.2771727442741394,-0.6970842480659485
1789213571597595100,11.46159521484375,-1.0443661212921143,0.13396897912025452,-0.5681353211402893
1789213571607628000,11.4716279296875,-1.0104811191558838,-0.1958611160516739,-0.39801475405693054
1789213571617660200,11.48166015625,-0.9012848138809204,-0.46164166927337646,-0.1257704496383667
1789213571627692300,11.4916923828125,-0.7686029076576233,-0.505464494228363,0.03356914594769478
1789213571637725200,11.50172509765625,-0.6697056293487549,-0.31890660524368286,0.08974107354879379
1789213571647757000,11.511757080078125,-0.5322854518890381,-0.21655680239200592,0.18664231896400452
1789213571657790200,11.521790283203124,-0.3491300344467163,-0.18688945472240448,0.32017266750335693
1789213571667822000,11.531822021484375,-0.21173222362995148,-0.12224681675434113,0.4100072383880615
1789213571677854000,11.54185400390625,-0.09510547667741776,0.0014287859667092562,0.5673278570175171
1789213571687887000,11.55188720703125,0.06498406082391739,0.24223260581493378,0.7089473009109497
1789213571697919200,11.561919189453125,0.24491947889328003,0.40565696358680725,0.8440899848937988
1789213571707951000,11.571951171875,0.39065083861351013,0.6078462600708008,0.91932612657547
1789213571717984300,11.581984375,0.5141730308532715,0.7960699796676636,0.9581928253173828
1789213571728016100,11.59201611328125,0.6635167002677917,0.8645949959754944,0.9868947863578796
1789213571738048000,11.602048095703125,0.807026207447052,0.8570379614830017,0.9453856945037842
1789213571748081200,11.6120810546875,0.9251624345779419,0.7851158380508423,0.9268660545349121
1789213571758113000,11.622113037109376,1.017713189125061,0.7935724854469299,0.9407821297645569
1789213571768145200,11.632145263671875,1.1062076091766357,0.8167547583580017,0.9431901574134827
1789213571778178300,11.64217822265625,1.2158113718032837,0.8227388858795166,0.9318909049034119
1789213571788210200,11.652210205078125,1.347831130027771,0.8020508885383606,0.8944628834724426
1789213571798242000,11.662241943359374,1.4945130348205566,0.8085982799530029,0.8514789342880249
1789213571808275200,11.672275146484376,1.6347683668136597,0.7179434895515442,0.8208032846450806
1789213571818307000,11.68230712890625,1.7503879070281982,0.5734019875526428,0.7753873467445374
1789213571828340000,11.692340087890624,1.848050594329834,0.3810719847679138,0.7188814282417297
1789213571838372400,11.702372314453125,1.8993715047836304,0.18812862038612366,0.6995285153388977
1789213571848404200,11.712404296875,1.9073485136032104,0.07440898567438126,0.707270622253418
1789213571858437000,11.72243701171875,1.9130500555038452,-0.018250908702611923,0.6713525652885437
1789213571868469200,11.73246923828125,1.9035700559616089,-0.18712222576141357,0.6346461772918701
1789213571878501000,11.742501220703126,1.8552134037017822,-0.36914607882499695,0.6184909343719482
1789213571888534000,11.752533935546875,1.7087957859039307,-0.5767946243286133,0.6116908192634583
1789213571898566100,11.762566162109374,1.542026400566101,-0.7786587476730347,0.7081049680709839
1789213571908598300,11.772598388671875,1.4144200086593628,-0.898100733757019,0.7607985138893127
1789213571918631200,11.782631103515625,1.2905585765838623,-0.9270660877227783,0.8268737196922302
1789213571928663300,11.792663330078126,1.1304399967193604,-0.8707253336906433,0.8958253264427185
1789213571938695200,11.802695068359375,0.9588088393211365,-0.8413479924201965,0.9405315518379211
1789213571948728000,11.81272802734375,0.8618223667144775,-0.8779193162918091,0.9721043705940247
1789213571958760200,11.82276025390625,0.7471911311149597,-0.8521292209625244,0.9812174439430237
1789213571968792300,11.832792236328125,0.5978708863258362,-0.8122899532318115,1.0247575044631958
1789213571978825200,11.8428251953125,0.45690417289733887,-0.6928301453590393,1.1009366512298584
1789213571988857000,11.852857177734375,0.38277241587638855,-0.4930746853351593,1.1217836141586304
1789213571998889200,11.86288916015625,0.33340805768966675,-0.5002990365028381,1.0635653734207153
1789213572008922000,11.872922119140625,0.2815496623516083,-0.5256614089012146,0.9539059400558472
1789213572018954000,11.8829541015625,0.2303040474653244,-0.49163150787353516,0.8214213848114014
1789213572028987100,11.892987060546876,0.14916658401489258,-0.30784836411476135,0.684853732585907
1789213572039019000,11.90301904296875,0.055090948939323425,-0.13450480997562408,0.6109049320220947
1789213572049051100,11.913051025390626,-0.014369884505867958,-0.09079807996749878,0.5897807478904724
1789213572059084300,11.923084228515625,-0.08502887189388275,-0.04848684370517731,0.5405293107032776
1789213572069116200,11.9331162109375,-0.12146491557359695,-0.041421208530664444,0.43129226565361023
1789213572079148000,11.94314794921875,-0.16181500256061554,-0.09692814201116562,0.2630572021007538
1789213572089181200,11.95318115234375,-0.18202945590019226,-0.12365296483039856,0.06812259554862976
1789213572099213000,11.963213134765626,-0.2229611724615097,-0.14732927083969116,-0.13201050460338593
1789213572109245200,11.9732451171875,-0.2801629602909088,-0.14914846420288086,-0.3094835579395294
1789213572119278000,11.983278076171874,-0.35934165120124817,-0.05717087909579277,-0.46738263964653015
1789213572129310200,11.993310302734375,-0.42338427901268005,0.1336885541677475,-0.57711261510849
1789213572139342000,12.003342041015625,-0.4458347260951996,0.36630287766456604,-0.6533488035202026
1789213572149375200,12.013375244140626,-0.44792479276657104,0.5457671880722046,-0.7044327259063721
1789213572159407000,12.023406982421875,-0.4371964931488037,0.6360092163085938,-0.7623935341835022
1789213572169439000,12.03343896484375,-0.4139399230480194,0.568304717540741,-0.8742574453353882
1789213572179472100,12.04347216796875,-0.3533173203468323,0.39704403281211853,-0.9940370917320251
1789213572189504300,12.053504150390625,-0.26349076628685,0.28063327074050903,-0.9977378249168396
1789213572199536000,12.0635361328125,-0.20067930221557617,0.25698333978652954,-0.9036539793014526
1789213572209569300,12.0735693359375,-0.2028665542602539,0.28183913230895996,-0.8217598795890808
1789213572219601200,12.08360107421875,-0.29296475648880005,0.34761548042297363,-0.7763066291809082
1789213572229634000,12.093634033203125,-0.426636278629303,0.4357789158821106,-0.7781676650047302
1789213572239666200,12.103666259765625,-0.5506972074508667,0.4331335723400116,-0.8413658142089844
1789213572249698000,12.113697998046876,-0.6381005644798279,0.29303106665611267,-0.914539635181427
1789213572259731000,12.12373095703125,-0.6584157347679138,0.25869813561439514,-0.8146282434463501
1789213572269763300,12.133763427734374,-0.6270274519920349,0.3209415376186371,-0.6323670744895935
1789213572279795200,12.143795166015625,-0.6077850461006165,0.1934451013803482,-0.48206835985183716
1789213572289828000,12.153828125,-0.6372345089912415,0.11916633695363998,-0.27823323011398315
1789213572299860200,12.163860107421876,-0.75211501121521,0.21279163658618927,-0.13840128481388092
1789213572309892000,12.17389208984375,-0.8827345371246338,0.3136868178844452,-0.1508864462375641
1789213572319925000,12.183925048828126,-0.9838321805000305,0.33785954117774963,-0.2776947319507599
1789213572329957000,12.19395703125,-1.0575764179229736,0.2232980728149414,-0.3493604063987732
1789213572339989200,12.2039892578125,-1.1246143579483032,-0.06773803383111954,-0.4448128938674927
1789213572350022100,12.214022216796875,-1.16887629032135,-0.15188753604888916,-0.7014142870903015
1789213572360054300,12.22405419921875,-1.132652759552002,-0.12797553837299347,-0.9854915738105774
1789213572370086100,12.234086181640626,-1.0519152879714966,-0.19373884797096252,-1.2092317342758179
1789213572380119000,12.244119140625,-0.9740011096000671,-0.29250243306159973,-1.4230886697769165
1789213572390151200,12.254151123046874,-0.9235842823982239,-0.3856393098831177,-1.579764723777771
1789213572400183300,12.264183349609375,-0.900499165058136,-0.3456535339355469,-1.6034173965454102
1789213572410216200,12.27421630859375,-0.9259832501411438,-0.24388989806175232,-1.5214152336120605
1789213572420248000,12.284248046875,-0.9919534921646118,-0.13914403319358826,-1.4305894374847412
1789213572430281200,12.29428125,-1.0383774042129517,-0.1150863766670227,-1.3912444114685059
1789213572440313000,12.30431298828125,-1.0699249505996704,-0.25343945622444153,-1.3970767259597778
1789213572450345000,12.314344970703125,-1.0992910861968994,-0.38861218094825745,-1.3952088356018066
1789213572460378000,12.324378173828125,-1.0801475048065186,-0.5097447633743286,-1.3852483034133911
1789213572470410000,12.334409912109376,-1.080190896987915,-0.580184817314148,-1.3159973621368408
1789213572480442000,12.344442138671875,-1.0984426736831665,-0.5408203601837158,-1.159683346748352
1789213572490475300,12.354475341796874,-1.0947871208190918,-0.42067453265190125,-0.9662134647369385
1789213572500507100,12.364507080078125,-1.0962460041046143,-0.3219181299209595,-0.7321799397468567
1789213572510539000,12.3745390625,-1.0760036706924438,-0.20395952463150024,-0.45716968178749084
1789213572520572200,12.384572265625,-0.9660643339157104,-0.07019666582345963,-0.24380306899547577
1789213572530604000,12.39460400390625,-0.8616178035736084,-0.08043652027845383,-0.0041398839093744755
1789213572540636200,12.40463623046875,-0.8124657273292542,-0.13412824273109436,0.44070494174957275
1789213572550669300,12.41466943359375,-0.7059445977210999,0.2039797604084015,0.7062628865242004
1789213572560701400,12.424701416015624,-0.48190778493881226,0.4939686954021454,0.5707569718360901
1789213572570733300,12.4347333984375,-0.26333361864089966,0.37956249713897705,0.5858698487281799
1789213572580766200,12.44476611328125,-0.20016345381736755,0.25826695561408997,0.8157911896705627
1789213572590798300,12.45479833984375,-0.14628131687641144,0.31735745072364807,1.0116899013519287
1789213572600830200,12.464830322265625,0.02768462523818016,0.5104491710662842,1.1109496355056763
1789213572610863000,12.474863037109374,0.2795054018497467,0.7164292335510254,1.110668659210205
1789213572620895500,12.4848955078125,0.5035741925239563,0.7813882231712341,1.0937117338180542
1789213572630928400,12.494928466796875,0.6912897825241089,0.873140811920166,1.1123390197753906
1789213572640960300,12.504960205078126,0.8887511491775513,0.9899712800979614,1.0735561847686768
1789213572650992000,12.5149921875,1.0623948574066162,0.9747811555862427,1.0031880140304565
1789213572661025300,12.525025390625,1.2000718116760254,0.8942785859107971,0.9304954409599304
1789213572671057200,12.53505712890625,1.3271093368530273,0.8436678647994995,0.8628234267234802
1789213572681089300,12.54508935546875,1.4556773900985718,0.8133216500282288,0.8302945494651794
1789213572691122200,12.5551220703125,1.587598443031311,0.8055636286735535,0.7808289527893066
1789213572701154300,12.565154296875,1.6686803102493286,0.7628520727157593,0.7069334387779236
