time,seconds_elapsed,z,y,x
1789213560238507000,0.102507080078125,-0.09189127385616302,-0.8261667490005493,-0.023605694994330406
1789213560248539100,0.1125390625,-0.037359945476055145,-0.9649471044540405,-0.14874887466430664
1789213560258571300,0.1225712890625,0.0030473978258669376,-1.298385500907898,-0.349962443113327
1789213560268603100,0.13260302734375,0.09182717651128769,-1.5380845069885254,-0.49140632152557373
1789213560278636300,0.14263623046875,0.17588266730308533,-1.2180066108703613,-0.4646889567375183
1789213560288668200,0.152668212890625,0.1799897700548172,-0.540722668170929,-0.31295907497406006
1789213560298700000,0.162699951171875,0.10878749936819077,-0.0867048054933548,-0.141575887799263
1789213560308732200,0.172732177734375,-0.026606585830450058,0.09439211338758469,-0.02985215187072754
1789213560318764300,0.182764404296875,-0.11115475744009018,0.20987476408481598,0.061924904584884644
1789213560328796200,0.192796142578125,-0.1773727983236313,0.23002958297729492,0.08306939154863358
1789213560338829000,0.2028291015625,-0.27596327662467957,0.17039315402507782,-0.025402221828699112
1789213560348861200,0.212861083984375,-0.3224070370197296,-0.05884101614356041,-0.19957877695560455
1789213560358893000,0.22289306640625,-0.26639729738235474,-0.41524866223335266,-0.3518415689468384
1789213560368925200,0.23292529296875,-0.16425058245658875,-0.6071202158927917,-0.4639778435230255
1789213560378958300,0.242958251953125,-0.0827658474445343,-0.5146209001541138,-0.5358815789222717
1789213560388990200,0.252990234375,-0.03696419671177864,-0.263534277677536,-0.6066368222236633
1789213560399022000,0.26302197265625,-0.003458698745816946,-0.007939284667372704,-0.7545085549354553
1789213560409054000,0.273053955078125,0.08437429368495941,0.20243069529533386,-0.9556015729904175
1789213560419086300,0.28308642578125,0.1642070710659027,0.23242081701755524,-1.1733636856079102
1789213560429119200,0.293119140625,0.19404761493206024,0.05547917261719704,-1.3350399732589722
1789213560439151000,0.303151123046875,0.14739249646663666,-0.04859209805727005,-1.429341435432434
1789213560449183200,0.313183349609375,0.10602950304746628,-0.09627839922904968,-1.4398564100265503
1789213560459215000,0.323215087890625,0.2389364242553711,-0.15500909090042114,-1.1958426237106323
1789213560469247000,0.3332470703125,0.41149935126304626,0.06294076144695282,-0.8360443711280823
1789213560479280000,0.343280029296875,0.33506715297698975,0.24806347489356995,-0.5606095790863037
1789213560489312300,0.353312255859375,0.2211751490831375,0.15302035212516785,-0.3300822079181671
1789213560499344100,0.36334423828125,0.1496756672859192,0.004823158495128155,-0.1806759536266327
1789213560509376000,0.3733759765625,0.25067558884620667,0.14136053621768951,-0.22321178019046783
1789213560519408000,0.383408203125,0.5793189406394958,0.3884294331073761,-0.5089125037193298
1789213560529441000,0.39344091796875,0.955608606338501,0.4609344005584717,-0.8349850177764893
1789213560539473200,0.40347314453125,1.2866443395614624,0.3136488199234009,-1.1126387119293213
1789213560549506000,0.413506103515625,1.3973804712295532,-0.10705062001943588,-1.2335362434387207
1789213560559538200,0.4235380859375,1.2755560874938965,-0.5730097889900208,-1.176556944847107
1789213560569571000,0.433571044921875,1.1267406940460205,-0.7599624991416931,-0.889255166053772
1789213560579603000,0.44360302734375,0.9810665249824524,-0.6355452537536621,-0.34516045451164246
1789213560589635000,0.453635009765625,0.8027335405349731,-0.2791054844856262,0.310608834028244
1789213560599667200,0.463667236328125,0.6354444026947021,0.1515638828277588,0.9644103646278381
1789213560609699000,0.473698974609375,0.5277425646781921,0.38958126306533813,1.5222792625427246
1789213560619732200,0.483732177734375,0.45255911350250244,-0.07038791477680206,1.754623532295227
1789213560629764000,0.49376416015625,0.2808645963668823,-0.7530335783958435,1.5107693672180176
1789213560639796000,0.5037958984375,-0.09682357311248779,-0.788037121295929,1.1904600858688354
1789213560649827800,0.513827880859375,-0.5375420451164246,-0.704194188117981,0.9298679232597351
1789213560659861000,0.523861083984375,-0.8542035818099976,-0.7825829982757568,0.6908745169639587
1789213560669893000,0.53389306640625,-1.0614877939224243,-0.8718113899230957,0.5209683179855347
1789213560679925000,0.543925048828125,-1.1490283012390137,-0.7984660863876343,0.43600043654441833
1789213560689957000,0.55395703125,-1.0737884044647217,-0.6456243395805359,0.4962485730648041
1789213560699989000,0.563989013671875,-0.9175077676773071,-0.21376851201057434,0.5738109946250916
1789213560710022000,0.57402197265625,-0.7942662239074707,0.23992982506752014,0.5121740102767944
1789213560720054000,0.584053955078125,-0.7261609435081482,0.4753143787384033,0.3259173035621643
1789213560730086100,0.594086181640625,-0.7086479663848877,0.5479850172996521,0.08467695862054825
1789213560740118000,0.604117919921875,-0.710354208946228,0.5322550535202026,-0.06850354373455048
1789213560750150000,0.61414990234375,-0.7252192497253418,0.44756317138671875,-0.11234551668167114
1789213560760183000,0.62418310546875,-0.7464116215705872,0.24509528279304504,-0.05943356454372406
1789213560770215000,0.63421484375,-0.7438681125640869,0.06264201551675797,0.03699875995516777
1789213560780247000,0.6442470703125,-0.6365634799003601,0.04282943159341812,0.07481057941913605
1789213560790279000,0.65427880859375,-0.4952680766582489,0.02537253499031067,0.05065736919641495
1789213560800312000,0.66431201171875,-0.32770490646362305,0.07739712297916412,0.03850296884775162
1789213560810344000,0.674343994140625,-0.21028734743595123,0.27816256880760193,0.12990598380565643
1789213560820375800,0.684375732421875,-0.09859862178564072,0.5034039616584778,0.2946195900440216
1789213560830408200,0.694408203125,0.012924231588840485,0.5959435105323792,0.41380977630615234
1789213560840440000,0.704440185546875,0.060636360198259354,0.5233979225158691,0.4024988114833832
1789213560850473000,0.714472900390625,0.02252275124192238,0.542210578918457,0.27695006132125854
1789213560860505000,0.724505126953125,-0.06915603578090668,0.6177937388420105,0.13496337831020355
1789213560870537000,0.734536865234375,-0.13850057125091553,0.6300066113471985,0.028863631188869476
1789213560880569000,0.744569091796875,-0.18415753543376923,0.5327117443084717,0.003920729737728834
1789213560890602000,0.75460205078125,-0.19105850160121918,0.3955417275428772,0.07875539362430573
1789213560900634000,0.764634033203125,-0.17369575798511505,0.19043782353401184,0.19167742133140564
1789213560910666000,0.774666015625,-0.1809924989938736,0.054948821663856506,0.30690687894821167
1789213560920697900,0.78469775390625,-0.22115856409072876,-0.023100174963474274,0.4004272222518921
1789213560930730000,0.79472998046875,-0.2924864888191223,-0.060591258108615875,0.43528345227241516
1789213560940763000,0.804762939453125,-0.38012951612472534,-0.07852978259325027,0.43339475989341736
1789213560950795000,0.814794921875,-0.456501841545105,-0.10234108567237854,0.42734283208847046
1789213560960827100,0.8248271484375,-0.4860410690307617,-0.11336790025234222,0.40487268567085266
1789213560970859000,0.83485888671875,-0.3871687352657318,-0.027020946145057678,0.330623060464859
1789213560980892000,0.844891845703125,-0.20520184934139252,0.03748267889022827,0.21369268000125885
1789213560990924000,0.854924072265625,-0.10072837024927139,0.01856262981891632,0.07967596501111984
1789213561000956200,0.8649560546875,-0.12012337148189545,-0.026612570509314537,0.018877865746617317
1789213561010988000,0.874988037109375,-0.14948982000350952,-0.06583864241838455,0.013315767981112003
1789213561021021200,0.885021240234375,-0.13330791890621185,-0.05831361562013626,0.07918932288885117
1789213561031053000,0.895052978515625,-0.09403867274522781,-0.07723293453454971,0.17427708208560944
1789213561041085000,0.9050849609375,-0.0490991584956646,-0.08631271868944168,0.2626921534538269
1789213561051117000,0.915116943359375,0.014056137762963772,-0.06640132516622543,0.327350378036499
1789213561061149200,0.925149169921875,0.0472247414290905,-0.17321299016475677,0.32997387647628784
1789213561071182000,0.93518212890625,0.07639113813638687,-0.18725597858428955,0.3284294307231903
1789213561081214000,0.9452138671875,0.10336363315582275,-0.20981243252754211,0.30466070771217346
1789213561091246000,0.95524609375,0.13622397184371948,-0.18198764324188232,0.27177608013153076
1789213561101278000,0.96527783203125,0.17788779735565186,-0.1284719556570053,0.2440989464521408
1789213561111310800,0.975310791015625,0.22547797858715057,-0.1197313517332077,0.2048136591911316
1789213561121343200,0.98534326171875,0.25292345881462097,-0.19794254004955292,0.17175796627998352
1789213561131375000,0.995375,0.2513500452041626,-0.2811388671398163,0.13538716733455658
1789213561141407000,1.005406982421875,0.2972269654273987,-0.31590402126312256,0.05751261115074158
1789213561151440000,1.01543994140625,0.3180089592933655,-0.3132834732532501,-0.09362311661243439
1789213561161472000,1.025471923828125,0.29384610056877136,-0.23385177552700043,-0.20529530942440033
1789213561171504000,1.035504150390625,0.23731020092964172,-0.1427607536315918,-0.26373282074928284
1789213561181536000,1.045535888671875,0.1463257074356079,-0.06513547152280807,-0.2656944990158081
1789213561191568100,1.055568115234375,0.1280151903629303,-0.002929144538938999,-0.20300936698913574
1789213561201601000,1.06560107421875,0.177518829703331,0.07680509984493256,-0.12516836822032928
1789213561211633000,1.0756328125,0.21729029715061188,0.08473194390535355,-0.07324107736349106
1789213561221665000,1.0856650390625,0.22774772346019745,0.05569123476743698,-0.0405193567276001
1789213561231697200,1.095697265625,0.21812815964221954,-0.016483468934893608,-0.027792470529675484
1789213561241730000,1.10572998046875,0.19435572624206543,-0.06642226874828339,-0.004311911761760712
1789213561251762000,1.115761962890625,0.21823890507221222,-0.05952998623251915,0.031080026179552078
1789213561261794000,1.1257939453125,0.1832399070262909,-0.07141673564910889,0.008033297024667263
1789213561271826000,1.135825927734375,0.12817248702049255,0.01563299633562565,0.019978366792201996
1789213561281858800,1.14585888671875,0.08481728285551071,0.07699835300445557,-0.0007617993978783488
1789213561291891200,1.15589111328125,0.04260389134287834,0.12536944448947906,-0.04532146453857422
1789213561301923000,1.165923095703125,0.02371036261320114,0.11964870244264603,-0.09629862755537033
1789213561311955000,1.175954833984375,0.030144590884447098,0.09263584017753601,-0.11343145370483398
1789213561321988000,1.185988037109375,0.09806585311889648,0.08053257316350937,-0.08162558823823929
1789213561332020000,1.19602001953125,0.13581860065460205,0.06562474370002747,-0.03208748996257782
1789213561342052000,1.206052001953125,0.14859457314014435,0.04400625824928284,0.0309162437915802
1789213561352084000,1.216083984375,0.17049455642700195,0.039538539946079254,0.045201703906059265
1789213561362117000,1.2261171875,0.1993642896413803,0.025960948318243027,0.0017373180016875267
1789213561372149000,1.23614892578125,0.18538638949394226,-0.011067407205700874,-0.044643595814704895
1789213561382180900,1.246180908203125,0.2062077820301056,0.05322502553462982,-0.08008813858032227
1789213561392213000,1.256212890625,0.22228215634822845,0.005516156554222107,-0.14526376128196716
1789213561402245000,1.2662451171875,0.19082888960838318,-0.10680346190929413,-0.15216800570487976
1789213561412278000,1.276278076171875,0.21287007629871368,-0.12298999726772308,-0.12402775138616562
1789213561422310100,1.28631005859375,0.2711530923843384,-0.21295690536499023,-0.1347387135028839
1789213561432342000,1.296342041015625,0.3088846206665039,-0.3129355013370514,-0.18880018591880798
1789213561442374000,1.306373779296875,0.34069982171058655,-0.1756514012813568,-0.21319101750850677
1789213561452407000,1.316406982421875,0.3295600116252899,-0.010251611471176147,-0.2810211777687073
1789213561462439200,1.326439208984375,0.2633865773677826,0.12355012446641922,-0.3443426191806793
1789213561472471000,1.336470947265625,0.2121884822845459,0.358419805765152,-0.279886931180954
1789213561482503000,1.3465029296875,0.10575524717569351,0.47804099321365356,-0.12517137825489044
1789213561492536000,1.3565361328125,0.0022372184321284294,0.42790231108665466,0.06610310077667236
1789213561502568000,1.36656787109375,-0.0581025555729866,0.18091782927513123,0.21280811727046967
1789213561512600000,1.37660009765625,-0.09276439249515533,-0.12588471174240112,0.299540638923645
1789213561522632200,1.386632080078125,-0.04467102885246277,-0.3134719729423523,0.33802080154418945
1789213561532665000,1.3966650390625,0.007402464747428894,-0.33900195360183716,0.34366291761398315
1789213561542696000,1.406696044921875,0.05751250311732292,-0.31372109055519104,0.3043661117553711
1789213561552728000,1.41672802734375,0.04055351763963699,-0.26016250252723694,0.22381596267223358
1789213561562760200,1.42676025390625,0.007840843871235847,-0.18499664962291718,0.16868746280670166
1789213561572793000,1.43679296875,-0.026410264894366264,-0.19986894726753235,0.14374633133411407
1789213561582825200,1.4468251953125,-0.01736590452492237,-0.2717074155807495,0.0699530690908432
1789213561592857000,1.456857177734375,-0.026815224438905716,-0.26175588369369507,0.038597919046878815
1789213561602889000,1.466888916015625,-0.07757241278886795,-0.1576739400625229,0.1086832582950592
1789213561612922000,1.476922119140625,-0.15185323357582092,0.04123181849718094,0.24552519619464874
1789213561622954200,1.486954345703125,-0.222489595413208,0.1455952525138855,0.30219244956970215
1789213561632986000,1.496986083984375,-0.22844304144382477,0.07249336689710617,0.2335605025291443
1789213561643018000,1.50701806640625,-0.2099979817867279,-0.09889916330575943,0.15543054044246674
1789213561653051100,1.517051025390625,-0.15228423476219177,-0.205913707613945,0.1424272358417511
1789213561663083000,1.5270830078125,-0.15667392313480377,-0.1838291734457016,0.13876619935035706
1789213561673115100,1.537115234375,-0.19122916460037231,-0.20804357528686523,0.11896070092916489
1789213561683147300,1.547147216796875,-0.24032826721668243,-0.2206411063671112,0.09238474816083908
1789213561693180200,1.55718017578125,-0.2917711138725281,-0.022484349086880684,0.052779462188482285
1789213561703212000,1.5672119140625,-0.3628585934638977,0.09975741058588028,-0.08419650048017502
1789213561713244200,1.577244140625,-0.4074634909629822,0.22015275061130524,-0.18584507703781128
1789213561723276000,1.587276123046875,-0.44513577222824097,0.25932228565216064,-0.23363496363162994
1789213561733309000,1.597308837890625,-0.44612452387809753,0.1715172678232193,-0.2100723683834076
1789213561743341300,1.60734130859375,-0.4040188789367676,-0.0611114501953125,-0.15007081627845764
1789213561753373200,1.617373291015625,-0.32506945729255676,-0.29715695977211,-0.04915226250886917
1789213561763405000,1.627405029296875,-0.21233786642551422,-0.429336816072464,0.07508260011672974
1789213561773438200,1.637438232421875,-0.13374626636505127,-0.5054535865783691,0.19260188937187195
1789213561783470000,1.647469970703125,-0.11107159405946732,-0.4816281497478485,0.3486141264438629
1789213561793502200,1.657502197265625,-0.14490705728530884,-0.502342164516449,0.46510687470436096
1789213561803534000,1.6675341796875,-0.2005452811717987,-0.6355537176132202,0.5541912317276001
1789213561813566200,1.677566162109375,-0.27383363246917725,-0.6328528523445129,0.606899082660675
1789213561823599000,1.68759912109375,-0.3423285484313965,-0.6803692579269409,0.5229341387748718
1789213561833631000,1.697630859375,-0.3165803551673889,-0.5586972236633301,0.4206192195415497
1789213561843663000,1.7076630859375,-0.21617761254310608,-0.4489502012729645,0.3700420558452606
1789213561853696000,1.717696044921875,-0.08878796547651291,-0.4111900329589844,0.4364439845085144
1789213561863728000,1.72772802734375,0.01578824780881405,-0.47361135482788086,0.5172812938690186
1789213561873760300,1.73776025390625,0.08282844722270966,-0.48978692293167114,0.5130975842475891
1789213561883792100,1.747792236328125,0.0903678610920906,-0.5032694339752197,0.3960156738758087
1789213561893825000,1.757824951171875,0.09749335795640945,-0.4334169328212738,0.24128864705562592
1789213561903857000,1.76785693359375,-0.029429441317915916,-0.17439521849155426,0.05571319907903671
1789213561913889300,1.77788916015625,-0.18239139020442963,-0.06798166036605835,-0.09642361104488373
1789213561923921200,1.787921142578125,-0.22760893404483795,0.05795762687921524,-0.20404008030891418
1789213561933954000,1.7979541015625,-0.11689842492341995,0.026310596615076065,-0.2931865155696869
1789213561943986200,1.807986083984375,0.02620626799762249,-0.16932468116283417,-0.2607976794242859
1789213561954018000,1.81801806640625,0.08671611547470093,-0.4492950439453125,-0.04894214868545532
1789213561964050200,1.82805029296875,0.12094306200742722,-0.7191717624664307,0.20430023968219757
1789213561974083000,1.8380830078125,0.14141707122325897,-0.9425075650215149,0.40962353348731995
1789213561984115200,1.848115234375,0.14151853322982788,-1.0473228693008423,0.4785623848438263
1789213561994147000,1.85814697265625,0.17741750180721283,-1.00888192653656,0.4212883710861206
1789213562004179000,1.868178955078125,0.20234788954257965,-0.8410463929176331,0.3746334910392761
1789213562014212000,1.878212158203125,0.20235152542591095,-0.7095569372177124,0.37818020582199097
1789213562024244000,1.888243896484375,0.15296053886413574,-0.6296852827072144,0.2918764650821686
1789213562034276000,1.898276123046875,0.14493350684642792,-0.5535385012626648,0.121637262403965
1789213562044308200,1.90830810546875,0.18572939932346344,-0.4599730968475342,-0.041999608278274536
1789213562054341000,1.918341064453125,0.2157050520181656,-0.4308914840221405,-0.16120658814907074
1789213562064373000,1.928373046875,0.20466437935829163,-0.3688558042049408,-0.16774624586105347
1789213562074405000,1.938405029296875,0.17141397297382355,-0.17974558472633362,-0.12300359457731247
1789213562084437200,1.948437255859375,0.16158929467201233,0.1857261210680008,-0.12513811886310577
1789213562094470100,1.95847021484375,0.15075035393238068,0.5367146134376526,-0.10991358757019043
1789213562104502300,1.968502197265625,0.03649435192346573,0.6308959722518921,0.01716899499297142
1789213562114534100,1.9785341796875,-0.13948146998882294,0.6744058728218079,0.02071179822087288
1789213562124567000,1.988567138671875,-0.2176516354084015,0.8196898698806763,-0.16178877651691437
1789213562134599200,1.99859912109375,-0.2317839413881302,1.0032302141189575,-0.3950154483318329
1789213562144631000,2.008631103515625,-0.2616148293018341,1.219206690788269,-0.5754355192184448
1789213562154663200,2.0186630859375,-0.2695191502571106,1.2542299032211304,-0.5966588854789734
1789213562164696300,2.0286962890625,-0.20845845341682434,1.05746328830719,-0.4554367959499359
1789213562174728200,2.038728271484375,-0.019543342292308807,0.6685726046562195,-0.21804308891296387
1789213562184760000,2.048760009765625,0.2093747854232788,0.0932706892490387,0.06637692451477051
1789213562194792000,2.0587919921875,0.3597935140132904,-0.38674506545066833,0.293376088142395
1789213562204825000,2.0688251953125,0.4027079641819,-0.5168634057044983,0.306264191865921
1789213562214857200,2.078857177734375,0.35034850239753723,-0.3716656565666199,0.15767048299312592
1789213562224889000,2.08888916015625,0.25188398361206055,-0.1490270048379898,-0.04152464121580124
1789213562234921200,2.098921142578125,0.16953736543655396,0.060535646975040436,-0.20981526374816895
1789213562244954000,2.1089541015625,0.13304832577705383,0.2160607874393463,-0.33498328924179077
1789213562254986000,2.118986083984375,0.161134272813797,0.21536242961883545,-0.48496705293655396
1789213562265018000,2.12901806640625,0.013421780429780483,0.12775668501853943,-0.46192777156829834
1789213562275050200,2.13905029296875,0.005380798596888781,-0.06414294987916946,-0.3227802813053131
1789213562285083100,2.149083251953125,0.1327507346868515,-0.15928411483764648,-0.09651465713977814
1789213562295115000,2.159114990234375,0.2032536268234253,-0.23658013343811035,0.0952070951461792
1789213562305147100,2.169147216796875,0.19495601952075958,-0.3206534683704376,0.17640021443367004
1789213562315180000,2.179179931640625,0.12489274889230728,-0.3004700541496277,0.19468335807323456
1789213562325212000,2.1892119140625,0.031114058569073677,-0.3622782826423645,0.12824495136737823
1789213562335244300,2.199244384765625,-0.0673983171582222,-0.4260925352573395,-0.014500613324344158
1789213562345276200,2.209276123046875,-0.11420976370573044,-0.4373782277107239,-0.21958744525909424
1789213562355309000,2.21930908203125,-0.10912090539932251,-0.45078012347221375,-0.4799105226993561
1789213562365341200,2.229341064453125,-0.08517109602689743,-0.3547614514827728,-0.7030929923057556
1789213562375373000,2.239373046875,-0.04678301140666008,-0.20239777863025665,-0.8501039147377014
1789213562385405200,2.2494052734375,-0.019449390470981598,-0.04332423210144043,-0.9266300797462463
1789213562395438000,2.25943798828125,-0.016383614391088486,0.05619228258728981,-0.9824111461639404
1789213562405470200,2.26947021484375,-0.02259650267660618,0.0706535130739212,-1.043562412261963
1789213562415502000,2.279502197265625,-0.012833823449909687,-0.03581108897924423,-1.1151583194732666
1789213562425534000,2.289533935546875,0.052381664514541626,-0.14610403776168823,-1.1765985488891602
1789213562435567000,2.299567138671875,0.17729438841342926,-0.26134607195854187,-1.1944892406463623
1789213562445599000,2.309598876953125,0.3214353322982788,-0.3883085548877716,-1.1893768310546875
1789213562455631000,2.319631103515625,0.4448436200618744,-0.6084566116333008,-1.1823334693908691
1789213562465664300,2.329664306640625,0.5251373648643494,-0.8968740105628967,-1.1958985328674316
1789213562475696000,2.339696044921875,0.5783888697624207,-1.1970179080963135,-1.2419626712799072
1789213562485728000,2.34972802734375,0.6072180867195129,-1.4816571474075317,-1.3342905044555664
1789213562495760100,2.359760009765625,0.6094873547554016,-1.9754209518432617,-1.5068734884262085
1789213562505793000,2.36979296875,0.5804796814918518,-2.636551856994629,-1.7724158763885498
1789213562515825200,2.3798251953125,0.536522388458252,-3.1647324562072754,-2.070814371109009
1789213562525857300,2.389857177734375,0.5013406872749329,-3.4943060874938965,-2.3293495178222656
1789213562535889200,2.39988916015625,0.48524904251098633,-3.621910333633423,-2.5320398807525635
1789213562545922300,2.40992236328125,0.5227599143981934,-3.677562952041626,-2.67021107673645
1789213562555954200,2.4199541015625,0.6460493803024292,-3.831118106842041,-2.7157061100006104
1789213562565986000,2.429986083984375,0.8103386759757996,-4.084066867828369,-2.670037269592285
1789213562576018400,2.440018310546875,0.9668766856193542,-4.510594367980957,-2.5735418796539307
1789213562586051300,2.45005126953125,1.0893080234527588,-4.946706295013428,-2.4286117553710938
1789213562596083200,2.460083251953125,1.1506174802780151,-5.282991886138916,-2.2364659309387207
1789213562606115300,2.470115234375,1.165200114250183,-5.536221504211426,-2.02836012840271
1789213562616148200,2.480148193359375,1.1557530164718628,-5.71560001373291,-1.784752607345581
1789213562626180000,2.49018017578125,1.150209665298462,-5.803544998168945,-1.4922118186950684
1789213562636212200,2.500212158203125,1.1528385877609253,-5.828165531158447,-1.150740385055542
1789213562646244400,2.510244384765625,1.210469365119934,-5.78688907623291,-0.736912727355957
1789213562656277200,2.52027734375,1.3312879800796509,-5.709625244140625,-0.22943556308746338
1789213562666309000,2.53030908203125,1.4749314785003662,-5.76023006439209,0.33141976594924927
1789213562676341200,2.54034130859375,1.6365007162094116,-5.801530361175537,0.8211638927459717
1789213562686373000,2.550373046875,1.8329951763153076,-5.809877395629883,1.1721045970916748
1789213562696406000,2.560406005859375,2.080475091934204,-5.892084121704102,1.392890214920044
1789213562706438400,2.5704384765625,2.3819456100463867,-5.929567813873291,1.5141284465789795
1789213562716470300,2.58047021484375,2.762502908706665,-5.754731178283691,1.5675041675567627
1789213562726503200,2.590503173828125,3.2258784770965576,-5.583725929260254,1.574502944946289
1789213562736535300,2.600535400390625,3.6746675968170166,-5.417303085327148,1.5580275058746338
1789213562746567200,2.610567138671875,4.010501384735107,-5.139864444732666,1.5081843137741089
1789213562756599300,2.620599365234375,4.182859897613525,-4.809150695800781,1.4702459573745728
1789213562766632200,2.630632080078125,4.212296009063721,-4.348989009857178,1.4483712911605835
1789213562776664300,2.640664306640625,4.0635986328125,-3.7305924892425537,1.4734410047531128
1789213562786696200,2.6506962890625,3.707819938659668,-3.3056037425994873,1.4954805374145508
1789213562796728000,2.66072802734375,3.294381856918335,-3.109083652496338,1.3583735227584839
1789213562806761200,2.67076123046875,2.938469171524048,-2.9288244247436523,1.0352466106414795
1789213562816793000,2.68079296875,2.6908490657806396,-2.7257423400878906,0.6179146766662598
1789213562826825200,2.6908251953125,2.610445499420166,-2.482455253601074,0.2349904328584671
1789213562836858400,2.7008583984375,2.7003533840179443,-2.1529881954193115,-0.08366543054580688
1789213562846890200,2.71089013671875,2.8870952129364014,-1.619877576828003,-0.3355005979537964
1789213562856922000,2.720922119140625,3.0334665775299072,-0.9735270142555237,-0.4846542775630951
1789213562866954200,2.730954345703125,3.079514503479004,-0.31438905000686646,-0.5067132711410522
1789213562876987100,2.740987060546875,3.0164613723754883,0.37563908100128174,-0.4090304970741272
1789213562887019300,2.751019287109375,2.844134569168091,0.8233444094657898,-0.27416375279426575
1789213562897051400,2.761051513671875,2.625201463699341,1.0963679552078247,-0.11010503023862839
1789213562907084300,2.771084228515625,2.618366003036499,1.5676169395446777,0.008485796861350536
1789213562917116200,2.7811162109375,2.560016393661499,1.853176236152649,0.08649557083845139
1789213562927148300,2.791148193359375,2.287766933441162,2.015002489089966,0.1314273625612259
1789213562937180200,2.80118017578125,1.9089040756225586,1.9336812496185303,0.10734646022319794
1789213562947213000,2.811213134765625,1.5559942722320557,1.5922324657440186,-0.024000640958547592
1789213562957245400,2.821245361328125,1.2640503644943237,1.560748815536499,-0.23610904812812805
1789213562967277300,2.83127734375,1.1706815958023071,1.8877294063568115,-0.4498372972011566
1789213562977309200,2.84130908203125,1.3849735260009766,2.6833436489105225,-0.82213294506073
1789213562987342000,2.851342041015625,1.7248034477233887,3.470226287841797,-1.226253867149353
1789213562997374200,2.861374267578125,1.9501875638961792,3.807217836380005,-1.410711407661438
1789213563007406300,2.87140625,1.8492114543914795,3.7878191471099854,-1.0358773469924927
1789213563017439200,2.881439208984375,1.3654124736785889,3.5374927520751953,-0.2162793129682541
1789213563027471400,2.891471435546875,0.9160263538360596,2.9885520935058594,0.7166659832000732
1789213563037503200,2.901503173828125,0.7695448994636536,2.5581741333007812,1.2881042957305908
1789213563047535000,2.91153515625,0.9606801867485046,2.0158531665802,1.4062315225601196
1789213563057568300,2.921568359375,0.9064491391181946,1.614733338356018,1.3742305040359497
1789213563067600100,2.93160009765625,0.6859681606292725,1.0559309720993042,1.3872309923171997
1789213563077632300,2.94163232421875,0.2629627585411072,0.0719669759273529,1.7278409004211426
1789213563087665400,2.95166552734375,-0.6013352870941162,-1.514097809791565,2.372495412826538
1789213563097697300,2.961697265625,-0.6887809634208679,-1.8470655679702759,3.0402767658233643
1789213563107729200,2.971729248046875,-0.12624090909957886,-1.8219774961471558,2.8422794342041016
1789213563117761000,2.981760986328125,0.024213476106524467,-1.4616060256958008,2.41935396194458
1789213563127794200,2.991794189453125,-0.17018850147724152,-1.073059320449829,1.8811861276626587
1789213563137826300,3.001826416015625,-0.5339776873588562,-0.9059200882911682,1.4619200229644775
1789213563147858200,3.011858154296875,-0.8938003182411194,-1.2141536474227905,0.9388975501060486
1789213563157891300,3.021891357421875,-1.0595440864562988,-2.0690407752990723,0.44875118136405945
1789213563167923200,3.031923095703125,-0.9879443049430847,-1.5208101272583008,0.5284846425056458
1789213563177955000,3.041955078125,-0.87034672498703,-1.6955622434616089,0.7696103453636169
1789213563187987200,3.0519873046875,-0.7681748270988464,-2.270494222640991,0.9419988989830017
1789213563198020000,3.06202001953125,-0.7267232537269592,-2.5672128200531006,0.8694388270378113
1789213563208052200,3.07205224609375,-0.8492798209190369,-3.47711443901062,0.6324757933616638
1789213563218084400,3.08208447265625,-1.0199428796768188,-3.581542491912842,0.3259848654270172
1789213563228116200,3.0921162109375,-1.2138724327087402,-2.198636770248413,0.6777915954589844
1789213563238149000,3.102149169921875,-1.108788013458252,-2.0914788246154785,0.951256275177002
1789213563248181200,3.11218115234375,-0.903387188911438,-2.431023359298706,0.7136868238449097
1789213563258213400,3.12221337890625,-0.5494271516799927,-2.768099546432495,0.5593244433403015
1789213563268246300,3.132246337890625,-0.14371398091316223,-2.042987823486328,0.45379799604415894
1789213563278278400,3.1422783203125,-0.3388751149177551,-1.4890774488449097,0.5023590922355652
1789213563288310300,3.152310302734375,-0.48739004135131836,-1.5297471284866333,0.6085859537124634
1789213563298342100,3.162342041015625,-0.3764938414096832,-1.4441183805465698,0.7855896949768066
1789213563308375000,3.172375,-0.25906920433044434,-1.4371682405471802,0.9792428016662598
1789213563318407400,3.182407470703125,-0.11636295914649963,-1.5730853080749512,1.349914789199829
1789213563328439300,3.192439208984375,0.07751437276601791,-1.7749477624893188,1.71901535987854
1789213563338472200,3.20247216796875,0.3570796847343445,-1.7460800409317017,1.8768194913864136
1789213563348504300,3.21250439453125,0.6675254702568054,-1.5466676950454712,1.9642462730407715
1789213563358536200,3.2225361328125,0.9200565814971924,-1.1532806158065796,1.8993724584579468
1789213563368568000,3.232568115234375,1.0793192386627197,-0.47960925102233887,1.6994439363479614
1789213563378601200,3.242601318359375,1.2326899766921997,0.06821097433567047,1.5547215938568115
1789213563388633300,3.25263330078125,1.2039821147918701,-0.02412322163581848,1.1256009340286255
1789213563398665200,3.262665283203125,0.8594867587089539,-0.012525954283773899,1.2813854217529297
1789213563408698400,3.272698486328125,0.5155879259109497,-0.5506535768508911,2.1747777462005615
1789213563418730200,3.282730224609375,0.9681835174560547,-0.7221010327339172,1.7320464849472046
1789213563428762000,3.29276220703125,1.410775065422058,-0.15445975959300995,1.1760668754577637
1789213563438794200,3.302794189453125,1.6291617155075073,-0.09623584896326065,1.1597962379455566
1789213563448827400,3.312827392578125,1.73699951171875,0.04300779849290848,1.4639079570770264
1789213563458859300,3.322859375,1.7604008913040161,0.34060248732566833,1.4624853134155273
1789213563468891100,3.33289111328125,1.707509160041809,0.6964429020881653,1.072650671005249
1789213563478924300,3.34292431640625,1.3955899477005005,0.8694692850112915,0.27454671263694763
1789213563488956200,3.3529560546875,1.0232962369918823,0.9314378499984741,0.689395546913147
1789213563498988000,3.362988037109375,0.6797330975532532,0.5555465817451477,0.21144233644008636
1789213563509020400,3.3730205078125,0.360842764377594,0.6396973729133606,-0.25312745571136475
1789213563519053300,3.38305322265625,0.32440999150276184,0.37402260303497314,-0.22412364184856415
1789213563529085200,3.393085205078125,0.33143141865730286,-0.10295059531927109,-0.10836747288703918
1789213563539117300,3.403117431640625,0.25157007575035095,-0.5238799452781677,-0.05225919559597969
1789213563549150000,3.41314990234375,0.23176412284374237,-0.7857043743133545,0.03477237746119499
1789213563559181800,3.423181884765625,0.24090462923049927,-1.0241001844406128,0.09957720339298248
1789213563569214000,3.4332138671875,0.2857229709625244,-1.0111976861953735,-0.08578439801931381
1789213563579246000,3.44324609375,0.28806036710739136,-0.8693851828575134,0.014133279211819172
1789213563589279000,3.453279052734375,0.040623411536216736,-0.8314710855484009,0.13565625250339508
1789213563599310800,3.463310791015625,-0.40132269263267517,-0.7778598666191101,0.09215188771486282
1789213563609343000,3.473343017578125,-0.6304967403411865,-0.579044759273529,0.035480089485645294
1789213563619375900,3.4833759765625,-0.23050130903720856,-0.3302235007286072,0.08084622770547867
1789213563629408000,3.493407958984375,0.4381276071071625,-0.1675022542476654,0.08801651746034622
1789213563639440100,3.503440185546875,0.6358400583267212,-0.1855829507112503,0.11956460773944855
1789213563649472000,3.513471923828125,0.23573659360408783,-0.374617338180542,0.1762651652097702
1789213563659505000,3.5235048828125,-0.2680932581424713,-0.70023113489151,0.3041667938232422
1789213563669537000,3.533537109375,-0.3742087781429291,-0.8877357840538025,0.31955158710479736
1789213563679569000,3.54356884765625,-0.03697683662176132,-0.7019402384757996,0.2919664978981018
1789213563689601800,3.553601806640625,0.04949946701526642,-0.37699460983276367,0.2981730103492737
1789213563699634200,3.56363427734375,-0.06804525852203369,-0.30066677927970886,0.25735679268836975
1789213563709666000,3.573666015625,-0.163141131401062,-0.33664312958717346,0.20222030580043793
1789213563719698000,3.583697998046875,-0.36817115545272827,-0.38314151763916016,0.05878609046339989
1789213563729731000,3.59373095703125,-0.6864474415779114,-0.2307272106409073,-0.15261802077293396
1789213563739763000,3.603762939453125,-0.8624292016029358,0.11972647905349731,-0.43552306294441223
1789213563749795000,3.613795166015625,-0.842903733253479,0.5844555497169495,-0.715480387210846
1789213563759827000,3.623826904296875,-0.5416967868804932,0.880531907081604,-0.7245996594429016
1789213563769860000,3.633860107421875,0.19104906916618347,0.9615692496299744,-0.43180108070373535
1789213563779892000,3.64389208984375,0.6271711587905884,0.8631131052970886,-0.10097432136535645
1789213563789923800,3.653923828125,0.9375021457672119,0.6773943901062012,0.08082477748394012
1789213563799957000,3.66395703125,1.5620062351226807,0.24087435007095337,0.2091418355703354
1789213563809988900,3.67398876953125,2.2005138397216797,-0.09600649029016495,0.20412658154964447
1789213563820021000,3.68402099609375,2.148648262023926,0.0706482082605362,0.37647774815559387
1789213563830054100,3.69405419921875,1.7865095138549805,-0.4333728551864624,0.46002987027168274
1789213563840086000,3.7040859375,1.5656665563583374,-0.791516125202179,0.5560488700866699
1789213563850118000,3.714117919921875,1.459500789642334,-0.6874334216117859,0.48386308550834656
1789213563860150000,3.72414990234375,1.2763500213623047,-0.15027280151844025,0.13382412493228912
1789213563870183000,3.734182861328125,0.8375259637832642,0.39792317152023315,-0.08472898602485657
1789213563880215000,3.744215087890625,-0.04853068292140961,0.8943350315093994,-0.2988671064376831
1789213563890247000,3.754246826171875,-0.7678773403167725,1.2312473058700562,-0.45850977301597595
1789213563900280000,3.764280029296875,-0.8467704653739929,1.5114455223083496,-0.4877839684486389
1789213563910312000,3.77431201171875,-0.7584820985794067,1.720092535018921,-0.6103535294532776
1789213563920343800,3.78434375,-0.8038579821586609,1.69590163230896,-0.681860625743866
1789213563930376000,3.7943759765625,-0.8738221526145935,1.4770803451538086,-0.7472734451293945
1789213563940408800,3.804408935546875,-0.8873512744903564,1.2291005849838257,-0.8759416341781616
1789213563950441000,3.81444091796875,-1.0233042240142822,0.8313425183296204,-1.0820099115371704
1789213563960473000,3.82447314453125,-1.0542527437210083,0.23146191239356995,-1.1151530742645264
1789213563970506000,3.834506103515625,-1.4091722965240479,-0.41889265179634094,-1.0763550996780396
1789213563980537900,3.844537841796875,-1.6371415853500366,-1.0024229288101196,-0.9683947563171387
1789213563990570000,3.854570068359375,-1.6220417022705078,-1.3598672151565552,-0.8885492086410522
1789213564000602000,3.86460205078125,-1.56818425655365,-1.385143756866455,-0.9980745911598206
1789213564010635000,3.874635009765625,-1.4952431917190552,-1.0703210830688477,-1.0785739421844482
1789213564020667100,3.884667236328125,-1.3280720710754395,-0.5989296436309814,-1.0605508089065552
1789213564030699000,3.894698974609375,-1.2076058387756348,-0.2809666097164154,-1.0016909837722778
1789213564040732000,3.90473193359375,-1.1007477045059204,-0.33095863461494446,-0.878293514251709
1789213564050764000,3.914763916015625,-1.0124425888061523,-0.7241112589836121,-0.7420129179954529
1789213564060796000,3.9247958984375,-0.9217360615730286,-1.144660472869873,-0.5232164263725281
1789213564070828000,3.934828125,-0.8302271962165833,-1.2374286651611328,-0.19081160426139832
1789213564080861200,3.944861083984375,-0.6894298791885376,-1.102335810661316,0.024619214236736298
1789213564090893000,3.95489306640625,-0.47688689827919006,-0.5490897297859192,0.23119458556175232
1789213564100925000,3.964925048828125,-0.22403447329998016,0.028097521513700485,0.39553114771842957
1789213564110958000,3.9749580078125,0.120132215321064,0.5787146091461182,0.5477715730667114
1789213564120990000,3.984989990234375,0.2807371914386749,0.8226561546325684,0.7430351972579956
1789213564131022000,3.99502197265625,0.4897252917289734,0.9870813488960266,0.7783710956573486
1789213564141054000,4.005053955078125,0.663600504398346,1.1538833379745483,0.7116140723228455
1789213564151087000,4.015087158203125,0.86016845703125,1.6238558292388916,0.6560653448104858
1789213564161119000,4.025118896484375,1.147110939025879,1.5697979927062988,0.5682271718978882
1789213564171150800,4.03515087890625,1.180662989616394,1.400400996208191,0.5708298683166504
1789213564181184000,4.04518408203125,1.1499348878860474,1.4172961711883545,0.6854551434516907
1789213564191215900,4.0552158203125,1.3398560285568237,1.3858144283294678,0.8549411296844482
1789213564201248000,4.065248046875,1.7625625133514404,1.2692410945892334,1.050338864326477
1789213564211281200,4.07528125,2.201659917831421,1.1956632137298584,0.9861752390861511
1789213564221313000,4.08531298828125,2.0570216178894043,1.3162211179733276,0.7135480642318726
1789213564231345000,4.095344970703125,1.8980289697647095,1.0985313653945923,0.8204864859580994
1789213564241376800,4.105376708984375,1.462127923965454,0.7611213326454163,1.0873527526855469
1789213564251410000,4.115409912109375,0.9521140456199646,1.1595745086669922,1.587311863899231
1789213564261442000,4.125442138671875,0.5643482804298401,1.3704571723937988,1.750985860824585
1789213564271474000,4.135473876953125,0.3581298589706421,1.3887122869491577,1.8653990030288696
1789213564281507000,4.145507080078125,0.24697846174240112,1.4051002264022827,2.1767730712890625
1789213564291539000,4.1555390625,0.3876500725746155,0.8735796213150024,1.7953619956970215
1789213564301570800,4.16557080078125,0.26625362038612366,0.4040568768978119,1.4422165155410767
1789213564311603000,4.17560302734375,0.19811797142028809,-0.28358304500579834,1.472611904144287
1789213564321635800,4.1856357421875,0.11347605288028717,-0.8431798815727234,1.38707435131073
1789213564331668000,4.19566796875,0.06414232403039932,-1.0370880365371704,1.1406373977661133
1789213564341700000,4.2057001953125,0.12263176590204239,-1.0528358221054077,0.8514519929885864
1789213564351733000,4.21573291015625,0.2730657458305359,-1.046552062034607,0.44800516963005066
1789213564361764900,4.225764892578125,0.4098292291164398,-1.0218082666397095,0.076516292989254
1789213564371797000,4.235796875,0.2136533260345459,-1.0870580673217773,-0.2295573502779007
1789213564381829000,4.2458291015625,0.02669590339064598,-1.1627905368804932,-0.5636664628982544
1789213564391862000,4.255862060546875,-0.12237799912691116,-1.2098259925842285,-1.165736436843872
1789213564401894100,4.26589404296875,-0.49988991022109985,-0.9344331622123718,-1.6726645231246948
1789213564411926000,4.275926025390625,-0.9357156753540039,-0.7370988130569458,-1.6309919357299805
1789213564421959000,4.285958984375,-1.205995798110962,-0.39181074500083923,-1.4754420518875122
1789213564431991000,4.295990966796875,-1.1077483892440796,-0.3397046625614166,-1.655595064163208
1789213564442023000,4.30602294921875,-1.0080441236495972,-0.13113562762737274,-1.7689683437347412
1789213564452055000,4.316054931640625,-1.0046392679214478,-0.22683365643024445,-1.5398874282836914
1789213564462088000,4.326087890625,-1.0201501846313477,-0.8812729120254517,-1.158581018447876
1789213564472120000,4.3361201171875,-0.9992475509643555,-1.4505631923675537,-0.6834056377410889
1789213564482152000,4.34615185546875,-0.8365379571914673,-1.972652792930603,-0.37820005416870117
1789213564492184800,4.356184814453125,-0.33293288946151733,-2.068373203277588,-0.3845863342285156
1789213564502217000,4.366217041015625,0.09929722547531128,-1.6966456174850464,-0.394061803817749
1789213564512249000,4.3762490234375,0.2457662969827652,-1.183204174041748,-0.43859705328941345
1789213564522282000,4.386281982421875,0.39996540546417236,-0.6533410549163818,-0.48681211471557617
1789213564532314000,4.396314208984375,0.6337222456932068,-0.34510278701782227,-0.39051884412765503
1789213564542346000,4.406345947265625,0.6560933589935303,-0.4140837788581848,-0.43381285667419434
1789213564552378400,4.41637841796875,0.5409273505210876,-0.804990828037262,-0.4359990358352661
1789213564562411300,4.426411376953125,0.5276261568069458,-1.2950431108474731,-0.3257903456687927
1789213564572443400,4.436443359375,0.54440838098526,-1.4665809869766235,-0.40173277258872986
1789213564582475500,4.4464755859375,0.6040747761726379,-1.1121748685836792,-0.6552428603172302
1789213564592508400,4.45650830078125,0.6567829847335815,-0.29675304889678955,-0.9961069822311401
1789213564602540500,4.46654052734375,0.7314524054527283,0.718903660774231,-1.1923325061798096
1789213564612572400,4.476572509765625,1.2087639570236206,1.585663914680481,-1.1966036558151245
1789213564622605300,4.486605224609375,2.2418153285980225,1.708724021911621,-1.1292097568511963
1789213564632637400,4.496637451171875,3.290412425994873,1.6454998254776,-1.0505485534667969
1789213564642669300,4.50666943359375,4.309178352355957,1.5172622203826904,-0.7413221597671509
1789213564652701400,4.516701416015625,4.6757426261901855,1.3371044397354126,-0.5973569750785828
1789213564662734600,4.526734619140625,4.59171199798584,1.482358694076538,-0.622761070728302
1789213564672766500,4.536766357421875,4.368585586547852,1.8780295848846436,-0.7585455179214478
1789213564682798300,4.54679833984375,3.785655975341797,1.986222267150879,-0.9217698574066162
1789213564692831500,4.55683154296875,3.0557239055633545,1.7138525247573853,-0.8583961725234985
1789213564702863400,4.56686328125,1.195238471031189,0.6645631194114685,-0.9104445576667786
1789213564712895500,4.5768955078125,0.06587445735931396,0.4456646144390106,-0.8451949954032898
1789213564722928400,4.586928466796875,-0.11236798018217087,-0.03867243230342865,-0.7674670219421387
1789213564732960500,4.59696044921875,-0.02217709645628929,-0.5065349340438843,-0.7810954451560974
1789213564742992400,4.606992431640625,-0.17246073484420776,-0.9467280507087708,-0.9213582277297974
1789213564753025300,4.617025390625,-0.3827058672904968,-1.1722153425216675,-1.186685562133789
1789213564763057400,4.627057373046875,-0.7794349789619446,-1.189461588859558,-1.5610853433609009
1789213564773089500,4.637089599609375,-1.2914425134658813,-1.074039340019226,-1.888879418373108
1789213564783121400,4.647121337890625,-1.8986059427261353,-1.219342589378357,-2.1897826194763184
1789213564793154600,4.657154541015625,-2.376030921936035,-1.588361144065857,-2.5814030170440674
1789213564803186400,4.6671865234375,-2.7983951568603516,-1.974189043045044,-2.6764912605285645
1789213564813218300,4.67721826171875,-3.224337100982666,-2.2256436347961426,-2.637209892272949
1789213564823251500,4.68725146484375,-3.6768484115600586,-2.3317699432373047,-2.2858469486236572
1789213564833283300,4.697283447265625,-3.518899440765381,-2.0114688873291016,-1.9170434474945068
1789213564843315500,4.7073154296875,-3.033149480819702,-1.9199999570846558,-1.4577429294586182
1789213564853348600,4.7173486328125,-2.5969085693359375,-1.5162357091903687,-1.023516297340393
1789213564863380500,4.72738037109375,-2.2320165634155273,-1.6635748147964478,-0.7050881385803223
1789213564873412400,4.737412353515625,-1.632006049156189,-1.9711661338806152,-0.38822227716445923
1789213564883444200,4.7474443359375,-1.1515309810638428,-2.3266687393188477,-0.15148411691188812
1789213564893477400,4.757477294921875,-0.9554941058158875,-1.5506621599197388,-0.35429367423057556
1789213564903509500,4.767509521484375,-0.37731650471687317,-0.3258844017982483,-0.8022357225418091
1789213564913541400,4.777541259765625,-0.2553269565105438,-0.7627240419387817,-0.8864212036132812
1789213564923574500,4.787574462890625,-0.22636859118938446,-2.0067708492279053,-0.958827793598175
1789213564933606400,4.7976064453125,-0.132964089512825,-1.8543667793273926,-1.0128310918807983
1789213564943638300,4.80763818359375,-0.5284359455108643,-0.7064136266708374,-0.9653467535972595
1789213564953671400,4.81767138671875,-0.838011622428894,0.16339527070522308,-0.8010310530662537
1789213564963703300,4.827703369140625,-0.9745994210243225,0.5241172313690186,-0.59480881690979
1789213564973735400,4.8377353515625,-0.7108564972877502,0.12359456717967987,-0.38520607352256775
1789213564983767600,4.847767578125,-0.21068508923053741,-0.15266385674476624,-0.1656932234764099
1789213564993800400,4.857800537109375,-0.08649895340204239,0.08948779851198196,0.017501091584563255
1789213565003832300,4.867832275390625,-0.19243688881397247,0.3126576840877533,0.14359010756015778
1789213565013864400,4.877864501953125,-0.35888975858688354,0.11946798861026764,0.21645019948482513
1789213565023897300,4.8878974609375,-0.46939581632614136,-0.24439549446105957,0.10521084070205688
1789213565033929500,4.897929443359375,-0.4587668478488922,-0.3345986008644104,0.031868983060121536
1789213565043961300,4.90796142578125,-0.3586903214454651,-0.6007122993469238,0.14078667759895325
1789213565053994500,4.917994384765625,-0.16621407866477966,-0.5520955324172974,0.3750694692134857
1789213565064026400,4.9280263671875,0.04653377830982208,-0.9771603941917419,0.43170666694641113
1789213565074058200,4.938058349609375,0.2567479908466339,-1.4949688911437988,0.4696234166622162
1789213565084090400,4.94809033203125,0.2560933232307434,-1.3459643125534058,0.568157970905304
1789213565094123300,4.958123291015625,0.08958824723958969,-0.6194272637367249,0.5248017311096191
1789213565104155400,4.9681552734375,-0.08311886340379715,-0.2091791033744812,0.3559466004371643
1789213565114187500,4.9781875,-0.12237998843193054,0.29889264702796936,0.22465543448925018
1789213565124220400,4.988220458984375,-0.05934930220246315,1.0505239963531494,0.1817852258682251
1789213565134252300,4.998252197265625,0.057362135499715805,2.0466830730438232,0.1274181306362152
1789213565144284400,5.008284423828125,0.23876701295375824,3.3019988536834717,0.027375632897019386
1789213565154317300,5.0183173828125,0.2959333658218384,4.015733242034912,-0.03986918181180954
1789213565164349400,5.028349365234375,0.4237264096736908,3.644698143005371,-0.13011033833026886
1789213565174381600,5.038381591796875,0.5826559066772461,1.4141969680786133,0.04596509411931038
1789213565184414500,5.04841455078125,0.6784239411354065,0.5367880463600159,0.468144029378891
1789213565194446300,5.0584462890625,0.6713359355926514,1.9711474180221558,0.616270899772644
1789213565204478500,5.068478515625,0.6722319722175598,2.5050995349884033,0.465513676404953
1789213565214510300,5.07851025390625,0.5968000292778015,1.6901358366012573,0.15527619421482086
1789213565224543200,5.088543212890625,0.8001331686973572,0.9087252020835876,-0.19553668797016144
1789213565234575600,5.09857568359375,1.0815540552139282,0.9297292828559875,0.0667298212647438
1789213565244607500,5.108607421875,1.5205698013305664,0.6157964468002319,0.1303829848766327
1789213565254640400,5.118640380859375,1.8089525699615479,0.301300048828125,-0.19816000759601593
1789213565264672500,5.128672607421875,1.7621160745620728,0.29126864671707153,-0.45337170362472534
1789213565274704400,5.138704345703125,1.5158560276031494,0.2440449744462967,-0.5149897933006287
1789213565284737300,5.1487373046875,1.4692676067352295,0.3685523271560669,-0.3143836557865143
1789213565294769400,5.158769287109375,1.7473719120025635,0.33677148818969727,0.06185494363307953
1789213565304801500,5.168801513671875,1.8214157819747925,0.4078634977340698,0.5887178778648376
1789213565314834400,5.17883447265625,1.6722297668457031,0.37574097514152527,1.0630971193313599
1789213565324866300,5.1888662109375,1.4579988718032837,0.3076833188533783,1.4984163045883179
1789213565334898400,5.1988984375,1.0039892196655273,0.37661924958229065,1.7379000186920166
1789213565344930300,5.208930419921875,0.545572817325592,0.4526796340942383,1.8195383548736572
1789213565354963200,5.218963134765625,0.15362608432769775,0.298334538936615,1.8942421674728394
1789213565364995600,5.22899560546875,-0.088981494307518,0.29075759649276733,2.011260747909546
1789213565375027500,5.23902734375,-0.22961610555648804,0.5918734669685364,1.7301733493804932
1789213565385060400,5.249060302734375,-0.20697380602359772,0.8054773807525635,1.2879698276519775
1789213565395092500,5.259092529296875,0.03177112713456154,1.1030278205871582,0.7607232928276062
1789213565405124400,5.269124267578125,0.35710409283638,1.3790605068206787,0.6561502814292908
1789213565415157200,5.2791572265625,0.5339145660400391,1.1558940410614014,0.9927043318748474
1789213565425189400,5.289189453125,0.6548793315887451,0.568103015422821,1.1217411756515503
1789213565435221500,5.299221435546875,0.8799039125442505,0.3254898190498352,1.023056983947754
1789213565445253400,5.30925341796875,0.805783748626709,-0.12054171413183212,0.6981486678123474
1789213565455286500,5.31928662109375,0.6576355695724487,-0.24167266488075256,0.21247592568397522
1789213565465318400,5.329318359375,0.6610180735588074,-0.10856612771749496,-0.030700700357556343
1789213565475350300,5.339350341796875,1.0407990217208862,0.028537670150399208,-0.29524049162864685
1789213565485383400,5.349383544921875,1.2362687587738037,-0.1267583966255188,-0.4594068229198456
1789213565495415600,5.35941552734375,1.056025743484497,0.026207715272903442,-0.3562900125980377
1789213565505447400,5.369447509765625,0.6561397910118103,0.42618831992149353,-0.0838223248720169
1789213565515480300,5.379480224609375,-0.32545268535614014,-0.05095239728689194,-0.06359375268220901
1789213565525512400,5.389512451171875,-0.5872589945793152,-0.33402830362319946,-0.7955919504165649
1789213565535544300,5.39954443359375,-0.7176500558853149,-0.485477477312088,-0.5895703434944153
1789213565545576700,5.40957666015625,-1.0952800512313843,-0.4302162826061249,-0.1219070628285408
1789213565555608800,5.41960888671875,-1.1356134414672852,0.051588185131549835,-0.01174620445817709
1789213565565641000,5.429640869140625,-0.7966469526290894,0.40224307775497437,-0.23119451105594635
1789213565575673900,5.439673828125,-0.619662344455719,0.27958640456199646,-0.446048766374588
1789213565585705700,5.449705810546875,-0.6626622676849365,0.006663747131824493,-0.6254676580429077
1789213565595737900,5.45973779296875,-0.7317811250686646,0.02253352291882038,-0.8489819765090942
1789213565605770800,5.469770751953125,-0.7171905636787415,0.11632612347602844,-1.0284334421157837
1789213565615803000,5.479802978515625,-0.661278247833252,-0.004348096437752247,-1.082646131515503
1789213565625835000,5.4898349609375,-0.5351556539535522,-0.12136600911617279,-1.1200562715530396
1789213565635867000,5.499866943359375,-0.4406113028526306,-0.17118015885353088,-1.1586869955062866
1789213565645899800,5.509899658203125,-0.44336581230163574,-0.13004706799983978,-1.1405290365219116
1789213565655932000,5.519931884765625,-0.47271728515625,-0.07219576090574265,-1.0624568462371826
1789213565665963800,5.5299638671875,-0.4707487225532532,0.017242176458239555,-0.9552571773529053
1789213565675996700,5.53999658203125,-0.4394858777523041,0.17147383093833923,-0.9719070196151733
1789213565686029000,5.550029052734375,-0.43307459354400635,0.3488854765892029,-1.0444074869155884
1789213565696061000,5.56006103515625,-0.3245411813259125,0.4749744236469269,-1.0804177522659302
1789213565706093800,5.57009375,-0.10834618657827377,0.45589935779571533,-1.1858946084976196
1789213565716126000,5.5801259765625,0.005005671177059412,0.5156151056289673,-1.4557838439941406
1789213565726157800,5.59015771484375,-0.10348337888717651,0.4731093943119049,-1.9147028923034668
1789213565736190700,5.600190673828125,-0.3081938922405243,0.4629736542701721,-2.269699811935425
1789213565746222800,5.610222900390625,-0.6285495162010193,0.3855656087398529,-2.4345314502716064
1789213565756255000,5.6202548828125,-0.9488428235054016,0.32197970151901245,-2.3273181915283203
1789213565766288000,5.630287841796875,-1.0916510820388794,-0.1064467802643776,-2.1475160121917725
1789213565776319700,5.64031982421875,-1.1533061265945435,-0.46955496072769165,-2.090243101119995
1789213565786351900,5.650351806640625,-1.213134765625,-0.3758191466331482,-2.063703775405884
1789213565796384800,5.660384765625,-1.3672127723693848,-0.20275841653347015,-1.9606791734695435
1789213565806416600,5.670416748046875,-1.332310676574707,-0.049517713487148285,-1.6925703287124634
1789213565816449000,5.680448974609375,-1.1805897951126099,-0.08225568383932114,-1.3058977127075195
1789213565826482000,5.69048193359375,-1.111892819404602,-0.23846814036369324,-1.056214690208435
1789213565836513800,5.700513671875,-1.0382908582687378,-0.44956573843955994,-0.9428234100341797
1789213565846546000,5.7105458984375,-0.9944878220558167,-0.6934045553207397,-0.8460578918457031
1789213565856578800,5.720578857421875,-0.8741052150726318,-0.8190311789512634,-0.6608912348747253
1789213565866610700,5.730610595703125,-0.6177348494529724,-0.9862772226333618,-0.2393852323293686
1789213565876642800,5.740642822265625,-0.5090951919555664,-0.6411342024803162,0.12478553503751755
1789213565886675700,5.75067578125,-0.5435094237327576,-0.18852654099464417,0.45472583174705505
1789213565896707800,5.760707763671875,-0.487932950258255,0.18320626020431519,0.5371338725090027
1789213565906740000,5.770739990234375,-0.38011306524276733,0.20565252006053925,0.4754096269607544
1789213565916772900,5.78077294921875,-0.21857580542564392,0.24103927612304688,0.5550586581230164
1789213565926804700,5.7908046875,-0.09340540319681168,0.28602132201194763,0.6290576457977295
1789213565936836900,5.8008369140625,0.08791325241327286,0.3620947599411011,0.7428033947944641
1789213565946869800,5.810869873046875,0.27234119176864624,0.5557918548583984,0.7805256843566895
1789213565956902000,5.82090185546875,0.48200973868370056,0.7092860341072083,0.7310316562652588
1789213565966934000,5.83093408203125,0.7649374604225159,0.7634705305099487,0.6851259469985962
1789213565976967000,5.840966796875,1.019693374633789,0.6086079478263855,0.5670177340507507
1789213565986998800,5.850998779296875,1.222618579864502,0.32428115606307983,0.37492573261260986
1789213565997031000,5.861031005859375,1.3995710611343384,0.1565784513950348,0.2738851308822632
1789213566007063800,5.871063720703125,1.5362979173660278,0.047768279910087585,0.19952575862407684
1789213566017095700,5.881095703125,1.6472833156585693,-0.06290151178836823,0.13831940293312073
1789213566027127800,5.8911279296875,1.7371503114700317,-0.0658903494477272,0.10527658462524414
1789213566037161000,5.901160888671875,1.8238660097122192,0.13745903968811035,0.10283126682043076
1789213566047192800,5.91119287109375,1.8024708032608032,0.027546878904104233,0.2731896638870239
1789213566057224700,5.921224609375,1.7939833402633667,-0.021673131734132767,0.3829052448272705
1789213566067257900,5.9312578125,1.7470769882202148,-0.12842592597007751,0.4723776876926422
1789213566077289700,5.941289794921875,1.6707055568695068,-0.24092423915863037,0.5408968329429626
1789213566087321900,5.95132177734375,1.5673770904541016,-0.36058491468429565,0.4933871924877167
1789213566097355000,5.96135498046875,1.4333986043930054,-0.3994539976119995,0.47144514322280884
1789213566107387000,5.971386962890625,1.3959574699401855,-0.5631278157234192,0.5684811472892761
1789213566117418800,5.981418701171875,1.4556111097335815,-0.7066730260848999,0.7975425720214844
1789213566127452000,5.991451904296875,1.6112562417984009,-0.6522912979125977,0.9597312211990356
1789213566137483800,6.00148388671875,1.7391462326049805,-0.6143519282341003,1.128240942955017
1789213566147515600,6.011515625,1.8395490646362305,-0.6816878318786621,1.2894853353500366
1789213566157548800,6.021548828125,1.9424597024917603,-0.8519203066825867,1.4408903121948242
1789213566167581000,6.031580810546875,2.022994041442871,-1.168123722076416,1.5135055780410767
1789213566177612800,6.04161279296875,2.0844480991363525,-1.4868830442428589,1.368926763534546
1789213566187645000,6.05164501953125,1.8076406717300415,-1.826841115951538,1.2763099670410156
1789213566197677800,6.061677734375,1.2939435243606567,-1.9461337327957153,1.1429582834243774
1789213566207709700,6.071709716796875,0.8448970913887024,-1.7254154682159424,0.9373072981834412
1789213566217742000,6.0817421875,0.464847207069397,-1.3514962196350098,0.7597354054450989
1789213566227775000,6.09177490234375,0.21815378963947296,-0.7944246530532837,0.7877874374389648
1789213566237806800,6.101806884765625,0.04672344774007797,-0.24692560732364655,0.8453586101531982
1789213566247839000,6.1118388671875,0.04162219166755676,-0.02925942651927471,0.7252175211906433
1789213566257872000,6.121871826171875,0.15879276394844055,-0.13922028243541718,0.4855135679244995
1789213566267903700,6.13190380859375,0.258292019367218,-0.11486351490020752,0.3282982409000397
1789213566277935600,6.141935546875,0.25056192278862,0.056428078562021255,0.2317461371421814
1789213566287968800,6.15196875,0.1437167227268219,0.1516428291797638,0.12980125844478607
1789213566298001000,6.1620009765625,0.04842829331755638,0.17514975368976593,-0.025035183876752853
1789213566308032800,6.17203271484375,-0.05841904133558273,0.09931907802820206,-0.2164565622806549
1789213566318066000,6.18206591796875,-0.12554055452346802,0.011743158102035522,-0.43786829710006714
1789213566328097800,6.192097900390625,-0.2060425877571106,-0.08969664573669434,-0.6286952495574951
1789213566338129700,6.202129638671875,-0.2893518805503845,-0.04302315041422844,-0.791359007358551
1789213566348162800,6.212162841796875,-0.3805929124355316,0.07565133273601532,-0.9314684867858887
1789213566358195000,6.22219482421875,-0.4101542830467224,0.19395694136619568,-1.047029972076416
1789213566368226800,6.232226806640625,-0.36883097887039185,0.2516798973083496,-1.1525660753250122
1789213566378260000,6.242260009765625,-0.29519298672676086,0.1448192298412323,-1.1983321905136108
1789213566388291800,6.252291748046875,-0.2480214536190033,-0.03460974246263504,-1.1666218042373657
1789213566398323700,6.26232373046875,-0.23603111505508423,-0.1484481692314148,-1.112958550453186
1789213566408356900,6.27235693359375,-0.3120882213115692,-0.08533117920160294,-1.0642457008361816
1789213566418388700,6.282388671875,-0.475215882062912,0.0623813159763813,-1.0518386363983154
1789213566428420900,6.2924208984375,-0.6341650485992432,0.17995959520339966,-1.0152899026870728
1789213566438454000,6.3024541015625,-0.7624425888061523,0.4080561399459839,-0.9216390252113342
1789213566448486000,6.31248583984375,-0.8829993009567261,0.701480507850647,-0.9172981977462769
1789213566458517800,6.322517822265625,-0.9545379281044006,0.8017594814300537,-0.8986344933509827
1789213566468551000,6.332551025390625,-0.9325280785560608,0.5999419689178467,-0.7653312087059021
1789213566478582800,6.342582763671875,-0.8040294647216797,0.1961204707622528,-0.5512514114379883
1789213566488615000,6.352614990234375,-0.8060824275016785,-0.0735965371131897,-0.2560235559940338
1789213566498647800,6.362647705078125,-0.7866796851158142,-0.11864577233791351,-0.10730145126581192
1789213566508680000,6.372679931640625,-0.9657225608825684,-0.021007098257541656,-0.14144748449325562
1789213566518711800,6.3827119140625,-1.0342520475387573,0.1505529284477234,-0.3440312147140503
1789213566528745000,6.392744873046875,-1.3250553607940674,0.30369988083839417,-0.6243740320205688
1789213566538776800,6.40277685546875,-1.4079960584640503,0.33009234070777893,-0.958952009677887
1789213566548808700,6.41280859375,-1.392290711402893,0.020972304046154022,-1.3930450677871704
1789213566558841900,6.422841796875,-1.2263832092285156,-0.3263057470321655,-1.7396618127822876
1789213566568874000,6.4328740234375,-1.2009356021881104,-0.6174246668815613,-1.94532310962677
1789213566578905900,6.44290576171875,-1.0541778802871704,-0.5383527874946594,-2.004941940307617
1789213566588939000,6.45293896484375,-1.008873462677002,-0.3840404450893402,-1.9809809923171997
1789213566598971000,6.462970947265625,-0.9198902249336243,-0.3414066731929779,-1.8550971746444702
1789213566609002800,6.473002685546875,-1.0773983001708984,-0.15325742959976196,-1.6468870639801025
1789213566619036000,6.483035888671875,-1.06253981590271,-0.24287226796150208,-1.5493890047073364
1789213566629067800,6.49306787109375,-1.1319122314453125,-0.40511590242385864,-1.4610648155212402
1789213566639100700,6.5031005859375,-1.1868327856063843,-0.3562420904636383,-1.3358675241470337
1789213566649133000,6.513133056640625,-1.372544527053833,-0.1191381961107254,-1.1595749855041504
1789213566659165000,6.5231650390625,-1.4093778133392334,-0.16786925494670868,-0.937385618686676
1789213566669197800,6.53319775390625,-1.4218320846557617,-0.3421590328216553,-0.6016170978546143
1789213566679230000,6.54322998046875,-1.3731820583343506,-0.15901105105876923,-0.2694745659828186
1789213566689261800,6.55326171875,-1.22848641872406,0.0693395584821701,-0.033216044306755066
1789213566699294700,6.563294677734375,-1.0415481328964233,0.13613776862621307,0.23666976392269135
1789213566709326800,6.573326904296875,-0.8448173999786377,0.12191462516784668,0.4722490906715393
1789213566719359000,6.58335888671875,-0.7092795372009277,0.24374333024024963,0.5562734007835388
1789213566729391900,6.593391845703125,-0.5525111556053162,0.2961159646511078,0.6725567579269409
1789213566739423700,6.603423828125,-0.38276395201683044,0.4318721890449524,0.7759993076324463
1789213566749456000,6.613455810546875,-0.19997765123844147,0.4995806813240051,0.8130459189414978
1789213566759488800,6.62348876953125,-0.05474534258246422,0.4543493092060089,0.832534909248352
1789213566769520600,6.633520751953125,0.10397503525018692,0.28669270873069763,0.8617310523986816
1789213566779553000,6.643552978515625,0.22529827058315277,0.20463405549526215,0.93358314037323
1789213566789586000,6.6535859375,0.4475196599960327,0.19554658234119415,0.9851395487785339
1789213566799617800,6.66361767578125,0.5989259481430054,0.3143560290336609,1.0093005895614624
1789213566809650000,6.67364990234375,0.7953819632530212,0.4811803996562958,1.0035784244537354
1789213566819682800,6.683682861328125,0.9503374695777893,0.6384549736976624,0.9960063695907593
1789213566829714700,6.693714599609375,1.1604512929916382,0.669421911239624,0.9875611066818237
1789213566839747000,6.7037470703125,1.2832541465759277,0.6627547144889832,0.9819386005401611
1789213566849780000,6.713780029296875,1.4037799835205078,0.5995091795921326,0.9798390865325928
1789213566859811800,6.723811767578125,1.4388242959976196,0.625105082988739,1.018057942390442
1789213566869844000,6.733843994140625,1.5281437635421753,0.7062105536460876,1.0230275392532349
1789213566879876900,6.743876953125,1.6243802309036255,0.7341452836990356,0.9898030757904053
1789213566889908700,6.75390869140625,1.7473485469818115,0.708568811416626,0.960575520992279
1789213566899940900,6.76394091796875,1.8477848768234253,0.6214796900749207,0.9230747222900391
1789213566909973800,6.773973876953125,1.8938243389129639,0.5017448663711548,0.8767204284667969
1789213566920006000,6.784005859375,1.914013147354126,0.3334870934486389,0.8653932213783264
1789213566930038000,6.7940380859375,1.9238916635513306,0.11922509223222733,0.822686493396759
1789213566940071000,6.80407080078125,1.9242254495620728,-0.1181403174996376,0.7739239931106567
1789213566950102800,6.814102783203125,1.8699568510055542,-0.35137465596199036,0.6887147426605225
1789213566960136000,6.824135986328125,1.758325219154358,-0.7005629539489746,0.6290099024772644
1789213566970167800,6.834167724609375,1.6022781133651733,-0.9710347056388855,0.6580315232276917
1789213566980200000,6.844199951171875,1.440746545791626,-1.0438942909240723,0.7400108575820923
1789213566990232800,6.85423291015625,1.272588849067688,-0.9473897814750671,0.845999538898468
1789213567000265000,6.864264892578125,1.0450414419174194,-0.8919990062713623,0.9038830399513245
1789213567010296800,6.874296875,0.8294649720191956,-0.7636356949806213,0.9805157780647278
1789213567020330000,6.884330078125,0.6960011720657349,-0.5799587965011597,1.0783382654190063
1789213567030361900,6.89436181640625,0.5759952664375305,-0.5893006324768066,1.0579509735107422
1789213567040393700,6.904393798828125,0.4480639696121216,-0.5918577909469604,1.0534427165985107
1789213567050427000,6.914427001953125,0.3651210069656372,-0.5174434781074524,1.0710716247558594
1789213567060459000,6.924458984375,0.32769399881362915,-0.5326229929924011,1.0676859617233276
1789213567070491000,6.934490966796875,0.3124411106109619,-0.5373002886772156,1.0376602411270142
1789213567080524000,6.94452392578125,0.321736603975296,-0.41696059703826904,0.9368305802345276
1789213567090556000,6.954555908203125,0.3066254258155823,-0.3144052028656006,0.854005753993988
1789213567100587800,6.964587890625,0.2261340320110321,-0.21581017971038818,0.7859752774238586
1789213567110621000,6.974620849609375,0.08052151650190353,-0.0640864223241806,0.7102020978927612
1789213567120652800,6.98465283203125,-0.1159697100520134,0.08833534270524979,0.6038378477096558
1789213567130685000,6.994684814453125,-0.25617051124572754,0.14866100251674652,0.46982836723327637
1789213567140717800,7.0047177734375,-0.31933268904685974,0.08522503823041916,0.3016987442970276
1789213567150750000,7.01475,-0.3046092689037323,-0.04452390596270561,0.11912284046411514
1789213567160781800,7.02478173828125,-0.3052566647529602,-0.08831159770488739,-0.06418120115995407
1789213567170814700,7.034814697265625,-0.33311834931373596,-0.042729467153549194,-0.2645152509212494
1789213567180846800,7.044846923828125,-0.3483087420463562,-0.009655935689806938,-0.4123113751411438
1789213567190879000,7.05487890625,-0.37919750809669495,0.128751739859581,-0.49100160598754883
1789213567200912000,7.064911865234375,-0.40993571281433105,0.2571278214454651,-0.5520856976509094
1789213567210944000,7.074944091796875,-0.44649505615234375,0.2735067903995514,-0.6473496556282043
1789213567220975900,7.084975830078125,-0.4947960078716278,0.22683675587177277,-0.7607861757278442
1789213567231008800,7.0950087890625,-0.5352818965911865,0.19069954752922058,-0.8486995100975037
1789213567241041000,7.105041015625,-0.5685650110244751,0.1670362949371338,-0.8652909994125366
1789213567251073800,7.11507373046875,-0.605851948261261,0.1984969973564148,-0.8540979623794556
1789213567261105700,7.125105712890625,-0.6420064568519592,0.3215140104293823,-0.8090649843215942
1789213567271138000,7.135137939453125,-0.6911730766296387,0.4336479902267456,-0.7327161431312561
1789213567281171000,7.1451708984375,-0.7127825021743774,0.36007604002952576,-0.7224334478378296
1789213567291202800,7.155202880859375,-0.6936231851577759,0.34474101662635803,-0.6945167779922485
1789213567301235000,7.16523486328125,-0.7154251337051392,0.4180823564529419,-0.6615186333656311
1789213567311267800,7.175267822265625,-0.7649515271186829,0.397781103849411,-0.5935903787612915
1789213567321299700,7.1852998046875,-0.8126482367515564,0.2089507281780243,-0.46136945486068726
1789213567331332000,7.19533203125,-0.8738409280776978,0.07059549540281296,-0.39011287689208984
1789213567341364700,7.20536474609375,-1.0447429418563843,0.1588401347398758,-0.3094739317893982
1789213567351396900,7.21539697265625,-1.2653331756591797,0.4137486219406128,-0.30891868472099304
1789213567361429000,7.225428955078125,-1.3631893396377563,0.6099037528038025,-0.5026684403419495
1789213567371462000,7.2354619140625,-1.3436428308486938,0.358451247215271,-0.7461841106414795
1789213567381493800,7.24549365234375,-1.2312365770339966,-0.09993842244148254,-1.0200777053833008
1789213567391525600,7.255525634765625,-1.0543968677520752,-0.4015219807624817,-1.3074820041656494
1789213567401558800,7.265558837890625,-0.9187564253807068,-0.4865518808364868,-1.513866901397705
1789213567411591000,7.2755908203125,-0.8529226779937744,-0.3930656611919403,-1.5732920169830322
1789213567421622800,7.285622802734375,-0.8666046857833862,-0.2239256203174591,-1.526802897453308
1789213567431656000,7.295656005859375,-0.9341428875923157,0.09999360889196396,-1.4346526861190796
1789213567441687800,7.305687744140625,-0.9637436866760254,0.3358975052833557,-1.367385745048523
1789213567451721000,7.315720947265625,-1.0175117254257202,0.2526409327983856,-1.37856924533844
1789213567461752800,7.3257529296875,-1.0796595811843872,-0.06197133660316467,-1.449859380722046
1789213567471784700,7.33578466796875,-1.1619081497192383,-0.21354462206363678,-1.5180251598358154
1789213567481817900,7.34581787109375,-1.2567005157470703,-0.2507156729698181,-1.5221471786499023
1789213567491850000,7.35585009765625,-1.2406797409057617,-0.3422392010688782,-1.4487221240997314
1789213567501881900,7.3658818359375,-1.2774150371551514,-0.31676793098449707,-1.2393134832382202
1789213567511915000,7.3759150390625,-1.3172091245651245,-0.1927136480808258,-0.974990963935852
1789213567521947000,7.38594677734375,-1.232835054397583,-0.060833897441625595,-0.7375869750976562
1789213567531978800,7.395978759765625,-1.0038187503814697,-0.03294501453638077,-0.5668270587921143
1789213567542012000,7.406011962890625,-0.7377686500549316,-0.16903947293758392,-0.34609222412109375
1789213567552047400,7.41604736328125,-0.5938683748245239,-0.1712338924407959,-0.09081755578517914
1789213567562079200,7.426079345703125,-0.49041178822517395,0.045355938374996185,0.11832953989505768
1789213567572112400,7.4361123046875,-0.3271856904029846,0.18844038248062134,0.21569795906543732
1789213567582144300,7.446144287109375,-0.12771812081336975,0.2744311988353729,0.23720590770244598
1789213567592177400,7.456177490234375,-0.009040995500981808,0.26004186272621155,0.414501428604126
1789213567602209300,7.466209228515625,0.07927634567022324,0.2968025207519531,0.6612499356269836
1789213567612241200,7.4762412109375,0.25012344121932983,0.46175631880760193,0.7556139230728149
1789213567622274000,7.486274169921875,0.5207866430282593,0.6350415945053101,0.8141411542892456
1789213567632306400,7.496306396484375,0.7825964689254761,0.7137140035629272,0.8652392029762268
1789213567642338300,7.50633837890625,0.9838672876358032,0.7562603950500488,0.8936705589294434
1789213567652371200,7.51637109375,1.137271523475647,0.7887185215950012,0.8651776909828186
1789213567662403300,7.5264033203125,1.2832355499267578,0.7843993902206421,0.848190188407898
1789213567672435200,7.536435302734375,1.4524825811386108,0.8675749897956848,0.8551362156867981
1789213567682468000,7.546468017578125,1.6166962385177612,0.9156128168106079,0.8539926409721375
1789213567692500500,7.55650048828125,1.7423712015151978,0.8811932802200317,0.846125602722168
1789213567702532400,7.566532470703125,1.8360090255737305,0.8737556338310242,0.8339336514472961
1789213567712565200,7.576565185546875,1.8896950483322144,0.8550836443901062,0.8595631122589111
1789213567722597400,7.586597412109375,1.9190115928649902,0.8234759569168091,0.8513898849487305
1789213567732630300,7.59663037109375,1.9339098930358887,0.7156635522842407,0.8303751349449158
1789213567742662100,7.606662109375,1.930281162261963,0.5713577270507812,0.8444539308547974
1789213567752694300,7.6166943359375,1.951170563697815,0.4202144742012024,0.8347562551498413
1789213567762727200,7.62672705078125,1.9897089004516602,0.13315659761428833,0.7786021828651428
1789213567772759300,7.63675927734375,2.0373756885528564,-0.1653970628976822,0.7603014707565308
1789213567782791400,7.64679150390625,2.053123950958252,-0.3770773708820343,0.801003634929657
1789213567792824300,7.65682421875,1.9672610759735107,-0.5835838913917542,0.8229582905769348
1789213567802856200,7.666856201171875,1.814660668373108,-0.6539291739463806,0.8317983746528625
1789213567812888300,7.676888427734375,1.6058827638626099,-0.6655043363571167,0.8934187293052673
1789213567822921200,7.686921142578125,1.3352022171020508,-0.6773378252983093,0.9457362294197083
1789213567832953000,7.696953125,1.1237766742706299,-0.7228304743766785,1.0350295305252075
1789213567842985500,7.7069853515625,0.9990580677986145,-0.940433919429779,1.0454922914505005
1789213567853018400,7.717018310546875,0.9180291891098022,-1.1285276412963867,1.0325922966003418
1789213567863050200,7.72705029296875,0.8408728837966919,-1.1840585470199585,1.0909498929977417
1789213567873082000,7.73708203125,0.7675373554229736,-1.0923752784729004,1.1913691759109497
1789213567883115300,7.747115234375,0.6927411556243896,-0.9695520997047424,1.1936991214752197
1789213567893147100,7.757147216796875,0.5740322470664978,-0.83524489402771,1.051141381263733
1789213567903180300,7.76718017578125,0.4356653392314911,-0.6609588265419006,0.8512759804725647
1789213567913212400,7.77721240234375,0.2984125316143036,-0.49755340814590454,0.6439142227172852
1789213567923244300,7.787244384765625,0.1749553233385086,-0.29697877168655396,0.4452163279056549
1789213567933277400,7.79727734375,0.0997428148984909,-0.1796998232603073,0.30655696988105774
1789213567943309300,7.807309326171875,0.037354543805122375,-0.08597785979509354,0.20721732079982758
1789213567953341200,7.817341064453125,0.010044892318546772,-0.07407645881175995,0.08296462148427963
1789213567963374300,7.827374267578125,-0.07177487015724182,-0.10948558151721954,-0.0802871510386467
1789213567973406200,7.83740625,-0.20079699158668518,-0.10148066282272339,-0.2173100858926773
1789213567983438300,7.847438232421875,-0.2261529266834259,-0.10328441858291626,-0.31276842951774597
1789213567993471500,7.857471435546875,-0.21665354073047638,-0.11687400192022324,-0.430727481842041
1789213568003503400,7.86750341796875,-0.2548603117465973,-0.08893397450447083,-0.5805463194847107
1789213568013535200,7.87753515625,-0.3499238193035126,-0.007390916347503662,-0.7218223810195923
1789213568023568400,7.887568359375,-0.4396366775035858,0.1292329728603363,-0.8201215267181396
1789213568033600300,7.897600341796875,-0.48316797614097595,0.2725047171115875,-0.8620776534080505
1789213568043633200,7.907633056640625,-0.4998076856136322,0.3762737214565277,-0.890518844127655
1789213568053665300,7.917665283203125,-0.5148875713348389,0.389044851064682,-0.965681254863739
1789213568063697400,7.927697509765625,-0.5294305086135864,0.3125433921813965,-1.0693376064300537
1789213568073730300,7.937730224609375,-0.5159857869148254,0.14673128724098206,-1.1256730556488037
1789213568083762200,7.94776220703125,-0.508919358253479,0.043287456035614014,-1.0852299928665161
1789213568093794300,7.957794189453125,-0.529922604560852,0.08946587145328522,-1.0184136629104614
1789213568103827200,7.9678271484375,-0.5748264193534851,0.1783035844564438,-0.9646271467208862
1789213568113859000,7.977859130859375,-0.5886613130569458,0.13057845830917358,-0.9269694089889526
1789213568123891500,7.987891357421875,-0.54725182056427,0.14590494334697723,-0.7826803922653198
1789213568133924400,7.99792431640625,-0.5593748688697815,0.12090420722961426,-0.6354948282241821
1789213568143956200,8.007956298828125,-0.5906845331192017,0.01227627508342266,-0.4567895829677582
1789213568153988400,8.01798828125,-0.6764947175979614,-0.025970185175538063,-0.24984657764434814
1789213568164021200,8.028021240234375,-0.8220407366752625,-0.06270875781774521,-0.15705911815166473
1789213568174053000,8.03805322265625,-0.9695174694061279,0.07624087482690811,-0.19871005415916443
1789213568184086300,8.048086181640626,-1.1052502393722534,0.31914833188056946,-0.31125950813293457
1789213568194118100,8.0581181640625,-1.2034040689468384,0.569078803062439,-0.5074978470802307
1789213568204150300,8.068150390625,-1.1886117458343506,0.49647757411003113,-0.7842050790786743
1789213568214183400,8.078183349609375,-1.1081002950668335,0.09177540242671967,-1.0942673683166504
1789213568224215300,8.08821533203125,-0.9893602728843689,-0.34755295515060425,-1.433579921722412
1789213568234247200,8.0982470703125,-0.8731764554977417,-0.615648090839386,-1.6911474466323853
1789213568244280300,8.1082802734375,-0.7871316075325012,-0.6530540585517883,-1.7939590215682983
1789213568254312200,8.118312255859376,-0.7783704400062561,-0.47640261054039,-1.7931078672409058
1789213568264344300,8.12834423828125,-0.8332579135894775,-0.15129989385604858,-1.7010834217071533
1789213568274377500,8.13837744140625,-0.8673244714736938,0.07132043689489365,-1.6353282928466797
1789213568284409300,8.148409423828125,-0.9350566267967224,0.12114579230546951,-1.690600037574768
1789213568294442200,8.158442138671875,-0.9945389032363892,-0.0640493854880333,-1.7687973976135254
1789213568304474400,8.168474365234376,-1.0272020101547241,-0.2804703712463379,-1.765892744064331
1789213568314506200,8.17850634765625,-1.1110031604766846,-0.3980249762535095,-1.6263861656188965
1789213568324539100,8.1885390625,-1.2071940898895264,-0.45062482357025146,-1.3534867763519287
1789213568334571300,8.1985712890625,-1.2063028812408447,-0.26733964681625366,-1.0396078824996948
1789213568344603400,8.208603271484375,-1.0376936197280884,-0.25134631991386414,-0.8151254653930664
1789213568354636300,8.21863623046875,-0.8561606407165527,-0.33823463320732117,-0.7096298933029175
1789213568364668400,8.22866845703125,-0.7821623086929321,-0.3089292049407959,-0.6395975351333618
1789213568374700300,8.2387001953125,-0.6825148463249207,-0.16893693804740906,-0.6254158020019531
1789213568384733200,8.248733154296875,-0.4586562216281891,0.021586138755083084,-0.7069649696350098
1789213568394765300,8.258765380859375,-0.2276940494775772,-0.1545521467924118,-0.4740075170993805
1789213568404798200,8.268798095703126,-0.061300281435251236,-0.09510185569524765,-0.0635816678404808
1789213568414830000,8.278830078125,0.05144896358251572,0.32233428955078125,0.322430282831192
1789213568424862500,8.288862548828124,0.20611923933029175,0.7531429529190063,0.5275959372520447
1789213568434895400,8.298895263671875,0.3818926215171814,0.8735489845275879,0.5640441179275513
1789213568444927200,8.30892724609375,0.534644365310669,0.8363667130470276,0.6453927755355835
1789213568454959400,8.31895947265625,0.6932438015937805,0.9170916676521301,0.79384446144104
1789213568464992300,8.3289921875,0.8857325315475464,1.0420961380004883,0.954045832157135
1789213568475024100,8.339024169921874,1.0829942226409912,1.0283589363098145,0.9987128973007202
1789213568485056300,8.34905615234375,1.2164186239242554,0.8231486678123474,1.0009853839874268
1789213568495089400,8.35908935546875,1.3374065160751343,0.6917046308517456,1.0346925258636475
1789213568505121300,8.369121337890626,1.4648947715759277,0.6475294232368469,1.0874907970428467
1789213568515154400,8.379154541015625,1.5805445909500122,0.6469818949699402,1.152967095375061
1789213568525186300,8.389186279296876,1.6888455152511597,0.5956441164016724,1.1804850101470947
1789213568535218200,8.39921826171875,1.7968751192092896,0.5109875798225403,1.2006522417068481
1789213568545251300,8.409251220703124,1.9659130573272705,0.4481015205383301,1.2338895797729492
1789213568555280000,8.41927978515625,2.2020182609558105,0.315700888633728,1.2673320770263672
1789213568565312000,8.42931201171875,2.3876211643218994,0.0765380859375,1.3078863620758057
1789213568575345200,8.43934521484375,2.4480249881744385,-0.18650633096694946,1.3063762187957764
1789213568585377000,8.449376953125,2.3769776821136475,-0.4412323832511902,1.3339383602142334
1789213568595409000,8.459408935546875,2.195875644683838,-0.3697991967201233,1.5006897449493408
1789213568605442000,8.469442138671875,1.9913321733474731,-0.20832614600658417,1.6079216003417969
1789213568615474000,8.479473876953126,1.8330479860305786,-0.2814061939716339,1.5788215398788452
1789213568625507000,8.489507080078125,1.7299021482467651,-0.43033015727996826,1.5785621404647827
1789213568635539000,8.4995390625,1.7327464818954468,-0.402917742729187,1.542194128036499
1789213568645571000,8.509571044921875,1.731981873512268,-0.7591080665588379,1.4886908531188965
1789213568655604200,8.519604248046875,1.6366618871688843,-1.1286531686782837,1.4073830842971802
1789213568665636000,8.529635986328126,1.456009864807129,-1.3574756383895874,1.3558167219161987
1789213568675668000,8.53966796875,1.230473279953003,-1.3514043092727661,1.3243623971939087
1789213568685701000,8.549701171875,0.9566318988800049,-0.9972058534622192,1.3395434617996216
1789213568695733000,8.55973291015625,0.6972864270210266,-0.5699293613433838,1.3893564939498901
1789213568705765000,8.56976513671875,0.48835211992263794,-0.3380204737186432,1.3232342004776
1789213568715798000,8.579798095703126,0.27121660113334656,-0.30139854550361633,1.0855603218078613
1789213568725830100,8.589830078125,0.14975380897521973,-0.48915165662765503,0.8185166716575623
1789213568735862000,8.599862060546876,0.10999510437250137,-0.639122486114502,0.682503879070282
1789213568745895000,8.60989501953125,0.12774427235126495,-0.6350009441375732,0.5626296997070312
1789213568755927000,8.619927001953124,0.08843250572681427,-0.5812720060348511,0.4570942223072052
1789213568765960000,8.6299599609375,0.005264654289931059,-0.4949672222137451,0.37776637077331543
1789213568775991800,8.63999169921875,-0.14318609237670898,-0.4058767557144165,0.2603587806224823
1789213568786024200,8.650024169921876,-0.35087457299232483,-0.4350903034210205,0.07112708687782288
1789213568796057000,8.66005712890625,-0.53370600938797,-0.3748842179775238,-0.15295308828353882
1789213568806089000,8.6700888671875,-0.6718739867210388,-0.17909500002861023,-0.3559038043022156
1789213568816121000,8.68012109375,-0.7540023326873779,0.04488348960876465,-0.5360033512115479
1789213568826154000,8.690154052734375,-0.8068304061889648,0.24955086410045624,-0.6609684824943542
1789213568836185900,8.700185791015626,-0.8190811276435852,0.3464316427707672,-0.6929143667221069
1789213568846218000,8.710218017578125,-0.7803846001625061,0.38595083355903625,-0.6749526858329773
1789213568856251000,8.7202509765625,-0.7005267143249512,0.4435230791568756,-0.6284258365631104
1789213568866283000,8.730282958984375,-0.6095611453056335,0.5163354873657227,-0.5341653823852539
1789213568876316200,8.740316162109375,-0.5429950952529907,0.539328396320343,-0.4294532239437103
1789213568886348000,8.75034814453125,-0.5169512629508972,0.6064720153808594,-0.36714938282966614
1789213568896380000,8.7603798828125,-0.5507228970527649,0.6672147512435913,-0.44191280007362366
1789213568906413000,8.7704130859375,-0.6175562739372253,0.7130041122436523,-0.5930125713348389
1789213568916445000,8.78044482421875,-0.6630630493164062,0.713779091835022,-0.7129789590835571
1789213568926477000,8.79047705078125,-0.7515814900398254,0.6542408466339111,-0.7504358291625977
1789213568936510200,8.80051025390625,-0.8932576775550842,0.5467298626899719,-0.7643892765045166
1789213568946542000,8.8105419921875,-0.917333722114563,0.4661926329135895,-0.7809786200523376
1789213568956574000,8.820573974609376,-0.8973860144615173,0.4137986898422241,-0.7145662307739258
1789213568966607000,8.830607177734375,-0.8867703676223755,0.3253873288631439,-0.5183300971984863
1789213568976639000,8.840638916015624,-0.9111223220825195,0.18241098523139954,-0.2239256501197815
1789213568986671900,8.850671875,-0.9786068201065063,0.23748941719532013,0.02910607121884823
1789213568996704000,8.8607041015625,-1.1136083602905273,0.3673033118247986,0.08553542196750641
1789213569006736100,8.870736083984376,-1.3461204767227173,0.40735673904418945,-0.05311780422925949
1789213569016769000,8.88076904296875,-1.5891740322113037,0.47829145193099976,-0.318901926279068
1789213569026801200,8.89080126953125,-1.7762466669082642,0.589983344078064,-0.6216080188751221
1789213569036833000,8.9008330078125,-1.8418946266174316,0.18035957217216492,-0.9599339365959167
1789213569046866000,8.910865966796875,-1.7419706583023071,-0.4059654474258423,-1.2411389350891113
1789213569056898000,8.92089794921875,-1.584791898727417,-0.7545759081840515,-1.4668861627578735
1789213569066931000,8.930930908203125,-1.412124752998352,-0.9521086812019348,-1.6536070108413696
1789213569076963000,8.940963134765624,-1.2761799097061157,-1.0867377519607544,-1.813226580619812
1789213569086995200,8.9509951171875,-1.1634000539779663,-1.1015141010284424,-1.9182907342910767
1789213569097028000,8.961028076171875,-1.1040194034576416,-1.0136966705322266,-1.9390368461608887
1789213569107060000,8.97106005859375,-1.1377055644989014,-0.8701704144477844,-1.9051114320755005
1789213569117092000,8.981092041015625,-1.1668412685394287,-0.6605883836746216,-1.8422406911849976
1789213569127125000,8.991125,-1.2056150436401367,-0.43443912267684937,-1.7309935092926025
1789213569137156900,9.001156982421875,-1.2059133052825928,-0.2502584159374237,-1.6240265369415283
1789213569147189200,9.011189208984375,-1.1515041589736938,-0.09754769504070282,-1.5136651992797852
1789213569157222100,9.02122216796875,-1.0879884958267212,0.05985049158334732,-1.3433090448379517
1789213569167254000,9.03125390625,-1.05654776096344,0.09269392490386963,-1.1271276473999023
1789213569177287200,9.041287109375,-1.026522159576416,0.07777220010757446,-0.8795740604400635
1789213569187319000,9.051319091796875,-0.9772326350212097,0.07738976925611496,-0.718963086605072
1789213569197351000,9.061350830078124,-0.8788677453994751,-0.08899815380573273,-0.5982356071472168
1789213569207384000,9.071384033203126,-0.6882980465888977,-0.37427887320518494,-0.3917998671531677
1789213569217416000,9.081416015625,-0.4601263999938965,-0.43751245737075806,-0.23748886585235596
1789213569227448000,9.091447998046876,-0.26685988903045654,-0.36044296622276306,-0.08301971852779388
1789213569237481200,9.101481201171875,-0.06700977683067322,-0.06805293262004852,0.1999470293521881
1789213569247513000,9.11151318359375,0.1504620909690857,0.3066197335720062,0.49008455872535706
1789213569257546000,9.1215458984375,0.34213900566101074,0.5501437187194824,0.6298994421958923
1789213569267578000,9.131578125,0.5268723368644714,0.6753972768783569,0.7166005373001099
1789213569277610000,9.14160986328125,0.7533862590789795,0.7833828330039978,0.8381211757659912
1789213569287643000,9.151642822265625,0.9903074502944946,0.8370407819747925,0.8920078277587891
1789213569297675000,9.161675048828124,1.186160683631897,0.8134148120880127,0.9004088044166565
1789213569307707100,9.17170703125,1.323925256729126,0.7949343323707581,0.9250310659408569
1789213569317740000,9.181739990234375,1.4285238981246948,0.8345381617546082,0.9418145418167114
1789213569327772200,9.191772216796876,1.550661325454712,0.9002549052238464,0.9493923187255859
1789213569337804000,9.201803955078125,1.6837615966796875,0.9066014885902405,0.9508261680603027
1789213569347837000,9.2118369140625,1.799926519393921,0.868697464466095,0.9234752058982849
1789213569357868800,9.221868896484375,1.8940128087997437,0.7592575550079346,0.8977149724960327
1789213569367902000,9.23190185546875,1.9179102182388306,0.5698274374008179,0.915176272392273
1789213569377934000,9.24193408203125,1.896682858467102,0.3892083764076233,0.9893508553504944
1789213569387966000,9.251966064453125,1.8504009246826172,0.22614942491054535,1.0532888174057007
1789213569397999000,9.2619990234375,1.8262497186660767,0.027854207903146744,1.083184838294983
1789213569408031000,9.272031005859375,1.816757082939148,-0.18205614387989044,1.0953972339630127
1789213569418062800,9.282062744140624,1.816870927810669,-0.4123480021953583,1.1134922504425049
1789213569428096000,9.292095947265626,1.761410117149353,-0.6382585763931274,1.0944621562957764
1789213569438127900,9.3021279296875,1.6281522512435913,-0.8356547355651855,1.0959495306015015
1789213569448160000,9.312159912109376,1.4580950736999512,-0.9403846263885498,1.1533544063568115
1789213569458193200,9.322193115234375,1.3049737215042114,-1.010899543762207,1.155146598815918
1789213569468225000,9.33222509765625,1.1735517978668213,-1.0806833505630493,1.1449605226516724
1789213569478258200,9.342258056640626,0.9893364906311035,-1.135764718055725,1.1436333656311035
1789213569488290000,9.3522900390625,0.8243702054023743,-1.1231844425201416,1.1570892333984375
1789213569498322000,9.362322021484376,0.7108293175697327,-1.1451770067214966,1.1225895881652832
1789213569508355000,9.37235498046875,0.6016300916671753,-1.0470852851867676,1.0835689306259155
1789213569518387200,9.38238720703125,0.5120323300361633,-0.82178795337677,1.0269182920455933
1789213569528419000,9.392419189453125,0.450457364320755,-0.6067960262298584,0.9203550219535828
1789213569538452000,9.402451904296875,0.4162459671497345,-0.5127070546150208,0.7816197872161865
1789213569548484000,9.412484130859376,0.40038713812828064,-0.37958231568336487,0.6309501528739929
1789213569558515200,9.42251513671875,0.3477211594581604,-0.20392709970474243,0.4471680223941803
1789213569568548400,9.43254833984375,0.2161080241203308,0.01912834122776985,0.2634490728378296
1789213569578580500,9.44258056640625,0.11128054559230804,0.18096596002578735,0.13039147853851318
1789213569588613600,9.452613525390625,0.020128799602389336,0.2971634268760681,0.023632002994418144
1789213569598645500,9.4626455078125,-0.053257983177900314,0.3216460943222046,-0.07872635126113892
1789213569608677400,9.472677490234375,-0.15084552764892578,0.3171570599079132,-0.1569063812494278
1789213569618710500,9.48271044921875,-0.2434837818145752,0.2317391037940979,-0.22233399748802185
1789213569628742400,9.492742431640625,-0.31018078327178955,0.07054143399000168,-0.30326882004737854
1789213569638774300,9.502774169921874,-0.3693963587284088,-0.05481113865971565,-0.40600550174713135
1789213569648807200,9.51280712890625,-0.428524374961853,0.02421071007847786,-0.4929470717906952
1789213569658839600,9.522839599609375,-0.4597795605659485,0.18171830475330353,-0.5711860060691833
1789213569668871400,9.532871337890626,-0.46282702684402466,0.33859795331954956,-0.6490110754966736
1789213569678904300,9.542904296875,-0.478892982006073,0.41425621509552,-0.7155717611312866
1789213569688936400,9.5529365234375,-0.53508061170578,0.45440924167633057,-0.7931528687477112
1789213569698968300,9.56296826171875,-0.5998040437698364,0.5065723061561584,-0.8733357787132263
1789213569709001200,9.573001220703125,-0.6596899628639221,0.5380351543426514,-0.897418200969696
1789213569719033600,9.58303369140625,-0.7131283283233643,0.4347689151763916,-0.8574583530426025
1789213569729066500,9.59306640625,-0.7284412384033203,0.3158790171146393,-0.7886502146720886
1789213569739098400,9.603098388671874,-0.6842902302742004,0.2506251633167267,-0.6174064874649048
1789213569749130500,9.613130615234375,-0.6908487677574158,0.20271676778793335,-0.47491586208343506
1789213569759163400,9.623163330078125,-0.7363795638084412,0.24007773399353027,-0.38810843229293823
1789213569769195300,9.6331953125,-0.8006898760795593,0.3485935628414154,-0.3409520983695984
1789213569779227400,9.643227294921875,-0.881629228591919,0.35920998454093933,-0.3299108147621155
1789213569789260300,9.65326025390625,-0.975909411907196,0.41434407234191895,-0.39621952176094055
1789213569799292400,9.66329248046875,-1.0491039752960205,0.5266687870025635,-0.48659273982048035
1789213569809324500,9.673324462890625,-1.1552101373672485,0.5528111457824707,-0.5662020444869995
1789213569819357400,9.683357421875,-1.2793235778808594,0.5153817534446716,-0.6245872974395752
1789213569829389300,9.693389404296875,-1.3608908653259277,0.4592588245868683,-0.7137515544891357
1789213569839422500,9.70342236328125,-1.3296916484832764,0.3597610294818878,-0.9383138418197632
1789213569849454300,9.713454345703125,-1.2616201639175415,0.13309645652770996,-1.1874260902404785
1789213569859486500,9.723486572265625,-1.2408117055892944,-0.13032376766204834,-1.3517709970474243
1789213569869519400,9.733519287109376,-1.2872670888900757,-0.24185508489608765,-1.4118376970291138
1789213569879551500,9.743551513671875,-1.3502557277679443,-0.28850993514060974,-1.4055689573287964
1789213569889583400,9.753583251953126,-1.4224441051483154,-0.2890223264694214,-1.3658002614974976
1789213569899616500,9.763616455078125,-1.4116168022155762,-0.24977664649486542,-1.306179165840149
1789213569909648400,9.7736484375,-1.3394187688827515,-0.23285971581935883,-1.2713192701339722
1789213569919680300,9.78368017578125,-1.2373862266540527,-0.30365613102912903,-1.302980661392212
1789213569929713400,9.79371337890625,-1.1158901453018188,-0.43975964188575745,-1.3605166673660278
1789213569939745500,9.80374560546875,-1.0216450691223145,-0.52479088306427,-1.3795619010925293
1789213569949778400,9.8137783203125,-1.0028724670410156,-0.5123275518417358,-1.3202613592147827
1789213569959810600,9.823810546875,-1.0351661443710327,-0.36381399631500244,-1.1650370359420776
1789213569969842400,9.833842529296875,-1.0540926456451416,-0.27370113134384155,-1.0017229318618774
1789213569979875300,9.843875244140625,-1.0281379222869873,-0.36818453669548035,-0.7823094129562378
1789213569989907500,9.853907470703126,-0.9326024055480957,-0.48937568068504333,-0.5545668005943298
1789213569999939300,9.863939208984375,-0.7580770254135132,-0.49467217922210693,-0.3706176280975342
1789213570009972200,9.87397216796875,-0.528559684753418,-0.3585982322692871,-0.25156208872795105
1789213570020004600,9.884004638671875,-0.36349886655807495,-0.2995995879173279,-0.17421293258666992
1789213570030036500,9.894036376953125,-0.2575594186782837,-0.2630937695503235,0.05766981840133667
1789213570040069400,9.9040693359375,-0.10757207125425339,-0.10151367634534836,0.2859801948070526
1789213570050101200,9.914101318359375,0.16445277631282806,0.09599141031503677,0.39863085746765137
1789213570060133400,9.92413330078125,0.4607614278793335,0.2252172976732254,0.5085108280181885
1789213570070166300,9.934166259765625,0.6861119866371155,0.3785772919654846,0.6399908661842346
1789213570080198400,9.944198486328125,0.8950825929641724,0.5892384052276611,0.7739961743354797
1789213570090231300,9.954231201171876,1.1180274486541748,0.786583423614502,0.7721607089042664
1789213570100263400,9.964263427734375,1.335188865661621,0.8595215678215027,0.6715810298919678
1789213570110295300,9.97429541015625,1.5314593315124512,0.8119980096817017,0.6481582522392273
1789213570120328400,9.984328369140625,1.6951957941055298,0.7778432369232178,0.6183621287345886
1789213570130360300,9.9943603515625,1.781030535697937,0.6690586805343628,0.6076104044914246
1789213570140392200,10.00439208984375,1.8245823383331299,0.5229067802429199,0.651390790939331
1789213570150425300,10.01442529296875,1.86860990524292,0.47117888927459717,0.7028880715370178
1789213570160457500,10.02445751953125,1.9122593402862549,0.3716368079185486,0.7580912113189697
1789213570170489300,10.0344892578125,1.9661535024642944,0.25533896684646606,0.8255983591079712
1789213570180522500,10.0445224609375,2.0042712688446045,0.10207965224981308,0.8890126943588257
1789213570190554400,10.054554443359375,2.035290002822876,-0.10967600345611572,0.92597496509552
1789213570200587500,10.06458740234375,2.0380325317382812,-0.4135544002056122,0.9651769399642944
1789213570210619400,10.074619384765626,1.9969615936279297,-0.7065974473953247,0.9952784180641174
1789213570220651300,10.0846513671875,1.8713499307632446,-0.9353044033050537,1.0209362506866455
1789213570230684200,10.09468408203125,1.6522880792617798,-1.024344801902771,1.1099028587341309
1789213570240716500,10.104716552734375,1.4242128133773804,-1.033215880393982,1.1875807046890259
1789213570250748400,10.11474853515625,1.2327011823654175,-0.994399905204773,1.2488174438476562
1789213570260781300,10.12478125,1.0349949598312378,-0.8769742250442505,1.3414033651351929
1789213570270813400,10.1348134765625,0.8468716144561768,-0.7896041870117188,1.4223110675811768
1789213570280845300,10.14484521484375,0.745327889919281,-0.8336107730865479,1.4658232927322388
1789213570290878200,10.154878173828125,0.6637382507324219,-0.8691445589065552,1.5005295276641846
1789213570300910600,10.16491064453125,0.6221300959587097,-0.8938813209533691,1.4983659982681274
1789213570310942500,10.1749423828125,0.6501860022544861,-0.7837294936180115,1.401183009147644
1789213570320975400,10.184975341796875,0.639188826084137,-0.7437240481376648,1.1883939504623413
1789213570331007500,10.195007568359374,0.5393921732902527,-0.6775727272033691,0.9316881895065308
1789213570341039400,10.205039306640625,0.37485983967781067,-0.4918747842311859,0.6653637886047363
1789213570351072300,10.215072265625,0.1766578108072281,-0.18635347485542297,0.4386017918586731
1789213570361104400,10.2251044921875,-0.0573604553937912,0.09804096817970276,0.35112515091896057
1789213570371137300,10.23513720703125,-0.18903672695159912,0.37721961736679077,0.37583795189857483
1789213570381169400,10.24516943359375,-0.23139922320842743,0.5502800941467285,0.32554563879966736
1789213570391201500,10.255201416015625,-0.25406190752983093,0.4446399509906769,0.16249865293502808
1789213570401234400,10.265234375,-0.28912752866744995,0.20570270717144012,-0.06674858182668686
1789213570411266300,10.275266357421875,-0.39339375495910645,0.025760913267731667,-0.28597307205200195
1789213570421298400,10.28529833984375,-0.48333853483200073,0.009521753527224064,-0.40748530626296997
1789213570431331300,10.295331298828126,-0.5235061645507812,0.04579027742147446,-0.4474809467792511
1789213570441363500,10.305363525390625,-0.5378207564353943,0.16209930181503296,-0.5027223229408264
1789213570451395600,10.3153955078125,-0.5421526432037354,0.23564809560775757,-0.629615843296051
1789213570461428500,10.325428466796875,-0.5308322310447693,0.2479119747877121,-0.7843137979507446
1789213570471460400,10.33546044921875,-0.518001914024353,0.21422350406646729,-0.9124948978424072
1789213570481492200,10.3454921875,-0.5446773171424866,0.25680533051490784,-0.9273154735565186
1789213570491525400,10.355525390625,-0.6055307984352112,0.3447226881980896,-0.8227128982543945
1789213570501557200,10.36555712890625,-0.6952221393585205,0.43710237741470337,-0.6975715160369873
1789213570511590400,10.37559033203125,-0.7939711213111877,0.4833279252052307,-0.676896333694458
1789213570521622500,10.38562255859375,-0.8702176213264465,0.48270660638809204,-0.7595078349113464
1789213570531654400,10.395654296875,-0.8775258660316467,0.472660094499588,-0.8009061217308044
1789213570541687600,10.4056875,-0.8662266731262207,0.4317883253097534,-0.7165239453315735
1789213570551719700,10.4157197265625,-0.9265400767326355,0.3664966821670532,-0.5809906125068665
1789213570561751600,10.42575146484375,-0.9680106043815613,0.28511232137680054,-0.4288458526134491
1789213570571784400,10.435784423828125,-0.9809327721595764,0.13693030178546906,-0.2994566857814789
1789213570581816600,10.445816650390626,-1.0256985425949097,0.06886390596628189,-0.138563871383667
1789213570591848700,10.4558486328125,-1.0801290273666382,0.09936349838972092,-0.04425548017024994
1789213570601881600,10.465881591796874,-1.1553823947906494,0.2585020065307617,-0.03908124938607216
1789213570611913700,10.475913818359375,-1.2368888854980469,0.3725164532661438,-0.12994830310344696
1789213570621945600,10.485945556640624,-1.40365731716156,0.35460296273231506,-0.3569861948490143
1789213570631978500,10.495978515625,-1.517012596130371,0.299684077501297,-0.734362006187439
1789213570642010600,10.5060107421875,-1.501215934753418,0.057338014245033264,-1.1037065982818604
1789213570652043500,10.51604345703125,-1.4650182723999023,-0.35808154940605164,-1.4034125804901123
1789213570662075400,10.526075439453125,-1.4068716764450073,-0.6709195971488953,-1.6600414514541626
1789213570672107800,10.536107666015624,-1.3009763956069946,-0.6809839606285095,-1.788294792175293
1789213570682140700,10.546140625,-1.1574029922485352,-0.5119560360908508,-1.727647066116333
1789213570692172500,10.556172607421875,-1.0798237323760986,-0.21199865639209747,-1.5813599824905396
1789213570702204700,10.56620458984375,-1.08124577999115,0.028809700161218643,-1.4267371892929077
1789213570712237600,10.576237548828125,-1.121494174003601,0.11577256768941879,-1.3239465951919556
1789213570722269400,10.58626953125,-1.1309508085250854,0.05061592906713486,-1.3204690217971802
1789213570732301800,10.5963017578125,-1.113420009613037,-0.06664731353521347,-1.3025424480438232
1789213570742334700,10.606334716796875,-1.1209542751312256,-0.1335187405347824,-1.1362354755401611
1789213570752366600,10.61636669921875,-1.1857707500457764,-0.14721591770648956,-0.8354407548904419
1789213570762398700,10.626398681640625,-1.1924206018447876,-0.00990893505513668,-0.5342768430709839
1789213570772431600,10.636431640625,-1.0598185062408447,0.030573775991797447,-0.35193130373954773
1789213570782463500,10.64646337890625,-0.8653202056884766,-0.18107323348522186,-0.17059943079948425
1789213570792496600,10.65649658203125,-0.697924792766571,-0.31825506687164307,0.07832116633653641
1789213570802528500,10.666528564453126,-0.5030539035797119,-0.23524829745292664,0.3495146334171295
1789213570812560600,10.676560546875,-0.2508009076118469,0.06530993431806564,0.4308353066444397
1789213570822593800,10.68659375,0.06967245787382126,0.3732256591320038,0.4620457887649536
1789213570832625700,10.696625732421875,0.3655744194984436,0.5461170673370361,0.5902023911476135
1789213570842657500,10.706657470703124,0.570624053478241,0.6903508901596069,0.7266564965248108
1789213570852690700,10.716690673828126,0.726557731628418,0.8853329420089722,0.7267856597900391
1789213570862722600,10.72672265625,0.9038071632385254,0.9674802422523499,0.6847668886184692
1789213570872754700,10.736754638671876,1.1235638856887817,0.9393205046653748,0.634726881980896
1789213570882787600,10.74678759765625,1.3414888381958008,0.8580299019813538,0.5375871658325195
1789213570892819700,10.75681982421875,1.489039659500122,0.8106946349143982,0.49058797955513
1789213570902852600,10.7668525390625,1.5678614377975464,0.8332345485687256,0.497501939535141
1789213570912884700,10.776884765625,1.6364562511444092,0.8400871753692627,0.512852132320404
1789213570922916600,10.78691650390625,1.7146304845809937,0.7469702363014221,0.4872411787509918
1789213570932949500,10.796949462890625,1.7975455522537231,0.6190812587738037,0.44490623474121094
1789213570942981600,10.806981689453124,1.882497787475586,0.4736849069595337,0.43781501054763794
1789213570953013800,10.817013671875,1.966568946838379,0.27394357323646545,0.44174662232398987
1789213570963046700,10.827046630859375,2.036369562149048,0.05587247759103775,0.44281649589538574
1789213570973078500,10.83707861328125,2.085577964782715,-0.1649605631828308,0.44695770740509033
1789213570983110700,10.847110595703125,2.1114954948425293,-0.4029734134674072,0.48524904251098633
1789213570993143600,10.8571435546875,2.1147730350494385,-0.6307654976844788,0.544517993927002
1789213571003175400,10.867175537109375,2.069843053817749,-0.851672351360321,0.6232231855392456
1789213571013207600,10.87720751953125,1.9230986833572388,-1.0185577869415283,0.6730711460113525
1789213571023240400,10.887240478515626,1.7198272943496704,-1.1547832489013672,0.713329017162323
1789213571033272600,10.8972724609375,1.5035884380340576,-1.0447419881820679,0.8213622570037842
1789213571043305700,10.9073056640625,1.3445285558700562,-0.9799421429634094,0.8986635804176331
1789213571053337600,10.917337646484375,1.2360342741012573,-0.9920624494552612,0.9219896793365479
1789213571063369500,10.927369384765624,1.1196154356002808,-0.9717364311218262,0.9730672240257263
1789213571073402600,10.937402587890626,0.9470636248588562,-0.959800660610199,1.0375663042068481
1789213571083434500,10.9474345703125,0.8007144927978516,-0.8904527425765991,1.101276159286499
1789213571093466600,10.957466552734376,0.6760106682777405,-0.7734355926513672,1.1292390823364258
1789213571103499800,10.967499755859375,0.5827876925468445,-0.5696536898612976,1.1190851926803589
1789213571113531600,10.97753173828125,0.490841805934906,-0.5356323719024658,1.0274242162704468
1789213571123563500,10.9875634765625,0.3770357370376587,-0.7285900712013245,0.8463742733001709
1789213571133596700,10.9975966796875,0.3262367248535156,-0.7593607902526855,0.7102782130241394
1789213571143628500,11.007628662109376,0.31546008586883545,-0.655324399471283,0.6274091005325317
1789213571153660400,11.017660400390625,0.23711226880550385,-0.47257184982299805,0.555747926235199
1789213571163693600,11.027693603515624,0.11743893474340439,-0.19425639510154724,0.47275063395500183
1789213571173725700,11.0377255859375,0.03911963105201721,-0.0007774783298373222,0.3117116689682007
1789213571183758600,11.047758544921875,-0.04230516403913498,0.01267920434474945,0.12067631632089615
1789213571193790700,11.057790771484376,-0.11172205209732056,-0.03738316521048546,-0.017483152449131012
1789213571203822600,11.067822509765625,-0.18571212887763977,-0.03956243395805359,-0.09961214661598206
1789213571213855500,11.07785546875,-0.27827349305152893,-0.04843475669622421,-0.2283400297164917
1789213571223887600,11.0878876953125,-0.3493833541870117,-0.036260634660720825,-0.40412062406539917
1789213571233919700,11.097919677734374,-0.39591410756111145,0.031083252280950546,-0.5686374306678772
1789213571243952600,11.10795263671875,-0.4459248483181,0.07811306416988373,-0.65980064868927
1789213571253984800,11.11798486328125,-0.5231165289878845,0.19529108703136444,-0.6794577240943909
1789213571264016600,11.1280166015625,-0.5754685997962952,0.3390570282936096,-0.6790593266487122
1789213571274049500,11.138049560546875,-0.6007539629936218,0.3690277338027954,-0.7049641609191895
1789213571284081700,11.14808154296875,-0.5927019715309143,0.29704755544662476,-0.7502862811088562
1789213571294113500,11.158113525390625,-0.5311629772186279,0.2328009158372879,-0.7813376784324646
1789213571304146400,11.168146484375,-0.44356465339660645,0.2055322825908661,-0.7585587501525879
1789213571314178800,11.1781787109375,-0.371753066778183,0.20009277760982513,-0.6792998909950256
1789213571324211700,11.188211669921875,-0.3416186571121216,0.14157168567180634,-0.6156073808670044
1789213571334243600,11.19824365234375,-0.370655357837677,0.08641469478607178,-0.5941122174263
1789213571344275700,11.208275634765625,-0.4486157298088074,0.1937435269355774,-0.5053933262825012
1789213571354308600,11.21830859375,-0.5930160284042358,0.45082888007164,-0.3743404746055603
1789213571364340500,11.228340576171876,-0.7682245969772339,0.6620116829872131,-0.30815455317497253
1789213571374372600,11.23837255859375,-0.9213973879814148,0.5670319199562073,-0.4386689066886902
1789213571384405500,11.248405517578124,-0.9487046003341675,0.33581918478012085,-0.6457884311676025
1789213571394437600,11.258437744140625,-0.8932858109474182,0.21635432541370392,-0.7108361721038818
1789213571404469500,11.268469482421875,-0.9386160969734192,0.1359766274690628,-0.6437042355537415
1789213571414502700,11.278502685546876,-0.9971708059310913,0.17458154261112213,-0.5026823878288269
1789213571424534500,11.288534423828125,-1.0778117179870605,0.10548823326826096,-0.42176297307014465
1789213571434566400,11.29856640625,-1.165371298789978,-0.11975527554750443,-0.37304922938346863
1789213571444599600,11.308599609375,-1.2579104900360107,-0.36461400985717773,-0.346617192029953
1789213571454631700,11.318631591796875,-1.352021336555481,-0.4483078718185425,-0.4200698137283325
1789213571464663600,11.32866357421875,-1.4234731197357178,-0.37039628624916077,-0.6491636633872986
1789213571474696700,11.33869677734375,-1.4604727029800415,-0.3129686713218689,-0.9758800268173218
1789213571484728600,11.348728515625,-1.3844444751739502,-0.37339848279953003,-1.271689772605896
1789213571494761700,11.35876171875,-1.2408004999160767,-0.47816163301467896,-1.4677956104278564
1789213571504793600,11.368793701171874,-1.1075820922851562,-0.43156319856643677,-1.5130207538604736
1789213571514825500,11.378825439453125,-1.015526533126831,-0.24487696588039398,-1.4092544317245483
1789213571524858600,11.388858642578125,-0.9822742938995361,-0.022780243307352066,-1.2728242874145508
1789213571534890800,11.398890869140626,-1.006126046180725,0.11543967574834824,-1.202151894569397
1789213571544922600,11.408922607421875,-1.0408356189727783,0.08539655059576035,-1.1850517988204956
1789213571554956300,11.418956298828125,-1.0847554206848145,0.0340350978076458,-1.1850521564483643
1789213571564988200,11.42898828125,-1.1353245973587036,0.0693664476275444,-1.14889657497406
1789213571575020000,11.43902001953125,-1.1436189413070679,0.1433943212032318,-0.9714706540107727
1789213571585053200,11.44905322265625,-1.1102365255355835,0.2601792812347412,-0.7446683049201965
1789213571595085000,11.4590849609375,-1.0452934503555298,0.18323682248592377,-0.5983544588088989
1789213571605118000,11.469117919921874,-1.0148214101791382,-0.12428770959377289,-0.4553069770336151
1789213571615150300,11.479150390625,-0.9306764006614685,-0.41925570368766785,-0.19648583233356476
1789213571625182200,11.48918212890625,-0.7910903096199036,-0.533093273639679,0.01317922305315733
1789213571635215000,11.499215087890626,-0.6868919730186462,-0.3797144293785095,0.07293123006820679
1789213571645247200,11.509247314453125,-0.5624040365219116,-0.23645681142807007,0.15681768953800201
1789213571655279000,11.519279052734374,-0.38731878995895386,-0.20909470319747925,0.29141172766685486
1789213571665312000,11.52931201171875,-0.235527902841568,-0.14727558195590973,0.37898528575897217
1789213571675344100,11.53934423828125,-0.12089081108570099,-0.05913267657160759,0.5293183326721191
1789213571685376300,11.549376220703126,0.02762002870440483,0.17227524518966675,0.6740338802337646
1789213571695409200,11.5594091796875,0.20800630748271942,0.3596171736717224,0.8051851987838745
1789213571705441300,11.569441162109374,0.365583211183548,0.5422261357307434,0.9124881029129028
1789213571715473200,11.57947314453125,0.4871828854084015,0.7508960366249084,0.9460857510566711
1789213571725506000,11.589506103515625,0.632353663444519,0.845971405506134,0.9858022928237915
1789213571735538200,11.5995380859375,0.7803117036819458,0.8542759418487549,0.9615139961242676
1789213571745571000,11.609571044921875,0.9069002270698547,0.7882441878318787,0.923406720161438
1789213571755603200,11.619603271484374,1.0024858713150024,0.772447943687439,0.9380801916122437
1789213571765635300,11.62963525390625,1.0890674591064453,0.8051291704177856,0.9447054266929626
1789213571775668200,11.639668212890625,1.193464756011963,0.8103383183479309,0.9388570785522461
1789213571785700000,11.6497001953125,1.3203020095825195,0.7907289266586304,0.900674045085907
1789213571795732200,11.659732177734375,1.46531081199646,0.8023970127105713,0.8568150401115417
1789213571805765000,11.66976513671875,1.608181118965149,0.7326392531394958,0.8314580321311951
1789213571815797000,11.679796875,1.7307038307189941,0.6023600697517395,0.7898975014686584
1789213571825829400,11.689829345703124,1.8351351022720337,0.4192863702774048,0.7307494878768921
1789213571835862300,11.6998623046875,1.8966048955917358,0.21740756928920746,0.7002187371253967
1789213571845894100,11.70989404296875,1.9143142700195312,0.08622054010629654,0.7091418504714966
1789213571855926000,11.719926025390626,1.9162112474441528,0.0009527867659926414,0.6855161786079407
1789213571865959200,11.729959228515625,1.9147746562957764,-0.1573135107755661,0.6382803320884705
1789213571875991000,11.739990966796874,1.879244327545166,-0.33393755555152893,0.6238342523574829
1789213571886023200,11.750023193359375,1.761108636856079,-0.5304402709007263,0.6046289205551147
1789213571896056000,11.76005615234375,1.5903126001358032,-0.755890965461731,0.6821926832199097
1789213571906088200,11.770088134765626,1.4502776861190796,-0.8831186890602112,0.7557849884033203
1789213571916121300,11.780121337890625,1.3350483179092407,-0.9465650320053101,0.8018446564674377
1789213571926153200,11.7901533203125,1.1797834634780884,-0.9041227698326111,0.8811848163604736
1789213571936185000,11.80018505859375,1.0047110319137573,-0.8556569814682007,0.9257325530052185
1789213571946218200,11.81021826171875,0.8945846557617188,-0.8888982534408569,0.9676608443260193
1789213571956250000,11.82025,0.7863255739212036,-0.8721792101860046,0.9728345274925232
1789213571966282200,11.8302822265625,0.6471477746963501,-0.8391128778457642,1.0076340436935425
1789213571976315100,11.840315185546874,0.4903821349143982,-0.7402310371398926,1.0830856561660767
1789213571986347300,11.85034716796875,0.4039495289325714,-0.544589102268219,1.1230744123458862
1789213571996379100,11.860379150390624,0.3517758250236511,-0.49371233582496643,1.080429196357727
1789213572006412300,11.870412353515626,0.3071915805339813,-0.5358717441558838,0.9863865971565247
1789213572016444200,11.880444091796875,0.25389614701271057,-0.5234297513961792,0.8522709012031555
1789213572026476000,11.89047607421875,0.1863553673028946,-0.3792691230773926,0.7168886065483093
1789213572036509000,11.900509033203125,0.08131762593984604,-0.17434951663017273,0.6233352422714233
1789213572046541300,11.910541259765624,0.006998360622674227,-0.10513317584991455,0.5950098037719727
1789213572056573200,11.9205732421875,-0.05869170278310776,-0.0732271820306778,0.5561907887458801
1789213572066606000,11.930606201171875,-0.10357987135648727,-0.045897021889686584,0.4635196030139923
1789213572076638200,11.94063818359375,-0.14535526931285858,-0.09721826761960983,0.31039345264434814
1789213572086670000,11.950670166015625,-0.1668398529291153,-0.13087022304534912,0.1184111088514328
1789213572096703000,11.960702880859374,-0.2047952264547348,-0.15588024258613586,-0.07994219660758972
1789213572106735000,11.970735107421875,-0.25694409012794495,-0.16891667246818542,-0.2691905200481415
1789213572116768000,11.98076806640625,-0.3329842686653137,-0.09699080884456635,-0.43091389536857605
1789213572126800100,11.990800048828126,-0.4053746163845062,0.06273172050714493,-0.5554020404815674
1789213572136832300,12.000832275390625,-0.43579936027526855,0.3008902072906494,-0.6392748355865479
1789213572146865200,12.010865234375,-0.44240590929985046,0.4983007609844208,-0.6920346021652222
1789213572156897000,12.02089697265625,-0.43077510595321655,0.6128928661346436,-0.7458075284957886
1789213572166929200,12.03092919921875,-0.4166373312473297,0.5926278829574585,-0.843748927116394
1789213572176962000,12.040962158203126,-0.367186963558197,0.4288181662559509,-0.9702131152153015
1789213572186994200,12.050994140625,-0.2797274887561798,0.29134318232536316,-1.0145983695983887
1789213572197026300,12.0610263671875,-0.20632782578468323,0.2468755692243576,-0.928340494632721
1789213572207059200,12.07105908203125,-0.1841282844543457,0.258781373500824,-0.8454901576042175
1789213572217091000,12.081091064453124,-0.2570562958717346,0.31891289353370667,-0.7860772013664246
1789213572227123200,12.091123291015625,-0.38577836751937866,0.4046725630760193,-0.7727713584899902
1789213572237156000,12.101156005859375,-0.5110137462615967,0.43525922298431396,-0.8230446577072144
1789213572247188000,12.11118798828125,-0.6162431836128235,0.32392263412475586,-0.9038742184638977
1789213572257220000,12.12122021484375,-0.6529197096824646,0.23430433869361877,-0.8601642847061157
1789213572267253200,12.131253173828124,-0.6299910545349121,0.3043198883533478,-0.6717700362205505
1789213572277285000,12.14128515625,-0.599206805229187,0.23032556474208832,-0.5259329676628113
1789213572287317000,12.15131689453125,-0.617115318775177,0.10244114696979523,-0.3309350609779358
1789213572297350100,12.16135009765625,-0.7104418277740479,0.16885718703269958,-0.1607753038406372
1789213572307382000,12.171382080078125,-0.8484759330749512,0.2854236960411072,-0.13267895579338074
1789213572317415200,12.181415283203124,-0.9524571895599365,0.3328098654747009,-0.2491336613893509
1789213572327447300,12.191447265625,-1.0330266952514648,0.2612493634223938,-0.33812782168388367
1789213572337479200,12.201479248046875,-1.0981519222259521,-0.015048811212182045,-0.4101428985595703
1789213572347512300,12.21151220703125,-1.157829761505127,-0.1693238765001297,-0.6262208223342896
1789213572357544200,12.221544189453125,-1.1385047435760498,-0.13147583603858948,-0.9233995079994202
1789213572367576000,12.231576171875,-1.0717154741287231,-0.17928270995616913,-1.1549171209335327
1789213572377609200,12.241609130859375,-0.9888086318969727,-0.28004980087280273,-1.3714061975479126
1789213572387641000,12.25164111328125,-0.9240685105323792,-0.3809596598148346,-1.5525703430175781
1789213572397673200,12.261673095703125,-0.9017304182052612,-0.3739640712738037,-1.6090812683105469
1789213572407706400,12.271706298828125,-0.9026170372962952,-0.29298901557922363,-1.5496464967727661
1789213572417738200,12.28173828125,-0.9733002781867981,-0.16611924767494202,-1.449815034866333
1789213572427770000,12.29177001953125,-1.0225614309310913,-0.11812615394592285,-1.3968119621276855
1789213572437803000,12.301802978515624,-1.0564783811569214,-0.22075878083705902,-1.3931541442871094
1789213572447835100,12.311835205078125,-1.0891746282577515,-0.37351056933403015,-1.3986036777496338
1789213572457867300,12.3218671875,-1.0792553424835205,-0.490229994058609,-1.3922573328018188
1789213572467900200,12.331900146484376,-1.0718998908996582,-0.581651508808136,-1.3424310684204102
1789213572477932300,12.341932373046875,-1.085146427154541,-0.5694963335990906,-1.2062772512435913
1789213572487964200,12.351964111328124,-1.0892987251281738,-0.46157220005989075,-1.0186073780059814
1789213572497997000,12.3619970703125,-1.0845468044281006,-0.35825780034065247,-0.7973437309265137
1789213572508029200,12.372029296875,-1.0840003490447998,-0.24439482390880585,-0.5227853059768677
1789213572518061000,12.38206103515625,-0.9915803670883179,-0.11181893944740295,-0.29183971881866455
1789213572528094000,12.392093994140625,-0.8749082088470459,-0.07092327624559402,-0.0822281762957573
1789213572538126300,12.402126220703124,-0.8192797899246216,-0.15898442268371582,0.3200678825378418
1789213572548159200,12.4121591796875,-0.7352588772773743,0.07603287696838379,0.6881144046783447
1789213572558191400,12.42219140625,-0.5388696789741516,0.45855042338371277,0.6107309460639954
1789213572568223200,12.43222314453125,-0.2955235540866852,0.41595208644866943,0.5517803430557251
1789213572578256400,12.44225634765625,-0.20205272734165192,0.25877684354782104,0.7513680458068848
1789213572588288300,12.452288330078124,-0.16011303663253784,0.2816014885902405,0.9699554443359375
1789213572598320000,12.462320068359375,-0.022977283224463463,0.4424348473548889,1.0918322801589966
1789213572608353300,12.472353271484375,0.22228878736495972,0.6647174954414368,1.1155987977981567
1789213572618385400,12.482385498046876,0.46117299795150757,0.7640272974967957,1.0907306671142578
1789213572628417300,12.492417236328125,0.650486946105957,0.8283282518386841,1.1086636781692505
1789213572638450400,12.502450439453124,0.8470061421394348,0.9548195600509644,1.090624451637268
1789213572648482300,12.512482421875,1.032008171081543,0.9805596470832825,1.017745852470398
1789213572658514200,12.52251416015625,1.1740018129348755,0.9013292789459229,0.9459342360496521
1789213572668547300,12.53254736328125,1.3017977476119995,0.8456318974494934,0.8753871321678162
1789213572678579500,12.542579345703125,1.4304090738296509,0.8093756437301636,0.8362575769424438
1789213572688611300,12.552611328125,1.5653231143951416,0.7957314848899841,0.7963141798973083
1789213572698644200,12.562644287109375,1.658831238746643,0.76772141456604,0.7224730253219604
1789213572708676400,12.57267626953125,1.694895625114441,0.6862544417381287,0.6769561767578125
1789213572718708200,12.582708251953125,1.7137558460235596,0.6432300209999084,0.6652560830116272
1789213572728741000,12.5927412109375,1.729947805404663,0.5367538928985596,0.6878147125244141
