time,seconds_elapsed,z,y,x
1789214271300409900,0.054409912109375,0.7778367226094007,1.1950631867706776,0.0798042621422559
1789214271310441700,0.064441650390625,0.8544266258150338,1.0623013144880533,0.387853216291219
1789214271320473600,0.0744736328125,0.480367687729001,-0.8081126184076071,0.914247326657921
1789214271330505700,0.084505615234375,0.34632220537662506,-1.808397329443693,0.2581817477719858
1789214271340537900,0.094537841796875,0.0907575447678566,-1.0237842445671559,0.23426238139364866
1789214271350569700,0.10456982421875,-0.42020927936434743,-0.5979881049811839,0.33720128927733745
1789214271360601600,0.1146015625,-0.6831734025746583,-0.17721242390573025,0.041697563120536504
1789214271370633700,0.1246337890625,-1.1991302900791168,0.5460036507219076,0.13262450963854788
1789214271380665900,0.134665771484375,-1.19699795422554,0.9087398152828216,-0.021051117465645072
1789214271390697700,0.14469775390625,-0.9548749589920044,0.7953735483437776,-0.4616539271697402
1789214271400729600,0.1547294921875,-0.6400239966779947,0.14637830970287322,-0.4570648458138108
1789214271410761500,0.164761474609375,-0.9735288060575723,-0.16270342155992984,-0.6152168876796961
1789214271420794600,0.174794677734375,-1.351720898425579,-0.14914660537242888,-1.0018195193879307
1789214271430826800,0.18482666015625,-1.0634808796614408,0.04187456365525722,-0.7457135915093124
1789214271440858600,0.194858642578125,-1.024563412246108,0.0005284077882766723,0.661648091726005
1789214271450890800,0.204890869140625,-1.1858183885633944,-0.1410118142336607,2.302468986745924
1789214271460922600,0.214922607421875,-0.7672510311871766,-0.566254996111989,1.3879771838076411
1789214271470954800,0.224954833984375,-0.6700982324242591,-0.895124546906352,0.5146398866217583
1789214271480986600,0.234986572265625,-0.9450520686358213,-1.2237135271936654,-0.15093115070164204
1789214271491018800,0.245018798828125,-0.8730582610487937,-1.481286605015397,0.2098896817572415
1789214271501050600,0.255050537109375,-0.2732920404791832,-1.3661357927471398,1.7387258273243904
1789214271511082800,0.265082763671875,-0.5403343729138373,-1.219113339921832,3.6902041784912347
1789214271521114600,0.275114501953125,0.1366717392027378,-0.34415246012210843,3.9275411084920164
1789214271531146800,0.285146728515625,-0.03515723809897899,0.6337172977492213,3.4546953407004475
1789214271541178600,0.2951787109375,-1.2779594966441392,0.8486530108496546,0.9016318099085241
1789214271551210800,0.305210693359375,-1.3596657199501991,1.0843635086923837,-3.646042088420689
1789214271561242600,0.31524267578125,-0.616063859897852,1.7658748232737183,-4.803961247189343
1789214271571274800,0.325274658203125,-0.3663888418495655,1.134369356355071,-2.8963515561044213
1789214271581306600,0.335306640625,0.6822013426721095,0.7012421432286501,-1.0935836108498274
1789214271591338800,0.3453388671875,1.1238567301690578,0.9669447514921427,-0.6154764153987169
1789214271601370600,0.35537060546875,0.9823311211943626,0.40580139930546283,-0.17483568483702838
1789214271611402800,0.36540283203125,0.8131231400460004,-0.11921908462047576,1.1579758573919534
1789214271621434600,0.3754345703125,0.4284375940054655,0.04733458262681961,2.12712761740908
1789214271631467500,0.385467529296875,0.9480068267881869,-0.27607728728353975,2.1929183325722814
1789214271641499600,0.395499755859375,2.1400509579986333,-1.3776263240545987,1.8375752008721231
1789214271651531800,0.40553173828125,2.539749948775768,-1.5937895331233738,0.7582921372491865
1789214271661563600,0.415563720703125,1.7115870605081318,-1.2158429399490356,1.1143686247251927
1789214271671595500,0.425595458984375,0.8576157772451639,-1.041603978896141,1.7206886508524417
1789214271681627600,0.435627685546875,0.566939471244812,-0.8209773606777191,1.2220765736415982
1789214271691659800,0.44565966796875,0.6177846923410892,-0.5185702848732471,0.49407220529150214
1789214271701691600,0.455691650390625,0.5149550169855356,-0.25016718547940253,0.5223061104007065
1789214271711723500,0.4657236328125,0.12409633526802062,0.012545593318343162,0.5736070759078488
1789214271721755600,0.475755615234375,-0.2488087566077709,0.16896891169548034,0.5791036274975165
1789214271731787800,0.485787841796875,-0.9744313078552483,0.3142407214611769,0.5069632510466501
1789214271741819600,0.495819580078125,-1.4615712661981581,3.3829923327535387,-1.4182517644315957
1789214271751851800,0.505851806640625,-1.3514683849692344,6.096737496954202,-1.1156152637854218
1789214271761883600,0.515883544921875,-0.7852239102512597,5.734290086206793,0.030593693043105302
1789214271771915800,0.525915771484375,0.946736660721898,-0.8752344360440969,0.1937173858417198
1789214271781947600,0.53594775390625,1.0863766020804644,-1.1647066269516944,-0.016597791318595408
1789214271791979800,0.545979736328125,-0.07857669310867786,1.2606103024363517,0.08273220535293221
1789214271802011600,0.55601171875,0.08366670972406863,0.5159381828039884,0.4522015140937641
1789214271812043800,0.566043701171875,0.20327040974795818,0.2297381454348564,0.6612520050805062
1789214271822075600,0.57607568359375,0.24024551092386245,0.06427753412127495,0.7660004466041922
1789214271832108800,0.58610888671875,0.09993921461105346,-0.07934475487172603,0.35011286636386063
1789214271842139600,0.5961396484375,-0.3186731509506702,-0.008312485793232917,0.12763747847359627
1789214271852172500,0.606172607421875,-0.6009112989515066,-0.02640752993226051,-0.06299363179057836
1789214271862204700,0.61620458984375,-0.5565548553526402,0.5491179833501577,-0.20921039425618945
1789214271872236800,0.62623681640625,-0.731759446567297,0.9030144233733415,-0.46359793737698346
1789214271882268700,0.6362685546875,-0.8674456818640232,0.9643354457765817,-0.32583135214224457
1789214271892300500,0.646300537109375,-0.9581891981065273,0.5794762967348098,0.1556636773825623
1789214271902332700,0.656332763671875,-0.6618260786414146,0.22878069857954977,0.8061755859304219
1789214271912364800,0.66636474609375,-0.22687632626295087,0.0033241759866476056,1.614202644946426
1789214271922396700,0.676396728515625,0.5990086802005767,-0.37708676147460934,1.6521867770344019
1789214271932428500,0.686428466796875,0.7881096948206424,0.3611848434656858,1.2303780996493994
1789214271942460700,0.696460693359375,0.09893266791701316,1.2321557768464089,0.5843688545493408
1789214271952492800,0.706492919921875,-0.2976291938781738,1.5046090284138918,-0.0553916186545277
1789214271962524700,0.716524658203125,-0.5266746808737516,1.386734344139695,-0.02453438158769859
1789214271972556500,0.726556640625,-0.9254349294960498,1.221692835021019,-0.08106920404415577
1789214271982588700,0.736588623046875,-0.7089332822531461,1.0939964294344187,0.24253840763401238
1789214271992620800,0.746620849609375,-0.7600631655097008,0.8150017933994531,0.6573151040229946
1789214272002652700,0.756652587890625,-0.8726093482375145,0.3355827846974134,0.5912183916505426
1789214272012684500,0.7666845703125,-0.7020277406483888,0.19467209275066852,0.5776656671162694
1789214272022716700,0.776716552734375,-0.5770978771656752,0.32304128303229807,0.698968937599659
1789214272032748800,0.786748779296875,0.09547697450518608,0.2793663919568062,1.3451552562996745
1789214272042780700,0.79678076171875,-0.5082008665502071,0.42834757763445375,1.1031860633883626
1789214272052813800,0.806813720703125,-0.620476415643096,0.6090314770430326,-0.12669924777541308
1789214272062845700,0.816845703125,-0.9849410114318132,0.44617257266044613,-0.4024630851956084
1789214272072877600,0.826877685546875,-0.5413590397864579,0.518842672073841,-0.03290598857346922
1789214272082909700,0.83690966796875,-1.1027490602105856,0.2299731232345104,-0.04556333517059684
1789214272092941800,0.84694189453125,-1.3344137897938488,0.008075169906020164,-0.4755713202979415
1789214272102973700,0.8569736328125,-1.1811463050991295,0.26285949379205703,-0.3898263429950922
1789214272113005600,0.867005615234375,-0.5084206467807293,0.07442308056056499,-0.7424187877476215
1789214272123037700,0.87703759765625,-0.39078503195941444,-0.004350011903047561,-1.3213419806443154
1789214272133069800,0.88706982421875,0.03501227667033672,-1.0654226613789797,-1.0520710854399948
1789214272143101700,0.897101806640625,0.2811117743194103,-0.02943359975516796,-0.997740506445989
1789214272153133600,0.907133544921875,0.12284779651165008,-0.15286942528784275,-0.5553173859795555
1789214272163165700,0.917165771484375,-0.0628717589765787,-0.26558979553878304,-0.8926364564176649
1789214272173197800,0.92719775390625,-0.2735673502892256,-0.40698505613207814,-0.80372673147358
1789214272183229700,0.937229736328125,-0.4645382504343986,-0.9901496859908103,-0.5591225869487971
1789214272193261600,0.947261474609375,-0.4126853136003017,-0.7873316961854696,-0.5510127110555768
1789214272203298300,0.95729833984375,-0.23370588002204892,-0.9365431834876536,-0.3193560186482966
1789214272213330400,0.967330322265625,-0.7090051784455775,-1.4231769458740948,-0.8685442907556891
1789214272223362600,0.977362548828125,-0.3840297124803066,-0.9053332217097282,-0.7108974219329655
1789214272233394400,0.98739453125,-0.1369341895312071,-1.2849509629666804,-0.6819327548637986
1789214272243427600,0.997427490234375,0.18331892408728598,-1.2553379149913788,-0.5034739110935479
1789214272253459500,1.00745947265625,0.3102875999212265,-1.3449667479902505,-0.14589965934045612
1789214272263491300,1.0174912109375,0.3972890070259571,-1.6113918253093957,0.2359859172506258
1789214272273523500,1.0275234375,0.48292380195260043,-1.7354238631695509,0.41312509325705465
1789214272283555600,1.0375556640625,0.6679167967319488,-1.470883284422755,0.6354267320156097
1789214272293587500,1.04758740234375,0.606274287289381,-1.2780688022375106,0.9139971512891352
1789214272303619300,1.057619384765625,0.48867491282522674,-1.3295417998433112,1.0670349188812076
1789214272313651200,1.067651123046875,0.08593640822172165,-1.1958113747894763,1.3207915071547032
1789214272323683600,1.07768359375,-0.3511240527004003,-1.2226713246643544,1.5311355085507035
1789214272333715500,1.087715576171875,-0.940699718645215,-1.6207792468577622,1.7318185321539639
1789214272343747300,1.097747314453125,-1.4894436079859732,-2.2936726629585027,2.032274035499245
1789214272353779200,1.107779296875,-2.1140596076518294,-3.0330320631355043,2.197325335359573
1789214272363811600,1.1178115234375,-2.305471821823716,-3.860615105688572,2.4550670477464793
1789214272373843500,1.127843505859375,-2.4377614004194736,-8.067340819829703,3.5193680116191506
1789214272383875300,1.137875244140625,-3.5901200024515387,-4.560121803426743,2.6380443187892437
1789214272393907500,1.147907470703125,-1.9361551098287104,-1.84182379822731,2.3230517560474575
1789214272403939600,1.157939697265625,0.264940976241231,-1.6880273212224244,0.5928196163021028
1789214272413971500,1.167971435546875,-1.5439035124480724,-2.4586545508444306,1.4694292862221598
1789214272424003300,1.17800341796875,-1.9634213024169205,-2.4959365260124207,0.9316780616693198
1789214272434035500,1.188035400390625,-1.0769833353132008,-2.6004385184943675,-0.2883278431780636
1789214272444068400,1.198068359375,-0.008672551277279854,-3.768387488368153,1.2878268106639383
1789214272454100500,1.2081005859375,0.8922223957240581,-4.883796708187461,2.211574809986353
1789214272464132600,1.218132568359375,1.782580166620016,-4.890006668743491,1.2945204630836844
1789214272474164500,1.22816455078125,2.1791005273610353,-4.13804760697335,0.6363242653772234
1789214272484196400,1.2381962890625,1.1771692181617022,-3.5500472275212407,-0.4268538319453597
1789214272494228500,1.248228515625,-1.5171797561734914,-3.0558225716143843,-2.2651637768328188
1789214272504260600,1.258260498046875,-4.409127524361014,-2.5594813619449734,-4.6155642891854045
1789214272514292500,1.26829248046875,-4.898954529830813,-1.9989330530419944,-5.841661496645211
1789214272524324400,1.278324462890625,-3.97005689266026,-1.4062725728243588,-4.867596684014797
1789214272534356500,1.2883564453125,-3.7200387602627276,-1.0882837508760392,-3.697469201058149
1789214272544388600,1.298388671875,-4.424249690169096,-1.0663308622650802,-4.1099306427747
1789214272554420500,1.30842041015625,-4.717165299528837,-1.2211395850524305,-4.441591870114207
1789214272564452400,1.318452392578125,-4.538776233059168,-1.3953873139336705,-4.5400779633075
1789214272574484200,1.328484130859375,-4.898443657699227,-1.5420628530174494,-5.6487984991431235
1789214272584516600,1.3385166015625,-7.903156804323196,-2.3735662838846445,-6.809880505856871
1789214272594548500,1.348548583984375,-7.465193257081508,-4.11727136092633,-6.693532008236646
1789214272604580400,1.358580322265625,-4.0066047083348035,-5.270539771279692,-3.5935423781156537
1789214272614612200,1.3686123046875,-1.4598252993136644,-5.123464126962423,-0.9413362629830837
1789214272624644600,1.37864453125,-1.1394676293421535,-5.789293596026301,-0.5376461567431688
1789214272634676500,1.388676513671875,-1.7959142799675463,-6.627455315738916,-0.4872258830606937
1789214272644708400,1.398708251953125,-1.4654758724212646,-7.006133145797253,0.8441337798595427
1789214272654741500,1.408741455078125,-0.5534583506420254,-7.260420041555165,3.242830997869372
1789214272664773400,1.4187734375,-0.25097733281850815,-6.012389234706759,5.5574862431019545
1789214272674805500,1.428805419921875,-0.7881362905666232,-4.329411890350282,8.271161849197744
1789214272684837400,1.43883740234375,-1.322533382385969,-2.7401313590839504,11.756841818487644
1789214272694869500,1.448869384765625,-1.7786352283865212,-0.9283595847710967,15.717513043165207
1789214272704901400,1.4589013671875,-1.0075801287412642,0.6706108581215143,18.463996693885324
1789214272714933500,1.46893359375,-0.7098328614413738,2.0723566011711956,19.234934304630755
1789214272724965400,1.47896533203125,-1.2184200969606638,3.5591654767394063,20.074894598197936
1789214272734997500,1.48899755859375,-2.2973417068600654,5.046080443030595,21.143353850793837
1789214272745029400,1.499029296875,-2.2132430354595183,7.958038149067759,20.04633719675541
1789214272755061500,1.5090615234375,-0.14382482582777736,7.7105106644421815,16.757384499180315
1789214272765093400,1.51909326171875,1.6172855595231055,4.924877491116524,13.561235172986983
1789214272775125500,1.52912548828125,1.464124750073254,3.796369428010285,10.62492102432847
1789214272785157400,1.539157470703125,-0.4197548135951161,3.9585120008170604,9.233963509535789
1789214272795189500,1.549189453125,-1.1865046172618865,4.991100314086675,8.457835928931832
1789214272805221400,1.559221435546875,-1.0545358681183308,5.133014045596123,6.827233207195997
1789214272815253500,1.56925341796875,-2.632166366666555,4.60159333923906,5.656676100650429
1789214272825285400,1.579285400390625,-3.327034298688173,3.2943495881825684,3.602979484024644
1789214272835317200,1.589317138671875,-4.6875165957182645,3.216018686528504,0.7221183425188065
1789214272845349600,1.599349609375,-3.2773288952767845,3.2955171706572175,0.18672960931360721
1789214272855382500,1.609382568359375,-1.6610311777472495,2.721489494717121,0.7178869885593653
1789214272865414400,1.619414306640625,-0.852646683595702,2.245048040521145,2.2834265787541863
1789214272875446300,1.6294462890625,-0.06362455010525882,1.4652368029683827,2.414335516646504
1789214272885478400,1.639478515625,-0.2682581379652023,1.1939590249210594,2.7360692242115734
1789214272895510500,1.649510498046875,-1.006636637346074,0.8520569740742444,2.5713334200412032
1789214272905542400,1.65954248046875,-1.3367816879689693,-1.5438970827072858,1.3901257401436566
1789214272915574500,1.669574462890625,-1.6043150187909603,-4.460765357139707,0.1530541342049837
1789214272925606400,1.6796064453125,-0.9449586181987076,-3.843173557022214,0.6044698682159185
1789214272935638500,1.689638427734375,1.3045160796582698,-1.4155775767862795,-0.2821165674477815
1789214272945670400,1.69967041015625,1.7559183696657419,0.19194822074472903,-1.0504378582149743
1789214272955702500,1.70970263671875,0.7104666293002665,0.4623258350819349,-1.0649497831702233
1789214272965734400,1.719734375,0.43809988697245716,-0.09222937088608742,-3.335895650535822
1789214272975766500,1.7297666015625,1.0801764322660863,0.6722194623619318,-4.271631609293818
1789214272985798400,1.73979833984375,0.6273408945851028,-0.3277589592039585,-3.72415613245368
1789214272995830500,1.74983056640625,3.6269355291515586,-0.43004678276777264,-0.690654698240757
1789214273005862400,1.7598623046875,4.7508811066478485,0.9848942496806382,1.0803829146236181
1789214273015894500,1.76989453125,7.911978993204236,3.836408300670981,-1.9459370836526155
1789214273025926400,1.779926513671875,1.911134650340676,2.374663431471586,-1.5859429112762211
1789214273035958500,1.78995849609375,2.348473343682289,0.3387432945549488,-1.7932430149316787
1789214273045990400,1.799990478515625,9.643023618376255,-1.131441486209631,-1.1902414657026528
1789214273056022500,1.8100224609375,2.3798031324476003,-1.4497054718375204,-2.134597953289747
1789214273066055400,1.820055419921875,-2.6035306392908093,0.5032283388346434,-3.9564240886270996
1789214273076087600,1.830087646484375,2.6393554013878107,2.521546183565259,-1.805801467731595
1789214273086119400,1.840119384765625,1.5930267320573328,1.1560972040385007,-2.817265159907937
1789214273096151300,1.8501513671875,-3.159782712304592,1.818130787950754,2.2145617168426512
1789214273106183400,1.860183349609375,-0.0023427637338638303,4.9764925275415175,-0.3599491641908884
1789214273116215600,1.870215576171875,-5.315458524936437,2.6572832722663877,-1.1606874544382095
1789214273126247400,1.880247314453125,-4.284967476207018,0.30486499035060405,-0.30699615716040135
1789214273136279300,1.890279296875,-4.219662352603674,1.4760609793215989,0.39893677423298357
1789214273146311400,1.9003115234375,-5.767239000606536,2.515503396269679,0.29099194782078264
1789214273156343600,1.910343505859375,-2.91927533557415,0.987235259848833,0.17552607825398445
1789214273166375400,1.92037548828125,-2.4387141710996625,0.09207973328232764,-1.082742044970393
1789214273176407300,1.9304072265625,-2.5984499750256536,0.497436311429739,-0.11482874070703983
1789214273186439400,1.940439453125,0.09184234432987869,-0.29382512542009354,1.8297750485152005
1789214273196471600,1.950471435546875,2.4576643707633017,-0.8051029151976108,2.822325365906954
1789214273206498300,1.960498291015625,0.7998750244814902,1.9513310516506432,2.455194765779376
1789214273216530400,1.970530517578125,-1.7312100448668002,3.781452137124538,1.9364122994601725
1789214273226562600,1.9805625,-0.334533567905426,2.252054119890928,1.2255366509675978
1789214273236594400,1.990594482421875,1.2094261317092925,2.107757292637229,-0.6978717900127172
1789214273246626300,2.000626220703125,-1.0435679724454878,2.214058443495631,-1.8133908999472856
1789214273256658400,2.010658447265625,-0.1407458202412352,2.598935712715983,-2.2717864098429676
1789214273266690600,2.020690673828125,-1.801658961099386,1.3411100725620984,-2.36909878308177
1789214273276722400,2.030722412109375,-1.0367490131456405,-0.9534645076721906,-0.8033674697071314
1789214273286755300,2.04075537109375,0.3177285635769367,-3.7901369633615016,1.3439198692858219
1789214273296787500,2.050787353515625,1.7179168480515479,-4.8665053816467525,3.4557278986185787
1789214273306819300,2.0608193359375,2.66833891928792,-0.5570850167065858,4.328006407466531
1789214273316851500,2.0708515625,1.5363549967646597,0.6915753202170133,4.8984454112648965
1789214273326883300,2.08088330078125,1.4485831898093222,0.025156068566441533,3.504724276977777
1789214273336915500,2.09091552734375,2.0891677429795266,0.7608838342428207,1.9186440030574798
1789214273346947300,2.100947265625,1.1802759520053863,3.020100685369968,0.758484956407547
1789214273356979500,2.1109794921875,-0.19458850612044334,1.955833623766899,-0.4967459910780191
1789214273367011600,2.121011474609375,3.278217953070998,-2.404173019072413,-1.7713871569544075
1789214273377043500,2.13104345703125,5.8537663604587316,2.6298224338889122,-4.110051054283976
1789214273387075300,2.141075439453125,-1.9464567236125467,9.88999814529419,-5.914769402953982
1789214273397107500,2.151107421875,-4.363448307725787,4.770933130073547,-6.464878735429048
1789214273407139600,2.1611396484375,-1.72102767354846,1.425485807338357,-6.024809740340709
1789214273417171500,2.17117138671875,-3.18253873399198,1.5283780265361069,-4.2655876529544585
1789214273427203300,2.181203369140625,-2.910205309411883,0.6700877110302448,-1.351250942826271
1789214273437235500,2.1912353515625,-2.514414431989193,-0.028525252738595006,0.039386253970861436
1789214273447267600,2.201267578125,-1.4716571914047,0.03815115921795368,-0.3399766357421875
1789214273457299500,2.211299560546875,-0.26229608775563534,0.6337170054882765,-1.4751169764697551
1789214273467331300,2.221331298828125,1.3762912760585546,1.5714450148463248,-2.100675809943676
1789214273477363500,2.231363525390625,2.117940248477459,3.6184295666128397,-1.620408659979701
1789214273487395600,2.2413955078125,4.181994008466601,4.051162811985612,-1.3896318191468715
1789214273497428500,2.251428466796875,1.6134563566237687,7.253761752709746,-1.6989169640272854
1789214273507460400,2.26146044921875,2.8255536803036927,8.386957973632216,-1.625440224406123
1789214273517492500,2.271492431640625,1.9650117864787577,7.614571333122253,-1.8244371946185827
1789214273527524400,2.2815244140625,0.35404607762694357,6.49741965354979,-1.425961023634672
1789214273537556500,2.291556396484375,-0.2891898668348789,5.6884606474459165,-1.3722691809356211
1789214273547588400,2.30158837890625,-0.9288451032657176,3.3713533328860996,-1.6287877812683582
1789214273557620500,2.311620361328125,-0.5496188455443829,0.9391524892032146,-1.8538351385384797
1789214273567652400,2.32165234375,-0.3246376123130321,-1.6638865671783685,-1.2485124528855085
1789214273577684500,2.3316845703125,0.3702046007454395,-4.062786029762029,-0.4027566247820854
1789214273587716400,2.34171630859375,0.5205680345617234,-5.444245648369193,0.9294348127871751
1789214273597748500,2.35174853515625,-0.03174881789498031,-6.573849397757649,2.601756615355611
1789214273607780400,2.3617802734375,-0.48165524332150816,-6.015495384028553,3.6659015118837353
1789214273617812500,2.3718125,-1.210341566053778,-6.2688318471938365,4.062495522382855
1789214273627844400,2.38184423828125,-1.3637271241702138,-5.752749287483096,3.8285797990024086
1789214273637876500,2.39187646484375,-1.6411913357675074,-5.6002299908071755,3.170554866209626
1789214273647908400,2.401908447265625,-0.37736835489496584,-5.691193287280202,2.954524928131699
1789214273657940500,2.4119404296875,0.24566300592795012,-6.057895432862639,2.50158885268569
1789214273667972400,2.421972412109375,-0.5679108004949986,-4.722822886899113,1.6729577623844145
1789214273678004500,2.43200439453125,-1.1649006882190704,-3.2252509175151585,-0.38284839374125
1789214273688036400,2.442036376953125,-1.3308921915389598,-4.373783823779225,-2.2308424050360918
1789214273698068500,2.452068359375,0.3625181378960609,-3.0683968065053224,-6.023174832615256
1789214273708101600,2.4621015625,0.43951019216179843,-0.9613198973476886,-6.549600507164001
1789214273718133500,2.472133544921875,-0.7087773610390722,1.200371814572811,-3.350923123797774
1789214273728165400,2.482165283203125,-2.8137410774350164,0.9958762469440698,3.214347246184945
1789214273738197200,2.492197265625,-3.413610173857212,-0.5243681574970483,4.468174464352429
1789214273748229400,2.5022294921875,-0.8298878123641014,1.2875807269483803,2.4976450834959745
1789214273758261500,2.512261474609375,-1.3247551500886678,3.7285675191551446,1.046124671190977
1789214273768293400,2.52229345703125,0.99153032669425,5.704672946578264,-1.108917811973393
1789214273778325200,2.5323251953125,2.86623465026021,5.513673989382386,-2.238535005365312
1789214273788357400,2.542357421875,4.52877564804852,6.171926885712146,-2.248145422014594
1789214273798389500,2.552389404296875,5.610805745357275,6.3637389128565784,-2.520927174884081
1789214273808421400,2.56242138671875,5.646971868237853,5.376452799603343,-1.011720881807804
1789214273818453500,2.57245361328125,3.0126164670944213,5.338289365425705,1.9874758394822478
1789214273828485400,2.5824853515625,0.7931774996042251,6.001714111435413,4.668609942935407
1789214273838517500,2.592517578125,-0.7211293314814567,4.912288058656454,3.8307115503340956
1789214273848549400,2.60254931640625,-1.2325228565931319,2.934182397326827,1.7169439113661646
1789214273858581500,2.61258154296875,-0.41135969101972875,0.5643845260649919,0.48509150138050317
1789214273868613400,2.62261328125,0.17387078532762826,-1.2236404619574546,0.11910948676615953
1789214273878645500,2.6326455078125,0.06549808889217675,-2.75632992195189,0.9392705626249312
1789214273888677400,2.642677490234375,-0.9989197793584317,-3.065254416826367,3.368319956539571
1789214273898710500,2.65271044921875,-0.8565816118918359,-1.4022726895332336,4.173068359211087
1789214273908742400,2.662742431640625,-0.517017940864712,-1.0428934341847895,2.5993700124800205
1789214273918774300,2.672774169921875,-0.021349223629385232,-2.379122748968005,1.8973884490609167
1789214273928806700,2.682806640625,0.9443592640660703,-0.8850053039520979,1.2079665074855088
1789214273938838500,2.692838623046875,-0.17044322203174234,-1.0623422310203314,1.5675193658351898
1789214273948870400,2.702870361328125,1.012372039192915,-1.2734171770393847,0.9957564199566841
1789214273958902300,2.71290234375,1.2698955787844954,-0.20674539238214493,0.20057810192406175
1789214273968934700,2.7229345703125,-0.20773440341949462,-1.4840946481734514,-0.3123813573300838
1789214273978966500,2.732966552734375,-0.41702173536941406,-2.6153397350281478,-0.22934826933443545
1789214273988998400,2.742998291015625,-1.0322589351847766,-3.163630619904399,0.3923381066203117
1789214273999030300,2.7530302734375,-0.8646141116999089,-2.7709967452079054,1.4424591539710758
1789214274009062700,2.763062744140625,-0.9953533921137452,-1.2560679828315973,2.646948340734839
1789214274019094500,2.773094482421875,-0.3657186875030398,-0.4699240351259708,2.900184850656986
1789214274029126400,2.78312646484375,1.096990935075283,-1.2665560590982436,1.2789865016043185
1789214274039158300,2.793158203125,2.1799077520906924,-0.2216390101313591,-0.684533585011959
1789214274049190400,2.8031904296875,2.6866160419955847,0.21222060892283914,-1.8579291298538445
1789214274059222500,2.813222412109375,2.8572797749102112,1.3010714921623467,-2.3832453818559647
1789214274069254400,2.82325439453125,2.322923891884088,2.4465806666910646,-3.0839538565993307
1789214274079286300,2.833286376953125,0.8957844721198082,-0.2521428694665432,-4.24730965346396
1789214274089318400,2.843318359375,-1.7584686386704445,-0.19712416207790373,-7.0562319324404
1789214274099351300,2.853351318359375,-2.6844901358827946,-1.353811733224988,-9.561413841181993
1789214274109383400,2.863383544921875,-3.545282789598405,-2.9432489163577555,-9.170489108490944
1789214274119415600,2.87341552734375,-2.9118484004437923,-0.6117682085305451,-6.858216374480724
1789214274129447400,2.883447509765625,-0.9012830695360898,-0.229140179541707,-3.6896418684333563
1789214274139479300,2.893479248046875,0.0613014409199357,-0.5520633891522884,-2.4031126963645217
1789214274149511400,2.903511474609375,0.4365063341706991,-0.8541846337527036,-2.020023479604721
1789214274159543600,2.91354345703125,-0.8373357902824878,0.07805062340795993,-1.4794155504465103
1789214274169575400,2.923575439453125,-0.8809957760497927,-0.6184761817365885,0.6019388884335756
1789214274179607300,2.933607177734375,-0.6633996115684508,-0.07126081713736057,4.188033873152732
1789214274189639400,2.943639404296875,0.37386779942810533,-0.868555688932538,5.62767446257174
1789214274199671800,2.953671875,-1.1590464092329145,-1.315616150343418,8.021733499386906
1789214274209703700,2.96370361328125,-0.9395064172074198,0.2890817302852869,8.069782952284813
1789214274219735600,2.973735595703125,-0.3929793271332979,-0.1119014550834894,8.54557032648623
1789214274229767700,2.983767578125,2.3787696977466344,0.3528822945445776,8.5318621191293
1789214274239799800,2.9937998046875,1.9091443533062933,2.6352169864088295,6.876009805324673
1789214274249831700,3.003831787109375,1.9575705305621027,1.738142474478483,7.532378787603974
1789214274259863600,3.013863525390625,2.9898923018500208,3.073931059756875,10.673867718327045
1789214274269895700,3.023895751953125,0.5905930262938142,4.585932536509633,11.66757129740715
1789214274279927800,3.033927734375,-3.787409584224224,5.2797816468775265,11.988944939488173
1789214274289959700,3.043959716796875,-4.637118241606652,7.034557860770821,6.416852663406729
1789214274299991600,3.053991455078125,-1.7373346652269361,6.212514916688203,-8.328973986697196
1789214274310024700,3.064024658203125,-10.783222411537169,-5.201857280197739,-30.661565679109096
1789214274320056600,3.074056640625,-3.184316849580407,-10.27478656718731,-28.622699551868436
1789214274330088700,3.084088623046875,6.063636022341251,-3.7558021475613117,-10.840587389791011
1789214274340120800,3.094120849609375,7.128238599509,-0.34428222398161884,-3.5475048495620487
1789214274350152700,3.104152587890625,8.852946422874927,-0.2870774047255516,-1.0234808777064084
1789214274360184600,3.1141845703125,7.524337519967555,0.2815571799993515,0.20734920349419117
1789214274370216700,3.124216796875,5.152752180767059,0.46185763304829597,-1.777016979534924
1789214274380248800,3.134248779296875,4.996420632326602,0.13553601317107677,-1.0449804695919156
1789214274390280700,3.14428076171875,3.9297067620933053,0.1658820515960455,-1.4110270738750694
1789214274400312600,3.1543125,0.19751988339722154,0.06224515151083469,-2.7101944859817624
1789214274410344700,3.1643447265625,-3.4334885942816733,-0.17505612265467643,-2.163504314300418
1789214274420376800,3.174376953125,-4.286844668255746,-1.2152765382379294,-1.366418993602693
1789214274430408700,3.18440869140625,-5.8612663608253,-1.5511767183214424,-0.23045623057633638
1789214274440440600,3.194440673828125,-7.056969599065185,-1.1621201175898312,0.2818219684153795
1789214274450472700,3.20447265625,-2.103828721016645,-0.24608780721127985,-0.7682821278005838
1789214274460504800,3.2145048828125,3.301362681815028,0.9393570718646049,-2.2781483460903167
1789214274470536700,3.22453662109375,3.007230974663794,1.4241834925681351,-3.0930390803307293
1789214274480568600,3.234568603515625,1.1476374187290668,2.290764666557312,-1.827847295323014
1789214274490600700,3.2446005859375,1.2004194531068204,3.6065012284100053,2.230467141982913
1789214274500632800,3.2546328125,1.6889838912948965,6.115050567758083,3.5934108606904744
1789214274510664700,3.264664794921875,1.7207240144267677,10.90927806417942,2.7824486980706453
1789214274520696600,3.274696533203125,-5.202169999408722,8.114004955849051,-1.4119056102752685
1789214274530728700,3.284728759765625,2.138680254167318,8.800427715608476,-4.104550118780136
1789214274540760800,3.2947607421875,0.35584786635190246,4.754714401200413,-2.5399954479694364
1789214274550793700,3.304793701171875,-2.0453788701355458,1.719652878063917,3.1241040806800124
1789214274560825600,3.31482568359375,-3.1956554051965473,0.17967676819264888,5.394909078270197
1789214274570857700,3.324857666015625,-1.799327595542371,-3.3096143773317337,3.562106790888309
1789214274580889600,3.3348896484375,1.8517720685288308,-7.774698182192444,4.373176505535841
1789214274590921700,3.344921630859375,-0.2906938416570425,-8.043935978844761,3.9525060384005304
1789214274600953600,3.35495361328125,0.3920139892324805,-2.239372917494178,-0.5150964712828398
1789214274610985700,3.36498583984375,0.4693243156671524,-0.25869126819670196,-4.242295624694228
1789214274621017600,3.375017578125,0.0954109235316515,-1.6847089904546737,-3.6222681218624113
1789214274631049700,3.3850498046875,-0.09108604606986045,-0.8360030803740024,-1.6202327188909054
1789214274641081600,3.39508154296875,-0.07493906725868582,-2.821188470831513,-0.24855215149819848
1789214274651113700,3.40511376953125,-1.0193265345059335,-1.6780916181415317,1.6921768421173096
1789214274661145600,3.4151455078125,-0.9501796407826244,-1.6603174765199422,2.1540508417785165
1789214274671177700,3.425177734375,-0.5766083400830626,-2.042562643671036,1.7018723067015409
1789214274681209600,3.435209716796875,-0.9653042908087373,-2.2024463316351173,1.1986147417724131
1789214274691241700,3.44524169921875,-0.6685168084517121,-2.2300819420576095,0.21318623908460138
1789214274701273600,3.455273681640625,-0.6363993764400482,-2.7315339188694954,-0.3863134395033121
1789214274711305700,3.4653056640625,0.004386398390680551,-2.580211138501763,-0.4766220714598894
1789214274721337900,3.475337890625,0.2264160152748227,-1.2493161704838276,-1.2868740399837493
1789214274731369700,3.48536962890625,-0.27154768102988597,-0.05375263297557831,-1.8745541014403104
1789214274741401600,3.495401611328125,0.009598872341960668,1.8534511076569555,-1.3352438108772038
1789214274751433700,3.505433837890625,-0.6756057437993586,1.464504981562495,-0.3200824332267046
1789214274761465900,3.5154658203125,-1.718684909814596,0.14810264927744865,1.3751912058621645
1789214274771497700,3.525497802734375,-2.356432047601789,1.1774965504199266,2.508028530344367
1789214274781529600,3.535529541015625,-0.5793066392563283,2.644603823435306,3.1519138786256313
1789214274791561700,3.545561767578125,17.880106087839604,4.127883648094534,0.5257821159482002
1789214274801593900,3.55559375,-11.240997743707895,-7.0120993607252835,0.9255787218809127
1789214274811625700,3.565625732421875,-5.952461127966642,0.6113596277296542,5.7192748879045245
1789214274821657600,3.57565771484375,5.4415574321985245,-0.22403671892285346,-0.5899339778631926
1789214274831690800,3.585690673828125,-1.3054570137701929,0.37544074783325193,-2.7183032658964392
1789214274841722600,3.59572265625,3.104940238265693,5.45637272401452,-3.0180490135371683
1789214274851754800,3.605754638671875,2.5327298408806325,1.5458581536471843,-6.386462201318144
1789214274861786600,3.61578662109375,-1.3302309511512518,2.182180373197794,-3.260345027250051
1789214274871818800,3.62581884765625,-0.8189291959762572,-3.2986353026777504,1.0654933885276316
1789214274881850600,3.6358505859375,0.6531713552817702,-0.2770171984821558,2.3199638730347156
1789214274891882800,3.6458828125,0.25329642341583963,-5.48052458397448,0.13954846368283033
1789214274901914600,3.65591455078125,-0.05921995847076177,-3.6841304115355014,0.05359422754347324
1789214274911946800,3.66594677734375,-0.688189184910059,-3.9687510707587,-2.3913754968196153
1789214274921978600,3.675978515625,-1.484188463936746,-2.153773778402805,-2.7335002505064008
1789214274932010800,3.6860107421875,-4.657979243327677,-0.4835048167109489,5.568278855273127
1789214274942042600,3.696042724609375,-0.5382382774174214,-4.191009089571238,-2.12341225014776
1789214274952074800,3.70607470703125,1.9223355510517954,1.9898148038238286,-7.394715114754438
1789214274962106600,3.716106689453125,0.4888412093028426,2.4415134464293717,-1.3904653473615645
1789214274972138800,3.726138671875,1.0951049751982092,-0.5234247391670942,-1.0564984734281897
1789214274982170600,3.736170654296875,0.016828092943131923,1.2646417499095202,-0.10702215860933065
1789214274992202800,3.74620263671875,-0.5679544935062527,-0.947726840803027,-0.9236652894750237
1789214275002234600,3.756234619140625,-0.5105681802034377,-1.7269032875835895,0.031203532037138937
1789214275012266800,3.766266845703125,0.6707040893629193,-1.5587129590451716,-0.06030190848857164
1789214275022298600,3.776298583984375,0.13970716137588024,-3.538250699004531,-2.117587489517033
1789214275032330800,3.786330810546875,-0.007859189067780971,-3.593003448933363,-2.0408499945342538
1789214275042362600,3.796362548828125,-0.569791061283648,-4.235736120048165,-1.9705287963345646
1789214275052394800,3.806394775390625,-1.9670587821364403,-4.767898292422294,-1.271385671211779
1789214275062426600,3.816426513671875,-2.8420424582898614,-6.147358846166729,-0.8669301335573196
1789214275072458800,3.826458740234375,-3.256341636827588,-8.82828602887094,-1.683947358432412
1789214275082490600,3.83649072265625,-3.937303793093562,-10.8262829701066,-1.841579760338366
1789214275092523500,3.8465234375,-3.667532327955961,-9.335713572961092,-1.2977975850582122
1789214275102555600,3.8565556640625,0.3837041337877512,-2.889464719200134,3.377663831207156
1789214275112587800,3.866587890625,-0.10561930607408285,4.305295393964648,3.9480490589916704
1789214275122619600,3.87661962890625,-1.100832705195248,7.683392940413952,1.5128396811425684
1789214275132651500,3.886651611328125,-0.058897010126709934,8.994770138013362,0.7270677816197275
1789214275142683600,3.89668359375,0.9257742444530129,8.492148532900213,0.6171981246247887
1789214275152715800,3.9067158203125,1.2739932233616709,7.04741091260314,1.3436226399049163
1789214275162747600,3.91674755859375,1.6602870813816786,4.786447510069609,1.7323662291646003
1789214275172779800,3.92677978515625,2.2856845868140456,2.1993021883904933,1.5285250337913632
1789214275182811600,3.936811767578125,1.1138047072321176,0.08988777619600295,1.4674886735484003
1789214275192843800,3.94684375,-1.9410195009946822,-2.423595512422919,1.139511103157699
1789214275202875600,3.956875732421875,-2.956336361467838,-3.1162229720413683,0.7329568396583199
1789214275212907500,3.966907470703125,-1.9577613769590854,-2.5033850884526965,0.4906871294304728
1789214275222939400,3.976939453125,-1.3271657183617354,-2.0661422567009926,0.1716939527451992
1789214275232971800,3.9869716796875,-1.3162345745027064,-1.8212381063163279,0.013735679885745047
1789214275243003600,3.997003662109375,-1.328609487429261,-1.6575731462478638,0.23733196156471967
1789214275253035500,4.007035400390625,-1.0367068545043467,-1.6105606351822614,1.1539096308663486
1789214275263067400,4.0170673828125,-0.7492506795942783,-1.561183148550987,2.2512103625431656
1789214275273099800,4.027099853515625,0.16239245591461657,-1.1442156275868416,2.9628704394116996
1789214275283131600,4.037131591796875,0.67255848505795,-1.0654092173755167,2.5952365659371015
1789214275293163500,4.04716357421875,0.8933131135702133,-1.464192262351513,1.484252176822722
1789214275303195400,4.0571953125,1.495540755817294,-2.183662720710039,0.4958405666708946
1789214275313227800,4.067227783203125,1.9466198052197694,-2.1776608499467374,0.4064662929549813
1789214275323259600,4.077259765625,1.7330980505704878,-1.6104676962018012,0.9564394318297504
1789214275333291500,4.08729150390625,1.1154857921868562,-1.1033657308042049,1.248375382502377
1789214275343323400,4.097323486328125,1.2372007852762936,-1.0790274083614348,1.5737296186521648
1789214275353355500,4.10735546875,1.3483090441554784,-1.524439225782454,1.133321308606863
1789214275363388400,4.117388427734375,1.526703371322155,-1.3645073147624731,-0.3927458106383681
1789214275373420500,4.127420654296875,3.1307465874344107,-1.0599813471078872,-1.5201912129491566
1789214275383452700,4.13745263671875,3.4808535720467564,-0.5344944147139787,-1.7495666625514625
1789214275393484500,4.147484619140625,2.4693431181192396,0.4867565119832754,-1.8715937903299926
1789214275403516400,4.157516357421875,3.084912472498417,1.8411755634516476,-1.8667600865632294
1789214275413548500,4.167548583984375,2.253178740006685,2.9689985669031738,-2.573070619097352
1789214275423580700,4.17758056640625,1.1408271541923285,3.9910190166682002,-3.1988366655811666
1789214275433612500,4.187612548828125,1.3329063078403471,3.9435838962763547,-2.8818492757603527
1789214275443644400,4.19764453125,1.7043875043928622,2.819195835709572,-2.403945640057325
1789214275453676500,4.207676513671875,1.8077198685735463,1.9912889680296182,-1.9984519915267824
1789214275463708700,4.217708740234375,1.5755203014612198,1.661710976704955,-1.542083895805478
1789214275473740500,4.227740478515625,1.6058797838896512,1.5553522504404187,-1.4593305015340448
1789214275483772400,4.2377724609375,1.722271536129713,2.325576744480431,-1.6014941161513327
1789214275493804500,4.247804443359375,1.6073784980148076,3.0319053971931336,-1.2519760373428463
1789214275503836700,4.257836669921875,1.7648130392611026,3.4867747787892815,-0.9043848349437117
1789214275513868500,4.26786865234375,2.3068512934833763,3.7046354394257066,-1.1460580405831335
1789214275523900400,4.277900390625,2.7108430130183696,4.1373976186320185,-1.405584006038308
1789214275533932500,4.2879326171875,2.609085935330391,4.586723102365434,-1.3879212158367038
1789214275543964700,4.297964599609375,2.094734144935012,4.987470433151722,-1.1266606816738842
1789214275553996500,4.30799658203125,1.8898200596332548,5.0588078226566315,-0.8023074392601847
1789214275564028400,4.3180283203125,1.8182775029450653,5.0763925791859625,-0.6205722772330046
1789214275574060500,4.328060546875,1.396906194064021,4.962336576417088,-0.5705497706964612
1789214275584092700,4.3380927734375,1.0991957516431807,4.459072581747174,-0.5258344306573272
1789214275594124500,4.34812451171875,1.6595353862315416,3.7903275174975395,-0.7684139374867082
1789214275604156400,4.358156494140625,1.4132792367160318,3.1368197698682545,-1.1405679187342523
1789214275614188500,4.3681884765625,0.8406365853935479,2.597407187974453,-1.2099141344219446
1789214275624220700,4.378220703125,0.8909206654757261,2.035949947533011,-1.0596356024101377
1789214275634252500,4.38825244140625,0.5446376230657101,1.4563397952854633,-0.6677730043470859
1789214275644285400,4.398285400390625,-0.6598474720448255,0.9804776022821664,-0.027760113584995267
1789214275654317600,4.408317626953125,-1.555648310777545,0.5088800809860229,1.3025941716849803
1789214275664349400,4.418349365234375,-1.8249574191004037,-0.27415011861324307,2.662481133170426
1789214275674381600,4.428381591796875,-1.4829776268422603,-1.6518033306747675,3.5563550954937933
1789214275684413700,4.43841357421875,-1.191208849430084,-2.2009224830687044,3.987642233711481
1789214275694445600,4.448445556640625,-0.32079905706346035,-2.1567051556795835,3.837339444041252
1789214275704477400,4.4584775390625,-0.008270400217175483,-1.7328922988653181,3.053957946786284
1789214275714509600,4.468509521484375,-0.3660568334162235,-1.3222177405655384,2.4500740617647767
1789214275724541700,4.478541748046875,-0.7419628606736659,-1.407605867254734,2.4023355745121835
1789214275734573600,4.488573486328125,-1.009744028776884,-1.7746248237013815,2.2796701488301157
1789214275744605400,4.49860546875,-1.1831266652613877,-2.4948610057353973,2.087559138739109
1789214275754637600,4.508637451171875,-1.360710260567069,-3.2649908072292804,1.9820771953091023
1789214275764669700,4.518669677734375,-1.2119301504194735,-3.8346675944834945,1.9569351552680134
1789214275774701600,4.52870166015625,-1.1837620405554772,-3.9538679744035004,1.9494523982971905
1789214275784733400,4.5387333984375,-1.492096168321371,-3.8111703990399834,1.783518031992018
1789214275794765600,4.548765625,-2.2584902904182673,-3.7477562037497756,1.9390683669269084
1789214275804797700,4.558797607421875,-2.5851059248059984,-3.5764556342363356,1.9705843259140847
1789214275814829600,4.56882958984375,-2.2410911195889116,-2.8875334588766095,1.9973036982744932
1789214275824861400,4.578861328125,-1.6918354813337324,-1.3323551036983727,1.5139862208291888
1789214275834893600,4.5888935546875,-1.1076087752014399,-0.42506548722386356,0.7383461314812302
1789214275844925700,4.59892578125,-0.408583723500371,-0.16043723019361494,0.2342921554774046
1789214275854957600,4.60895751953125,-0.150392221519351,-0.19173779286444187,-0.19343553669303654
1789214275864989400,4.618989501953125,-0.574043165770173,-0.4785246902108192,-0.3712926882430911
1789214275875021600,4.629021484375,-1.3388517722412943,-0.6958043360888958,-0.29961773734688757
1789214275885053700,4.6390537109375,-1.5846534559875727,-0.44735213783383365,-0.22544366311132907
1789214275895085600,4.64908544921875,-1.2091846511036157,-0.22224106767773627,-0.2323284541890025
1789214275905117400,4.659117431640625,-0.541994999602437,-0.3446078026741743,-0.3272641614243388
1789214275915149600,4.669149658203125,0.036544893065094945,-0.44133506950139995,-0.35916327451020474
1789214275925181700,4.679181640625,0.3968482775211334,-0.43600832152068614,-0.4002887733638286
1789214275935213600,4.689213623046875,0.36157705765366555,-0.3643219724476337,-0.6551029078662395
1789214275945245400,4.699245361328125,0.3496919740706682,-0.38398002811968324,-0.8709872999936342
1789214275955277600,4.709277587890625,0.34252690474689007,-0.49667175679802894,-0.9913462022989987
1789214275965309700,4.719309814453125,0.1762345187842846,-0.5040881705343723,-1.0184507745847104
1789214275975341600,4.729341552734375,-0.09398819725215435,-0.5207458753466606,-0.8177408629745244
1789214275985373400,4.73937353515625,-0.2601099028229713,-0.5222878440916537,-0.5351587238416076
1789214275995406600,4.749406494140625,-0.04737549915909767,-0.7432675135314464,-0.14919745877683163
1789214276005438500,4.7594384765625,0.6699222913354634,-0.7916752783477305,0.3240142197176814
1789214276015470600,4.769470703125,1.0972206521779297,-0.8550865510284901,0.7595166375428438
1789214276025502500,4.77950244140625,1.2799579769849776,-0.9605337154060601,0.9191340757861733
1789214276035534600,4.78953466796875,1.5889146205633877,-0.7996428962260484,0.809647572889924
1789214276045566500,4.79956640625,1.22635322804749,-0.8078659501701593,0.33506197569370266
1789214276055598600,4.8095986328125,0.17072773806154726,-0.8584662565946578,0.32776626572757955
1789214276065630700,4.819630615234375,-1.0566542485117911,-1.054181720918417,0.3946726870477199
1789214276075662600,4.82966259765625,-2.2755787878632545,-1.7762480409890413,0.25042379058897496
1789214276085694500,4.839694580078125,-2.4235908362478016,-2.0285990002483127,0.7730565025955438
1789214276095726600,4.8497265625,-1.9818208824604748,-2.168397931560874,1.0268325262218714
1789214276105758700,4.8597587890625,-1.3522767787426708,-2.252818674522638,1.446466636046767
1789214276115790600,4.86979052734375,-0.16626783604323864,-2.2737714461803433,2.0488237498924136
1789214276125822500,4.879822509765625,0.8171236078590154,-2.3803584282428023,2.3886691604703665
1789214276135854600,4.8898544921875,1.0434943226873874,-2.303591999426484,2.2030723545789717
1789214276145886700,4.89988671875,0.6692097591519356,-2.0152800844699144,1.517124226593971
1789214276155918600,4.909918701171875,0.6128682787269354,-1.890131609800458,0.5843421492055059
1789214276165950500,4.919950439453125,1.2613345250576733,-1.6617402027994392,-0.047827042318880554
1789214276175982600,4.929982666015625,1.6577128469794988,-1.1966484101355075,-0.4585492391526699
1789214276186014700,4.9400146484375,1.7184622069746256,-0.49369946298897266,-0.7724325254783034
1789214276196046600,4.950046630859375,1.5604752925425767,0.16412088714241982,-0.9256894887790084
1789214276206078700,4.96007861328125,1.4233733452290296,0.45875849798917767,-0.9552744797036051
1789214276216110600,4.970110595703125,0.9842179578542709,0.35193156969100237,-1.030770157931745
1789214276226142700,4.980142822265625,0.2088502557069063,0.14066460823118687,-0.9379735085517168
1789214276236174600,4.990174560546875,0.20371464638411999,0.11567132901102303,-0.4731102639466524
1789214276246206700,5.000206787109375,1.1632511674463748,0.23226649486869572,0.460249905590713
1789214276256238600,5.010238525390625,1.657508848839998,0.06585603548437356,-0.22518179730474946
1789214276266270700,5.020270751953125,1.9891665690481661,-0.02987842091321945,-1.4792247040495277
1789214276276302600,5.030302490234375,1.7758458899289369,0.4158595597222447,-1.618345589970052
1789214276286334700,5.040334716796875,0.9099883540391921,1.082509112997353,-1.3574918830424547
1789214276296366600,5.05036669921875,0.8812316306322813,1.8446160592943428,-1.6603163074761629
1789214276306398700,5.060398681640625,1.929324387025833,2.5195567633137106,-2.8661142387509346
1789214276316430600,5.0704306640625,1.4498247143030165,2.3389099810451266,-3.444508000946045
1789214276326463700,5.080463623046875,0.7673889783531427,2.0196213285446167,-3.431885250738263
1789214276336495600,5.09049560546875,0.4445107769280672,1.6353212746903298,-3.404081882533431
1789214276346527500,5.100527587890625,0.5561117877602577,0.9984668479591607,-2.6722856110870836
1789214276356560000,5.110559814453125,0.4720692304611206,0.6838762901470065,-1.567884692016244
1789214276366591700,5.120591796875,-0.42629941293299195,1.3963926915839313,-0.7483230433553457
1789214276376623600,5.13062353515625,0.17449205903112888,2.1014777739763257,0.043830373898148534
1789214276386655500,5.140655517578125,1.5441104331970215,2.3766136887565255,0.4550438613802194
1789214276396688000,5.15068798828125,1.2849006940841674,2.9995474344238637,0.5304045150518417
1789214276406719700,5.1607197265625,0.9567647182613611,3.6940728366181252,0.7501146029472351
1789214276416751600,5.170751708984375,0.8185755602329969,4.196035977822542,0.4636006773233413
1789214276426783700,5.18078369140625,0.9382599242776631,4.562581763799488,-0.014672668474912642
1789214276436815600,5.190815673828125,1.0569891795545816,4.6118668959721925,-0.10028145217746495
1789214276446847700,5.20084765625,1.1322750144243239,4.443117472246289,-0.040104923634231085
1789214276456879600,5.210879638671875,1.0675058973938225,4.018675085356831,-0.310204597812891
1789214276466911700,5.220911865234375,0.7957926505386829,3.388874376529455,-0.5776473277419805
1789214276476943600,5.230943603515625,0.47089024980962274,2.599377611264586,-0.5997577450022101
1789214276486975700,5.240975830078125,0.12309738735854625,1.9181898295491933,-0.45844431747347114
1789214276497007600,5.251007568359375,0.4176221854805946,1.6284283003062008,-0.2514803139045834
1789214276507039700,5.261039794921875,0.9350374550998211,1.5392904656946658,-0.06243599790781736
1789214276517071600,5.271071533203125,1.3335007666021585,1.4641671279102564,-0.016456337021291255
1789214276527103700,5.281103759765625,1.0363958888590334,1.6122423046588896,-0.16323767456710336
1789214276537135600,5.291135498046875,0.6565414162367582,1.8303706763207912,-0.12638707655370235
1789214276547167700,5.301167724609375,0.722740273809433,2.0205740992248056,0.20672288828939198
1789214276557199600,5.31119970703125,0.6829805103510618,1.9692209286063909,0.6351505454227327
1789214276567231700,5.321231689453125,-0.10728256311118602,1.6439461874336003,1.0226119859173894
1789214276577263600,5.331263671875,-0.42815234732329843,1.3172037117958069,1.3321522746026515
1789214276587295700,5.341295654296875,-0.47956864630579943,0.9181132083058356,1.5315516881361604
1789214276597327600,5.35132763671875,-0.879482741138339,0.37279111010730265,1.8661910545036196
1789214276607359700,5.36135986328125,-1.1309908198326826,-0.37419922333955763,2.158680839666724
1789214276617391600,5.3713916015625,-1.2097837860405445,-1.40155197404325,2.1642364279672504
1789214276627423700,5.381423828125,-1.3145312777161597,-2.5713158843845125,1.779568417583406
1789214276637455600,5.39145556640625,-1.4741057536005973,-3.4538784713596105,1.2775783883720635
1789214276647487700,5.40148779296875,-1.6003911233454942,-3.879600376665592,0.8955278670102357
1789214276657519600,5.41151953125,-1.5999387034028767,-3.713504390057921,0.5996382102757692
1789214276667551700,5.4215517578125,-1.8041683135718105,-3.2707121074855325,0.470643581572175
1789214276677583600,5.43158349609375,-2.1686878544181583,-2.7742969557970762,0.6803180131435393
1789214276687615700,5.44161572265625,-2.5655653580337763,-2.2406968595743177,1.0268968236297369
1789214276697647600,5.451647705078125,-2.3576947610139847,-1.8757395118325948,1.5601821548148989
1789214276707679700,5.4616796875,-1.9005922135382889,-1.790864595362544,1.9243088969513773
1789214276717711600,5.471711669921875,-1.6610738478451965,-1.9042770395308732,1.705462878539413
1789214276727743700,5.48174365234375,-1.2633470339238644,-1.9739754296571015,1.2110106974869965
1789214276737775600,5.491775634765625,-1.061775829309225,-1.9667992544174193,0.9493193706914782
1789214276747807700,5.501807861328125,-1.09783556920588,-1.5248106894433497,0.4663768640384078
1789214276757840600,5.511840576171875,-1.2284469854563473,-0.958249403861165,-0.31450653279051183
1789214276767872500,5.52187255859375,-0.9410942709207534,-0.4824637832254171,-0.7940982677109539
1789214276777904600,5.531904541015625,-0.6079004271864891,-0.6323878027111292,-0.7922431413635611
1789214276787936800,5.541936767578125,-0.9565399695947766,-1.192736789649725,-0.7053356961525976
1789214276797968600,5.55196875,-1.8276579102307557,-1.5522206744164229,-0.7353530871450901
1789214276808000500,5.56200048828125,-2.491532738095522,-1.5341326445400714,-0.6349196592763066
1789214276818032600,5.57203271484375,-2.9367829352140427,-1.3051467787772417,-0.20510303200259802
1789214276828064800,5.582064697265625,-3.234562351217866,-1.1209966645628213,0.554576248756051
1789214276838096600,5.5920966796875,-4.488748758086562,-0.905659969446063,0.953240051266551
1789214276848128800,5.602128662109375,-6.004648995843529,-0.6550099688857793,0.8811807772278785
1789214276858160600,5.61216064453125,-5.1445641981363295,-0.5944084929287433,0.9951295202299952
1789214276868192800,5.62219287109375,-2.446751931604743,-0.8169114264130591,1.2799974322125316
1789214276878224600,5.632224609375,-0.03855272575616836,-1.0149971269994973,1.4918568066075444
1789214276888256800,5.6422568359375,1.634071859151125,-1.0217208822965622,1.548622357663512
1789214276898288600,5.65228857421875,3.2740380370378492,-0.21688275551497935,1.930922762133181
1789214276908320800,5.66232080078125,3.8258313770771024,1.2822574860990046,2.770619728589058
1789214276918352600,5.6723525390625,4.3765339992702,2.2938749075323344,3.3849794149175283
1789214276928384800,5.682384765625,3.8429128602594136,2.854239092040062,3.115747755745053
1789214276938416600,5.692416748046875,1.864244888871908,2.4660516753584143,2.613379248610139
1789214276948448800,5.70244873046875,-0.41494916687905786,1.721924914649129,2.424886136755347
1789214276958480600,5.712480712890625,-1.4995260260611771,0.9693371995866298,2.4632667208150028
1789214276968512800,5.7225126953125,-2.5729542992413044,-0.0561579405516386,2.5872081577822565
1789214276978544600,5.732544677734375,-3.643656946849823,-1.5288409678727388,3.010606296315789
1789214276988576800,5.74257666015625,-3.2500475051194426,-2.5212743808865548,3.0781168210089205
1789214276998608600,5.752608642578125,-1.122280274632573,-2.740848275181651,2.411037059623003
1789214277008640800,5.762640869140625,0.36150282337367534,-2.932417725741863,1.5174980283424258
1789214277018672600,5.772672607421875,0.9713029467016457,-2.390938858968019,0.2703343597173691
1789214277028704800,5.782704833984375,1.0753899286419153,-1.731387739521265,-0.6615034225583076
1789214277038736600,5.792736572265625,0.6391863768100738,-1.2666197719842194,-0.937549730181694
1789214277048768800,5.802768798828125,0.35832945403456684,-0.5684796864241362,-0.921253259897232
1789214277058800600,5.812800537109375,0.6082482177108526,0.5860568441689014,-0.5362140781134367
1789214277068832500,5.82283251953125,1.1039204420775175,1.3044833464324475,-0.47584816447794437
1789214277078864600,5.83286474609375,1.6907406718343496,1.5249059665113687,-0.46253334035277366
1789214277088896800,5.842896728515625,1.5884645387083292,1.1931360181003807,-0.2867798830837011
1789214277098928600,5.8529287109375,1.6145213555067777,0.42772856895327566,-0.06906009222269058
1789214277108960500,5.86296044921875,1.7271639843463897,-0.5504927788347006,0.33892069694846866
1789214277118992600,5.87299267578125,1.4834300467848778,-1.2833411896824836,1.3417290812432765
1789214277129024800,5.883024658203125,0.3134539549976587,-2.2576652377709747,2.13573981680125
1789214277139056600,5.893056640625,0.5340384876400232,-2.929272121192515,3.4203996878668663
1789214277149088500,5.903088623046875,-0.3357657400488853,-2.5455399303540585,3.444982924981415
1789214277159121000,5.913120849609375,0.35308337007462975,-0.24599486823081967,1.201300619855523
1789214277169152800,5.92315283203125,3.6167543268769977,1.8823291193559766,-2.025118172395229
1789214277179184600,5.9331845703125,3.7734172992289063,1.9904288440689444,-2.840633760535717
1789214277189216500,5.943216552734375,1.3874480453670024,1.7808710246145725,-1.7817369937941432
1789214277199249000,5.953248779296875,-0.039542321315407754,2.3396099460080264,-2.230422426058352
1789214277209280500,5.963280517578125,0.9563865325987339,2.6512279177501794,-4.387926330900192
1789214277219312600,5.973312744140625,1.7574264361411331,1.8636802407264708,-5.915421144860982
1789214277229344500,5.983344482421875,1.469274095660448,0.5355918545618653,-5.504407563865184
1789214277239376600,5.993376708984375,1.444547650682926,0.13734189354926346,-4.396272134441137
1789214277249408500,6.003408447265625,2.095862272182107,1.1614689602047203,-3.3148061007559297
1789214277259440600,6.013440673828125,2.0478835464328524,2.3733239995613693,-2.1165534702941775
1789214277269472500,6.023472412109375,1.9347259538084267,3.56495867318809,-1.6770266192585228
1789214277279504600,6.033504638671875,2.5867028386086224,3.9943396855235096,-1.7221160533070563
1789214277289536500,6.04353662109375,3.4754327160418033,3.807200326365232,-2.0043357888683677
1789214277299568600,6.053568603515625,3.3185388575434684,3.465262911944091,-2.4109742235198617
1789214277309600500,6.0636005859375,3.0409862370103595,3.2804376749470827,-2.6117048856571317
1789214277319632600,6.073632568359375,3.123936907419562,2.998839578415453,-2.8033272354483603
1789214277329664500,6.08366455078125,2.928720040267706,2.2998703485548493,-3.1091879588380453
1789214277339696600,6.093696533203125,2.765563029721379,1.31546300560832,-3.347504839786887
1789214277349728500,6.103728515625,2.021433930924535,0.5491992318928242,-3.042201458019018
1789214277359760600,6.1137607421875,1.263726388630271,0.20824586007297038,-1.9364160988524555
1789214277369792500,6.12379248046875,0.9361989000946283,0.2025292359918356,-0.08177256654053926
1789214277379824600,6.13382470703125,0.4854407532095909,0.16210545566678047,1.9808090750694274
1789214277389857500,6.143857421875,-0.8492068453401327,-0.1289946287035942,3.6970860469594595
1789214277399889400,6.153889404296875,-1.7935060497820376,-0.27284546575546265,4.4285356969252225
1789214277409920500,6.16392041015625,-2.284099363449216,0.05426525867283344,4.4184795823350544
1789214277419953700,6.17395361328125,-3.262132495188713,1.0823889937490223,4.194961918850243
1789214277429985500,6.183985595703125,-3.1256402042061087,2.146166226008534,3.865070039270818
1789214277440017400,6.194017333984375,-2.2592945925384758,2.632593652167916,3.6118443430036304
1789214277450049500,6.204049560546875,-1.56669811258018,2.2816005323708057,3.0333883292272685
1789214277460081700,6.21408154296875,-1.1206944667458534,0.6780559134304524,2.9121593660891056
1789214277470113500,6.224113525390625,-1.6926584881544111,-1.087723340514302,3.1287483993545173
1789214277480145400,6.2341455078125,-1.5751806942433118,-2.457643327975273,3.144217186643183
1789214277490177500,6.244177490234375,-0.9370739293634891,-3.1662527851015327,3.150123780338466
1789214277500209700,6.254209716796875,-0.8605375099107623,-3.277220758727193,2.5110610299080607
1789214277510241500,6.264241455078125,-1.6462158859312532,-2.5318717627465723,1.767852553087473
1789214277520273400,6.2742734375,-2.792629900345206,-0.7391969030916691,0.9394985261619091
1789214277530305500,6.284305419921875,-2.7923686190605164,1.493425955620408,0.7886427787840365
1789214277540337700,6.294337646484375,-1.861253305840492,1.9998317554473877,0.7239347442910075
1789214277550369500,6.30436962890625,-1.0653478425770997,0.23605682706236839,0.6576572685241698
1789214277560401400,6.3144013671875,-0.42637481625676155,-2.728421339806914,0.033443712179362775
1789214277570433500,6.32443359375,-0.912605258539319,-5.457312635213136,-0.7407061386108398
1789214277580465700,6.334465576171875,-1.427840846031904,-7.811265871611237,-0.2784627211153507
1789214277590497500,6.34449755859375,-2.12482007111907,-9.146229111981391,1.607135336908698
1789214277600529700,6.35452978515625,-3.2804590099960564,-8.02124133195579,3.5848014377772808
1789214277610561500,6.3645615234375,-3.7629981965452433,-4.865467855292558,4.253934624561667
1789214277620593700,6.37459375,-3.8475755913734435,-1.7574731978923082,3.7964725961238144
1789214277630625500,6.38462548828125,-3.191409438189864,0.46504210830330844,2.415631986197829
1789214277640657700,6.39465771484375,-0.9771113407194614,1.2376432683467864,0.12324585591852665
1789214277650689500,6.404689453125,1.149863862606883,1.4015706787437199,-2.0726041461914777
1789214277660721700,6.4147216796875,2.143667979452014,1.30110305634439,-3.484131863065064
1789214277670753500,6.42475341796875,1.0583476084262131,1.4107149391859768,-3.7055513852268454
1789214277680785700,6.43478564453125,-2.2061562920689584,1.009372857376933,-3.526319730453193
1789214277690817500,6.444817626953125,-5.265913280522823,-0.01667348690330982,-2.879619909273088
1789214277700849400,6.454849365234375,-6.057561670863628,-2.2642186049371955,-2.639137666983902
1789214277710881500,6.464881591796875,-3.664038640621304,-4.084789771777391,-2.2314131906613706
1789214277720913700,6.47491357421875,0.7155325343877077,-4.419713215783238,-1.5075126409009099
1789214277730945500,6.484945556640625,2.400876315614581,-3.153523067387938,-0.6992375254079699
1789214277740977400,6.494977294921875,3.184883251291513,-1.084247188836336,-0.037821196611225606
1789214277751009500,6.505009521484375,5.629470698338746,0.013678396740555763,0.828952285079658
1789214277761041700,6.515041748046875,7.225532852569222,0.4581558559209108,1.3184466975942253
1789214277771073500,6.525073486328125,6.074288933780789,1.230646541327238,2.3234938007265327
1789214277781105400,6.53510546875,1.8091069390177725,1.188807048985362,3.5672780560463666
1789214277791137500,6.545137451171875,-2.3117115929961205,-0.03356733855903148,3.9251279098704455
1789214277801169700,6.555169677734375,-4.87639373845458,-1.7859978661090135,3.156637984538078
1789214277811201500,6.565201416015625,-7.272434888997673,-3.70130950987339,2.941229685489833
1789214277821233400,6.5752333984375,-7.108086038318276,-4.364637809771299,4.174568534640968
1789214277831265500,6.585265625,-4.024119906759262,-4.259864014610648,4.820409693165123
1789214277841297700,6.595297607421875,-0.9146206900149584,-4.7211686899513,4.227546091590821
1789214277851329500,6.60532958984375,0.6130225925058126,-4.486763137227297,3.3689684835761784
1789214277861361400,6.615361328125,1.1249421873182057,-2.6041063933521507,2.109402137234807
1789214277871393500,6.6253935546875,2.2772978667408226,0.7222054362803697,0.7129691136404872
1789214277881425700,6.63542578125,2.584621940681338,2.0423107147365807,-0.5772387469410896
1789214277891457500,6.64545751953125,2.203478597292304,1.5102043642029166,-1.680690986984968
1789214277901489400,6.655489501953125,2.2877941263139245,0.7417518482714891,-1.6772507834032178
1789214277911521800,6.665521728515625,1.3095377072125673,-0.5278983774498105,-1.6075181987464426
1789214277921553700,6.6755537109375,-0.0004103343665599823,-1.977674576435983,-1.7707576268792151
1789214277931585500,6.68558544921875,-0.6250853707432746,-2.9005092603057623,-1.176220246873796
1789214277941617400,6.695617431640625,-0.16862755091190337,-2.56495190231055,0.7185396072492003
1789214277951649800,6.70564990234375,1.4781284332454203,-0.24526947656571862,1.3177654373317955
1789214277961681700,6.715681640625,4.547309083604812,2.6116905648708344,-0.5766834511458874
1789214277971713500,6.725713623046875,6.564010140788555,2.9959727908074854,-3.691512338480353
1789214277981745400,6.735745361328125,5.127064197281003,1.2107196055859326,-5.066615866059065
1789214277991777500,6.745777587890625,2.967379149007797,0.2687514744400978,-5.518987877881527
1789214278001809700,6.7558095703125,2.3624960238158703,1.307007604213059,-6.1159939860880375
1789214278011841500,6.765841552734375,1.3519488619625568,2.3175480440646408,-5.758469418695569
1789214278021873400,6.775873291015625,0.6312684432923793,1.3084256543174386,-3.929724297749996
1789214278031905500,6.785905517578125,1.3094015136122703,0.014671791692078112,-2.604223882251978
1789214278041937700,6.795937744140625,2.1058166799634694,0.6744710406810045,-2.4255256037026642
1789214278051969500,6.805969482421875,2.3390286389887334,2.414934067061543,-2.512351069718599
1789214278062001400,6.81600146484375,2.2469220176994797,3.5437887516483664,-2.2260925801604983
1789214278072033500,6.826033447265625,2.9172873766273257,3.9238837550282475,-2.2547575336307286
1789214278082065700,6.836065673828125,3.191961811375618,3.6591327484011646,-3.0340076301693912
1789214278092097500,6.84609765625,1.8401690167576072,3.710693716551363,-4.475288388010859
1789214278102129400,6.85612939453125,-0.39512452246844765,4.503770386129617,-4.921645085066556
1789214278112161500,6.86616162109375,-1.8951508992671966,4.919820207726955,-3.5013334654957053
1789214278122193700,6.876193603515625,-1.422341079571843,4.406470872372388,-1.1750544179648161
1789214278132225500,6.8862255859375,0.06455284393131733,3.1519524570703505,0.48840077205896376
1789214278142257400,6.89625732421875,0.7993927208572625,1.4621569571316242,0.9585615385502576
1789214278152289500,6.90628955078125,0.5129536140352488,-0.0056231005787849425,0.8422410979807377
1789214278162321700,6.91632177734375,0.4921680156379938,-0.8562742995083331,0.39566988139152526
1789214278172353500,6.926353515625,0.23595804286301134,-1.438300280725956,0.3061731503397226
1789214278182385400,6.936385498046875,0.006229834300279617,-1.6705816809028387,0.6957452993780374
1789214278192417500,6.94641748046875,-0.16745792261064052,-1.5991852546870708,1.2920397521838545
1789214278202449700,6.95644970703125,-0.0909229644626379,-1.310263683399558,1.6348907743185757
1789214278212481800,6.966481689453125,0.01595510950088501,-0.8953051641702652,1.493914615920186
1789214278222513700,6.976513671875,0.03939268371164799,-0.6208189454704522,1.2288947292238472
1789214278232545500,6.986545654296875,0.14747019659280777,-0.4290121790230274,1.0510168271467089
1789214278242577700,6.99657763671875,0.3104559422254562,-0.22525310897529124,1.2429641711086035
1789214278252609800,7.00660986328125,0.2655231600433588,-0.4134007683932781,1.4635422740101813
1789214278262641700,7.0166416015625,0.18216566239893436,-1.2355857512950896,1.3363167008057235
1789214278272673500,7.026673583984375,-0.2036445037573576,-2.316122979697585,1.0546201123356818
1789214278282705700,7.03670556640625,-0.6391998208135367,-3.4702293021798134,0.805844673475623
1789214278292737800,7.04673779296875,-1.5060153880804776,-4.142173454731703,0.8073676452592015
1789214278302769700,7.056769775390625,-2.4760855781167743,-4.161260432517528,0.9704472066551446
1789214278312801500,7.066801513671875,-2.8765824412733316,-3.9928684439271684,1.2960884430527686
1789214278322833700,7.076833740234375,-3.088800127586722,-3.660376610982418,1.346636727029085
1789214278332865800,7.08686572265625,-2.8691519990116356,-3.3779929170310496,1.4950228694230316
1789214278342897700,7.096897705078125,-2.4798876007482407,-3.137824562996626,1.3313695997923611
1789214278352929500,7.106929443359375,-2.3089815835103393,-2.207130105537176,0.5102560455143451
1789214278362961700,7.116961669921875,-1.172684181702137,-0.9263380158156156,-0.208073133854568
1789214278372993800,7.126993896484375,-0.09487783956825732,-0.2669429637134075,-0.3439671666830778
1789214278383025700,7.137025634765625,0.015037410134077072,0.1364022746115923,0.06439414623826742
1789214278393057500,7.1470576171875,-0.8366048456594347,-0.16708032146990298,0.3752151223838329
1789214278403089700,7.157089599609375,-1.3703937424525618,-1.0659458084702491,0.34118776509761806
1789214278413121800,7.167121826171875,-1.2865847016483545,-1.9685504819989204,0.39755437996387477
1789214278423153700,7.177153564453125,-1.9298750066459178,-2.384227378630638,0.22737521569579838
1789214278433185500,7.187185546875,-3.3702140997231003,-2.208321361148357,-0.40356589533835646
1789214278443217700,7.1972177734375,-4.0165959409952166,-1.653904102346301,-0.7425859610080718
1789214278453249800,7.207249755859375,-2.872678419572115,-1.3145295241504906,-0.6645782999590039
1789214278463281700,7.21728173828125,-0.8346879061222076,-0.9464467378646135,-0.5260755459368228
1789214278473313500,7.2273134765625,0.5160819751888513,-0.4062620025545358,-0.4249515054553747
1789214278483345700,7.237345703125,0.6126590198904276,0.10095628269910811,-0.3440530914008617
1789214278493377800,7.247377685546875,-0.08918518088459967,0.4060013057917356,-0.36199440628290175
1789214278503409700,7.25740966796875,0.46609775483608246,0.6065495970994234,-0.08135404886752366
1789214278513441800,7.26744189453125,2.0151117421656846,0.607007277739048,0.07799947774261236
1789214278523473700,7.2774736328125,2.5140531974613665,0.9779857854664326,0.3638870881617069
1789214278533505800,7.287505859375,3.114204033434391,1.3132336391210555,0.6694801005259156
1789214278543537700,7.29753759765625,3.8966923812419174,1.5324445453226565,0.9965233126759528
1789214278553569800,7.30756982421875,3.452040150016546,1.4157085096895694,1.7102894219130276
1789214278563601700,7.3176015625,1.273789517483115,0.92192838267982,2.8650618070885536
1789214278573633800,7.3276337890625,-1.5647709439098834,0.17302315552234648,3.503995085920393
1789214278583665700,7.337665771484375,-2.6129244905799625,-0.9120628222256898,3.0056971892252564
1789214278593697800,7.34769775390625,-2.1704005035549403,-1.8226432969391344,2.188934815894067
1789214278603729700,7.357729736328125,-1.6737147182315586,-1.8777520206987857,1.8105071612045167
1789214278613761500,7.367761474609375,-1.8232132057815789,-1.884172409135103,1.900001261907816
1789214278623793700,7.377793701171875,-2.052138865789771,-2.6433202133655547,1.357959500554204
1789214278633825800,7.38782568359375,-1.6119564734548328,-4.706104391810298,0.45231385189443823
1789214278643857700,7.397857666015625,-1.9402637141913175,-6.3284852286458015,0.6274582373544574
1789214278653889500,7.4078896484375,-1.7556845609098672,-6.087161274835467,1.0329571465820073
1789214278663921700,7.417921630859375,-0.5597346544325351,-5.205198991841078,1.1016077812209726
1789214278673953800,7.427953857421875,-0.09254092105329036,-4.704695401795208,0.33348405885249377
1789214278683985700,7.437985595703125,0.3647200318545103,-4.17457233403325,-0.596055967874825
1789214278694017500,7.448017578125,1.9450135390669105,-3.8416953011631962,-0.7582330274730921
1789214278704049700,7.458049560546875,1.9876848060578107,-4.2552842856049535,-0.29062136094272134
1789214278714081800,7.468081787109375,1.1870809558451174,-1.779954202030599,0.467972901058197
1789214278724113700,7.47811376953125,2.42530933060348,2.5119638239666817,-1.7886551026195288
1789214278734145500,7.4881455078125,4.3729462039113045,5.426307840618491,-4.703393963807821
1789214278744177700,7.498177734375,4.738549448341131,5.997630056992173,-4.915660165438056
1789214278754209800,7.508209716796875,4.165909135106205,4.865820614252984,-4.370954153311252
1789214278764241700,7.51824169921875,4.31991370190382,3.2835417784422636,-4.767435935607552
1789214278774273500,7.5282734375,3.99254871045351,2.4068279174953697,-5.120137028366327
1789214278784305700,7.5383056640625,4.169623771715164,2.252845854790509,-5.25519490263164
1789214278794337800,7.548337890625,3.525015954378247,2.2028864766180516,-4.488814224538207
1789214278804369700,7.55836962890625,3.8768852724879976,2.1877578810691833,-3.6690555920004844
1789214278814401500,7.568401611328125,4.30486343228817,2.443806818063557,-3.6441894462913274
1789214278824433700,7.57843359375,2.9325954203963276,2.9636335327386853,-4.016709922763705
1789214278834465800,7.5884658203125,1.0576035120606422,3.986153456458449,-4.23031877117455
1789214278844496600,7.59849658203125,-0.5116302564769983,5.385229980298877,-3.5956887424945827
1789214278854528800,7.60852880859375,-0.1482873581945896,5.802821186119318,-2.1224305456340313
1789214278864560600,7.618560546875,0.8070464504808187,4.795989537657797,-1.5784797357887028
1789214278874592800,7.6285927734375,-0.31954408856630323,3.193639973720908,-2.442022564995289
1789214278884624600,7.638624755859375,-2.2870564596891403,2.3494199768826363,-2.197900504899025
1789214278894656800,7.64865673828125,-3.2818519256591796,2.1544787118017674,-0.1773152997583151
1789214278904688600,7.658688720703125,-3.0467046146571635,1.660835947436094,2.361691137173772
1789214278914720800,7.668720703125,-1.4229033896297216,0.36804596140682694,3.6299276967048644
1789214278924752600,7.678752685546875,-1.031312886506319,-1.765893820235133,3.2374890523195266
1789214278934784800,7.68878466796875,-1.1025807179063558,-3.5973388477891683,2.3253876516491174
1789214278944816600,7.698816650390625,-0.1423667359739542,-4.736511805033683,1.3778466888070107
1789214278954848800,7.708848876953125,0.8985521832674741,-5.0432174548149105,0.8198726143062114
1789214278964880600,7.718880615234375,1.4408359366834163,-4.3051159457445145,0.8161974329248071
1789214278974912800,7.728912841796875,1.5340654245227574,-2.7071038264900444,0.8791963254123926
1789214278984944600,7.738944580078125,1.639551167345047,-0.8491215051442385,0.7903890379294752
1789214278994976800,7.748976806640625,1.8138778066813945,0.6231915198206901,0.6651295041009784
1789214279005008600,7.759008544921875,1.7595073340684175,1.4973989509046077,0.5587316148698329
1789214279015040500,7.76904052734375,1.584380484265089,1.7941531155139208,0.28170477177649733
1789214279025072600,7.77907275390625,1.6853800215840338,1.7537766814619302,0.04671878881603479
1789214279035104800,7.789104736328125,1.7138702030092476,1.6017162344694136,-0.2213601931899786
1789214279045136600,7.79913671875,1.6078642357051371,1.3655121078908443,-0.42741029678434134
1789214279055168500,7.80916845703125,1.5512491990357637,1.0579384431034327,-0.5520759563729166
1789214279065200600,7.81920068359375,1.4646622179508209,0.3885919058293104,-1.0251017569065093
1789214279075232800,7.829232666015625,1.1268325311094523,-0.4908119248539209,-1.1826809673205017
1789214279085264600,7.8392646484375,0.185872115701437,-1.6646084517121313,-0.4260995064467191
1789214279095296500,7.849296630859375,-1.2538725186139343,-3.323782018893957,0.8117012905493378
1789214279105329000,7.859328857421875,-2.8047318415492772,-5.62532351553142,1.5076172703191637
1789214279115360800,7.86936083984375,-4.039372420948744,-7.345954883238673,1.8943410441890358
1789214279125392600,7.879392578125,-4.1590190833315255,-7.774515811362862,2.135911081714928
1789214279135424500,7.889424560546875,-3.784164318692684,-7.653827238711714,2.259204283906519
1789214279145457000,7.899456787109375,-4.492708893889189,-6.593990853032469,2.2767893326967954
1789214279155488800,7.90948876953125,-4.651239998200536,-4.298507341259718,2.5776690528035164
1789214279165520600,7.919520751953125,-3.6038118431955573,-1.8369143988758325,2.6025743614792822
1789214279175552500,7.929552490234375,-2.609154324391484,-0.03776303668320179,1.8559315262958407
1789214279185585000,7.9395849609375,-2.2060393876910207,0.8914496577858925,0.7319602298364043
1789214279195616800,7.94961669921875,-2.2096984947204588,1.3507599444389342,-0.38620822556316853
1789214279205649200,7.959649169921875,-1.9506150123357773,1.5951427012979984,-1.0890975514769554
1789214279215681300,7.969681396484375,-1.3876011901021004,1.403633456492424,-1.4647846752867102
1789214279225713200,7.979713134765625,-1.047111344140768,0.9777823718488216,-1.6036185609593987
1789214279235745300,7.989745361328125,-0.8862047428697347,0.5049456641465425,-1.5940733185008167
1789214279245777200,7.999777099609375,-0.015226210704445837,0.04104395805001258,-1.4610136323153973
1789214279255809300,8.009809326171874,1.3655571160763502,-0.15340543186068534,-1.610602720758319
1789214279265841200,8.019841064453125,2.302467379310727,0.244888368293643,-1.7817843400672078
1789214279275873300,8.029873291015624,2.5322283210992813,0.8670540521979332,-1.6769859949871897
1789214279285905200,8.0399052734375,2.390325695505738,1.3120143264591693,-1.1996531449094414
1789214279295937300,8.049937255859374,2.011435099479556,1.4599813666582107,-0.562939003431797
1789214279305969200,8.05996923828125,1.9167267712593077,1.229404432311654,0.10642740758657455
1789214279316001300,8.070001220703125,1.9673960512667894,0.36779227890670296,0.8482701490119099
1789214279326033200,8.080033203125,1.011359062758088,-1.0433902777910231,1.9868790426328777
1789214279336065300,8.090065185546875,-1.5669693307369947,-2.514436643821001,3.030755350375175
1789214279346097200,8.10009716796875,-4.099816075995564,-3.6543753247410056,3.360506067918241
1789214279356129300,8.11012939453125,-3.5345343088299033,-4.397905873122811,3.17465061109066
1789214279366161200,8.1201611328125,-1.6072756221622229,-4.186943739828467,2.855207060289383
1789214279376193300,8.130193359375,0.27961539828181264,-3.5367110683470964,2.154929962700605
1789214279386225200,8.14022509765625,1.3863421299517154,-3.371877064499259,1.1300848109036683
1789214279396257300,8.15025732421875,1.630990844270587,-3.031993952259421,-0.20845219630002973
1789214279406289400,8.160289306640625,1.3819728288263082,-1.7854051609128712,-1.7953578151285647
1789214279416321300,8.1703212890625,1.1503770728260279,-0.48926294184625146,-2.5278993519842623
1789214279426352400,8.180352294921875,1.0172574731469153,-0.13257599432170392,-2.2358090875327585
1789214279436385300,8.19038525390625,0.8570394386619329,-0.38702012646794315,-1.3314175305873155
1789214279446416100,8.200416015625,0.6149374862164259,-0.5245286087557673,-0.3087701810956001
1789214279456448300,8.2104482421875,0.8203121747672557,-0.1407160461574793,0.9838619840234517
1789214279466480000,8.220480224609375,0.5081055894821882,-0.014823767383396625,1.363572664260864
1789214279476512300,8.23051220703125,0.5674900908648968,0.24285861603170633,0.9601356559991836
1789214279486544100,8.240544189453125,1.271107731053233,0.7390677237540483,-0.23908640401661393
1789214279496576300,8.250576171875,1.076045177680254,1.332757547019422,-1.692759610441327
1789214279506608000,8.260608154296875,1.9515005629986524,1.586474826195836,-2.5471909124314784
1789214279516640300,8.27064013671875,2.0871143175810576,0.9787769358441233,-2.645008897104859
1789214279526672100,8.280672119140625,0.747462627133727,0.26965163815021514,-2.9093524919748304
1789214279536704300,8.290704345703125,-0.28116788842082024,0.6569444440796971,-3.761523447817564
1789214279546736000,8.300736083984376,-0.2178834569901228,1.410082778762281,-4.002286845135688
1789214279556768300,8.310768310546875,0.8082412132233381,2.114737653043866,-3.4079262830018995
1789214279566800100,8.320800048828126,3.318524244496226,2.402280921715498,-3.7458874872684476
1789214279576832300,8.330832275390625,5.409797435322403,2.5590277729585766,-4.678930553680658
1789214279586864000,8.340864013671874,5.16194612556994,3.4957793384999034,-5.556482034495472
1789214279596896300,8.350896240234375,2.6936399492830034,5.053463539019226,-5.906611815461516
1789214279606928100,8.36092822265625,0.9605442368000745,6.272282279908657,-5.200041170686483
1789214279616960300,8.370960205078125,0.8694114289790391,6.385416491657495,-3.4847821436673403
1789214279626992000,8.3809921875,1.5749123986959457,5.462068305307627,-1.9535487277001142
1789214279637024300,8.391024169921875,2.80340263877213,4.07689258878678,-1.4001988058686257
1789214279647056400,8.401056396484375,3.066030661895871,2.966754587368667,-1.5118144297480582
1789214279657088300,8.411088134765626,1.792509439960122,2.1747376559764144,-1.7649638459086416
1789214279667120000,8.4211201171875,0.8490525315612554,1.6813053194910288,-1.7357494418621062
1789214279677152300,8.43115234375,1.3479466405838727,1.1052110664099455,-1.2351684026658534
1789214279687184400,8.441184326171875,1.6794857028484345,0.3603197510689497,-0.8229781791061163
1789214279697216300,8.45121630859375,1.4014695564568043,-0.37076574175953864,-0.9134458010166883
1789214279707248000,8.461248046875,0.663785396015644,-0.8500520639926195,-1.0684329491108655
1789214279717280300,8.4712802734375,-0.010037994411587715,-1.1769599593251943,-0.49013504850566386
1789214279727312400,8.4813125,-0.8586667476028204,-1.7370669542014598,0.6328057358622551
1789214279737344300,8.49134423828125,-1.9594412928700446,-2.7882372183442112,2.2071520251080394
1789214279747376000,8.501376220703126,-2.1281460006713866,-4.2156069397330285,3.7895012958064673
1789214279757408300,8.511408203125,-1.2837550311803816,-5.8655175885289905,4.277415161131322
1789214279767440400,8.5214404296875,-0.17006547476053238,-6.627659898400307,3.5862589431092142
1789214279777472300,8.53147216796875,0.22645020980536937,-5.755374959811568,2.2354826320573684
1789214279787504000,8.541504150390624,-0.3268576264500618,-4.024337348902225,0.8435445817947387
1789214279797536300,8.551536376953125,-1.2307780587524175,-2.6080419792354106,-0.19850071112811565
1789214279807568400,8.561568359375,-1.9335405434161423,-1.4673171163737773,-0.505625463104248
1789214279817600300,8.571600341796875,-2.0963217063874007,-1.0303419956475495,-0.3734057348743081
1789214279827632000,8.581632080078125,-1.6965683550745247,-1.2107996850848197,-0.3961658482149243
1789214279837664000,8.5916640625,-0.9597402269408106,-1.539443025907874,-0.6111629361137747
1789214279847695000,8.601695068359374,-0.19699790534973144,-2.0687141530156135,-0.21457652439922092
1789214279857727200,8.611727294921875,-0.5886974218055605,-2.9827742865383624,0.540635401687026
1789214279867759000,8.621759033203125,-2.126258287228644,-4.18415966206789,0.8496940443351865
1789214279877791200,8.631791259765626,-3.324533714044094,-4.972829913380742,0.5406619974330067
1789214279887823400,8.6418232421875,-3.3075296800121663,-3.7450446067035195,0.13967822754234074
1789214279897855200,8.651855224609376,-2.38192962308228,-2.2254233025968073,-0.008088321648538113
1789214279907887000,8.66188720703125,-1.7858704403370618,-1.3321820852190256,-0.02703063026666641
1789214279917919200,8.671919189453124,-1.1655623669981956,-0.3894634279668331,0.25566110672056674
1789214279927951400,8.681951416015625,-0.5216209046155214,0.3462368651807308,0.7325950206086039
1789214279937983200,8.691983154296874,-0.3033773821413517,0.27087036629021166,1.3573898839727043
1789214279948015000,8.70201513671875,-0.628822219184041,0.10739596035778522,1.4056833747595547
1789214279958047200,8.712047119140625,-1.084129699936509,0.04037000431120395,0.767906864747405
1789214279968079400,8.722079345703126,-1.3108201482385395,-0.06493453672528267,0.09009089755266904
1789214279978111200,8.732111328125,-1.3319757489919661,-0.20510931561291218,-0.34114655630439517
1789214279988143000,8.74214306640625,-1.3098936810433863,-0.18886720586419103,-0.8694380247250199
1789214279998175200,8.75217529296875,-0.9921218628466129,0.23042495865523813,-1.3715885051950811
1789214280008207400,8.762207275390624,-0.4205418723195791,0.6818161427468061,-1.6568647057175636
1789214280018239200,8.7722392578125,0.039245968717336654,0.5684235723227262,-1.380124862872064
1789214280028271000,8.78227099609375,-0.5305547371774911,-0.31992811944782734,-0.6888178382024168
1789214280038303200,8.79230322265625,-2.1630495562702414,-1.5206728589862584,-0.25258418349325656
1789214280048335400,8.80233544921875,-2.987730447641015,-2.485584643346071,-0.23014438814818858
1789214280058367200,8.8123671875,-2.88611540877223,-2.7656536306142807,-0.2132660263225436
1789214280068399000,8.822399169921875,-2.613186940908432,-2.481435706973076,0.20312720188498495
1789214280078431200,8.83243115234375,-1.983517749506235,-1.9054975212365388,0.8144108417689799
1789214280088463400,8.84246337890625,-1.180621404442191,-1.2820511498719454,1.6097548717573285
1789214280098495200,8.8524951171875,-0.3077770784050226,-0.6433703844964503,2.264794066737592
1789214280108527000,8.862527099609375,0.48863048916161056,-0.4411024297893047,2.2798215399995443
1789214280118559200,8.872559326171874,1.2511796262681483,-0.5093512056291103,1.9811875529929994
1789214280128591400,8.88259130859375,1.42719553386569,-0.641149785837531,1.403400524519384
1789214280138623200,8.892623291015624,0.655555327808857,-1.1218956592291593,1.2718532887235283
1789214280148654300,8.902654296875,-0.36070027481913564,-1.1509656863689421,1.315008247578144
1789214280158686200,8.912686279296874,-0.7438555425524711,-0.9985065954476594,1.2446239210143684
1789214280168718300,8.92271826171875,-0.5869973398894072,-0.7805904052317142,1.0990753401339053
1789214280178750200,8.932750244140625,0.013684826481342316,-0.36303953142166134,1.0496361864432693
1789214280188782300,8.9427822265625,0.713965431201458,-0.4947919344007969,0.2556684132441878
1789214280198814200,8.952814208984375,1.7407663932412862,-1.056522146564722,-0.5233443674072623
1789214280208845300,8.96284521484375,2.617011467632651,-1.6334645409077404,-0.8435892977192997
1789214280218877400,8.97287744140625,2.4628379740089175,-1.8679893360972404,-0.9398267352029681
1789214280228909300,8.982909423828126,1.9150784195303916,-1.5153291598707437,-0.7847466481283306
1789214280238941400,8.99294140625,1.5777981832653283,-0.9236129747658968,-0.8668237505733967
1789214280248973300,9.002973388671874,2.0293173776507376,-0.3579793254226446,-1.358194186092913
1789214280259005200,9.013005126953125,2.8194501027315853,-0.02437982349693775,-2.1041060766533017
1789214280269037300,9.023037353515624,3.3514258126229044,0.30810674875080585,-2.655482652585208
1789214280279069400,9.0330693359375,3.5291496931821107,1.1543389621943234,-2.6355244449228046
1789214280289101300,9.043101318359374,3.2453198920756576,2.2430895999297498,-1.5570160919994116
1789214280299133200,9.05313330078125,2.154984907758236,2.617190331330895,0.1655386449858546
1789214280309165300,9.063165283203125,0.4021013757437467,2.146381330063939,1.4117223626628517
1789214280319197400,9.073197509765626,0.7830763768285512,1.6042627040818334,1.5185519213095307
1789214280329229300,9.083229248046875,1.5508073004871605,1.1640402719974516,-0.4569792133569717
1789214280339261200,9.09326123046875,1.4576900408506392,1.6405793413490055,-2.494581019750237
1789214280349293300,9.103293212890625,1.565239730465412,1.7516066439464688,-3.4007682279407976
1789214280359325400,9.113325439453124,1.34069681558609,1.2833502497717737,-3.6902509402424095
1789214280369357300,9.123357421875,1.1154548125267028,0.6559554330423474,-4.126185612004995
1789214280379389200,9.13338916015625,1.2897007878422737,0.28298282888829707,-4.859506316539645
1789214280389421600,9.143421630859375,0.7614718632638454,0.8854708756372333,-4.427195095971227
1789214280399453400,9.153453369140625,-0.541545502269268,2.2495561655953527,-2.5733003361999987
1789214280409485300,9.1634853515625,-0.9977964013516902,2.704618731676042,-0.23689444693028924
1789214280419517200,9.17351708984375,-0.30195816299319267,1.6662649867475032,1.201554302355647
1789214280429549600,9.183549560546876,0.885676335081458,0.967980816541612,0.5517091688871383
1789214280439580400,9.193580322265625,1.1659405526608229,1.6662480356127023,-1.3630278898596764
1789214280449612300,9.2036123046875,0.8792647144734859,2.2001462379992005,-1.5410574753671884
1789214280459644400,9.21364453125,1.1485019266039131,1.9794214201033113,-0.6761719993799924
1789214280469676300,9.22367626953125,1.8907254840403793,1.2071876320675015,-0.8771019834816456
1789214280479708400,9.23370849609375,1.1634276930570602,0.8530123751029371,-1.5532979482591152
1789214280489740300,9.243740234375,0.8965706540614365,0.8008055102646351,-1.1714198608547448
1789214280499772400,9.2537724609375,1.5336562591999767,0.901551365083456,-0.9046616060584783
1789214280509804300,9.26380419921875,2.044012842479348,1.3389531867891549,-1.3305477620154618
1789214280519836400,9.27383642578125,1.9926298612445592,1.7596861977666616,-1.8556115005612372
1789214280529868300,9.283868408203125,1.455303437975049,2.1979700630038974,-1.99509011387825
1789214280539900400,9.293900390625,1.3828320760041475,2.5724603782445192,-1.678693675687909
1789214280549932300,9.303932373046875,1.3653630548089741,2.473581486341357,-1.2986077323973177
1789214280559964400,9.31396435546875,0.9623796355336904,2.075972161319852,-1.372390761488676
1789214280569996300,9.323996337890625,0.7114514025539159,1.8991940371781586,-1.3461197174176573
1789214280580028400,9.3340283203125,0.29061200859248637,1.8510060525923966,-0.905531374630332
1789214280590060300,9.344060302734375,-0.20857026972174644,1.5541718084841967,-0.3568006370320916
1789214280600092400,9.354092529296874,-0.505244939354062,1.0733078616708516,0.22976620248556134
1789214280610124300,9.364124267578125,-0.6682686789095401,0.38166707500219343,0.8063993847489357
1789214280620156400,9.374156494140625,-0.38949148501753805,-0.5910790562450885,1.2526409309923647
1789214280630188500,9.3841884765625,-0.5621428846180438,-1.3898960230410098,1.5462071132153272
1789214280640220400,9.394220458984375,-0.6253922447353601,-1.9925474436581134,2.2565914710596204
1789214280650252300,9.404252197265626,-0.798811706098914,-1.9979986948013304,3.334999578478932
1789214280660284200,9.4142841796875,-0.4512450536191463,-2.2951035725444555,3.5779531793177126
1789214280670316500,9.424316650390624,-0.9116536569029092,-2.8749866965144872,2.6421061614006756
1789214280680348400,9.434348388671875,-1.7477654583483933,-3.695815004110336,1.6237310824006794
1789214280690379300,9.444379150390626,-2.5966759510904547,-5.1968841679602855,1.0421516759067773
1789214280700411400,9.454411376953125,-2.9215999791294336,-6.371077000659704,1.3685516217172145
1789214280710443300,9.464443359375,-2.8788018708884713,-7.104993917521834,1.7590908622220158
1789214280720475400,9.474475341796875,-2.947857871457934,-6.835493086019158,1.8475024283856152
1789214280730507300,9.48450732421875,-2.4938404305160042,-5.479516283714771,1.6533771558627486
1789214280740539400,9.494539306640625,-2.197501276448369,-3.1180460958153007,1.5030126991331576
1789214280750571300,9.5045712890625,-1.9565508321255445,-0.9508072711616754,0.8583762402236461
1789214280760603400,9.514603271484376,-1.317501525698602,0.713508335083723,0.08580430627465248
1789214280770635300,9.52463525390625,-0.7165379120379686,1.7780927920728922,-0.3884016439542174
1789214280780667400,9.53466748046875,-0.12395312740504741,2.6413176413714883,-0.9591332009583711
1789214280790699300,9.54469921875,0.9855857390761374,2.6330320435851813,-1.6489695685535668
1789214280800731400,9.5547314453125,1.753400249364972,2.19529821344614,-1.606902404935658
1789214280810763300,9.56476318359375,1.5416417049959301,0.7874567838698625,-0.8421037353366613
1789214280820795400,9.57479541015625,0.32007337313741446,-1.0491209303975104,0.0062970543175935745
1789214280830827300,9.5848271484375,-0.702812753546238,-2.3314105652004478,0.06811199771761894
1789214280840859400,9.594859375,-1.0669631688192487,-2.709004691675305,-0.5042544670119882
1789214280850891300,9.604891357421875,-1.6323767456710339,-2.216300084942579,-1.3163891805425285
1789214280860923400,9.61492333984375,-2.4667139386594292,-1.37859370778203,-1.6711577272251248
1789214280870955500,9.62495556640625,-2.2702222292661665,-0.6486661528170108,-0.6485211913883686
1789214280880987400,9.6349873046875,-1.522495982760191,-0.2532224813967943,1.5831217163756488
1789214280891018500,9.6450185546875,-2.588637606063485,0.3086608755022287,2.9450559657797215
1789214280901050400,9.65505029296875,-3.0987399223208425,0.7861404405742883,2.836443030847609
1789214280911082200,9.665082275390626,-0.9136012838393449,0.1748661530405283,1.80507403023988
1789214280921114400,9.6751142578125,1.3406155670434237,-0.7538432680815458,0.8050292654395103
1789214280931146500,9.685146484375,1.708302632009983,-0.9643196636855602,-0.005591244135797023
1789214280941178400,9.695178466796875,1.1063479614853857,-1.004255368232727,-0.35290713672488927
1789214280951210200,9.705210205078124,0.024088147073984146,-1.2092378425955772,0.060489832276105875
1789214280961242400,9.715242431640625,-1.3850386461377142,-1.3164344809889792,0.7585895858258008
1789214280971274500,9.7252744140625,-1.2398159362107515,-0.9632651861965655,1.4876675382241606
1789214280981306400,9.735306396484376,0.17704291255772112,0.007050503033399581,2.0213684644728898
1789214280991338200,9.745338134765625,0.9478267940461635,0.4576654420554638,2.1680311440750955
1789214281001370400,9.755370361328126,0.736791010993719,-0.2623164729565382,2.07896812826544
1789214281011402500,9.765402587890625,-0.34962358500957486,-1.4529986681640148,2.2774466275617478
1789214281021434400,9.775434326171874,-2.4987287870794535,-2.4775053817868233,2.5624516099274155
1789214281031466200,9.78546630859375,-3.432306691020727,-2.6901076835036277,2.1883862421005964
1789214281041498400,9.795498291015624,-2.00143159185946,-3.0526421880126,1.2405045029968023
1789214281051530200,9.8055302734375,-0.30981472171247004,-3.6797120105713605,1.1809510747879743
1789214281061562400,9.815562255859374,0.6430985818177462,-3.491982868826389,1.186729365928471
1789214281071594200,9.82559423828125,1.7701310194134712,-3.1029888119369744,0.8658408770158886
1789214281081626400,9.83562646484375,2.4305536609977483,-3.297364552089572,0.4893634796112776
1789214281091658200,9.845658203125,3.0329572443336246,-3.392379169780016,-0.12299626507163047
1789214281101689300,9.855689453125,3.6336446714013815,-2.347158753952384,-1.2650640669748185
1789214281111721200,9.86572119140625,4.150163284441828,0.41481823397576806,-2.2160753362759946
1789214281121753300,9.87575341796875,2.7491601764529943,3.173599056211114,-2.3306486409172416
1789214281131785500,9.885785400390626,1.128677282193303,3.497629934802651,-2.3337065671831367
1789214281141817300,9.8958173828125,0.5027823486328125,1.843155923613906,-2.346188155354559
1789214281151849200,9.90584912109375,-0.18984277289807797,-0.32189094395339485,-2.148244493587315
1789214281161881300,9.91588134765625,-0.7606061863452196,-1.8165169230133293,-1.3175100012660026
1789214281171913500,9.92591357421875,-0.4032265803813934,-1.7397461102828382,0.8492354869127273
1789214281181945300,9.9359453125,0.004955576580762863,-1.5201993962556122,1.858523296354711
1789214281191977200,9.945977294921875,1.3825602733254432,-1.4647408361449836,1.0936404556035995
1789214281202009300,9.95600927734375,3.1783424513459204,-0.5667877878144383,-0.05123860432803631
1789214281212045300,9.96604541015625,3.1385429403990504,1.5854776318520307,-1.1176350791752339
1789214281222077400,9.976077392578125,-0.35370296327769757,4.271132427600026,-1.0486007059156894
1789214281232109600,9.986109619140626,-3.2919454496502873,5.013617266321182,-0.5746615899294615
1789214281242141400,9.996141357421875,-0.6997814230263233,3.0758973913937804,-0.9172697432190179
1789214281252173300,10.00617333984375,2.776454426091909,-0.7589718631416559,-2.2868413556337357
1789214281262205400,10.016205322265625,4.236876522254944,-2.8965865339040753,-3.7322599439322945
1789214281272237600,10.026237548828124,2.5599504407614466,-0.9849801743984222,-3.804297006139159
1789214281282269400,10.03626953125,0.5557429544478655,1.9099129995912312,-3.212297327917814
1789214281292301300,10.04630126953125,0.9570219078928232,2.15161017062813,-2.4173399591594933
1789214281302333400,10.05633349609375,1.8138433198899029,1.3423854993253945,-1.9460989962160586
1789214281312365600,10.066365478515625,1.731348576554656,0.9618106034740805,-2.324769227489829
1789214281322396400,10.076396484375,1.6911358086317776,1.0897823188707232,-2.9349715018779037
1789214281332428500,10.086428466796875,1.3188701837033032,1.919370856027305,-3.180937728536129
1789214281342460400,10.09646044921875,0.5099421572595835,2.8792566289186476,-2.597780112940073
1789214281352492300,10.1064921875,1.3348229551166295,3.3646827690809964,-1.8579624476015566
1789214281362524400,10.1165244140625,2.8763737669587135,3.3975723545089362,-1.3019184643805026
1789214281372556500,10.126556640625,4.512417218443751,3.1032308039993044,-1.4490776953279971
1789214281382588400,10.13658837890625,4.550519862344861,2.419947511309385,-2.4107898068636655
1789214281392620300,10.146620361328125,3.4149235945433376,2.074250159832835,-3.760025318214297
1789214281402652400,10.15665234375,2.1570541152477265,2.3255010488957164,-4.673595037871599
1789214281412684500,10.1666845703125,1.010324459013343,2.787691859421134,-4.189073153072595
1789214281422716400,10.17671630859375,0.20812837117314337,2.916612253844738,-2.893144869017601
1789214281432748300,10.186748291015626,0.010405074158310889,2.6324399229109288,-1.8205527544006703
1789214281442780400,10.196780517578125,-0.28585400041043757,1.9205413611114024,-0.9469143553763627
1789214281452812500,10.2068125,-0.7252537179350853,1.2131272512495517,0.4750511688813567
1789214281462844400,10.216844482421875,-0.5602238992542028,0.5906611230939627,2.3584645763427017
1789214281472876500,10.22687646484375,0.09678338092863559,-0.3871721021592617,3.9322894720628856
1789214281482908400,10.236908447265625,0.16910919694900511,-1.763678482273221,4.407133135673403
1789214281492940500,10.2469404296875,-0.2351233456045389,-3.019386984142661,3.2006177037790415
1789214281502971400,10.256971435546875,-0.39807986514270305,-3.618631811186671,2.2786241469085216
1789214281513003300,10.267003173828124,-0.6617904228061438,-3.512227199953794,2.087521144816279
1789214281523035600,10.27703564453125,-0.6556850916683673,-3.020724370226264,2.2604101525649427
1789214281533067500,10.287067626953124,-0.8841706066936253,-2.646750772336125,2.0403657181486485
1789214281543099400,10.297099365234375,-0.68512862829566,-3.0263515624582764,1.5201526345044374
1789214281553131300,10.30713134765625,-0.9252502205789088,-3.365688731253147,1.2774068311974405
1789214281563163400,10.317163330078126,-1.1906278346717356,-3.2263258532702923,1.1644722336739302
1789214281573195500,10.327195556640625,-1.177773613795638,-2.503593178245425,0.8272174241110682
1789214281583227400,10.337227294921876,-0.7439110721319914,-1.4662345818340778,0.4023205714523792
1789214281593259300,10.34725927734375,-0.4210454379275441,-0.20164017819762228,0.36413112605065107
1789214281603291400,10.35729150390625,-0.6279524506121873,0.7865414225906133,0.01929389853477478
1789214281613323500,10.367323486328125,-1.0460437149092554,0.6600444559216498,-0.9490309091389179
1789214281623355400,10.37735546875,-0.7904223556771874,-0.19618775801062582,-1.0464069952636956
1789214281633387300,10.38738720703125,-0.7597346642076969,-1.3019400916904211,0.07942688019722699
1789214281643419400,10.39741943359375,-1.412292856027186,-2.340744210734963,1.08011812620759
1789214281653451500,10.407451416015626,-2.4823797098249196,-3.8855040477514264,0.997772728215158
1789214281663483400,10.4174833984375,-2.716282573723793,-4.7237546147912735,1.3137173309847712
1789214281673515300,10.427515380859376,-2.5860987352356313,-4.504617358347773,1.7133479327008128
1789214281683546600,10.437546630859375,-3.028299773916602,-3.929252588585019,1.4873819992810486
1789214281693578500,10.44757861328125,-3.2626223245322703,-2.841647906014323,0.8364739127561449
1789214281703610400,10.4576103515625,-2.611056066359579,-1.2638824559748172,0.4356254596829414
1789214281713642200,10.467642333984376,-1.8910618763878941,0.12781272544264793,-0.30428163750469683
1789214281723674600,10.477674560546875,-1.1918570842057465,1.0200433044731616,-1.3201938335224985
1789214281733706500,10.48770654296875,-0.16125497631728647,1.3151783434480429,-1.6285487118154762
1789214281743738400,10.49773828125,0.7203083704873919,0.954424292615056,-1.606540293624997
1789214281753770200,10.507770263671874,0.23886253213286399,-0.04613923536241054,-1.4487097387984393
1789214281763802600,10.517802734375,-1.8307231430202722,-1.0820698447972537,-1.0391668148770927
1789214281773834500,10.52783447265625,-3.0367414390474554,-1.7211077530473469,-0.8038575913116336
1789214281783866400,10.537866455078126,-1.8157406779438257,-1.6652654543161391,-0.8284829140022396
1789214281793898200,10.547898193359375,0.6437754581660032,-0.8628834885150194,-1.1286413340970873
1789214281803930600,10.5579306640625,2.4655443103581667,0.28692659807801246,-1.3903279847174883
1789214281813962500,10.56796240234375,2.942804679721594,1.345081314280629,-1.1754919325992463
1789214281823994400,10.577994384765624,2.5999218011438847,2.050859347373247,-0.6159650756984949
1789214281834026200,10.588026123046875,2.3459768506914376,2.030521492743492,0.053199675267934794
1789214281844057300,10.598057373046874,2.2206875062465667,1.807148206165433,0.7584808647543192
1789214281854089500,10.60808935546875,1.2919284007638692,1.428880125951767,1.6260300069928169
1789214281864121300,10.618121337890624,-1.1990414427518843,0.8067378229230642,2.990622954212129
1789214281874153500,10.628153564453125,-3.2589369140177964,-0.40564357839524745,3.993136154952645
1789214281884185300,10.638185302734374,-4.309577601328492,-2.1290040788054463,3.4496780970603225
1789214281894217500,10.648217529296875,-3.2653239847064017,-3.356642670488357,2.436961774474382
1789214281904249300,10.658249267578125,-0.6393319227606058,-3.3203070362597704,1.963233670890331
1789214281914281500,10.668281494140626,1.0238690002411603,-2.77507261634469,1.6732117371454833
1789214281924313600,10.678313720703125,1.3777958354026079,-2.16937466763854,1.432462660613656
1789214281934345500,10.688345458984376,1.3994611392438412,-1.4765893871098756,0.9922294148743152
1789214281944377300,10.69837744140625,1.3181757716983555,-0.7836515463680028,-0.3335498175650835
1789214281954409500,10.708409423828124,1.3207827393263578,-0.5476175156593323,-1.8636004534885287
1789214281964441600,10.718441650390625,0.8045458658367395,-0.7692886744946241,-1.887128336331248
1789214281974473500,10.728473388671874,-1.2104437112540005,-1.1774673243254423,-0.23355799598395824
1789214281984505300,10.73850537109375,-2.7837966055482624,-2.2087147443801163,1.5460869939669966
1789214281994537500,10.748537353515625,-2.472719901075959,-3.665508128651976,2.121170024178922
1789214282004568300,10.758568359375,-0.6442652875095606,-4.39744117822051,1.385509186258912
1789214282014600400,10.768600341796875,1.5372949079632758,-3.790688167503476,0.14710837754309178
1789214282024632600,10.778632568359376,3.1456530646651983,-1.9154954758986829,-0.5540408267050981
1789214282034664400,10.78866455078125,3.4916800864875315,0.5619350870862603,-0.24874971989691255
1789214282044696300,10.7986962890625,2.646377847370505,2.143089010520279,0.28412615370452404
1789214282054728400,10.808728515625,1.880437314260006,2.03335993103981,0.25067747308909893
1789214282064760300,10.81876025390625,1.6214970397382973,0.864366712810099,-0.9823205998003482
1789214282074792400,10.82879248046875,2.2711890284717082,0.10912468384653329,-2.7280238649219273
1789214282084824300,10.83882421875,2.035344382855296,0.9301242563560604,-4.325512837085127
1789214282094856400,10.8488564453125,0.652573097127676,2.019523421128094,-5.288142647987604
1789214282104888300,10.858888427734374,0.1694716005206108,2.349633327372372,-4.593444227313995
1789214282114920400,10.86892041015625,1.1200988389402626,2.110397870273888,-3.7372564370453354
1789214282124952300,10.878952392578125,2.1816537189751863,2.210241223295033,-3.824187117001414
1789214282134984400,10.888984375,1.0818068099468945,2.5268212013587354,-3.5326860506147146
1789214282145016300,10.899016357421875,0.9999830977410078,2.6167238828629253,-2.4317940164476632
1789214282155048400,10.90904833984375,2.640794494280219,2.353845976631343,-2.319653491911292
1789214282165080600,10.91908056640625,4.16373705176413,2.0534943720519543,-3.22890301028192
1789214282175111400,10.929111328125,4.177746872416138,1.9250372112259269,-4.123880842193961
1789214282185143600,10.9391435546875,2.594247847160697,2.8255741385698316,-4.740429855260253
1789214282195175400,10.949175537109374,0.33113574216067787,4.063619850237667,-3.6760242619693275
1789214282205207300,10.959207275390625,-0.6744441526740789,4.518537747150659,-1.4615636674135923
1789214282215235800,10.96923583984375,-0.12989537693560121,3.8957337653428312,0.41427521314024923
1789214282225268000,10.97926806640625,0.7700719338268042,2.381715103548765,1.3885592214792966
1789214282235299800,10.9892998046875,1.9404916777282952,1.0286433750361204,0.5115472543686628
1789214282245332000,10.99933203125,1.7276251721173523,0.17482465198636055,-1.1161252591341733
1789214282255363800,11.00936376953125,0.7476596110105515,-0.033736265385150906,-1.8682617232978342
1789214282265396000,11.01939599609375,0.19882687434256074,0.1239192251354456,-1.793624707725644
1789214282275427800,11.029427734375,0.018016133683919907,0.214074712356925,-1.409045544669032
1789214282285460000,11.0394599609375,-0.3230874602615833,-0.054769701063632964,-1.3624889606773853
1789214282295491800,11.049491943359374,-1.3639146095663308,-0.5424690468549728,-1.520964535409212
1789214282305524000,11.05952392578125,-1.5564789163827895,-0.9129688311547041,-0.8203343865990638
1789214282315556000,11.06955615234375,-0.7111217322081327,-1.1409393823951481,1.0056865700796247
1789214282325587000,11.0795869140625,0.37322190274000167,-1.518331264296174,2.837317183333635
1789214282335619000,11.089619140625,0.5578191762000322,-2.2912726160794494,3.44248380164206
1789214282345651000,11.09965087890625,0.4857698390334844,-2.773554612997174,2.539776544521749
1789214282355682800,11.109682861328125,0.6607382834047079,-2.681621010187268,1.334053432048857
1789214282365715000,11.11971484375,0.6977186452776193,-2.1575801849484444,0.401244758914411
1789214282375747000,11.1297470703125,0.6664017159938812,-1.3229296882271766,-0.005270926140248775
1789214282385779000,11.139779052734376,-0.021200608938932417,-0.5915507654100656,0.193742410685122
1789214282395810800,11.149810791015625,-0.8802654159486293,-0.478704138430953,0.4307908791333437
1789214282405843000,11.159843017578124,-0.758074622040987,-0.9202420370280742,0.7432292273476719
1789214282415875000,11.169875,-0.1970774003267288,-1.4217577267259358,1.1045566941544414
1789214282425907000,11.179906982421874,-0.19235212537050245,-2.05932147077024,1.6840552027210591
1789214282435938800,11.189938720703125,-0.5983095920205116,-2.3258979392588137,2.3456416273877023
1789214282445971000,11.199970947265625,-0.8142530208587646,-2.382006195449829,2.4805168385624885
1789214282456003000,11.210003173828126,-1.354856273841858,-1.9686241317570208,1.8288140945285558
1789214282466034000,11.220033935546875,-2.165426222273707,-1.4633353532612323,0.4692132565081119
1789214282476065800,11.230065673828125,-2.0878940697818993,-1.489502060174942,-0.49650136866718525
1789214282486098200,11.24009814453125,-2.010355487549305,-1.2764116826802492,-0.6794298321321606
1789214282496130000,11.250130126953126,-1.6214447250291704,-1.2276374226391316,-0.48732671308666464
1789214282506162000,11.260161865234375,-1.351786364877224,-1.9945447549551725,-0.1318091016024351
1789214282516193800,11.27019384765625,-1.4209434877336025,-2.182888813728094,0.3663181147009134
1789214282526226000,11.280225830078125,-1.8755249922990798,-1.7548323279947042,0.5730769510865211
1789214282536258000,11.290258056640624,-1.746153054715693,-1.4600386498034,0.8555012693092227
1789214282546290000,11.3002900390625,-1.4996797553181647,-1.5734750593692064,1.2448846177771686
1789214282556321800,11.31032177734375,-2.1222110576644537,-1.9817752897530794,1.2423279190316796
1789214282566354000,11.32035400390625,-2.3126602720230816,-1.8317735288560388,0.9306284064859152
1789214282576386000,11.330385986328125,-2.0232824814006687,-1.1553308958411217,0.05098083017468452
1789214282586418000,11.34041796875,-1.581657781302929,-0.6871797156065702,-0.3520002510130405
1789214282596449800,11.35044970703125,-1.6625164478689431,-0.5589093095242976,-0.23918577273786065
1789214282606481000,11.36048095703125,-2.1948317649781703,-0.3711415893346071,0.020006138457357884
1789214282616513000,11.370512939453125,-2.1357348483651877,-0.1452460908025503,0.4867538816347718
1789214282626545000,11.380544921875,-0.5090349792867899,-0.0253624047935009,0.4467141321912408
1789214282636576800,11.39057666015625,1.667619323965907,-0.18627718937098978,-0.24348405445367097
1789214282646609000,11.40060888671875,2.9770383732348678,-0.33368542664349077,-0.8080287395164371
1789214282656641000,11.41064111328125,3.100138098680973,-0.4470458483636379,-0.8611004044905305
1789214282666673000,11.4206728515625,1.8582377574115991,-0.7876333094805479,-0.37872780667990447
1789214282676704800,11.430704833984375,0.21382395246624944,-1.0911878017544745,0.3226274415344
1789214282686737000,11.44073681640625,-1.1253922691732645,-1.2597615766525267,0.7381324887305498
1789214282696769000,11.45076904296875,-1.904602033701539,-1.243899406132102,1.1411360740110277
1789214282706801000,11.46080078125,-1.5721224757164716,-0.9938257441550493,1.5145184280097483
1789214282716832800,11.470832763671876,-0.1144336039096117,-0.8635311387687921,2.057890561184287
1789214282726865000,11.480864990234375,-0.12054536478817462,-0.6764063926577568,2.5430782164156436
1789214282736897000,11.49089697265625,-1.2150836460143326,-0.8557552440702915,2.8170214142799375
1789214282746927900,11.500927978515625,-1.2581605711966752,-1.4225368944048882,1.8924699896201491
1789214282756960000,11.5109599609375,-0.3161591223031282,-1.8093255502045154,0.47310061933547254
1789214282766992000,11.520991943359375,0.08316168281137942,-1.650619673848152,-0.3424541317716241
1789214282777024000,11.53102392578125,0.21642156774401664,-0.9486591532170772,0.09019757279753685
1789214282787055900,11.541055908203125,0.14363807108402252,-0.7267734748482704,1.112345448334515
1789214282797088000,11.551087890625,0.10312778151929378,-1.2542290769666433,1.1154831618383527
1789214282807120000,11.561119873046875,0.9285013313293456,-1.8473738335698842,-0.12238923908919096
1789214282817152000,11.571152099609375,1.9618547837525604,-2.1854677243053913,-1.40614953096658
1789214282827183900,11.581183837890626,2.2215379855960604,-2.660366040712595,-2.1778262696415185
1789214282837216000,11.591216064453125,1.5051795217782258,-1.9762310996294021,-1.6323621326237916
1789214282847248000,11.601247802734376,0.6396697764128446,-0.2777875983327627,-0.36636107705980536
1789214282857280000,11.611280029296875,0.3297627002418041,0.30664193689525127,0.435217755664885
1789214282867311900,11.621311767578124,0.8377151449888944,-0.1949459412559867,0.1383931561678648
1789214282877343000,11.631343017578125,2.189729473403096,-0.5988599193796516,-0.052577451716363424
1789214282887374800,11.641374755859376,2.9901240647792813,-0.7993237472742796,0.5236243533924222
1789214282897406700,11.65140673828125,1.946256817126274,-1.1803797046408055,0.8117468832567334
1789214282907439000,11.661439208984374,0.7753641950160265,-1.4525614457905291,0.42152503813803194
1789214282917471000,11.671470947265625,1.1215022759974003,-1.22831137637794,-0.8068395297318697
1789214282927502800,11.6815029296875,2.062474966365099,-0.7457493934750556,-2.456539750647545
1789214282937535000,11.691534912109375,3.5727626249372957,0.43710956076085566,-3.743210961535573
1789214282947567000,11.701567138671875,3.327521789944172,2.3237577123597264,-3.427981229037046
1789214282957599000,11.711598876953126,1.532977044764161,3.6639541772082445,-1.8596388563811779
1789214282967630800,11.721630859375,1.3441969326615333,3.2871286970183253,-1.1640180601656436
1789214282977663000,11.7316630859375,2.2541572296500205,1.6149097703024744,-2.3525907158732413
1789214282987695000,11.741695068359375,2.46594821498394,1.2958531729921698,-3.1174042907804247
1789214282997727000,11.75172705078125,1.4990870501220226,3.0479169130563735,-2.496388945955038
1789214283007758800,11.7617587890625,1.7974708617597817,3.6020337276071306,-1.5042010321348904
1789214283017790000,11.7717900390625,3.07890124938488,3.0165342250600458,-1.3539678005695341
1789214283027822000,11.781822021484375,3.7713545214802027,2.2343749630764127,-2.105260215124488
1789214283037854000,11.79185400390625,3.9835044032543894,1.7181716995954512,-2.990866992101073
1789214283047885800,11.8018857421875,3.5182074434071775,1.805568535758555,-3.6052474289566274
1789214283057918000,11.81191796875,1.7471967185497284,2.5547344596788286,-3.2782769897818564
1789214283067950000,11.8219501953125,0.21193419319689272,3.2245965452596543,-1.9627169535398483
1789214283077982000,11.83198193359375,0.02506780576109886,2.9332082915976643,-0.4566127181321382
1789214283088013800,11.842013916015626,0.25287702895998954,1.9527812504589557,0.10830606094002723
1789214283098046000,11.8520458984375,0.24066636668443678,0.9729892923533916,-0.3062017919123173
1789214283108078000,11.862078125,0.11905541849136352,0.2490402272760868,-0.6247744050979613
1789214283118110000,11.87210986328125,0.18954057508111,-0.2869061398118734,-0.6295096169263124
1789214283128141800,11.882141845703124,0.5018354231715202,-0.9151391609311104,-0.8535603643745183
1789214283138173000,11.8921728515625,0.38580022928416724,-1.5093869103401898,-1.4757166959285735
1789214283148205000,11.902205078125,0.2880693383723497,-2.1008347998976706,-2.1356284653812647
1789214283158237000,11.91223681640625,0.38368484456539154,-2.300117601314187,-1.7546879510879516
1789214283168268800,11.922268798828124,0.3777425950348377,-1.8889760100245474,-0.5105532748952508
1789214283178301000,11.932301025390625,0.193434659910202,-1.2236895617961883,0.8715747444927692
1789214283188333000,11.9423330078125,0.1550759954214096,-0.8156944518387317,1.8694234605535864
1789214283198365000,11.952364990234376,-0.1815361323237419,-0.7327016958534717,1.9042039742946624
1789214283208396800,11.962396728515625,0.010586860466003418,-1.0138391891360283,1.4199153137296436
1789214283218428700,11.9724287109375,0.24403204372525214,-1.4519628953754902,1.0442454333156346
1789214283228460800,11.982460693359375,-0.07351824067533015,-1.641626804575324,0.9361030385047197
1789214283238492700,11.99249267578125,-0.5086339972704649,-1.1872124732702969,1.3009709543973207
1789214283248524500,12.002524658203125,-0.5610924987822771,-0.531741316613555,1.5586121290192008
1789214283258555600,12.0125556640625,-0.30962299853265285,-0.0882780029118061,1.4541642048120498
1789214283268587500,12.02258740234375,-0.31805414226949213,-0.19398118787705898,1.3238830434292554
1789214283278619600,12.03261962890625,-1.2382009022295475,-0.7637947532534599,1.2752043527171015
1789214283288651800,12.04265185546875,-2.0539526372134684,-1.3928496121495961,1.339786422742903
1789214283298683600,12.05268359375,-2.1576041503459216,-2.4010575174003836,1.418508661802113
1789214283308715500,12.062715576171875,-2.108187500748038,-3.226033592325449,1.2383294970452785
1789214283318747600,12.07274755859375,-2.343513090926409,-3.6958407230734824,0.8801493883535265
1789214283328779800,12.08277978515625,-2.3340444208353754,-3.7892449829578396,1.168968960571289
1789214283338811600,12.092811767578125,-2.2605986608743667,-3.043046092149615,1.807621961157024
1789214283348843500,12.102843505859376,-1.8024176705121993,-2.427867198392749,1.9711688478037714
1789214283358875600,12.112875732421875,-1.1488631611317395,-2.7731863642066714,1.8941680257096885
1789214283368906800,12.12290673828125,-0.710571112588048,-2.2518255718320606,1.387874161824584
1789214283378938600,12.132938720703125,-0.6681105657383799,-1.0743822129040956,0.17074381241351366
1789214283388970500,12.142970458984376,-0.4056345183059573,-0.18985212524831294,-0.8183052188590169
1789214283399003000,12.1530029296875,-0.1938455787986517,-0.039265842461585994,-1.0772270809412001
1789214283409034800,12.16303466796875,0.06120645611286163,-0.11601765823066233,-0.4695128239765763
1789214283419066600,12.173066650390625,0.036516836014389986,0.11290098751485347,-0.04628828844428062
1789214283429098500,12.183098388671874,-0.25200492230057714,0.7392606159776449,-0.31729689416140316
1789214283439131000,12.193130859375,-0.2795306426078081,1.2089110948592423,-0.7248039283409714
1789214283449162800,12.203162841796875,-0.11441022303402423,1.2626444386124611,-0.7334387779563665
1789214283459194600,12.213194580078126,-0.10756488718390464,0.8974059358417987,-0.12780161952674388
1789214283469226500,12.2232265625,-1.1672627411752938,0.1432803436875343,0.5273953963637351
1789214283479257600,12.233257568359376,-2.3481793291717765,-0.34758126552700996,0.40337855607271195
1789214283489289700,12.243289794921875,-1.11779114651978,-0.5493348409712314,-0.3096104313120246
1789214283499321600,12.253321533203126,1.1430308017164468,-0.4777309094846248,-0.7396849788695573
1789214283509353700,12.263353759765625,1.7420710460990667,-0.370474065336585,-0.3564686285987496
1789214283519385600,12.273385498046874,0.5606722275435925,-0.409074137365818,0.7936752199932933
1789214283529417700,12.283417724609375,-1.205062602737546,-0.6023047991365194,1.780428249283135
1789214283539449600,12.29344970703125,-1.9868325731426477,-0.5792915878176689,2.210212873983383
1789214283549481700,12.303481689453125,-0.5915303071439266,-0.5580599992185831,2.2101278260484336
1789214283559513600,12.313513671875,0.7371534145653248,-0.08481704880297183,1.7933546586126088
1789214283569545700,12.323545654296876,0.7087690316021442,-0.002532148826122284,1.54894326018095
1789214283579577600,12.33357763671875,-0.538279778471589,-0.5086825125873089,2.4565593321308494
1789214283589608700,12.343608642578126,-1.7858809617310762,-0.8850544037908316,3.177413938324153
1789214283599640600,12.353640625,-1.2564514291912317,-1.66860190526247,2.371452360470593
1789214283609672700,12.363672607421876,0.2357505375921726,-2.3628923296570776,0.6695216015800833
1789214283619704800,12.373704833984375,1.0035714776217937,-2.34858381831944,-0.787077136902511
1789214283629736700,12.38373681640625,1.0737427459567785,-1.9586901822417973,-1.0290165922626853
1789214283639768600,12.3937685546875,0.12431845358610152,-1.7903642446249723,-0.38855946486443277
1789214283649800700,12.40380078125,-0.8691168299466371,-1.8624761256337166,-0.27691432262957094
1789214283659832800,12.413832763671875,-0.23556056797802447,-1.7276859623938798,-0.7447630127862095
1789214283669864700,12.42386474609375,1.227772447195649,-1.3322919753342866,-1.1288386102348564
1789214283679896600,12.433896484375,2.1760697813630103,-1.5934505104273557,-0.8199474331080913
1789214283689928700,12.4439287109375,1.3671049300402403,-1.571368442478776,-0.1539019832059741
1789214283699959800,12.453959716796875,0.9834013807743787,-0.611126988017559,0.0767474318549037
1789214283709991700,12.46399169921875,1.3924334325641392,-0.5726321299284696,-0.3304372385025024
1789214283720023600,12.4740234375,2.198050727024674,-1.1326941166192293,-0.9505255316108464
1789214283730055700,12.4840556640625,3.3691789114564656,-1.2467784686997532,-0.9672346743494271
1789214283740087800,12.494087890625,3.3526626609414816,-0.8471940442129969,-0.7867232088983058
1789214283750119700,12.50411962890625,2.7611791155487295,0.4204246756806969,0.1461862942621112
1789214283760151600,12.514151611328124,1.3848977763622998,1.3986340407699345,0.5150204834371805
1789214283770183700,12.52418359375,0.725198188355565,1.2406512179911136,-0.9132190065234899
1789214283780215800,12.5342158203125,2.232035414212942,0.8744336410552263,-2.7250726139009
1789214283790247700,12.54424755859375,3.4108167437463996,0.7552408599197864,-4.632606024879217
1789214283800278800,12.55427880859375,3.778981363096833,2.028201525363326,-5.591899969357252
1789214283810310700,12.564310546875,2.7823271175175903,3.796818048560619,-4.897656891235709
1789214283820342800,12.5743427734375,1.1313730971485376,4.293289314350486,-3.201571351242065
1789214283830374700,12.584374755859375,-0.40822365801632404,3.462420381994545,-2.0316578032970427
1789214283840406800,12.59440673828125,-0.17872282846868037,1.6303034465283155,-2.2473311830222604
1789214283850438700,12.604438720703126,0.9505337149173021,0.8413076165229082,-2.035926566657424
1789214283860470800,12.614470703125,1.3172247545838356,1.3484639424562452,-1.4266834926903247
1789214283870502700,12.624502685546876,1.2361778719693421,1.9551982484728097,-1.5067378571361303
1789214283880534500,12.634534423828125,1.072350414815545,2.3366408670693635,-2.127909853827953
1789214283890566700,12.644566650390624,0.6930073988467454,2.728824367649853,-2.294775655764341
1789214283900598800,12.654598876953125,-0.6431792458385229,2.6800594599589704,-1.1417536213874817
1789214283910629600,12.664629638671874,-0.6675538086384535,2.195707086507976,-0.056284197279810905
1789214283920661800,12.674661865234375,0.5679682297706604,1.5609905485883355,-0.10949907011687755
