time,seconds_elapsed,z,y,x
1789021925520427300,0.06442724609375,0.4597486780703067,-0.06637362961769104,-0.40847251821085806
1789021925530431200,0.07443115234375,0.4043196363151073,-0.07241700143516064,-0.24778956962786614
1789021925540434400,0.084434326171875,0.31137890228927134,-0.05156476754248142,-0.027075930713117122
1789021925550438400,0.0944384765625,0.18756781370341777,-0.030090017837285994,0.19296704239845275
1789021925560441300,0.10444140625,0.0004611877709627151,-0.0096726682305336,0.32344423781000076
1789021925570445300,0.1144453125,-0.1682780068218708,-0.019144260931015015,0.49391237508729097
1789021925580448500,0.124448486328125,-0.31910394358336924,0.007080313649773597,0.6015547114215791
1789021925590451200,0.134451171875,-0.5159218161910772,-0.0074812956660985945,0.5632455851629377
1789021925600455200,0.144455078125,-0.674210928440094,-0.01952303111553192,0.48517033877037463
1789021925610458400,0.154458251953125,-0.7900964847236871,-0.054428340280056,0.4437515560586005
1789021925620462300,0.16446240234375,-0.7517255452752113,-0.05106207871735096,0.3695342272032052
1789021925630465300,0.17446533203125,-0.6917442470431328,-0.02998421937525272,0.05673552124388516
1789021925640469200,0.18446923828125,-0.7041606610238552,-0.16627075865268706,-0.38664939345940946
1789021925650472400,0.194472412109375,-0.6413403399735689,-0.21177286515533922,-0.611253829267621
1789021925660475100,0.20447509765625,-0.22474165232181548,-0.28272739282250403,-0.7093452240549027
1789021925670479400,0.214479248046875,0.5423422056049109,-0.39734687469303603,-0.8901892824612557
1789021925680482300,0.224482421875,1.2349240725159645,-0.34100597878992556,-0.7684870757881551
1789021925690486500,0.234486572265625,1.6398428437680006,-0.261322785744071,-0.5683144128598272
1789021925700489200,0.2444892578125,1.7494173172086476,-0.4370914405822754,-0.5097795140437782
1789021925710493400,0.254493408203125,1.7164251481890678,-0.6627566374897956,-0.3903019246175885
1789021925720496400,0.264496337890625,1.5614748249739407,-0.8872697417527436,-0.1605522348754108
1789021925730500000,0.2745,1.1331003593325615,-0.7853402301073074,0.030178865164518353
1789021925740503300,0.28450341796875,0.4237450522750616,-0.644348289617896,0.07581497331038117
1789021925750506500,0.294506591796875,-0.5007721778541803,-0.5181476755470037,-0.2124909502968192
1789021925760510500,0.304510498046875,-1.1728496013969183,-0.498443442645669,-1.7594916981078683
1789021925770513400,0.314513427734375,-2.5063842702686787,-0.5443249038547278,-0.9119837656401097
1789021925780517400,0.324517333984375,-3.301525178900361,0.5086719911932945,0.7710651826478541
1789021925790520300,0.334520263671875,-3.681044720479846,0.5872814175277948,2.300370991553366
1789021925800524300,0.344524169921875,-3.694441377669573,0.06453764636218548,3.1318554254591464
1789021925810527200,0.35452734375,-3.109621381819248,-0.17290858923196792,3.092911654558778
1789021925820530400,0.364530517578125,-2.3905939910531044,0.18077566934525965,2.591977564141154
1789021925830534100,0.3745341796875,-1.9443033449709415,-0.27216391323208805,1.5333508465126156
1789021925840537300,0.384537353515625,-0.7466963189363479,-0.8032756997704505,0.758289141574502
1789021925850541300,0.394541259765625,1.3288041332185268,-0.06382482191771269,-0.46734804715812206
1789021925860544500,0.40454443359375,2.774903689518571,-0.3005599866330623,-1.0348492439389227
1789021925870548200,0.41454833984375,3.472527057728171,-0.21491028639823198,-0.8992202917873859
1789021925880551400,0.424551513671875,3.6122447404980655,-0.4374441995427012,-0.722199298800528
1789021925890555400,0.434555419921875,3.320921368765831,-0.17386340573877096,-0.37076603402048347
1789021925900558300,0.444558349609375,2.340057982036471,0.10939794782996178,0.0731309949234128
1789021925910561300,0.454561279296875,1.1412801586568355,0.014160335038602352,0.22389847949594258
1789021925920565200,0.464565185546875,0.23310966769456862,0.009119126001000405,0.237415255934
1789021925930568200,0.474568115234375,-0.355026320835948,-0.10167144523113965,0.14245938269346953
1789021925940572200,0.484572265625,-0.6552864477396011,0.0284448809787631,0.07217530163377522
1789021925950575900,0.494575927734375,-0.6850947260260581,0.5325155158564449,0.31165918053537606
1789021925960579800,0.504579833984375,-0.6375163977712393,0.693273064045608,0.3662625851213932
1789021925970582800,0.514582763671875,-0.36825580476522446,0.6125041215896606,0.18439663632139563
1789021925980586800,0.524586669921875,-0.012248656198382377,0.35796968081146474,-0.025322803435474633
1789021925990590000,0.53458984375,0.42133623756766314,0.18798574685454367,-0.15598039691522717
1789021926000593000,0.544593017578125,0.7207301030308008,0.24887509984225034,-0.46330534763857717
1789021926010596900,0.554596923828125,0.8789081561207771,0.2482686583817005,-0.7862951927445828
1789021926020599800,0.564599853515625,0.8183949429690838,0.09572393500357866,-0.9527132509134709
1789021926030603800,0.574603759765625,0.6981167046844959,0.05288403344750404,-0.888352860814333
1789021926040606700,0.584606689453125,0.5222925202667713,0.11800824752599,-0.590284544866532
1789021926050610700,0.594610595703125,0.3252326555967331,0.17354630261361598,-0.20445362818315624
1789021926060614000,0.60461376953125,0.20987784518897531,0.14798574489951133,-0.04759250291064381
1789021926070616800,0.614616943359375,0.044185178685188294,-0.02359481059908867,-0.10154723432958125
1789021926080620800,0.624620849609375,-0.2829787372350693,-0.0004702478602528572,-0.019608517441898583
1789021926090623700,0.634623779296875,-0.3605506372153759,-0.07634615757763386,-0.011432079118490219
1789021926100628000,0.6446279296875,-0.33544776014089583,-0.07926292180716991,-0.17160379024371503
1789021926110630700,0.654630615234375,-0.32250060028433797,0.0318608269020915,-0.35308249329179525
1789021926120635000,0.664634765625,-0.23825930554270744,0.21828706935495137,-0.5289787200324237
1789021926130637800,0.674637939453125,-0.40138650547266,0.13536036434322596,-0.6193627553127705
1789021926140640800,0.684640869140625,-0.49652562632560726,0.03493950369507074,-0.46507191891968247
1789021926150644700,0.694644775390625,-0.5606546918869019,-0.08209142323136329,-0.04365516346171498
1789021926160648000,0.70464794921875,-0.4138029194533825,-0.1103358132019639,0.612841829111427
1789021926170652000,0.71465185546875,-0.22369594266116619,-0.003232406049966812,1.04215123751536
1789021926180654800,0.72465478515625,-0.22088789950311183,-0.0912801073372364,1.0027180756628513
1789021926190658800,0.734658935546875,-0.17088029827475545,-0.22640987779498098,0.7570698289126158
1789021926200662000,0.744662109375,-0.10082242718636988,-0.32537147954553364,0.58492170265913
1789021926210666000,0.754666015625,0.028039515048265455,-0.3710010118201375,0.5271699170447885
1789021926220668700,0.764668701171875,0.09359656758606433,-0.3676967095777392,0.3933629196234047
1789021926230672000,0.774671875,0.12301496977210044,-0.3276753725737333,0.13628171697184444
1789021926240675800,0.78467578125,0.1292559099882841,-0.22090777324736116,-0.2826983859237283
1789021926250678800,0.7946787109375,0.008867781588435172,-0.13954583333432674,-0.7210480098735541
1789021926260682800,0.804682861328125,-0.14784838225543498,-0.19383593418747186,-0.9870715206544846
1789021926270686000,0.81468603515625,-0.17529811471700668,-0.26554040343910457,-1.005054628851637
1789021926280689700,0.824689697265625,-0.15618074179291724,-0.11157850673943757,-0.6967291958488524
1789021926290692900,0.83469287109375,-0.13156769406199453,0.052765667764842504,-0.2370519755795598
1789021926300695800,0.84469580078125,-0.15671674836575983,-0.07851531831026076,0.10458747880831361
1789021926310700000,0.854699951171875,-0.2537923902392387,-0.3911620485782623,0.32447964527234435
1789021926320702700,0.86470263671875,-0.19374328746795652,-0.6457704313755035,0.7401162098936737
1789021926330707000,0.87470703125,-0.4042518317759037,-0.5822019223064184,1.2919967898249625
1789021926340710000,0.8847099609375,-1.0511685105770825,-0.6981248879909515,1.4270545179598033
1789021926350713900,0.8947138671875,-2.4279268196254966,-1.6890280226975678,0.3842863906551152
1789021926360716800,0.904716796875,-2.771165087512135,-1.1657786400973795,-0.1323025111425668
1789021926370720000,0.914719970703125,-2.455218731176853,-0.09199965378344059,0.4068633294485509
1789021926380723700,0.9247236328125,-2.2839783674180505,-0.22006372363865373,0.6231894739940762
1789021926390727000,0.934726806640625,-1.9146008651465176,-0.8487801443606614,0.45140645472593605
1789021926400731000,0.94473095703125,-1.7329104190438984,-1.9470459216773508,0.1689201041176915
1789021926410733800,0.95473388671875,-1.602528719896078,-2.771163333946466,-0.5754856561960652
1789021926420737800,0.96473779296875,-1.8794716840982435,-2.872628150689602,-1.3775889146536588
1789021926430740700,0.97474072265625,-2.2927181387126443,-3.047516515561938,-1.7317939822345971
1789021926440744000,0.984743896484375,-1.913527682957053,-1.5336495371982455,-2.5777801119625567
1789021926450747600,0.99474755859375,-0.35946108841300006,1.8500176260769365,0.2741974648863077
1789021926460750800,1.004750732421875,0.20758476581573485,3.974833021020889,3.8908585605219006
1789021926470754800,1.0147548828125,-0.02142740343213081,2.4710969760492443,4.092907611781358
1789021926480758000,1.024758056640625,1.5180273129135369,0.3500573002517223,2.5989120395794507
1789021926490761700,1.03476171875,2.8799077863037583,-1.0146393996030092,1.2964808033712207
1789021926500765000,1.044764892578125,3.066645578923821,-1.886389792923629,0.3935362303636968
1789021926510767900,1.054767822265625,2.313698382899165,-2.128622970533371,-0.12287066593058407
1789021926520771800,1.064771728515625,1.6644705045461654,-1.7206816365897655,-0.3077512863766402
1789021926530774800,1.07477490234375,1.458749779036641,-0.9594780688732862,-0.6006498715363443
1789021926540778800,1.08477880859375,1.0798094986498354,-0.6602963848561048,-1.11706612018086
1789021926550781700,1.09478173828125,1.092636246997118,0.21975684964656828,-1.5411008761174976
1789021926560785700,1.10478564453125,1.3661182570904493,1.1453420012682676,-1.6138323503293097
1789021926570788900,1.114788818359375,0.9211416162163019,1.1180810693770646,-1.3787269787728786
1789021926590171000,1.1341708984375,0.5788701475352048,-0.06093816056549549,-0.6854663358174264
1789021926600173800,1.144173828125,1.3482985227614641,0.09689385556578635,-0.5714809140667318
1789021926610177800,1.154177734375,1.9307652334839105,0.4054793277442455,-0.7936917327366769
1789021926620180700,1.1641806640625,1.779823561388254,0.5800502972304821,-1.0391875654041767
1789021926630185000,1.17418505859375,1.1641671132475138,0.9277718480110168,-0.727063397705555
1789021926640187600,1.184187744140625,0.24224983648359774,1.237765433421731,-0.2641721838258207
1789021926650190800,1.19419091796875,-0.7359054603308439,1.2102391285926102,-0.09425912314802408
1789021926660194800,1.20419482421875,-1.2388386156111955,0.8988064502894878,-0.21996610848307607
1789021926670197800,1.21419775390625,-1.203272212189436,0.3394511505633592,-0.5579805042415857
1789021926680201700,1.22420166015625,-0.5808405708253384,0.056820788374543185,-0.6040040042698382
1789021926690205000,1.234204833984375,0.48774552302062507,-0.0026280104160308834,-0.5209757385797799
1789021926700209000,1.244208984375,1.5312778396308422,-0.12303308995068073,-0.5391653291344642
1789021926710211800,1.2542119140625,2.150075508406758,-0.06714695207774639,-0.4348077135592699
1789021926720214800,1.26421484375,2.129674525412917,0.06965455098450184,-0.11238193207681178
1789021926730219000,1.274218994140625,1.540023456144333,0.3628022155344486,0.25258476801514623
1789021926740221700,1.2842216796875,0.8091893077284097,0.5218570514589548,0.39746173324435946
1789021926750225700,1.2942255859375,0.39995559588670726,0.603985884091258,0.40464375370293854
1789021926760228900,1.304228759765625,0.357728565531969,0.5455372022539376,0.3860205940365791
1789021926770231800,1.314231689453125,0.5332680877894163,0.3863736452579498,0.3591673661634326
1789021926780235800,1.32423583984375,0.6369768840670585,0.23161446070075034,0.40561055290848014
1789021926790239000,1.334239013671875,-0.5825426985681057,0.407246337416768,0.8094283771812916
1789021926800243000,1.344242919921875,-2.9683307506442067,1.1656336786687373,1.4971440993607044
1789021926810245600,1.35424560546875,-3.128261784881353,0.8103712109893559,1.2039084642663598
1789021926820249900,1.364249755859375,-1.4023533535540103,-0.13998714736104012,0.36183716989457604
1789021926830252800,1.374252685546875,-0.29744097782969475,-0.3175239809155464,0.2838619498103857
1789021926840255700,1.384255859375,0.2923345946013927,-0.028578444230556485,0.7588289475396275
1789021926850259700,1.394259765625,0.7268646602630615,0.15187515355348585,1.3423083424359559
1789021926860263000,1.404262939453125,0.5209504580080508,0.1177577798962593,1.1129165262207388
1789021926870267000,1.414266845703125,-0.4587444694638252,0.05427870267629623,1.1453034228235484
1789021926880269800,1.424269775390625,-1.0678642093122004,0.06359598159790039,0.8690273980975151
1789021926890273800,1.434273681640625,-1.2206570622324944,-0.1183721124023199,0.14680705650895834
1789021926900277000,1.444277099609375,-1.050028108370304,-0.1965980923771858,-0.15191343973726032
1789021926910279700,1.45427978515625,-0.8320143029987812,-0.1688666203647852,-0.2403168225944042
1789021926920284000,1.464283935546875,-0.47954643447399137,-0.06313713191449642,-0.348541634991765
1789021926930286800,1.474286865234375,-0.17247604303359984,-0.1389811851888895,-0.6260849031746387
1789021926940290800,1.484290771484375,0.015727730485796926,-0.15764906077980995,-0.878587545864284
1789021926950293800,1.494293701171875,0.007846621847152709,-0.03964695073366165,-0.9531254849761724
1789021926960296700,1.504296630859375,-0.2107330007135868,0.13653028490543365,-0.811391493947804
1789021926970300700,1.51430078125,-0.5636486130058765,0.38061318203508854,-0.4671174532726407
1789021926980304000,1.524303955078125,-0.8841893113940954,0.5498223322272301,-0.04271072221845388
1789021926990307800,1.534307861328125,-1.1043646787136792,0.4888718967020511,0.35504561005830765
1789021927000310800,1.544310791015625,-1.2499316720336675,0.18342121541798115,0.5388946954995394
1789021927010314800,1.554314697265625,-1.346039930179715,-0.00694470457136631,0.6488871020913124
1789021927020317700,1.564317626953125,-1.0772095452845096,0.24101532625257968,0.4530184930324554
1789021927030320600,1.574320556640625,-0.594313800382614,0.13384674490988255,-0.1387774793103337
1789021927040324600,1.58432470703125,-0.3008615999281406,0.012051672321557998,-0.9167360747337341
1789021927050327800,1.594327880859375,-0.21026070702672003,-0.3934849385678768,-1.6916431736320257
1789021927060331800,1.604331787109375,-0.19986849234998225,-0.7283084293305874,-2.069097599375248
1789021927070334700,1.614334716796875,-0.02715221081972122,-0.5336357520580292,-1.6693682134598493
1789021927080337700,1.624337646484375,0.20958090806901453,0.04483575154840946,-0.719030605636537
1789021927090342000,1.634341796875,0.3160772892385721,0.48275838225781914,0.26083120283484457
1789021927100344600,1.644344482421875,0.20102233856022356,0.5779618005186319,0.8377253741219639
1789021927110348800,1.654348876953125,0.03197042475640774,0.5184820220679044,1.0644923947915435
1789021927120351700,1.664351806640625,-0.12959727077186106,0.47450902482867235,0.974575684762001
1789021927130354700,1.674354736328125,-0.3699900812119245,0.3108358814537525,0.5269856465190649
1789021927140358700,1.684358642578125,-0.6386386797994374,-0.10772563070356846,-0.08859013760089873
1789021927150361900,1.69436181640625,-0.5918617310553789,-0.500106991943717,-0.46750192254558204
1789021927160365800,1.70436572265625,-0.3334709071099758,-0.658697717487812,-0.5403998393654823
1789021927170368800,1.71436865234375,0.03295885127186775,-0.6383961032152176,-0.45997079638838767
1789021927180372700,1.724372802734375,0.30965339367091654,-0.577448590299487,-0.3506896068058908
1789021927190375700,1.734375732421875,0.3457271620929241,-0.4766232405036688,-0.2140077846005559
1789021927200378600,1.744378662109375,0.3278898921072483,-0.37785306967198845,-0.0967307739585638
1789021927210382600,1.754382568359375,0.2799357162773609,-0.34378654941916464,0.09671586865037679
1789021927220385800,1.7643857421875,0.09705635265111923,-0.4266337594538927,0.12722908033579589
1789021927230389500,1.774389404296875,0.05667582694590091,-0.5105588278532028,0.023179069405049085
1789021927240392700,1.784392822265625,0.16780571313500403,-0.45857086646258827,0.04487579129785299
1789021927250395600,1.794395751953125,0.3667155895859003,-0.19388240367770193,0.22988369138538836
1789021927260399900,1.80439990234375,0.41514965788722036,0.08104805165827274,0.31995529971569775
1789021927270402600,1.814402587890625,0.12904431306421757,0.07336801854968071,0.22075112138092517
1789021927280406800,1.82440673828125,-0.41158524340391156,-0.10707505784034728,0.031326866155862804
1789021927290409700,1.83440966796875,-0.9470914655089377,-0.25353461608588695,-0.040212694857642055
1789021927300412700,1.84441259765625,-1.2341571797966957,-0.31480303151905537,0.02060088948011398
1789021927310416600,1.854416748046875,-1.2817857769340275,-0.4801996376857161,-0.00331387378834188
1789021927320419800,1.864419921875,-1.0731517943263054,-0.8050465088352561,0.0094721772223711
1789021927330423600,1.874423583984375,-0.7733025863111018,-0.9656333766326307,0.29080424322895704
1789021927340426800,1.8844267578125,-0.411274862280488,-0.7705991725713014,0.7953014329556375
1789021927350429700,1.8944296875,-0.16264146223962306,-0.4062868447348475,0.9746328217767178
1789021927360434000,1.904433837890625,-0.031015900510549543,-0.3614136837854981,0.5825325425002723
1789021927370436600,1.9144365234375,0.3401028924703598,-0.6056567399129271,0.10389087484627961
1789021927380440800,1.92444091796875,0.795382316172123,-0.7268304657325149,-0.35028526378870006
1789021927390443800,1.93444384765625,1.0733248128056525,-0.43858606305420395,-0.6665709350809454
1789021927400446700,1.94444677734375,1.1082827289402484,0.18098609722554682,-0.5426499563798308
1789021927410450700,1.95445068359375,0.5911293251276016,1.2050798461332917,-0.014164865083247422
1789021927420454000,1.964453857421875,-0.36022564304471016,1.6804723757982254,0.4470676218040287
1789021927430457600,1.97445751953125,-0.8745195657730102,0.7610714657694101,0.4468183232180774
1789021927440460800,1.984460693359375,-0.7222288171559572,0.4154854657128453,-0.3556280861213803
1789021927450463700,1.994463623046875,-1.0298726245701313,-0.16197306145876644,-0.4648126834616065
1789021927460467700,2.0044677734375,-0.6024930151849984,0.44763153929710386,-0.19217910689115522
1789021927470470700,2.014470703125,-0.1487970612823963,0.9924977104216813,0.14608955588936806
1789021927480474600,2.024474609375,0.1346896254748106,0.9248971693575382,0.11455927611589431
1789021927490477800,2.034477783203125,-0.2530260820418596,0.44329000296145676,-0.030718671129643917
1789021927500480800,2.044480712890625,-0.17347499094307423,0.32115619993805883,0.09880816475450992
1789021927510484700,2.054484619140625,0.23065233767032622,0.5149462491571903,0.13678893584161997
1789021927520487700,2.06448779296875,-0.011171966877579688,0.49527211913317437,-0.06620645635724068
1789021927530491600,2.07449169921875,1.0450602568298577,0.3209109930053353,-0.48874388640820976
1789021927540494600,2.08449462890625,2.4659487995058296,-0.44674598863422865,-1.230094168141484
1789021927550497800,2.094497802734375,2.614666950333118,-0.44426527773439883,-1.2099001058965921
1789021927560501800,2.104501708984375,2.1661527829825875,0.2333803013294935,-0.3110416331589222
1789021927570504700,2.114504638671875,1.863094549793005,0.37187867143750186,0.4186971212357282
1789021927580508700,2.1245087890625,1.8646283352315425,0.12503478516191244,0.6292553499042988
1789021927590511900,2.134511962890625,1.558570335704088,0.0021878654330968854,0.6503460687279701
1789021927600514600,2.1445146484375,0.8949170416355132,-0.01880553049594164,0.47905894321799275
1789021927610518800,2.154518798828125,0.34091888502836226,-0.10215835196524858,0.09422609766125678
1789021927620521700,2.164521728515625,0.10581716673374175,-0.1798132540538907,-0.3487327736496925
1789021927630525700,2.174525634765625,0.03961889368295669,-0.035565818899869914,-0.7539256856679916
1789021927640528600,2.184528564453125,-0.04571545699238777,0.21523440378606318,-0.6784826144099235
1789021927650531800,2.19453173828125,-0.9728940152853727,0.655448944824934,-0.015360066217184066
1789021927660535800,2.204535888671875,-1.7497721219956874,0.6479761247262358,1.0513105493962764
1789021927670538800,2.214538818359375,-0.9110901778012513,0.12041297058016061,1.7699159153580664
1789021927680542700,2.224542724609375,-0.08340835104882717,-0.1924085317328572,1.7306857287317514
1789021927690546000,2.2345458984375,-0.35593408333063126,-0.2974436081781983,1.9391350024223326
1789021927700548600,2.244548583984375,-1.288148297703266,-0.6204889828637242,2.427469723507762
1789021927710552600,2.254552490234375,-1.0197264936089514,-0.745739456602931,1.5677496674597262
1789021927720555800,2.2645556640625,0.44096682071089743,-0.34985564019978044,0.2093769099295139
1789021927730559700,2.274559814453125,1.9175638066053389,-0.103349315315485,-1.0358096134036778
1789021927740562700,2.284562744140625,2.645624983176589,-0.26003859115242955,-1.8556237755209206
1789021927750566000,2.29456591796875,2.974374706983566,-0.519570109565556,-1.9809487758010624
1789021927760569900,2.30456982421875,2.7859973304629326,-0.31975130157619713,-1.0296499217301607
1789021927770572500,2.314572509765625,1.9904191994577645,0.32584815714657306,0.6101695411622524
1789021927780576800,2.32457666015625,0.8512649469137191,0.8931357111766934,2.163772025325894
1789021927790579700,2.334579833984375,-0.014706570744514464,0.5406240035101771,2.365865792509913
1789021927800582700,2.344582763671875,-0.08034896347820758,-0.48533203213810916,1.4842752654373645
1789021927810586600,2.354586669921875,-0.5143178881257772,-0.9800018014639615,1.2051210549265146
1789021927820589800,2.36458984375,-1.4405243865162134,-0.7667419126212597,1.7828648287802933
1789021927830593800,2.37459375,-1.998993551057577,-0.9261126826271414,2.2500340122401714
1789021927840596700,2.3845966796875,-2.212432303598523,-1.401594936402142,2.1674615274935958
1789021927850599700,2.394599609375,-1.5185732563585042,-1.4578779646381734,2.3163965359419585
1789021927860604000,2.40460400390625,-0.3035550767958164,-1.2496879264056682,2.1409014373481274
1789021927870606600,2.414606689453125,1.1885808390140533,-1.0077218752995132,0.9899462723731994
1789021927880609800,2.42460986328125,2.460138651922345,-0.91686496181041,-0.3773591486752033
1789021927890613800,2.43461376953125,2.9211767852813004,-0.8961579816073179,-1.549342488631606
1789021927900616700,2.44461669921875,3.15439692761302,-0.44569881766885516,-2.339547694426775
1789021927910620700,2.45462060546875,1.358160576084256,-1.8116528241083025,-2.963299186217785
1789021927920623900,2.464623779296875,0.7849129446059465,-3.2153324578300118,-4.046761946678162
1789021927930626600,2.47462646484375,2.9546809954762456,-1.094308856384456,-3.0702649384647605
1789021927940630800,2.484630859375,3.6937130633950233,0.1395887956932187,-1.9282021049976348
1789021927950633700,2.4946337890625,1.7717916461020706,-1.5606398354545234,-1.9750754998534916
1789021927960637700,2.5046376953125,0.6364063907027244,-2.4077143449410796,-1.651496456682682
1789021927970641000,2.514640869140625,1.3584393930256367,-1.7662047858804464,-0.50708589104563
1789021927980643800,2.524643798828125,1.4236767120897769,-0.6909048736095428,0.5108493352323771
1789021927990647800,2.534647705078125,-0.03598725918233395,-0.5225701681643724,0.370752005495131
1789021928000651000,2.544651123046875,-1.567418243548274,-0.5048819512605667,0.21613222940862178
1789021928010653700,2.55465380859375,-2.6393063015490767,-0.3295937734156847,0.3362485551297664
1789021928020657700,2.56465771484375,-3.4122119974970815,-0.4762111525714397,0.33748511118739843
1789021928030660900,2.574660888671875,-3.6487633300781246,-0.6764116533547639,0.3551432252138853
1789021928040664800,2.584664794921875,-3.453427804982662,-0.8562573483735323,0.4789098901361227
1789021928050667800,2.594667724609375,-2.8382044875621792,-1.0351724845439194,0.6108364806383848
1789021928060671000,2.6046708984375,-3.959543681952357,-1.1263491315066814,0.602486585444212
1789021928070675000,2.614675048828125,-4.414012373793125,-1.3068097435534,0.1337114280924201
1789021928080677600,2.624677734375,-3.546788225725293,-0.7697299885213374,-0.24621581750512123
1789021928090680800,2.634680908203125,-2.286396534475684,-0.39032325966656206,0.46036184153258797
1789021928100684800,2.644684814453125,-0.9017699762701987,-0.22832155663520096,1.0530655763700605
1789021928110687700,2.654687744140625,0.4802344167381525,-0.16683248418867588,1.3289032096788287
1789021928120691700,2.664691650390625,1.1675947496086359,0.047260640607774254,2.4686419841125606
1789021928130695000,2.67469482421875,1.273909344470501,0.38510873988866806,2.770468045158684
1789021928140697600,2.684697509765625,0.9853905087649821,0.454224069429934,1.9929478411525487
1789021928150701800,2.694701904296875,0.2749947527438402,0.39683366447389123,1.3055275947883724
1789021928160704800,2.704704833984375,-0.5006950209647417,0.5851669095918536,1.33550304633528
1789021928170708000,2.7147080078125,-0.900613207450509,1.0231082450017333,0.2950292405128479
1789021928180711700,2.724711669921875,-0.4962894794821739,1.501673267222941,-1.4964987871944904
1789021928190715000,2.73471484375,0.04287584965229034,1.8957669853389263,-1.9604355646044014
1789021928200718800,2.74471875,-0.24370529598891733,1.641554031600058,-1.835769905015826
1789021928210721800,2.7547216796875,-0.41303310412466526,0.6638847647368907,-2.0759633934915063
1789021928220724700,2.764724853515625,0.0790589236676693,0.2619283504217863,-2.222927101866901
1789021928230729000,2.77472900390625,1.0065227286428213,0.7325292618960142,-1.6410922593072055
1789021928240731600,2.784731689453125,1.3666729683637617,1.0454954333767295,-0.6787474028259516
1789021928250735900,2.79473583984375,1.0059855530261992,0.7685638673514127,0.11045242531895637
1789021928260738800,2.80473876953125,1.0470984846591949,0.1922518798664212,1.4027161955170333
1789021928270742000,2.814741943359375,0.3565542610555887,-1.2452405916079878,2.4275427887439727
1789021928280745700,2.824745849609375,-0.4593967958927154,-2.0174822706893085,2.276872042544186
1789021928290749000,2.8347490234375,-0.3922948520004749,-0.7936673289477825,1.7511504246115683
1789021928300752000,2.844751953125,-0.9762029937028884,0.39170536167472597,0.3105240390256047
1789021928310755800,2.854755859375,-0.8194073348820209,1.2242352129802108,-0.45588703420609233
1789021928320758800,2.8647587890625,0.13929799605309962,1.29412737211287,-0.6542413226008414
1789021928330762800,2.8747626953125,1.501132292214036,-0.23227818530648944,-0.7533648369148374
1789021928340765700,2.884765625,2.8192291534572838,-1.7321476179778574,0.12023249944671988
1789021928350769000,2.894768798828125,3.347823988738656,-1.5866116043180227,1.7597421657375991
1789021928360772900,2.90477294921875,2.8036545677065847,-0.9473761276692152,2.589323834761977
1789021928370776000,2.914776123046875,1.824257161876559,-0.4525099589884281,2.1139054400034247
1789021928380778800,2.92477880859375,0.5244178418576717,-0.27473639406859873,1.251699704619497
1789021928390782700,2.93478271484375,-0.36363574374914165,0.1289291622519493,0.7046133732274175
1789021928400786000,2.944785888671875,-1.1419167029947042,0.16687690785229206,0.908478972389549
1789021928410788900,2.954788818359375,-1.2962404187440872,0.19666297430694102,1.1727949486002325
1789021928420792800,2.964792724609375,-1.137092643839121,0.3085480627775192,1.4301444467991589
1789021928430796000,2.974796142578125,-0.9118617466956377,0.2751677712231874,1.5746142925322055
1789021928440800000,2.984800048828125,-0.5625795224696397,0.4993085350424051,1.4862750609524547
1789021928450802700,2.994802734375,0.021303484791517256,0.5963531972557305,1.0441583395540714
1789021928460806000,3.004805908203125,0.844972568771243,0.2051291893571615,0.47041707933992144
1789021928470809900,3.014809814453125,1.671694610580802,-0.057146951588988304,0.42952772732973094
1789021928480812800,3.024812744140625,2.0190648637056348,-0.11082359671890735,0.809215026691556
1789021928490816000,3.03481591796875,1.7990864802628754,0.02161445043683052,1.1988178631290793
1789021928500820000,3.044820068359375,1.1659300312668084,0.3988268841177225,1.6829264909520745
1789021928510822700,3.05482275390625,0.38680794502198695,0.803173992961645,2.381299508485198
1789021928520827000,3.064826904296875,-0.1847562634140253,0.629370500716567,2.7867931570157407
1789021928530829800,3.074829833984375,-0.8355793020039797,-0.12047113050818442,2.5020982635125515
1789021928540832800,3.084832763671875,-1.4713339507997034,-0.654969636875391,1.7317179943889378
1789021928550836700,3.094836669921875,-1.9591706592351197,-0.8562842363804578,0.6655120736777782
1789021928560840000,3.10483984375,-2.6289994270682335,-1.033640452671051,-1.1623434049516916
1789021928570842600,3.114842529296875,-2.868331914800405,-1.2571242138862608,-2.2748405367165803
1789021928580846800,3.124846923828125,-3.0703041014313697,-1.5874807883679867,-1.5933476345747708
1789021928590849800,3.134849853515625,-3.3301053766965865,-1.8056833943098782,0.483967173525691
1789021928600852700,3.144852783203125,-3.3697458976894614,-1.9760434681028127,2.149546808357537
1789021928610856700,3.154856689453125,-2.178005717861652,-1.4622686008125543,2.865773754750192
1789021928620860000,3.16485986328125,-1.3441723827421665,-0.8868348574668169,2.431803661058843
1789021928630864000,3.17486376953125,-0.7227472880721092,-0.5736246480971574,1.2761603382676838
1789021928640866800,3.18486669921875,0.6568705020606518,-0.2888584429234266,0.44702743592411276
1789021928650869800,3.194869873046875,3.3542706806600093,0.08469079207479953,0.8824857223466038
1789021928660874000,3.2048740234375,6.5021946128666395,0.8994546850651503,2.8662969018414617
1789021928670876700,3.214876708984375,5.857099304273724,0.9347387644141912,4.560020388878882
1789021928680879900,3.2248798828125,2.405992051193118,-0.8708785789221525,3.656650283935666
1789021928690883800,3.2348837890625,2.9766806458383797,-1.9923001908987759,1.9497098801895976
1789021928700886800,3.24488671875,4.189408084115386,-2.0299691195577383,1.2015271220877766
1789021928710889700,3.2548896484375,3.3358500578284263,-1.7819728483766317,0.9652329791381955
1789021928720894000,3.26489404296875,2.136592341977358,-1.642576068124175,0.5555377872645855
1789021928730897000,3.27489697265625,1.5283353564381599,-1.4527771343678235,0.09406535414159298
1789021928740900900,3.28490087890625,3.64601198554337,3.1045237664192915,-0.5534124656736851
1789021928750903800,3.29490380859375,1.8648089524954556,3.872593128252029,-0.8401257132619618
1789021928760907000,3.304906982421875,3.291035933589935,-0.14678279885053633,-2.7210996186167
1789021928770910700,3.31491064453125,6.569537379777431,0.23159283339083192,-2.833158894610405
1789021928780914000,3.324913818359375,-0.6759995654225349,-2.279796113297343,-4.951851422759891
1789021928790916900,3.334916748046875,-5.076709390050173,-2.6091665993511675,-3.3300638756424186
1789021928800920800,3.3449208984375,-3.906816008110344,-1.0941682788699865,0.7164186695724726
1789021928810923800,3.354923828125,-3.9673341896981,-1.9347247847646474,3.6662422881454226
1789021928820927000,3.364927001953125,-3.766237616857886,-3.925923151901364,3.347857306486368
1789021928830931000,3.374930908203125,-1.0826613809496164,-3.631532209292054,2.3250214486852285
1789021928840934000,3.384933837890625,3.4924881880000234,-0.9761182380288839,-0.3084539547532797
1789021928850937900,3.394937744140625,4.88560755700171,-0.10311784464716911,-3.661735624375939
1789021928860941000,3.404941162109375,5.563037447488307,-1.0141899022698402,-4.1622237245917315
1789021928870943700,3.41494384765625,4.069826303662359,-1.9453326880186794,-3.2984131843596693
1789021928880947700,3.42494775390625,0.9359884722143411,-3.263773832654953,-2.487807580092549
1789021928890951000,3.434950927734375,1.5123644648462533,-4.679663544130325,-2.479650577121973
1789021928900953900,3.444953857421875,-4.927739310288429,-4.477621214872598,-2.9989065061718225
1789021928910957800,3.454957763671875,-7.869052874669432,-4.932859137520194,0.5870668979942798
1789021928920961000,3.4649609375,-4.472346489340067,-6.276203837266564,0.5744119990825652
1789021928930963700,3.474963623046875,-3.300336845898628,-9.180274004924296,1.0483791721194982
1789021928940967700,3.4849677734375,-1.4226257417321204,-11.908628124713896,1.9231798929214476
1789021928950970600,3.494970703125,0.6788438489377498,-13.62226393444538,3.5904695465415712
1789021928960973600,3.5049736328125,1.0462240399122238,-13.632531645959615,5.638904297116398
1789021928970977500,3.5149775390625,-0.8211445339381694,-12.471719103837012,7.529509954169392
1789021928980980700,3.524980712890625,-4.014706766247749,-10.939786599689722,9.220110925272106
1789021928990983400,3.5349833984375,-6.031990591755509,-9.568188449883461,9.751769824299215
1789021929000987600,3.544987548828125,-6.502932279491424,-8.648539118051529,8.327542492589354
1789021929010990600,3.554990478515625,-5.823832994487882,-9.647404025417567,5.932814762732386
1789021929020994600,3.56499462890625,-4.828070144790411,-10.783200199705362,3.084624887728691
1789021929030997500,3.57499755859375,-4.297578535977006,-11.528193221855163,0.7503156784772872
1789021929041000700,3.585000732421875,-5.167476871690154,-12.119557524782419,-0.750131554082036
1789021929051004700,3.595004638671875,-6.837798440352082,-12.14335341091156,-2.9212597873896358
1789021929061007600,3.605007568359375,-8.681545900118351,-11.3191307847023,-5.710791721719503
1789021929071010600,3.615010498046875,-9.591694413155317,-9.96291958912015,-10.029619381952285
1789021929081014500,3.6250146484375,-8.475560970714687,-9.299129516929387,-14.828025040841101
1789021929091017500,3.635017578125,-7.93067609488964,-8.490363987571001,-15.025979224002361
1789021929101020700,3.645020751953125,-3.7585096529543396,-10.583604679077864,-21.475395017361638
1789021929111024600,3.655024658203125,-1.661447941854596,-10.442116479504108,-24.047637368941306
1789021929121027600,3.665027587890625,-0.6517547664821147,-9.808390706187486,-25.74897483811378
1789021929131030500,3.675030517578125,0.19384674784243106,-9.483376661777497,-27.80707407361269
1789021929141034500,3.685034423828125,2.4243121362596747,-8.776429000383615,-31.053293544876574
1789021929151037700,3.69503759765625,7.514618089985847,-7.982951056528091,-33.042863434028625
1789021929161040600,3.70504052734375,15.600249768787622,-6.962075977405905,-31.129124738669393
1789021929171044600,3.715044677734375,24.126858789694307,-4.09538540007174,-25.192283204638958
1789021929181047600,3.725047607421875,30.841670901846882,0.4091624001711607,-17.806656236225365
1789021929191050500,3.735050537109375,33.509760814809795,5.026008545860648,-11.195541814434527
1789021929201054500,3.745054443359375,32.598156842267514,7.887347825294732,-6.246542858496308
1789021929211057700,3.7550576171875,29.23348517910242,8.57869109032154,-3.630651334804296
1789021929221060600,3.765060546875,24.842243440043926,8.339071602341532,-2.13149648014307
1789021929231064600,3.775064697265625,20.1152102419734,7.530760831013321,-0.18911036697030068
1789021929241067500,3.785067626953125,15.550128185790776,6.140602357643842,2.7876404214948414
1789021929251071700,3.79507177734375,11.301796203541755,4.7538557385444635,5.045789935651421
1789021929261074400,3.805074462890625,9.363976375371218,3.35960268933773,6.782845199415087
1789021929271077600,3.81507763671875,9.781939921635388,1.4310796818226574,9.19690599077344
1789021929281081600,3.82508154296875,9.529744445198773,0.2499456516832113,9.903895737743378
1789021929291084500,3.83508447265625,7.354588856071233,-0.5062444717854261,8.839253997609019
1789021929301087700,3.845087646484375,5.9259963148891925,-0.4908972650498151,7.2570350752919905
1789021929311091700,3.855091796875,3.919671690291166,0.50038113270998,6.102096978160739
1789021929321094400,3.865094482421875,1.0495232275880872,1.1062649593770504,4.879552494746446
1789021929331097600,3.87509765625,0.28371289672851563,2.535822546198964,3.606386077597737
1789021929341101600,3.8851015625,-2.257088022404909,1.1593202577382324,2.531463181945681
1789021929351104500,3.8951044921875,-4.583342520016432,-0.6974784067809582,1.5852660349279641
1789021929361107700,3.905107666015625,-7.577150241744518,-2.824581035879254,-0.5188122769355774
1789021929371111700,3.915111572265625,-11.991349662542342,-4.547138987734914,-1.025514429360628
1789021929381114400,3.9251142578125,-13.31284259596467,-3.7407162221103905,0.6980149978756904
1789021929391117600,3.93511767578125,-12.959136710077523,-3.6853181600153446,1.8146341780066488
1789021929401121500,3.94512158203125,-9.854501299977303,-3.156996296456456,2.180215795126557
1789021929411124500,3.95512451171875,-3.483264140319824,-3.461551490205526,2.7680671214967965
1789021929421127700,3.965127685546875,3.5629683761537074,-4.145240441086888,2.1879338221579787
1789021929431131600,3.975131591796875,8.440666767466068,-4.145224074473977,0.7150918048828839
1789021929441134600,3.985134521484375,9.79853449808359,-3.323531843525171,-0.008250526472926139
1789021929451137500,3.995137451171875,8.635693665003776,-4.590779976540803,-1.043267528194189
1789021929461141500,4.0051416015625,4.61156206780672,-8.18282539409697,-2.039261264038086
1789021929471144700,4.015144775390625,-0.44747956360578534,-9.968833781599997,-2.3941350246608257
1789021929481147600,4.025147705078125,-3.7877369164824484,-9.725008658623695,-4.15924324747622
1789021929491151600,4.035151611328125,-6.839644945001602,-11.358553279030323,-9.745054252308606
1789021929501154600,4.045154541015625,-10.880663379591702,-11.63678102234602,-14.379376433455944
1789021929511157500,4.055157470703125,-11.210459982103108,-12.19415303930044,-15.01493994359374
1789021929521161500,4.065161376953125,-5.619388864785432,-11.292810933053493,-10.061916554445027
1789021929531164700,4.07516455078125,1.9717187367714941,-8.759089158526063,-6.1941223509073255
1789021929541167600,4.085167724609375,8.882222786241769,-7.295166945287585,3.560093697500229
1789021929551171600,4.095171630859375,9.827803847187758,-4.663072474813461,10.328485424149036
1789021929561174500,4.105174560546875,5.330036500865221,-1.6985627437621353,12.145449506407976
1789021929571178800,4.1151787109375,8.584357445520162,1.7677251273155212,14.558430685836075
1789021929581181400,4.125181396484375,13.060928859078883,6.39777328440547,15.769942318582533
1789021929591184600,4.1351845703125,10.142695141512155,9.512007712978123,13.60049867736101
1789021929601188600,4.145188720703125,5.365278494638204,9.869931508821248,10.45848776859045
1789021929611191600,4.155191650390625,4.453165695790946,9.49539793896079,8.285242396998404
1789021929621194500,4.165194580078125,4.042553389072418,9.75994962362349,7.508627325138449
1789021929631198700,4.17519873046875,4.142974541981518,9.861634805119037,8.24509684909284
1789021929641201400,4.185201416015625,5.044578221774101,9.26450828540325,9.99206735767126
1789021929651204600,4.19520458984375,6.863998465013504,9.866644157713651,13.330253164970873
1789021929661208600,4.20520849609375,8.191364089861512,8.905829871800542,15.131715726715326
1789021929671211500,4.21521142578125,7.171686111569405,6.131404905709624,13.878877227324246
1789021929681214500,4.22521435546875,5.466074618339539,3.530059209242463,9.968748441404104
1789021929691218700,4.23521875,4.437727595901489,1.1844663894325493,5.1555245680898425
1789021929701221400,4.245221435546875,3.623801907300949,-1.0766057341724633,1.0458645589500666
1789021929711224600,4.255224609375,3.7176422205150126,-2.929286441978812,-1.0911492233097553
1789021929721228500,4.265228515625,3.1822271838247773,-6.696991793301701,-2.597171625652909
1789021929731231700,4.275231689453125,1.3978583802223206,-6.727954502320289,-2.115683409461379
1789021929741234400,4.285234375,-1.542982890471816,-7.229545010820031,-1.1258856056481599
1789021929751238700,4.29523876953125,-3.4431501565963027,-5.813851114177703,-2.0782237396389243
1789021929761241600,4.30524169921875,-4.280651366573572,-5.376949643209576,-4.668777408456802
1789021929771244500,4.31524462890625,-6.966043711993098,-2.8005162696808577,-6.687794341367483
1789021929781248500,4.32524853515625,-9.525063593906163,-3.4173370854258533,-8.269898697394131
1789021929791251700,4.335251708984375,-9.747814364671706,-3.3663445648133754,-8.450761460500955
1789021929801254400,4.34525439453125,-6.005138240665197,-5.66985999187231,-7.093104157763719
1789021929811258600,4.355258544921875,-3.491237603417039,-9.059981738114356,-6.49950873478353
1789021929821261600,4.365261474609375,-2.991986351519823,-9.716203420877456,-5.273810171252489
1789021929831264500,4.375264404296875,-1.5116425803124904,-7.9701938662856815,-5.288567010879516
1789021929841268500,4.3852685546875,-1.6379979465536771,-5.875335802710056,-3.3748125334292647
1789021929851271700,4.395271728515625,-1.6968604698888956,-3.2866222088009116,-0.38621874695718283
1789021929861274400,4.4052744140625,-1.8338129257291553,-2.027455675432086,1.7917828792512416
1789021929871278600,4.415278564453125,-1.5293483328729867,-1.69579386357069,2.96663651394695
1789021929881281500,4.425281494140625,-1.7685387817859648,-2.5453251185595986,3.2478701610803604
1789021929891285800,4.43528564453125,-2.0443641401350496,-4.187470394051075,4.718507361787557
1789021929901288400,4.445288330078125,-2.4423954899609086,-3.040971039441228,6.564290126773715
1789021929911291600,4.455291748046875,-1.2017524552762509,-0.8842892646372318,7.209670682048797
1789021929921295600,4.465295654296875,2.5906056912660596,0.8446089961558579,6.733274236038326
1789021929931298600,4.475298583984375,5.842558153223991,1.7070143457651137,5.539361972868442
1789021929941301500,4.485301513671875,7.012905416411161,2.355630814221501,4.011539534388483
1789021929951305700,4.4953056640625,6.808591635090112,2.8013287551075217,3.0328818410098553
1789021929961308200,4.50530810546875,5.991618249356747,3.282063522583246,2.8078882597535846
1789021929971311000,4.51531103515625,5.293957471746206,3.1323978617727755,2.5876351510226727
1789021929981315000,4.525315185546875,4.509263722848892,2.7253911783307787,2.61225755110383
1789021929991318300,4.535318359375,3.800370772606134,1.907529903846979,3.1751679129630324
1789021930001321200,4.5453212890625,3.509159629076719,0.42133331495821474,2.984682750508189
1789021930011325200,4.5553251953125,3.4187308778718113,-1.0109574962198733,2.29550455456078
1789021930021328100,4.565328125,3.3043314684927463,-1.8839695800393819,1.5626470836237072
1789021930031331300,4.575331298828125,2.960465424096584,-2.5162282034128904,1.0796677520915865
1789021930041335000,4.5853349609375,2.70616099268198,-3.5005461145102976,-0.3244735077925026
1789021930051338200,4.595338134765625,2.448514265102148,-5.045592367252707,-6.5329504011362785
1789021930061341200,4.605341064453125,1.2370914796829222,-5.660784705013036,-13.010013495355844
1789021930071345200,4.61534521484375,-0.17138996482994406,-4.374883893975615,-13.22076636981368
1789021930081348000,4.62534814453125,-2.196372564679384,-2.641678291377425,-9.979137733471394
1789021930091351300,4.635351318359375,-3.291612272173166,-0.5537526574134827,-6.263664673689007
1789021930101355300,4.645355224609375,-3.0687469351172445,1.3167524608969687,-4.33229679813683
1789021930111358200,4.655358154296875,-2.459206339508295,2.557265147200227,-2.9998095924913883
1789021930121361200,4.665361083984375,-1.402531048208475,3.0178917771488427,-1.766115938553214
1789021930131365400,4.675365478515625,-0.44179932601228356,3.009487521418929,-1.306810766466707
1789021930141368000,4.6853681640625,-0.17236732196211813,2.7296494202971457,-1.3884008160471915
1789021930151371300,4.695371337890625,-0.17497677380815146,2.2282348528862,-1.3073745378293096
1789021930161375200,4.705375244140625,-0.18782909498810768,1.660271299290657,-1.1349036093622444
1789021930171378200,4.715378173828125,-0.10911503923535347,1.1337135227948427,-0.9634443421557545
1789021930181381000,4.725381103515625,-0.030328648898750542,0.6490104362100363,-0.8712260771855711
1789021930191385300,4.73538525390625,0.055251347100734705,0.36867373791635033,-0.8143494669705629
1789021930201388000,4.745387939453125,-0.15159809017777442,0.2427607086151838,-0.5860360936418175
1789021930211391200,4.75539111328125,-0.6410988593678921,0.26615269011855125,-0.2995537321999669
1789021930221395200,4.765395263671875,-1.113363320140168,0.22794833940863607,-0.1798382423646748
1789021930231398100,4.775398193359375,-1.6556594215810299,0.0956891559511423,-0.03390007764473557
1789021930241401000,4.785401123046875,-2.2405191649198533,-0.30103578745126724,0.028098697889596222
1789021930251405300,4.7954052734375,-2.905522704553604,-0.6969757179558277,-0.15489194409139453
1789021930261408000,4.805407958984375,-3.443748122489452,-1.0364122554719448,-0.3197559046860784
1789021930271411200,4.8154111328125,-3.9121360340893268,-1.254143736770749,-0.7213326720338314
1789021930281415200,4.825415283203125,-4.247169952732325,-1.2895868060737847,-1.134446659374982
1789021930291418400,4.83541845703125,-4.258865066701174,-1.3151824351012706,-1.1019134131040424
1789021930301421000,4.845421142578125,-3.5689883670955895,-1.2108406016170978,-0.5773143694605678
1789021930311425300,4.85542529296875,-2.469815996327996,-0.9233329887807369,-0.018675766636431217
1789021930321428200,4.86542822265625,-1.4414362406641243,-0.8131926981508731,0.04190623743515461
1789021930331431200,4.87543115234375,-0.5726590179353952,-0.941561303910613,-0.18406886567175387
1789021930341435100,4.88543505859375,-0.09373864293787627,-1.0327122319102287,-0.48593134973812846
1789021930351438300,4.895438232421875,-0.05140519306659698,-0.8981763356924056,-0.7108963990196585
1789021930361441000,4.90544091796875,0.01591419296860695,-0.4301116646975279,-0.43934429754298177
1789021930371445200,4.9154453125,0.26376024202406406,0.13847849636375903,0.721978203395754
1789021930381448200,4.9254482421875,0.5330032993733883,0.14162205508649348,2.397187397968769
1789021930391451100,4.935451171875,0.741516139819473,-0.48711657746732234,4.084495757266879
1789021930401455000,4.945455078125,0.9639769877277314,-1.5000842444658278,4.76274105578959
1789021930411458300,4.955458251953125,1.2739414931744337,-2.761107803878188,4.073112485726178
1789021930421461000,4.9654609375,1.7421714377336204,-4.027805901795626,1.975131029433012
1789021930431465200,4.97546533203125,1.825609745529294,-5.190552626851201,-0.7989857474915683
1789021930441468200,4.98546826171875,0.4569749755732715,-5.991693652680516,-3.6962408283069728
1789021930451471000,4.99547119140625,-1.6447829305186867,-6.207655201697349,-4.851275663810968
1789021930461475000,5.00547509765625,-2.4489400892987847,-5.5083957567185164,-3.2987513302728533
1789021930471478300,5.015478271484375,-2.1450842759907243,-3.945768839100003,-0.9698024790108203
1789021930481481200,5.025481201171875,-1.752161939741671,-2.2972850082367655,0.519887906810455
1789021930491485200,5.035485107421875,-1.2996169094398617,-0.9440817622989416,1.151545459018275
1789021930501488000,5.045488037109375,-0.29183205190673467,-0.13513853828608988,1.051848601795733
1789021930511491300,5.0554912109375,0.42798502793237564,0.6221662684261798,0.8277011159747838
1789021930521495000,5.0654951171875,0.8712292920559644,1.2742805158704518,1.1030201322369277
1789021930531498200,5.075498291015625,0.7417214531332254,1.8104460786670444,1.2300468218684195
1789021930541501200,5.085501220703125,0.5772421079419553,2.0808575952738524,0.9771836022380739
1789021930551505200,5.095505126953125,0.28995369081422684,2.258235438874364,0.8557112587980925
1789021930561508000,5.105508056640625,0.18099954122900963,2.282801140332222,0.6037075055412948
1789021930571511300,5.11551123046875,0.15636895784139632,2.293440607768297,0.07235906070284545
1789021930581515300,5.125515380859375,0.50331382516101,1.9609616343051195,0.026722879491746423
1789021930591518200,5.135518310546875,0.9493347874563187,1.669877916547656,0.315833616675809
1789021930601521200,5.145521240234375,1.2133581373959779,1.7081939109385011,0.31738245355300604
1789021930611524000,5.155524169921875,1.7974428047090767,1.4694061976075172,0.05494155049920082
1789021930621528000,5.165528076171875,2.3888754966974255,1.1847703408151864,-0.12344422803483902
1789021930631531300,5.17553125,2.5994927620768546,1.5514870994448662,0.3124460931293666
1789021930641534200,5.1855341796875,3.421862453895807,2.0830203262656926,0.34030718287080525
1789021930651538200,5.1955380859375,4.5270331882953645,2.6565128724157807,-0.22285437727048993
1789021930661541000,5.205541015625,5.48030188113451,3.0106816996395587,-0.7147322508554905
1789021930671544300,5.21554443359375,5.471155282604694,2.67619021731019,-0.7040940985936671
1789021930681548000,5.225548095703125,3.881773629051447,1.9030536352157592,-0.3217337075650692
1789021930691551200,5.23555126953125,1.9613189233101904,1.1346148555487394,-0.01430836520716548
1789021930701554200,5.24555419921875,0.6340425841808319,0.6732201638370752,-0.1648689290307462
1789021930711558100,5.25555810546875,0.01950681063309312,0.6232137316524982,-0.31809199006184935
1789021930721561000,5.26556103515625,0.09133286043778062,0.8938935438066721,-0.2385202945664525
1789021930731564300,5.275564208984375,0.3718975222684443,0.9974696536153554,-0.027629619073122738
1789021930741568300,5.285568359375,0.5639699539147317,0.8201081766277551,-0.0004663023374974727
1789021930751571200,5.2955712890625,0.7761490617834031,0.46139586075544353,-0.042738633138686415
1789021930761574100,5.30557421875,1.0568329660795628,0.04336392543017864,0.14266630344241857
1789021930771578400,5.315578369140625,1.2361083138644695,-0.16821429393589496,0.38438802439868447
1789021930781581000,5.3255810546875,1.3638216705858706,-0.16821955463290214,0.6045299278400837
1789021930791584300,5.335584228515625,1.3621886625565587,-0.2642851426810026,0.6374171751804649
1789021930801588200,5.345588134765625,1.5397626132510602,-0.444015102365613,0.35655835270881653
1789021930811591200,5.355591064453125,1.5207332108713685,-0.5500391898483038,0.47958399000540375
1789021930821594000,5.365593994140625,1.1131129255756735,-1.0487304697751998,0.5828944346152246
1789021930831598300,5.375598388671875,0.695429803688079,-1.3732716359764336,0.460747918240726
1789021930841601000,5.38560107421875,0.4678403607197106,-0.8817442563295363,0.3197681065805256
1789021930851604200,5.395604248046875,0.5445800476595759,-0.17404022361040114,0.33689138307794925
1789021930861608200,5.405608154296875,0.7187095569886267,0.29376608870923515,0.3029416210725903
1789021930871611100,5.415611083984375,0.695773940950632,0.3937865518629551,0.11842866489514708
1789021930881614300,5.4256142578125,0.7809213907517493,0.11358487812578677,-0.11655088832452892
1789021930891618300,5.435618408203125,1.1112690512746572,0.07684592379331588,-0.08127221580296755
1789021930901621000,5.44562109375,1.0943249307364225,-0.3632429450392723,-0.3497797984845936
1789021930911624200,5.455624267578125,0.9155445268616079,-0.9370394425719976,-0.35342546151056886
1789021930921628200,5.465628173828125,0.9613841947555541,-0.9219622849494218,-0.22337430949136614
1789021930931631400,5.47563134765625,1.0442509862735867,-0.2649877379924059,-0.3853450328625738
1789021930941634300,5.48563427734375,0.7717123945102096,0.340423210465908,-0.18420666670724747
1789021930951638300,5.49563818359375,0.4045812098607421,0.6988420963495969,-0.0021280980698764325
1789021930961641200,5.50564111328125,0.08419161038100718,0.5461071110963821,0.1467832372419536
1789021930971644200,5.51564404296875,-0.05065554374307394,-0.17540391317903994,0.11772110114768147
1789021930981648100,5.525648193359375,-0.02495236268788576,-0.9512953469395637,0.04383972624838352
1789021930991651300,5.5356513671875,0.1705146798327565,-1.4184925874501466,0.24495763413757085
1789021931001654300,5.545654296875,0.17397212681025265,-1.3345762868791817,0.5503846422851085
1789021931011658200,5.555658203125,-0.12284341259747743,-1.0009306077241897,0.7118143906474113
1789021931021661200,5.5656611328125,-0.6045429334521293,-0.9566431377083062,0.584051787956804
1789021931031664000,5.5756640625,-0.9541679797664284,-1.1239894166380167,0.19619462614282965
1789021931041668000,5.585668212890625,-1.0730863278746605,-1.2620225073218345,-0.353579044637084
1789021931051671300,5.59567138671875,-1.0281780956119297,-1.198503098091483,-0.8817914564721285
1789021931061674200,5.60567431640625,-0.6726230747267603,-0.8749591262340545,-1.0846458327651023
1789021931071677200,5.61567724609375,-0.218574946385622,-0.39458383972048755,-1.303257750160247
1789021931081681200,5.62568115234375,0.026927169892191884,0.14772855526804923,-1.4174723044916986
1789021931091684400,5.635684326171875,-0.024732874718308446,0.24628362204432486,-1.5272019684940576
1789021931101687300,5.645687255859375,-0.2560603351712227,-0.09750468094050883,-1.4524793204650281
1789021931111691300,5.655691162109375,-0.046020577418804165,-0.16268237877190111,-1.0907713299080728
1789021931121694200,5.665694091796875,0.35176088929921384,-0.14968436551094055,-0.7401772924311458
1789021931131697200,5.675697265625,0.6609019495338201,-0.13577800523340702,-0.417862131716311
1789021931141701000,5.685701171875,0.6549062162503599,-0.2085585792839527,-0.2345528522402048
1789021931151704300,5.695704345703125,0.49540275977551934,-0.6543465365409851,-0.22817703359797595
1789021931161707300,5.705707275390625,0.787198425194621,-1.11808983720541,-0.3309020795352757
1789021931171711200,5.715711181640625,1.0943564949184656,-1.1184838049590586,-0.35970790278092024
1789021931181714200,5.725714111328125,1.2839134366124867,-0.7353963417649269,-0.43546720038130876
1789021931191717000,5.735717041015625,1.1791340884938835,-0.3647843292623758,-0.5526394354745745
1789021931201721000,5.74572119140625,1.0758844341605902,-0.21387246778309343,-0.724537240228802
1789021931211724300,5.755724365234375,1.0085790766507388,-0.14586276139616966,-0.9378026089642196
1789021931221727200,5.765727294921875,0.9135188662528991,-0.018303718453645704,-0.9732838913857936
1789021931231731200,5.775731201171875,0.9124544518917799,0.008812836530804634,-1.0694200604520738
1789021931241734100,5.785734130859375,0.8345002745956182,-0.16342705965936183,-1.118287405604124
1789021931251737300,5.7957373046875,0.7019219421863555,-0.5465852500021458,-1.1422780105877668
1789021931261741000,5.805740966796875,0.6279127031236886,-0.9695061264127492,-1.038828668963909
1789021931271744300,5.815744140625,0.36450142066776753,-1.1674030264288187,-0.7803927637677639
1789021931281747500,5.82574755859375,0.33308570718467234,-1.0663204870015381,-0.4872151424709707
1789021931291750100,5.835750244140625,0.4802335399553179,-0.8580582603156566,-0.23753493679091334
1789021931301754000,5.845754150390625,0.48493631081879135,-0.8252011158525944,-0.25004976964481174
1789021931311757300,5.85575732421875,0.4580144016236067,-0.5815455042243004,-0.2649322084128857
1789021931321760300,5.86576025390625,0.5140729734539985,-0.2886363246053457,-0.27598427523784336
1789021931331764200,5.87576416015625,0.5200684144765139,-0.06164250944256782,-0.16551204923987387
1789021931341767400,5.885767333984375,0.5444575903236866,0.3283727071881294,-0.2775198873072863
1789021931351770000,5.89577001953125,0.5152618909776211,0.5545803404092788,-0.4644240494702011
1789021931361774000,5.905774169921875,0.6271487330138683,0.5250011947035789,-0.9918033714819698
1789021931371777300,5.91577734375,0.9106529554277658,0.5202180520802736,-1.354367321281135
1789021931381780200,5.9257802734375,1.2543015576809644,0.5772101053684949,-1.640763904135674
1789021931391784200,5.9357841796875,1.5459136832267044,0.6342986047685146,-1.8040914489433169
1789021931401787400,5.945787353515625,1.643179879236221,0.7186310849249362,-1.5675577981494366
1789021931411790000,5.9557900390625,1.768573853099346,0.9805728793501853,-1.108460423594713
1789021931421794300,5.965794189453125,1.6011697065025567,0.9699696522712707,-0.8700137787863612
1789021931431797200,5.97579736328125,1.0329378573596477,0.6565303103208542,-1.004548505960405
1789021931441800400,5.985800537109375,0.35838615265786644,0.05852116255164146,-1.0765180558890104
1789021931451803100,5.99580322265625,-0.5055032980293035,-0.5753560019344091,-0.9553943797562271
1789021931461807400,6.005807373046875,-1.3731079698473214,-0.948086906287074,-1.0613936981238423
1789021931471810300,6.015810302734375,-2.101055749171972,-1.0010147788763046,-1.249941901166737
1789021931481813200,6.025813232421875,-2.6541782919883725,-0.8193845385283232,-1.1785473746471107
1789021931491817200,6.035817138671875,-2.801479561755061,-0.3867366333514452,-0.9261984612144529
1789021931501820400,6.0458203125,-2.6138556339502332,-0.0327431626945734,-0.9422685023318975
1789021931511823000,6.055822998046875,-2.3782401209145783,-0.0729582687050104,-1.3963691645778715
1789021931521827300,6.065827392578125,-2.077514130064845,-0.19073475330173967,-1.655156294364482
1789021931531830300,6.075830322265625,-1.6373229699015617,-0.05939911442995071,-1.6144956365436314
1789021931541833200,6.085833251953125,-1.0504659152656792,0.1300795013308525,-1.7309126693554222
1789021931551837200,6.095837158203125,-0.5954097789257764,0.23804010983407495,-2.0260266655422745
1789021931561840400,6.10584033203125,-0.12568857289552687,0.17289456070661544,-1.827940526564419
1789021931571843000,6.115843017578125,0.3630541444689035,-0.017649638459086417,-1.587209570211172
1789021931581847300,6.125847412109375,0.7429851894587278,-0.2041799258083105,-1.3950095666624605
1789021931591850200,6.135850341796875,0.9169435800045728,-0.4997025027960539,-1.320322866729647
1789021931601853200,6.145853271484375,0.9804793558478355,-0.7715835074335337,-1.3529185837775468
1789021931611856100,6.155856201171875,0.9847504572957754,-0.8494564361870288,-1.2718394063286482
1789021931621860400,6.1658603515625,0.9224322405487299,-0.8413041093915701,-1.131082808965072
1789021931631863300,6.17586328125,0.18928513901531696,-0.7819201925307512,-1.1225555844426154
1789021931641866200,6.1858662109375,-0.7037924122333526,-0.7195096213251352,-0.9759764914706349
1789021931651870200,6.1958701171875,-0.9977402872502803,-0.8139414706915616,-0.5869803887546062
1789021931661873400,6.205873291015625,-1.0134466826871036,-0.9817401695638894,-0.1215018252627924
1789021931671876000,6.2158759765625,-1.0732479481771589,-1.0249760847002267,0.21580182841047643
1789021931681880300,6.22588037109375,-0.9942612129628657,-0.7898416331797837,0.1864136021669954
1789021931691883300,6.23588330078125,-0.5099824892699718,-0.26781623941659927,-0.017156813440844416
1789021931701886200,6.24588623046875,0.15604805532395838,0.40941199101805686,-0.08495061205476521
1789021931711890200,6.25589013671875,0.793543118046224,1.0195143121629953,0.13596329867243767
1789021931721893400,6.265893310546875,1.4038544057667255,1.24638362416327,0.3842740426301956
1789021931731896000,6.27589599609375,1.812179770591855,1.3828729925364256,0.5621124894797802
1789021931741899300,6.285899169921875,2.2814529405936597,1.3034651093006133,0.9037783934831619
1789021931751903200,6.2959033203125,2.658398247770965,1.0258423461407422,1.0512344154201447
1789021931761906200,6.30590625,2.804690925016999,0.8333686402171849,1.2311124052733182
1789021931771909000,6.3159091796875,2.715042218273878,0.8491133218377828,1.3281979840189218
1789021931781913300,6.325913330078125,2.3461779262214897,1.0405395645350217,1.1360638853132725
1789021931791916000,6.335916015625,1.7435346889108418,1.261911448162794,0.7467118087664246
1789021931801919200,6.345919189453125,1.0703969426602125,1.450073720628023,0.5043336697280406
1789021931811923200,6.355923095703125,0.5408177725166082,1.597025446304679,0.3127686030820012
1789021931821926400,6.365926513671875,0.32094957145005465,1.5939549528181551,-0.047348318891227245
1789021931831929000,6.37592919921875,0.29374972209632394,1.3126456101000308,-0.4508256591632962
1789021931841932300,6.385932373046875,0.4051055259957909,0.9365490287065505,-1.0238105480521917
1789021931851936300,6.395936279296875,0.5506862555801868,0.5480792879521846,-1.6322966661721467
1789021931861939200,6.405939208984375,0.21849837401807307,-0.02138531785607338,-1.9841601390630006
1789021931871942400,6.4159423828125,-0.3598337211176753,-0.6091489659428596,-2.2030983658030627
1789021931881946400,6.4259462890625,-1.1634624721094966,-0.9652525606215,-2.7339807274997234
1789021931891949000,6.435948974609375,-1.970028153336048,-1.2566150953203439,-3.03895268535614
1789021931901952300,6.4459521484375,-2.728173794786632,-1.4452549221694468,-3.090398210433125
1789021931911956200,6.455956298828125,-3.0969156295031306,-1.5610802726984023,-2.536208622907102
1789021931921959200,6.465959228515625,-2.7789345524698494,-1.8254373115718363,-1.4721388374418019
1789021931931962400,6.47596240234375,-2.1193954157218338,-2.1883184375613927,-0.09280833981782198
1789021931941965300,6.48596533203125,-1.769693212518096,-2.436562546023726,1.6411194395750761
1789021931951969000,6.495968994140625,-0.9270575622618198,-2.323447038975358,2.447546004591882
1789021931961973000,6.505972900390625,0.017394786915183067,-2.0580431213974952,2.7364491634398695
1789021931971976000,6.515975830078125,0.4833130935311317,-2.010285929444432,2.7263568084925414
1789021931981980200,6.525980224609375,0.5521338240399957,-2.156274947568774,2.54366273830533
1789021931991982800,6.53598291015625,0.19041589661091565,-2.11008661236763,2.1385954984933138
1789021932001986000,6.545986083984375,-0.3441656118646264,-1.79546010645926,1.5591998657792805
1789021932011990000,6.555989990234375,-0.515110792069137,-0.9980278720200061,1.4514330262824893
1789021932021993000,6.565992919921875,-0.2804173623144626,-0.028325346252322196,1.632254872857034
1789021932031996000,6.575995849609375,-0.14283143087625502,0.7853945906430483,1.56855367731899
1789021932041999000,6.5859990234375,-0.4125008969441056,1.2879922303587197,1.2564523059740662
1789021932052002800,6.5960029296875,-0.6511188066661358,1.483189223766327,0.9959618794009089
1789021932062006000,6.606006103515625,-0.15355185459405182,1.5678829384505748,0.9497978018581866
1789021932072009000,6.616009033203125,0.6486018554091453,1.6597954984724521,1.1748878292262555
1789021932082013000,6.626012939453125,1.448680512703955,1.6059131016373633,1.4717738035216927
1789021932092015900,6.636015869140625,2.1340172307923435,1.343973645299673,1.0028405329987407
1789021932102019000,6.64601904296875,1.951159786736965,1.1206290002942085,-0.13777034809440372
1789021932112023000,6.65602294921875,0.10427169085741042,0.9043442106723785,-0.8656205122634768
1789021932122026000,6.66602587890625,-1.5646201372623443,0.26087621102035047,-0.6702405635043979
1789021932132029200,6.676029296875,-1.6242366938352584,0.19646891303956507,0.24301468337625265
1789021932142032000,6.686031982421875,-1.1223518785640596,0.4480038797408342,1.6968243756622075
1789021932152035800,6.696035888671875,-0.05467033234238624,-0.004088146096467972,1.9706743422850965
1789021932162039000,6.7060390625,0.17616934459358452,-0.6972264778465033,1.2031743047729133
1789021932172042000,6.7160419921875,-0.008026654589176178,-0.923248817628622,0.605397796715796
1789021932182046000,6.7260458984375,0.17946809387803075,-0.8574082719743251,0.2833852722093463
1789021932192049200,6.736049072265625,0.08995645751804113,-0.9153875827342272,-0.5016203191161155
1789021932202052000,6.746052001953125,0.12388590738773345,-1.1376502777218818,-1.4858441221892833
1789021932212055000,6.756054931640625,-0.07953735483437777,-1.2164654557615517,-1.694863596983254
1789021932222059000,6.76605908203125,-0.5546560359939933,-0.9297171368598938,-1.4601105459958315
1789021932232062200,6.776062255859375,-1.0350444742500782,-0.07119535068571567,-1.1727730290293692
1789021932242065000,6.78606494140625,-0.9123395933404564,0.6810112561047077,-0.2351537407428026
1789021932252069000,6.796069091796875,-0.6535834432139992,0.8460252926945686,1.0939239487200976
1789021932262072000,6.806072021484375,-1.174491523385048,0.7064718605756759,1.2461451392322778
1789021932272075000,6.816074951171875,-1.2009414311543107,0.46966859906017777,0.5877089952901006
1789021932282079000,6.826078857421875,-0.4700622745528817,0.29765491284132,0.17168167778551577
1789021932292082200,6.836082275390625,0.03239771025776863,0.3096452103644609,0.3528977843746543
1789021932302084900,6.8460849609375,0.1786474251449108,0.34771278295218944,0.3104670481413603
1789021932312088000,6.856088134765625,0.17820348076969383,0.14813772059082983,-0.1672302513346076
1789021932322092000,6.866092041015625,0.23250439527779818,0.0026981530427932737,-0.636563919351995
1789021932332095000,6.876094970703125,0.4569628467440605,0.1149824699640274,-0.5243336707055568
1789021932342098000,6.886097900390625,0.5380369096264243,0.49119654025733467,-0.11527706899642944
1789021932352102100,6.89610205078125,0.6726791888281702,0.8353805645614862,0.24306992069482802
1789021932362104800,6.906104736328125,0.6692641196876764,1.0692764141976834,0.20012100580632686
1789021932372108000,6.91610791015625,0.5967924654558301,1.1600509101003407,-0.15635083766281604
1789021932382111000,6.926111083984375,0.6207005797877907,0.9806693254619836,-0.2853647555887699
1789021932392115200,6.936115234375,0.5240919709041715,0.6660667849510907,-0.623837124247849
1789021932402118000,6.946117919921875,0.5941679621711373,0.2701549114972353,-0.9996385220870375
1789021932412121000,6.95612109375,0.5951107959792018,0.056764089751243585,-0.9178256235361099
1789021932422125000,6.966125,0.31390900528877974,0.0736123486995697,-0.39207156463861464
1789021932432128000,6.9761279296875,0.036759120337665076,0.23720073640048503,0.0039919922456145285
1789021932442131000,6.986130859375,0.16474720234721899,0.251296481770277,-0.04866144731640815
1789021932452134000,6.9961337890625,0.4835843116879463,0.08174421722888946,-0.3604521452769637
1789021932462137900,7.006137939453125,0.6413225120559335,-0.36584991266727446,-0.7102008179709315
1789021932472141000,7.01614111328125,0.5822565751031041,-0.7367851657748222,-0.8964467354208231
1789021932482144000,7.02614404296875,0.24270547129660844,-0.6037368777662515,-0.6280240545436739
1789021932492148000,7.03614794921875,0.0768190357863903,-0.33740766203701494,-0.32512188869863745
1789021932502151000,7.04615087890625,0.3521475505292415,-0.28381986423432826,-0.5018073661208152
1789021932512154000,7.056154052734375,0.603482318483293,-0.28047873711287974,-0.7655904044985771
1789021932522157000,7.066156982421875,0.6336287426829338,-0.06553834783732891,-0.7676470447674393
1789021932532161000,7.0761611328125,0.6804249806493521,0.08688450272679328,-0.5446215487137437
1789021932542164000,7.0861640625,0.6871461055979132,0.05675415287911892,-0.4830982817366719
1789021932552167000,7.0961669921875,0.4786290273681283,0.19602642996907232,-0.5451815206840634
1789021932562171000,7.1061708984375,0.22287498166710137,0.41151568529903887,-0.4850502925872802
1789021932572174000,7.116174072265625,0.12864245426505802,0.4784294131428003,-0.5447890142351388
1789021932582177000,7.126177001953125,0.26340572949796914,0.28450901554226876,-0.9656412676781415
1789021932592180000,7.136179931640625,0.43100189153552054,-0.08049392490684985,-1.5487296174302696
1789021932602184000,7.146183837890625,0.2103475085273385,0.006563596299290657,-1.76693456145972
1789021932612187000,7.156186767578125,-0.08729220674484968,0.3078501436412334,-1.4470707394197582
1789021932622190000,7.166190185546875,-0.0702335199162364,0.5285901591062545,-1.0600962056592107
1789021932632193000,7.176193115234375,0.24339491486549375,0.4242857350230217,-0.7820049482047557
1789021932642197000,7.186197021484375,0.4470052240923047,0.1721989796578884,-0.8383157412305474
1789021932652200000,7.196199951171875,0.5467667440488935,-0.19261516022086142,-1.1902362050056456
1789021932662203100,7.206203125,0.5495350397184491,-0.6133803199023008,-1.3893813515171407
1789021932672207000,7.21620703125,0.34251462978720665,-0.7612661115586757,-1.3218535834282636
1789021932682210000,7.2262099609375,0.15364391679167747,-0.5751508347511292,-1.087809265232086
1789021932692213000,7.236212890625,0.13959902482628822,-0.29712124435603615,-0.8203963459193706
1789021932702216000,7.2462158203125,0.29788989064097404,-0.21043021837472914,-0.7847364189952611
1789021932712220000,7.256219970703125,0.469727928031981,-0.38862580809891223,-1.1931269580110906
1789021932722223000,7.26622314453125,0.34094723434001206,-0.48043549226820464,-1.496484174147248
1789021932732225800,7.276225830078125,0.1657438121691346,-0.354058352586627,-1.5877426541745663
1789021932742230000,7.28622998046875,0.23710195220112798,-0.19357377611994742,-1.6822510759085416
1789021932752233000,7.29623291015625,0.31768297086954117,-0.03188391551673412,-1.5412506598517297
1789021932762236200,7.306236083984375,0.29300971738398074,0.13956687612235547,-1.4387687750205396
1789021932772238800,7.31623876953125,0.257318518538773,0.25256430974900723,-1.4096698140472173
1789021932782243000,7.3262431640625,0.2567661453530192,0.3334048561364412,-1.445254337647557
1789021932792246000,7.33624609375,0.3701628074303269,0.32148703932762146,-1.435972714561224
1789021932802249000,7.3462490234375,0.4790191957294941,0.244272866743803,-1.2287138196989893
1789021932812252200,7.356252197265625,0.5079179579555988,0.24247195480167863,-1.2681941816940903
1789021932822256000,7.366256103515625,0.5076891176357865,0.3360468950778246,-1.2301423911973832
1789021932832258800,7.3762587890625,0.35669366952627896,0.43720191521942614,-1.2932634487599133
1789021932842262000,7.386261962890625,0.336592546261847,0.4095242192208767,-1.3858677904382348
1789021932852265000,7.396264892578125,0.283754982304573,0.3080646631747484,-1.4875877509862183
1789021932862269000,7.40626904296875,0.2636263865113258,0.0671814388692379,-1.755487284772098
1789021932872272100,7.416272216796875,0.35625557036995886,-0.1387193193823099,-2.006884304307401
1789021932882275000,7.426275146484375,0.24234043737649916,-0.037131753042340274,-1.9605469160243867
1789021932892278800,7.43627880859375,0.05176204368025064,0.23414134882986545,-1.7348522007614373
1789021932902282000,7.446281982421875,-0.016050678829848765,0.5920750815451145,-1.4435659461691974
1789021932912285200,7.45628515625,0.07123012973815203,0.878093332606554,-1.221006021800637
1789021932922287900,7.466287841796875,0.09745119718760252,0.9690794254332781,-1.1782020683407783
1789021932932292000,7.4762919921875,0.04543722457289696,1.1483376759529114,-1.127464983794093
1789021932942295000,7.486294921875,0.030814240458607672,1.3301479490429162,-0.9457695692554116
1789021932952298000,7.496298095703125,0.033742110604047776,1.4078683175832032,-0.7499360315099358
1789021932962301200,7.50630126953125,0.08765461031645536,1.3694880257844924,-0.5271045967236161
1789021932972305400,7.516305419921875,0.229017137683928,1.1936217557907103,-0.3994685430221259
1789021932982308000,7.52630810546875,0.3546969427511096,1.0646236199557781,-0.18974632678627967
1789021932992311300,7.536311279296875,0.4029004171669483,1.1220178243041037,-0.035150077705830333
1789021933002315300,7.546315185546875,0.4640951828420162,1.2280348975241184,0.29924349720701576
1789021933012318200,7.556318115234375,0.5753615548923612,1.2071826636314391,0.5231865464970469
1789021933022321200,7.566321044921875,0.7477645326897502,0.9909539881110191,0.338828634750843
1789021933032324400,7.576324462890625,0.7037921199724078,0.7035901676595211,0.14006635007709264
1789021933042328000,7.586328125,0.39503538288027046,0.526522705182433,0.002930646624416113
1789021933052331300,7.596331298828125,-0.1463248259499669,0.5369961684018373,-0.1860721683181822
1789021933062334200,7.606334228515625,-0.7158382393360138,0.2780629081428051,-0.5378913636758923
1789021933072337200,7.616337158203125,-1.0400737005889416,-0.26235271331369875,-0.7647228278838097
1789021933082341000,7.626341064453125,-1.3125257831126451,-0.6652578066557645,-1.1747716555006802
1789021933092344300,7.63634423828125,-1.5064280605345963,-0.7394774735987186,-1.5562684885025024
1789021933102347000,7.646346923828125,-1.9299694069311022,-0.13991115951538086,-1.4608651637554169
1789021933112350200,7.65635009765625,-2.26129161157459,0.7429770061522721,-0.7608537313655018
1789021933122354200,7.666354248046875,-2.2211092387899756,1.297296065276861,-0.19298194770663976
1789021933132357000,7.676357177734375,-1.2957730934932827,0.8606237268894911,-0.23506518567651508
1789021933142360300,7.6863603515625,-0.40273733555972574,-0.38550621477365493,-0.30306115579903126
1789021933152363300,7.69636328125,-0.3555050442636013,-1.3363602476865053,-0.33545331309884785
1789021933162367200,7.7063671875,-1.1709130803763865,-0.95803488432765,-0.01517930282279849
1789021933172370200,7.7163701171875,-2.306436282941699,0.33039106127321716,1.0737310555189847
1789021933182373400,7.726373291015625,-2.9149028195783493,0.5418611440896988,1.2821036107115447
1789021933192377000,7.736377197265625,-2.3493586020842194,-0.39163901844024657,-0.1572680986382067
1789021933202380300,7.74638037109375,-2.3323861322343347,-0.8887263703018426,-1.966762721799314
1789021933212383200,7.75638330078125,-2.475442896299064,-0.7153419802516698,-2.325003620767593
1789021933222386200,7.76638623046875,-1.446547300067544,0.33130817611813546,-1.4187202587261796
1789021933232390100,7.77639013671875,-0.23565759861171245,2.5571564261287447,0.8167118121877313
1789021933242393300,7.786393310546875,0.1205506254851818,4.3289901578068735,2.4232366159826517
1789021933252396000,7.79639599609375,-0.1269026248604059,3.538658695283532,2.3476979753956195
1789021933262399200,7.806399169921875,-0.6594602262929081,-0.5078583367228507,-0.4825812721252441
1789021933272403200,7.8164033203125,-1.1609759159907698,-3.880378375300765,-3.0165339327991005
1789021933282406100,7.82640625,-1.2926403484255076,-3.9270828433305023,-2.386007247784734
1789021933292409000,7.8364091796875,-0.6153828918963671,0.0577788197517395,0.006610358050465583
1789021933302412300,7.846412353515625,0.6522250143423676,4.754578792122006,2.474758421166241
1789021933312416300,7.856416259765625,1.2651336250796914,4.30848103826344,2.4649551122933624
1789021933322419200,7.866419189453125,0.7865817546010017,0.6376905852943658,-0.5072840439662337
1789021933332422100,7.876422119140625,-0.033280338311195375,-0.5198766912966967,-0.9919286783620714
1789021933342425000,7.886425048828125,-0.3220288911193609,0.0926134017676115,-0.1461181974619627
1789021933352429000,7.896428955078125,0.20260434705466032,-0.06444353833794593,-0.46447687563598156
1789021933362432300,7.906432373046875,0.40026597701013084,-0.06812193458974361,-1.135614972501993
1789021933372435200,7.916435302734375,0.3069453037559986,1.4285147997707128,-0.9258487709939479
1789021933382438100,7.926438232421875,0.27816461495161054,2.6192016711533066,-0.13764146101772784
1789021933392442000,7.936442138671875,0.19000497772246597,1.8810311884999273,-0.7158265488982201
1789021933402445300,7.9464453125,0.18236089271008968,0.4220499387949705,-1.7595187322452663
1789021933412448300,7.9564482421875,0.5533557670503855,-0.14437281509935854,-2.047515589903295
1789021933422451200,7.966451171875,1.2376993824481963,1.0625585041195154,-1.4641469619050622
1789021933432455400,7.976455322265625,1.4743822324544191,2.1478537407040594,-1.0207853550121189
1789021933442458000,7.9864580078125,1.2432535094439983,1.2824182296186686,-1.9428201206758617
1789021933452461300,7.99646142578125,0.9809124865680933,0.5150245750904083,-2.4096093649074435
1789021933462464000,8.006464111328125,0.4325760089844465,0.5788397523969412,-1.6901875679962337
1789021933472468200,8.01646826171875,0.10878770697712897,0.409876101398468,-0.8431813014402985
1789021933482471200,8.02647119140625,0.35495500916540623,-0.3721650871634483,-1.4019327900543808
1789021933492474400,8.036474365234374,0.7218769349783658,-0.4558808967262506,-1.4529947226412594
1789021933502477000,8.04647705078125,0.8398100714415311,0.39343291611969466,-0.0984698727108538
1789021933512481300,8.056481201171875,0.5062058933407068,1.3242641517013312,0.557322478724271
1789021933522484200,8.066484130859376,-0.09915829336643218,1.6419067905604838,0.6634158320508897
1789021933532487200,8.076487060546874,-0.8819161057651043,1.1712433352440594,0.26008725259974597
1789021933542490400,8.086490478515625,-1.776795153477788,0.14817337642610073,-0.6495514112189412
1789021933552494300,8.096494384765625,-2.1233289557784794,-0.3926525793969631,-1.358321027342975
1789021933562497000,8.1064970703125,-1.7424480627179144,-0.34983752002120017,-1.4950076718538998
1789021933572500200,8.116500244140624,-0.8144061655938625,-0.04647475092709064,-1.3213928340487182
1789021933582503400,8.12650341796875,0.33355010982602834,0.7756389203041791,-0.4528371451161802
1789021933592507100,8.136507080078125,1.3622346936553715,1.450485808560252,0.6174300336845219
1789021933602510300,8.14651025390625,1.7121429408252238,1.5374351932168007,0.5402379268020391
1789021933612513300,8.15651318359375,1.0976759947299957,1.1121148544490336,-1.5172241798371076
1789021933622516200,8.16651611328125,0.5088955708160996,0.6239286019235849,-3.035415158879757
1789021933632520200,8.176520263671875,0.174206520088017,0.022737901508808136,-2.991551467233896
1789021933642523400,8.1865234375,-0.31354046423733234,-0.4608540089637041,-2.6628672098785637
1789021933652526000,8.196526123046874,-0.3680164430513978,-0.7565741543501615,-2.0969813393399117
1789021933662529300,8.206529296875,-0.22394085733294486,-1.042327616995573,-1.6133941050425171
1789021933672533200,8.216533203125,-0.4895812140151858,-1.261964055132866,-1.783081686401367
1789021933682536200,8.2265361328125,-0.6609677082464098,-1.3278139531373976,-2.1374735087260603
1789021933692539100,8.2365390625,-0.5575803990080952,-1.2672569008439778,-1.8452645863309503
1789021933702542300,8.246542236328125,-0.3988330215975642,-1.1939455809175967,-1.3450643631458281
1789021933712545300,8.256545166015625,-0.19863164403140543,-1.0342606303960085,-0.9695756845176219
1789021933722549200,8.26654931640625,0.048935880343616005,-0.7722142065525055,-0.7158271334201097
1789021933732552200,8.27655224609375,-0.01148293252289295,-0.49621816781163214,-0.7866840459316968
1789021933742555100,8.28655517578125,-0.42146629368811844,-0.10873802261650561,-1.1159820512712002
1789021933752558300,8.296558349609375,-0.7546350029811263,0.4897855044156313,-1.1971019991219043
1789021933762562300,8.306562255859374,-0.7390083947822451,1.2080460024625062,-0.4777826396718621
1789021933772565200,8.316565185546875,-0.624774258967489,1.6424106484293937,0.5653443110078573
1789021933782568200,8.326568115234375,-0.9371405648589134,1.4886433975189923,0.634687604086101
1789021933792571400,8.3365712890625,-1.410761408676207,0.961225789323449,0.08065992912352085
1789021933802575000,8.3465751953125,-1.8593375353470443,0.46314650381505484,-0.34626404544860123
1789021933812578300,8.356578369140625,-2.0766522525385023,0.18536065904796123,-0.5331839166373014
1789021933822581200,8.366581298828125,-2.2028435142591594,0.17567863846719264,-0.3910919059514999
1789021933832584200,8.376584228515625,-2.3404849752768873,0.2031336316257715,-0.2186842519789934
1789021933842588200,8.386588134765624,-2.577053843514621,0.10754092178642749,-0.311862594152987
1789021933852591400,8.39659130859375,-2.903148376637697,-0.04093406793475151,-0.6756622962921858
1789021933862594000,8.406593994140625,-2.7241186741769314,-0.0986088427901268,-0.7712018146395683
1789021933872597200,8.41659716796875,-2.3801019692637024,0.19321254159212112,-0.4385071525990963
1789021933882600200,8.42660009765625,-2.486398297816515,0.7896037327706813,0.4017150067746639
1789021933892604200,8.436604248046875,-2.626372585695982,1.3735177196919917,1.103417753252387
1789021933902607000,8.446607177734375,-2.4416006863214075,1.6760352701336145,1.2089406132146716
1789021933912610300,8.4566103515625,-2.054133692868799,1.5457634611010551,1.227004385432601
1789021933922613200,8.46661328125,-1.4099207200683652,1.1661550721943377,1.0622910853549838
1789021933932617200,8.4766171875,-0.8501813894607126,0.849284586751461,0.74642188590914
1789021933942620200,8.4866201171875,-0.7622844948209822,0.6109282505750656,0.42643560653328894
1789021933952623000,8.496623046875,-0.6468448556739836,0.5114543153882026,0.285412978644669
1789021933962625500,8.50662548828125,-0.5430290188252925,0.47155718928575513,0.24398557423502204
1789021933972629500,8.51662939453125,-0.8519114281237125,0.5384311696410179,0.03312719357609749
1789021933982632400,8.526632568359375,-0.9683527916591614,0.5015326408326626,-0.06597761603742837
1789021933992635400,8.536635498046875,-0.5556955716421828,0.2988835778534412,-0.43315030174106356
1789021934002638300,8.546638427734376,-0.28815175595879555,0.03510521565079689,-1.1545230865895748
1789021934012641500,8.5566416015625,0.3132581766972318,-0.19430968917906283,-1.2124956753477454
1789021934022645500,8.5666455078125,0.8759984061539172,-0.22595453524291514,-0.9686407417550682
1789021934032648400,8.5766484375,0.5929915753355249,0.004921089789271354,-0.9039856064930558
1789021934042651400,8.5866513671875,0.1288239483118057,-0.029406711748242376,-1.0046323848515748
1789021934052654600,8.596654541015624,-0.00382390566971153,-0.4161930294603109,-1.5379329136058688
1789021934062658600,8.606658447265625,0.3560872280657291,-1.0171452449440956,-1.9727999561369418
1789021934072661500,8.61666162109375,1.120827737736702,-1.324868547335267,-1.8976862629637121
1789021934082664400,8.62666455078125,1.4525216983020304,-0.9841372938334941,-1.1608625187441706
1789021934092667400,8.63666748046875,0.8302864562928676,-0.3908575126737356,-0.7654425204604863
1789021934102671400,8.64667138671875,0.08222235613465309,-0.21231354790329932,-1.0137614477247
1789021934112674600,8.656674560546875,-0.09393149862885475,-0.3534972115725279,-1.1479773182079196
1789021934122677500,8.666677490234376,-0.028607670325040815,-0.2530792735338211,-1.0860685590445995
1789021934132680400,8.676680419921874,-0.3082727529674768,0.061572366815805434,-0.7632131539732218
1789021934142683400,8.686683349609375,-1.057182656300068,0.5326607695460319,-0.2447238253816962
1789021934152687600,8.6966875,-1.3656325194001198,1.0032534977138041,0.39793256562650203
1789021934162690300,8.706690185546876,-1.0628583638489246,1.0055705424845218,0.7118465393513441
1789021934172693500,8.716693603515624,-0.4173053746163845,0.5756774889737367,0.3459410971045494
1789021934182696400,8.726696533203125,-0.21597499302029607,0.054501990038156506,-0.07799129443615674
1789021934192699400,8.736699462890625,-0.29164838416920974,-0.13968611858785152,-0.010971768130362033
1789021934202703400,8.746703369140626,-0.4441711697101593,-0.01442658475935459,0.2922320110097527
1789021934212706600,8.75670654296875,-0.5311866053402423,0.05829261449277401,0.5471615885853767
1789021934222709500,8.76670947265625,-0.6840507699310779,-0.04978899004161358,0.637949528491497
1789021934232712400,8.77671240234375,-0.6747802527606487,-0.2644189981937408,0.429812974011898
1789021934242716700,8.786716552734376,-0.4096844147512689,-0.6466220797687768,-0.18460837937593458
1789021934252719400,8.79671923828125,-0.3665104224026203,-0.9888140534728765,-0.8692524390250443
1789021934262722600,8.80672265625,-0.29606260214857755,-1.036674705800414,-1.2850725435197352
1789021934272725200,8.816725341796875,-0.2771639134764671,-0.9315291547179222,-1.483493175148964
1789021934282728400,8.826728515625,-0.3858195185065269,-1.0098866521179675,-1.4367343465834854
1789021934292732400,8.836732421875,-0.36254268781542776,-1.1957535071223973,-1.0990335468187928
1789021934302735600,8.846735595703125,-0.2516460258603096,-1.4683756855159997,-0.5871893553301691
1789021934312738300,8.85673828125,-0.002846621602773666,-1.6375824976205824,-0.3469046814396977
1789021934322741500,8.866741455078126,0.2053741770941764,-1.44192957713902,-0.4959054486006498
1789021934332745500,8.876745361328124,0.01822429654188454,-0.8687754691630601,-0.7285700028762221
1789021934342748400,8.88674853515625,-0.2624970902204513,-0.10788695874512196,-0.7447872704446316
1789021934352751600,8.896751708984375,-0.11467486531957984,0.45198914998471734,-0.46398090881258247
1789021934362754300,8.90675439453125,0.14395612405724822,0.8706400939911604,-0.2559200499176979
1789021934372757500,8.916757568359374,0.32231011921353636,1.3096002510547637,-0.08461042031496763
1789021934382761500,8.926761474609375,0.3524808741368353,1.8136042504370211,-0.04798457096815109
1789021934392764700,8.9367646484375,0.2315278053306043,2.2164947307318448,-0.15831103181988
1789021934402767400,8.946767333984376,0.2874668424345553,2.3113439287275073,-0.31631898903995753
1789021934412770600,8.9567705078125,0.5017537362374365,2.1733523390978573,-0.507389842428267
1789021934422773200,8.966773193359375,0.5487037034608423,2.072663767424226,-0.6140279701560736
1789021934432777500,8.976777587890625,0.3946528133034706,2.095759980851412,-0.36950609708726406
1789021934442780400,8.986780517578126,0.28864743052124975,2.152539268171787,0.08376987783759832
1789021934452783400,8.996783447265624,0.1942157272852957,2.0795003354459998,0.5067345933899283
1789021934462786600,9.00678662109375,0.20618395910710094,1.6897066526114939,0.44397301678955553
1789021934472789500,9.01678955078125,0.3138166508302092,0.9184668440490961,0.0033051790252327917
1789021934482793500,9.02679345703125,0.14627514158934354,-0.05060381355583667,-0.468114647616446
1789021934492796400,9.03679638671875,-0.5096327990494668,-1.0701613803386687,-0.6479770015090703
1789021934502799600,9.046799560546875,-1.1898548044726251,-1.592032460322976,-0.4517433585301041
1789021934512802300,9.05680224609375,-1.2362202498063444,-1.3946037623405456,-0.12167290751338004
1789021934522806500,9.066806640625,-0.9274547448858618,-0.6710790601551533,0.2858919943332672
1789021934532809500,9.0768095703125,-0.6435454488024115,0.10619944404959678,0.5523965666294097
1789021934542812400,9.0868125,-0.45391398056745524,0.3631798166751861,0.5704053937897086
1789021934552815400,9.0968154296875,-0.3018830519303679,-0.12092939566969871,0.454214717079699
1789021934562818600,9.106818603515626,-0.24214403802156448,-0.6757452984005212,0.2532362176612019
1789021934572822500,9.116822509765624,-0.49590661764442917,-0.5071966579437256,0.04795972878783941
1789021934582825500,9.126825439453125,-0.655021659323573,-0.017098434317111968,-0.17971446985453365
1789021934592828400,9.136828369140625,-0.7306742816790938,0.4205114771813154,-0.25843320178240536
1789021934602831400,9.146831298828126,-0.8938701629310846,0.5415051702588797,-0.4024386448740959
1789021934612834600,9.15683447265625,-0.9970926369965076,-0.03785772922933101,-1.1078382000431417
1789021934622838500,9.166838623046875,-0.9751616679564118,-0.7127075400948524,-1.7593723095118998
1789021934632841500,9.176841552734375,-1.0557581764549016,-0.8961994826614856,-1.8686308488711714
1789021934642844400,9.186844482421876,-1.0921446640878916,0.016956980019807815,-0.4786418868497014
1789021934652847600,9.19684765625,-0.4449515064328909,0.9897317528396844,1.1701882732331752
1789021934662850300,9.206850341796875,0.42021395553946495,1.8868647169589996,1.759562571386993
1789021934672854500,9.2168544921875,0.9226233792066574,2.0816870318353176,1.7070441563814878
1789021934682857500,9.226857421875,0.7497589213773608,0.3703980774909258,0.5221782462373376
1789021934692860400,9.2368603515625,0.07356354112178087,-1.1223019019424916,-1.1139727572754026
1789021934702863400,9.24686328125,-0.5133996042370796,-0.8593751881331205,-1.1336378272101282
1789021934712866600,9.256866455078125,-0.5540481332287192,0.5607850402683019,0.3248141379237175
1789021934722870300,9.266870361328126,0.3010340338855982,1.6550293069839477,1.101856495285034
1789021934732873500,9.27687353515625,1.2335355407670139,1.4602145908921955,0.4562608359545469
1789021934742876400,9.28687646484375,1.8310268021419642,0.7809370267122984,-1.0219362786129116
1789021934752879400,9.29687939453125,2.1001222677141427,0.5556576142519712,-1.7567495597928762
1789021934762882600,9.306882568359375,2.0731565193772314,0.5645493612378836,-1.7708949895232915
1789021934772886500,9.316886474609374,2.253942125594616,1.5698592069596051,-0.39881285559237
1789021934782889500,9.326889404296875,2.4978029044061896,2.721573081347346,1.4347849660813807
1789021934792892400,9.336892333984375,2.8129668781921264,2.657553321379423,1.7648913651943205
1789021934802895600,9.3468955078125,2.668249195177853,1.6760399463087319,1.0991983819916844
1789021934812898300,9.356898193359376,2.0194147000566125,0.4708645308464765,0.3383855671584606
1789021934822902500,9.366902587890625,1.0383347479671239,-0.33670448220372196,-0.0032476036190986633
1789021934832905500,9.376905517578125,-0.08177636593282223,-1.0747060380309819,-1.1853317740902305
1789021934842908400,9.386908447265625,-1.2260931158065795,-1.5710925481468438,-2.1394804646342993
1789021934852911400,9.396911376953126,-1.898284813378751,-1.1629893016397952,-1.4727528776869176
1789021934862914600,9.40691455078125,-1.3743930412217973,0.0670592737942934,0.07704349219202995
1789021934872917500,9.41691748046875,0.06806669727116822,0.9334761971324682,1.1751435575529932
1789021934882921500,9.42692138671875,0.827598240122199,1.0874392628759144,0.5814467200249434
1789021934892924700,9.436924560546874,0.9329092108994722,0.8044301305025815,-0.18345161055624484
1789021934902927400,9.44692724609375,0.535083320517838,0.17909809152185915,-0.9647156772658229
1789021934912930600,9.4569306640625,-0.20722908424586056,-0.6965823347240686,-1.8504951804608105
1789021934922933200,9.466933349609375,-0.7969178551763295,-1.5692933897703885,-2.4015870942324398
1789021934932937500,9.4769375,-1.2205322668090461,-2.122911607149243,-2.207895244690776
1789021934942940400,9.4869404296875,-1.555368324792385,-2.0945108575731513,-1.312240828691423
1789021934952943600,9.496943603515625,-1.7889345040827989,-1.673807072690129,-0.4101806373029947
1789021934962947000,9.506947021484375,-1.822743250182271,-1.1531944683343172,0.051526189097762104
1789021934972950300,9.5169501953125,-1.4919292873218655,-0.851483558100462,0.10689590188115834
1789021934982954200,9.526954345703125,-1.0926534903928637,-0.6471890660017728,-0.13317512925863265
1789021934992957200,9.536957275390625,-0.544533285908401,-0.5146113181143999,0.14444909520596266
1789021935002960100,9.546960205078125,-0.1756269082799554,-0.5192430695682764,0.4881278003364801
1789021935012963300,9.55696337890625,-0.09147913704067469,-0.3670820848107338,0.6127531279146671
1789021935022966300,9.56696630859375,0.016090426318347454,-0.06961012732088566,1.0216188832268118
1789021935032969200,9.57696923828125,0.16202683747261762,0.3781938459336757,1.4264599130675195
1789021935042973200,9.58697314453125,0.1836640842631459,0.8394961831867694,1.4279814235463737
1789021935052976000,9.59697607421875,0.13179784955605864,1.3599053739249705,1.358407244321704
1789021935062979300,9.606979248046875,0.0923662951387465,1.9688111787617206,1.2205319745481014
1789021935072982300,9.616982177734375,0.08690569164529442,2.4752105488479135,1.4218877828463912
1789021935082985200,9.626985107421875,0.20297171906232833,2.8947879600495097,1.894588589209318
1789021935092989200,9.6369892578125,0.38358094579949975,2.755684025263786,2.0835092788264156
1789021935102992400,9.646992431640625,0.4849345572531223,1.9913836605757473,1.9579256276100874
1789021935112995000,9.6569951171875,0.40203766285777087,1.061127010011673,1.2724927556708454
1789021935122998300,9.666998291015625,0.1576676193498075,0.336616803920269,-0.07350012049674988
1789021935133001200,9.677001220703126,-0.046958004399389026,-0.0560837062716484,-1.8228297594219445
1789021935143004200,9.687004150390624,-0.10386720170974731,-0.15418401501774787,-2.8926529938474297
1789021935153008000,9.697008056640625,-0.15215455501675604,-0.12181260824501514,-3.06798091918081
1789021935163011300,9.70701123046875,-0.22412790433764457,-0.26820436195135117,-3.243324042083323
1789021935173014300,9.71701416015625,-0.05140153980478644,-0.6237035609960556,-3.454067271929979
1789021935183017200,9.727017333984374,0.3427438354332,-0.9860679696351289,-3.3569144731670617
1789021935193020200,9.737020263671875,0.8830886566758155,-1.1030337223708628,-2.2822698099344967
1789021935203023000,9.747023193359375,0.14932320404835045,-0.825796743658185,-1.3021946509733795
1789021935213027300,9.75702734375,-0.778265177154541,-0.5001379716038704,-0.3613941023021936
1789021935223030000,9.767030029296874,-1.0203988399125634,-0.33662323366105557,0.5471037209182977
1789021935233033200,9.777033203125,-0.9895255627430974,-0.21442074931561947,1.1093734467864036
1789021935243036200,9.7870361328125,-0.7998409030161797,-0.23859540562927722,1.4842340566441417
1789021935253039000,9.7970390625,-0.7579074487805366,-0.07030629289150238,1.9090531678915024
1789021935263043000,9.80704296875,-0.6687072164572775,0.47361412181556223,2.539005852410197
1789021935273046300,9.81704638671875,-0.08550035489201545,1.0591904889911412,2.960214371944964
1789021935283049200,9.82704931640625,0.521972202271223,1.0403922650188207,2.710801219703257
1789021935293052200,9.83705224609375,0.7904173872411251,0.1875403411746025,1.626656322197616
1789021935303055400,9.847055419921874,0.9460321657143532,-0.8508820850759744,0.37352497733980417
1789021935313058000,9.85705810546875,0.74538698990345,-1.299770930957794,0.057711015212535854
1789021935323062300,9.867062255859375,0.5339138383470475,-1.0979098034858703,0.43101065936386584
1789021935333065200,9.877065185546876,0.6024388738449663,-0.7593658308953046,0.5927975506007671
1789021935343068200,9.887068115234374,0.804392136579752,-0.6762947489768266,0.28908143802434205
1789021935353071000,9.897071044921875,0.9532089254759252,-1.0878607031583785,-0.293570566137135
1789021935363074300,9.90707421875,0.9612696284651756,-1.8201514801234007,-0.5886597201436757
1789021935373077200,9.9170771484375,1.1892379146832972,-2.2382073808461427,-0.12383183911293744
1789021935383081200,9.927081298828124,1.5898738209843635,-1.5715537359178064,0.5244149192482233
1789021935393084200,9.937084228515625,1.5564941139519213,-0.545859273815155,0.702711923520267
1789021935403087000,9.947087158203125,1.1319054504595696,-0.07067454168200492,0.2491644381776452
1789021935413090300,9.95709033203125,0.5860531909070908,-0.1350333243459463,-0.498596295119822
1789021935423093200,9.96709326171875,-0.07156433012858032,-0.28554069667756554,-0.9266656403347849
1789021935433096200,9.97709619140625,-0.44943420480489726,0.08686579802632331,-0.666577364821732
1789021935443100200,9.98710009765625,-0.19767127456665037,0.835875070080161,0.10779168167710304
1789021935453103400,9.997103271484375,0.019067104041576386,1.620800289645791,0.7768485883548856
1789021935463106000,10.00710595703125,0.180216428027302,2.1939976522415874,1.0068108979344368
1789021935473109200,10.017109130859374,0.962905266842991,2.240449022293091,0.9573992167726159
1789021935483112200,10.0271123046875,1.5221711347199975,1.6985604056745767,0.6064563658580183
1789021935493115100,10.037115234375,0.9499252276301383,1.2120119834840297,0.5862503209143877
1789021935503119000,10.047119140625,-0.07262932901158928,1.3790069647580385,0.9220061240911483
1789021935513122300,10.057122314453125,-0.4523885245658457,1.476142812386155,0.9085539373219013
1789021935523125200,10.067125244140625,-0.15909034562930463,0.8861661644250154,0.29174188940525053
1789021935533128200,10.077128173828125,0.377370839112997,-0.6626151831924915,-0.8869649135872721
1789021935543131100,10.087131103515626,0.6347348042286932,-2.6202169856756923,-1.8003484630227087
1789021935553134000,10.097134033203124,0.29579511031880973,-3.69856751768887,-1.8242194602146744
1789021935563137300,10.10713720703125,-0.40587680262923237,-3.4590906530499455,-1.3439663387760519
1789021935573141000,10.11714111328125,-0.061213908766955136,-2.7495658346444367,-0.5483619042858481
1789021935583144200,10.127144287109376,0.7448150352343916,-1.8105343414723871,0.029331308424472808
1789021935593147400,10.1371474609375,1.316758452246338,-0.8457569971472024,0.17375000849217176
1789021935603150000,10.147150146484375,1.225853461831808,-0.15026421122550965,0.6651292118400335
1789021935613153300,10.1571533203125,0.22106354833096264,0.5745341641575098,1.2292565482735633
1789021935623156200,10.16715625,0.07606792515814303,0.6069798052102326,0.5447621262282133
1789021935633160200,10.17716015625,0.31893267866969105,-0.10027531469762324,-0.3225587602123618
1789021935643163100,10.1871630859375,-0.13379793733209372,-0.8069289615809917,-0.6591019143745303
1789021935653166300,10.197166259765625,-0.5911363393902779,-1.38221189827919,-1.1162383641198277
1789021935663169000,10.2071689453125,-0.6766133134067058,-1.8152771520853042,-0.8517050918966531
1789021935673172200,10.217172119140624,-1.352153736884892,-1.3010586326807736,-0.5882368185564876
1789021935683175400,10.227175537109375,-1.3729554096341132,-0.5793588078349828,-0.31321313197910783
1789021935693178000,10.23717822265625,-1.076017120629549,-0.08265256424546241,-0.19699176786988973
1789021935703182300,10.247182373046876,-0.785479054056108,0.10137187776267528,-0.004537643429636955
1789021935713185300,10.257185302734374,-0.2955459578633308,-0.2383814706176519,0.15235007758885621
1789021935723188200,10.267188232421875,-0.10147036970108747,-0.6488695664346218,0.37943800077587364
1789021935733191200,10.277191162109375,-0.2765589333206415,-0.549158315360546,0.5380795797243714
1789021935743194000,10.287194091796875,-0.654523938934505,0.14729600906968116,0.7155787116169929
1789021935753197300,10.297197265625,-0.9508493567377329,1.2045149057269096,0.9257955795019864
1789021935763200300,10.3072001953125,-0.25918402014970776,1.9603052162230015,0.739596131542325
1789021935773204200,10.317204345703125,1.246376025378704,2.2465660438686608,1.0790057810515166
1789021935783207200,10.327207275390625,1.6732669744640587,1.9074089078158138,1.4974159020394087
1789021935793210400,10.33721044921875,1.5278925811067223,0.32703415206074715,0.7241112699016928
1789021935803213000,10.347213134765624,1.194883446289599,-1.521811507627368,-0.7464715702697634
1789021935813216300,10.35721630859375,0.9135293876469135,-2.2521628409624097,-1.114404134429991
1789021935823219200,10.36721923828125,0.8509650871843099,-1.4202677804291248,-0.07270721655339002
1789021935833223200,10.37722314453125,1.1365443623065947,-0.2716360899657011,0.6590770721942186
1789021935843226000,10.38722607421875,1.2473948470324276,0.3135983319044113,0.5698877996563911
1789021935853229300,10.397229248046875,0.8343307632476091,0.1808084025710821,0.574705136810243
1789021935863232300,10.407232177734375,0.2122317148387432,-0.23125731782615183,0.3312693054124713
1789021935873235200,10.417235107421876,-0.33797961670607324,-0.4950917941302061,-0.0816357884183526
1789021935883238400,10.42723828125,-0.6848331524804234,-0.7912696201562881,0.3103045510560274
1789021935893241000,10.437240966796875,-0.7083201187908649,-1.3479752821564674,0.500640368168056
1789021935903245300,10.447245361328125,-0.6395277375936508,-0.17257891888618468,1.6065779952868817
1789021935913248300,10.457248291015626,0.25108488484621044,0.2744178296387195,1.9940394357815383
1789021935923251200,10.467251220703124,0.8887567654401063,-0.3200993843615055,0.5739475964412093
1789021935933254100,10.477254150390625,0.6872709010213613,0.5036491945952176,0.6890186214715242
1789021935943257000,10.487257080078125,0.9635019175618886,2.0293547870516777,1.648846526695788
1789021935953260300,10.49726025390625,1.4837123708575963,2.9002982479035855,2.083877527616918
1789021935963263200,10.50726318359375,2.311658401504159,1.5873428412020205,1.1240183504715562
1789021935973267200,10.51726708984375,2.846758088634908,-0.1671709223628044,-0.5465720982596278
1789021935983270100,10.527270263671875,2.839683912464976,-1.3518489087194203,-1.9489155149415134
1789021935993273300,10.5372734375,2.2266128046423197,-1.1206500430822373,-2.3501786862954495
1789021936003276300,10.5472763671875,2.12080966643393,0.16272095721662044,-0.9274056450471282
1789021936013279200,10.557279296875,3.0915634548202156,0.722947194558382,0.16322423056364058
1789021936023282200,10.5672822265625,3.701405955985188,0.8474597094118594,0.6309732597380876
1789021936033285000,10.57728515625,3.851898715269565,0.339923444250226,0.6299143983349204
1789021936043288300,10.587288330078126,3.2718829048305746,-0.04050444434583187,0.20898674156814812
1789021936053292300,10.597292236328125,1.9816215604960916,0.8520452836364507,0.34328619868159294
1789021936063295500,10.60729541015625,1.172829727652669,1.7466086895287036,1.0935849260240793
1789021936073298200,10.617298095703125,0.14867664977312087,1.4082687150776385,1.2883505422770976
1789021936083301400,10.62730126953125,-1.330713181710243,0.13412497732937334,0.86637922167629
1789021936093304000,10.637303955078124,-2.564729783992469,-1.7444564799308775,-0.2929077183142304
1789021936103307300,10.647307373046875,-3.3220258228763937,-2.9623557678878307,-1.504891644747555
1789021936113310500,10.657310546875,-4.354961049887538,-1.89863231164217,-1.2031126377135515
1789021936123313200,10.667313232421876,-4.154856118433178,-0.7293664139509201,-0.15766455060988663
1789021936133317000,10.677317138671874,-2.8777333648741243,-0.3818769183605909,0.41677696682810783
1789021936143320300,10.6873203125,-1.1401055619195104,-0.7450391993790865,0.5281090975910425
1789021936153323300,10.6973232421875,0.03162000388354063,-1.1172791053444147,0.07907996645569801
1789021936163326200,10.707326171875,0.04504121099263429,-0.7023001278489828,0.2473740476295352
1789021936173329400,10.717329345703124,0.09465192185789346,-0.08853460802137851,0.866438842909038
1789021936183332000,10.72733203125,0.4766241172865033,0.011552490627765654,0.7917629566311836
1789021936193335300,10.737335205078125,0.8531509067907929,0.11548749687671661,0.6543997280329465
1789021936203338200,10.747338134765625,1.0329542239725589,0.27834230960607526,0.1716217642918229
1789021936213342200,10.75734228515625,0.6388239732384682,0.3190437378287315,-0.6321814664840698
1789021936223345200,10.76734521484375,0.09512041615247725,0.07987900787889957,-0.9461214514330029
1789021936233348000,10.77734814453125,-0.06097235509604215,-0.43027766891419883,-0.9564607668787241
1789021936243351300,10.787351318359375,0.36893998763710256,-1.0681734213918448,-0.1716974598765373
1789021936253354200,10.797354248046876,0.3876867736831307,-1.2961691070735455,0.7907125707954168
1789021936263357200,10.807357177734374,-0.04465513428449631,-1.0144909310430288,1.0746204055741428
1789021936273360100,10.817360107421875,-0.6381865521177649,-0.3494569962710142,1.1546353147923947
1789021936283364400,10.8273642578125,-0.3110135761082172,0.0062087915122509,1.4644316240653394
1789021936293367000,10.837366943359376,0.378583137512207,0.005608487531542777,1.3413468039274214
1789021936303370200,10.847370361328124,0.7214078561618924,0.080478727337718,1.0953192024707794
1789021936313373400,10.85737353515625,0.22277444390207526,0.47761342058479783,1.0066586299821734
1789021936323376000,10.867376220703125,-0.2792864585883915,0.750260148897767,0.997256010864675
1789021936333379300,10.87737939453125,-0.2447358080804348,0.744340695720911,1.1391104134023189
1789021936343382300,10.88738232421875,0.1503882759965956,0.6417553505152463,1.154869415809214
1789021936353385200,10.89738525390625,0.17306290301084518,0.5745557914674282,0.9252736014544963
1789021936363389200,10.90738916015625,-0.05623802005052566,0.41123745287954805,0.41356794165372845
1789021936373392400,10.917392333984376,-0.7156888939931988,0.24016543142497537,0.14712708224356175
1789021936383395000,10.92739501953125,-1.1700349823676048,0.37310909001529213,0.3967360493183136
1789021936393398300,10.937398193359375,-1.0652078495845199,0.878682530671358,0.6433215769186615
1789021936403401200,10.947401123046875,-0.8166543829120695,1.3675140953630207,0.7063400508895517
1789021936413404200,10.957404052734375,-0.34983152867183087,1.1204875459969044,0.9152838300988078
1789021936423407400,10.967407470703124,-0.1783154167115688,0.31350363935828207,0.7839172115668654
1789021936433410000,10.97741015625,-0.11049670285210013,-0.8160515947133302,-0.005054068519175052
1789021936443413200,10.987413330078125,0.14240589894056319,-1.999853382757306,-0.4689025831237435
1789021936453417200,10.997417236328126,0.3037738341130316,-2.482407182353735,-0.7722256047293543
1789021936463420200,11.007420166015624,0.4065397965826094,-2.0810043102681637,-0.8807143287599086
1789021936473423400,11.01742333984375,0.7767676320731639,-1.2599749271422624,-0.60223845590204
1789021936483426300,11.02742626953125,0.872332284861803,-0.19101123215556143,-0.016495207726955414
1789021936493429200,11.03742919921875,1.0249018504202365,0.3561217148572206,0.6436062390789389
1789021936503432200,11.04743212890625,0.6750584851801396,0.03683598496615886,0.5123977337181568
1789021936513435400,11.057435302734374,-0.29199571803584695,-0.7423322785079479,-0.49738428898155684
1789021936523438300,11.067438232421875,-0.9142353439591825,-1.500473536044359,-1.2790665811032056
1789021936533441300,11.077441162109375,-0.9357235376678407,-1.7584090174376963,-1.3769099924787878
1789021936543445200,11.0874453125,-0.17532485659345984,-1.192936111614108,-0.7666060112819075
1789021936553448200,11.0974482421875,0.6110733581341803,-0.4434568839609623,-0.23823621692806482
1789021936563451400,11.107451416015625,0.16515534475669263,0.07485211962759494,0.013970073163509369
1789021936573454000,11.1174541015625,0.07376651634797453,0.4562134896814823,0.6802265354678034
1789021936583457300,11.127457275390626,0.9369617011606692,0.5124246217250824,1.005531087256968
1789021936593460200,11.137460205078124,1.4053170256651937,0.36092823835611343,0.5791594858705997
1789021936603463200,11.147463134765625,0.9709985569275915,0.3739256670951843,0.2763470441356301
1789021936613466400,11.15746630859375,0.5342801874414086,0.5964408755391836,0.27497750934809445
1789021936623469300,11.16746923828125,0.309221724255383,0.6559919656604528,0.40163551179766654
1789021936633473300,11.177473388671874,-0.11101152050644159,0.6759779381126165,0.2549763393267989
1789021936643476200,11.187476318359375,0.16400719763487576,0.4197825783848762,-0.14711042336970567
1789021936653479400,11.1974794921875,0.32348815001696346,-0.0931406405121088,-0.34233781191557644
1789021936663482000,11.207482177734375,0.1047170965373516,-0.594330751517415,-0.3966130074605346
1789021936673485300,11.2174853515625,0.038007659094035626,-0.9733657244503497,-0.08196896589547395
1789021936683488300,11.22748828125,-0.3521007887780666,-0.7383464237421751,0.33593466687500473
1789021936693491200,11.2374912109375,-0.3931608211800456,-0.22893033618330955,0.5161468571186065
1789021936703494400,11.247494384765625,-0.3005637860253453,0.35095337230861184,0.6064902681276202
1789021936713497000,11.2574970703125,-0.4674288573093712,0.8487842360138893,0.5278504466548561
1789021936723501300,11.267501220703124,-0.3034051469311118,0.8504641519248485,0.1116603398039937
1789021936733504300,11.277504150390625,-0.5836264021515846,0.8399941958367824,0.11535188779830932
1789021936743507200,11.287507080078125,-0.7964258338756859,0.6462368798434734,0.030005846685171124
1789021936753510100,11.29751025390625,-0.6425719275951385,0.15158113904297352,-0.27044717244207855
1789021936763513300,11.307513427734374,-0.8367407469987869,-0.11010346575081348,-0.16532646353989838
1789021936773516300,11.317516357421875,-0.4145999150499701,-0.3464987309873104,-0.3992401410937309
1789021936783519200,11.327519287109375,-0.2555415719941258,-0.2809118678331375,-0.4665086737245321
1789021936793522400,11.3375224609375,-0.6873360752120614,0.18690262779295444,-0.44909372080415483
1789021936803525000,11.347525146484376,-0.6495616403520107,0.4318710755854845,-0.5356713495388626
1789021936813528300,11.3575283203125,-0.40812341251224277,0.2966191400527954,-0.5924845391288399
1789021936823532300,11.3675322265625,-0.3187371560975909,-0.24999767413139343,-0.9283429258972405
1789021936833535200,11.37753515625,-0.657520782662928,-1.1041250247389078,-1.2827727421447634
1789021936843538200,11.3875380859375,-1.0374959590554236,-2.1563024200975893,-1.524236104425788
1789021936853541000,11.397541015625,-1.2155094702109694,-3.2306589140385387,-1.4268553421258925
1789021936863544300,11.40754443359375,-1.5324544821947812,-3.763103995007276,-1.2389154802396893
1789021936873547300,11.41754736328125,-1.4036834331139922,-3.942887730705738,-1.1539178141728044
1789021936883550200,11.42755029296875,-1.177928512096405,-3.402789504635334,-0.7142682135403156
1789021936893553200,11.43755322265625,-0.6006956103742123,-2.0419886431753635,-0.055168637253344054
1789021936903556400,11.447556396484375,0.25160861645936966,-0.9362555987179279,0.9280237769454717
1789021936913559300,11.457559326171875,0.9468483044028282,0.23444120855927467,2.1573434535831213
1789021936923562200,11.467562255859375,0.7979208947390317,1.8316034329861401,2.9439298843592403
1789021936933566200,11.477566162109374,0.35663024890124795,2.8548160151451825,3.1852114603325723
1789021936943569200,11.487569091796875,0.060361821982264516,2.4733383252352477,3.1387869782879947
1789021936953572400,11.497572265625,-0.23247575370520351,0.8951730622231959,1.7330702857807279
1789021936963574800,11.50757470703125,-0.5049862884178757,-0.23317805675566194,0.06564443856030702
1789021936973578000,11.517577880859376,-0.0698696550399065,-0.6487573382318019,-0.10698591825217008
1789021936983581200,11.527581298828125,0.1985936501085758,1.2425760485738515,0.9024252253085374
1789021936993583900,11.537583984375,0.4225456133574247,4.232581455409527,2.859807832083106
1789021937003587000,11.547587158203125,0.8118181949272751,4.831662616324424,3.5635257177755233
1789021937013589800,11.55758984375,1.310892044430971,1.9394991595596074,1.8006497840568423
1789021937023593000,11.567593017578124,1.7962959727615118,-1.4600953484266996,-1.898730803580582
1789021937033596200,11.57759619140625,2.004483965167403,-0.4883487496107816,-1.8401830452829597
1789021937043600000,11.587599853515625,2.7322891211509703,2.1794056477874517,0.8446806000873446
1789021937053602800,11.597602783203126,4.166821866036951,3.035849458643794,2.1549293781787155
1789021937063606000,11.60760595703125,5.313730678230524,1.3967413588911295,1.1849328379005193
1789021937073609000,11.61760888671875,5.0350037532210346,-0.8606523684620857,-0.8831450630381703
1789021937083612000,11.62761181640625,3.854944951097667,-2.7226415873616934,-2.6154405650541186
1789021937093615000,11.637614990234376,3.043672991876304,-3.077526453900337,-3.1188246789723633
1789021937103617800,11.64761767578125,2.4191756501540542,0.3838064251184463,-0.11428571987152099
1789021937113621000,11.65762109375,2.0196090535849334,2.6893951513200998,2.68635446844995
1789021937123624000,11.6676240234375,1.1407003129422664,3.4886493404895065,2.9477061880275603
1789021937133627000,11.677626953125,0.16278174749314783,4.375644356954098,3.719764034974575
1789021937143630000,11.687630126953126,-0.22920769181996584,1.9773007746875284,3.0772622500061986
1789021937153634000,11.697634033203125,-1.983853265070915,-4.150678832748532,-1.3394015150785445
1789021937163637000,11.707636962890625,-4.7639106840908525,-6.593532587870955,-3.8341365563467145
1789021937173640000,11.717639892578125,-5.725771264186501,-3.164189422830939,-0.6881006298437714
1789021937183643000,11.727642822265626,-4.871462711793184,-1.1059995864391325,1.493646028111875
1789021937193646000,11.73764599609375,-3.846235282680392,-0.7007739411950111,1.2712202515169977
1789021937203649000,11.74764892578125,-2.565519180804491,-0.09642857614159583,0.8442889704212546
1789021937213652000,11.75765185546875,-0.6021203824803233,-1.0040998854100704,-0.6776034934878349
1789021937223655000,11.767655029296876,1.0664219015493988,-2.471373747164011,-2.027627232606709
1789021937233658000,11.777658203125,1.6050065081864595,-2.5424644684314726,-1.9497034504488109
1789021937243660800,11.787660888671875,1.567772463813424,-1.334984283158183,-0.6496621781170367
1789021937253664000,11.7976640625,1.8598612669602035,0.2762871306419372,0.9616253100350498
1789021937263667000,11.8076669921875,2.2645038516193625,2.1157307557344436,2.7149025175422428
1789021937273670000,11.817669921875,3.214032188886404,3.133789608392119,3.812900291572511
1789021937283674000,11.827674072265625,3.8461598793566223,2.575612704795599,2.9720681836068628
1789021937293676800,11.8376767578125,3.503410271769762,1.0980834064871072,0.6414549062639474
1789021937303680000,11.847679931640625,1.8326561569094657,-0.25778116761445996,-1.0190849808350204
1789021937313683000,11.857682861328126,-0.8700269305288791,-0.7078449024945497,-1.097093518666923
1789021937323686000,11.867685791015624,-3.076082977093756,-0.8436836980044842,-0.3635208851978183
1789021937333689000,11.877689208984375,-3.6147456174030896,-1.2099123808562755,0.010564356373250483
1789021937343692000,11.887692138671875,-3.1464281406909227,-1.8555390198469162,-0.5591001559212804
1789021937353695000,11.897695068359376,-3.0764380741417408,-2.195845325934887,-0.9751514388233423
1789021937363698000,11.907697998046874,-3.5953424132749436,-1.4943226121991873,-0.0620703794658184
1789021937373700900,11.917700927734375,-2.89180397580266,-0.32217969776690003,1.1417115358114243
1789021937383704000,11.9277041015625,-1.0958192609474062,0.7390805832356214,2.055833336393535
1789021937393707000,11.93770703125,0.6009463702648877,1.4893290416955947,2.826376979385316
1789021937403710000,11.9477099609375,1.3139330195620655,2.0506904205471277,3.1943530904263255
1789021937413714000,11.9577138671875,1.5476967672511934,2.587425307664275,3.7504844596698876
1789021937423717000,11.967717041015625,1.4855653052479028,2.947800003790855,3.6109541161656376
1789021937433719800,11.9777197265625,1.2590887919574976,2.945413400915265,2.987993190230429
1789021937443723000,11.987722900390626,0.9633385436937212,2.4746014770388602,1.8115227679878472
1789021937453726000,11.997725830078124,0.537970274131,1.5314526116758584,-0.00289046074450016
1789021937463729000,12.00772900390625,-0.037466976346075535,0.6408598629802466,-1.6329203510284422
1789021937473732000,12.017732177734375,-0.6096735743388533,-0.20194646766781807,-2.723594358041882
1789021937483734800,12.02773486328125,-0.7684148142695426,-1.7022002234816551,-3.87015771779865
1789021937493738000,12.037738037109374,-0.46283846077919005,-4.395122379884124,-4.467973973344266
1789021937503741000,12.047740966796875,-2.0452458914056417,-6.6985057049959895,-4.892294779680669
1789021937513744000,12.057743896484375,-4.187513648670912,-7.7879592303037635,-4.093810698100924
1789021937523747000,12.0677470703125,-2.4548937370061874,-6.11759265345633,-0.963868705047667
1789021937533750000,12.07775,1.2659602851621805,-2.415523849648237,0.0784770321264863
1789021937543753000,12.0877529296875,2.933999441975355,-0.31706454671025275,-0.34515666872858997
1789021937553756000,12.097755859375,2.208556338948011,-0.10843290219008922,0.34395343041867016
1789021937563760000,12.107760009765625,0.9829109669089316,-0.4998837045818567,1.069254202365875
1789021937573762800,12.1177626953125,-0.16042890075668692,-0.24322014282047746,1.0641115787804125
1789021937583766000,12.12776611328125,-0.8166390392124653,0.7807710224956274,1.0650634726777672
1789021937593769000,12.13776904296875,-0.9268049026750027,2.0540064132273197,1.4790937711462377
1789021937603772000,12.14777197265625,-0.8776359442278743,2.9671003320664164,1.8172361771985888
1789021937613775000,12.157775146484376,-1.458084008604288,3.495809733638167,1.8122201026022433
1789021937623777800,12.16777783203125,-2.0747566480502484,3.3330408456265923,1.2487243420705199
1789021937633781000,12.177781005859375,-1.159382801580429,2.5597172165274618,1.0840823536634445
1789021937643784000,12.187783935546875,0.6487019547827542,2.0476462305456398,1.089577443948388
1789021937653787000,12.197786865234375,1.798078180003166,1.4006179080635308,0.4689309324353933
1789021937663790000,12.2077900390625,1.854363107935339,0.4180114770591259,-0.3357952584043145
1789021937673792800,12.217792724609374,1.3138999940752982,-0.29611528218388555,-0.5773731869757175
1789021937683796000,12.2277958984375,0.5893138001382351,-0.1957797617316246,-0.21344781263023613
1789021937693799000,12.237798828125,0.22668577212691307,0.29399872842133046,0.17123802567124366
1789021937703801900,12.2478017578125,0.5883376485824585,0.43370705884099003,-0.1763447011604905
1789021937713805000,12.25780517578125,0.7523425081297754,0.2058697785913944,-0.7319707512304187
1789021937723808000,12.26780810546875,0.625289953404665,-0.18943711470663546,-1.0716013500139117
1789021937733812000,12.27781201171875,-0.08476122696250676,-0.3673796064525842,-0.6474985703423619
1789021937743815000,12.28781494140625,-0.9983923214182258,0.01128653316795826,0.25987083337008954
1789021937753818000,12.297818115234374,-0.5850260398164391,0.20148644894063472,0.24386925437897441
1789021937763820800,12.30782080078125,0.06147855105251074,-0.3281505888700485,-0.5511605950936674
1789021937773824000,12.317823974609375,-0.15255904416441918,-1.260947571566701,-0.8512424428209662
1789021937783827000,12.327826904296876,-1.013699780665338,-1.6719500466465949,-0.760193221630156
1789021937793830000,12.337829833984374,-1.4851666613191365,-1.4314099366903303,-0.8763836060792207
1789021937803833000,12.3478330078125,-1.1624001035749911,-1.1629407863229513,-1.4771847226545214
1789021937813835800,12.357835693359375,-1.1832312946796417,-0.5226145918279886,-0.9151885530307888
1789021937823839000,12.3678388671875,-1.355286481952667,0.24423136568963527,-0.15813041455596685
1789021937833842000,12.377842041015626,-0.9350055986568331,0.6316431218236684,-0.13819909490048884
1789021937843844900,12.387844970703124,-0.5318550061210989,0.9981640656203031,-0.14076134660393
1789021937853848000,12.39784814453125,0.21067717887312173,0.7164981645494699,-0.620748510582745
1789021937863851000,12.40785107421875,-0.04784457797557115,0.2352764903396368,-1.060498356719315
1789021937873854000,12.41785400390625,-0.5553109927713871,-0.16427578544318674,-0.8013692816272378
1789021937883857000,12.42785693359375,-1.162779166020453,0.012110709032416343,-0.21036825905442236
1789021937893859800,12.43785986328125,-1.12649146258682,0.46003567831814285,-0.18633184216767548
1789021937903863000,12.447863037109375,-0.5563762839153409,0.9153957660406827,-0.6394853597566486
1789021937913866000,12.457865966796875,-0.3769686880528927,1.3393489081084728,-0.5885413544610142
1789021937923870000,12.467869873046874,-0.12086626730561256,0.9307248525977134,-0.23327245704084634
1789021937933873000,12.477872802734375,-0.4979702721759677,0.17870237020254134,0.25976854203939437
1789021937943876000,12.4878759765625,-0.7622726582527161,-0.5199485874891281,0.20735651001781225
1789021937953878800,12.497878662109375,-0.5588946964770555,-1.6925176183789967,-0.13401917886734008
1789021937963881500,12.507881591796876,-0.5099351429969072,-2.743998263645172,-0.5086950798079372
1789021937973884700,12.517884765625,-0.4512982451111078,-2.464164838698506,-0.4414461286604404
1789021937983887400,12.527887451171875,-0.2250400507465005,-0.9378151031196117,0.35118133584558964
1789021937993890600,12.537890625,0.5509492904305457,1.0161527267754078,1.1939026185587047
1789021938003893500,12.5478935546875,1.9009478951081633,1.1241747100770474,2.033264361710846
1789021938013896400,12.557896484375,1.7894027061164377,-0.10007307012379169,1.4286922021642325
1789021938023899600,12.567899658203125,0.1707920354694128,-1.0557558383673429,-0.2284656412810087
1789021938033902300,12.57790234375,-1.7902485092908142,-0.1331552555143833,-0.514534745746851
