time,seconds_elapsed,z,y,x
1789323628934496300,0.153496337890625,0,0,0
1789323628962772700,0.181772705078125,0.066436767578125,0.18848896026611328,-0.16621184349060059
1789323628991049500,0.210049560546875,-0.1538372039794922,0.007356166839599609,0.1954575777053833
1789323629009900500,0.228900634765625,-0.1548776626586914,0.09744548797607422,0.20083236694335938
1789323629028751600,0.247751708984375,-0.06450271606445312,0.2110607624053955,0.17655342817306519
1789323629047602700,0.266602783203125,0.08386993408203125,0.14892101287841797,0.07604861259460449
1789323629066453800,0.285453857421875,0.35279369354248047,-0.028210163116455078,0.17141258716583252
1789323629085304800,0.304304931640625,0.6288681030273438,-0.023557424545288086,0.355975866317749
1789323629104156000,0.323156005859375,0.764164924621582,0.06164073944091797,0.48281800746917725
1789323629123007000,0.342007080078125,0.501988410949707,0.17937946319580078,0.4790007770061493
1789323629141858000,0.360858154296875,-0.0004138946533203125,0.13226652145385742,0.5030933022499084
1789323629160709400,0.37970947265625,-0.301788330078125,0.23685932159423828,0.4187282919883728
1789323629179560400,0.398560546875,0.03865623474121094,0.5789093971252441,0.37142854928970337
1789323629198411500,0.41741162109375,0.4875011444091797,0.42392587661743164,0.6778987646102905
1789323629217262600,0.4362626953125,0.7666110992431641,0.1909937858581543,0.8235329389572144
1789323629236113700,0.45511376953125,0.7843360900878906,0.03619050979614258,0.7648151516914368
1789323629254964700,0.47396484375,0.6373958587646484,-0.24794912338256836,0.7336151599884033
1789323629273815800,0.49281591796875,0.3347282409667969,-0.4704129695892334,0.5502445697784424
1789323629292667000,0.5116669921875,0.046301841735839844,-0.38782739639282227,0.46160438656806946
1789323629311518000,0.53051806640625,-0.35544681549072266,-0.19759893417358398,0.48121488094329834
1789323629330369300,0.549369384765625,-0.2674283981323242,-0.01416635513305664,0.4607992470264435
1789323629349220400,0.568220458984375,0.09520816802978516,-0.09114408493041992,0.6678078770637512
1789323629368071400,0.587071533203125,0.1777048110961914,-0.21241140365600586,0.8149206638336182
1789323629386922500,0.605922607421875,-0.11875629425048828,-0.3053269386291504,0.8554314970970154
1789323629405773600,0.624773681640625,-0.40658092498779297,-0.3933091163635254,0.7258198261260986
1789323629424624600,0.643624755859375,-0.7268896102905273,-0.2152242660522461,0.7964273691177368
1789323629443475700,0.662475830078125,-0.5585241317749023,-0.016394615173339844,0.8663268089294434
1789323629462327000,0.6813271484375,-0.38121986389160156,0.0002541542053222656,0.7885098457336426
1789323629481178000,0.70017822265625,-0.14190006256103516,-0.09427642822265625,0.6321510076522827
1789323629500029200,0.719029296875,-0.03440284729003906,-0.15396356582641602,0.4469897150993347
1789323629518880300,0.73788037109375,-0.20404052734375,-0.24643659591674805,0.42327386140823364
1789323629537731300,0.7567314453125,-0.29041099548339844,-0.2647881507873535,0.4457038342952728
1789323629556582400,0.77558251953125,-0.2910919189453125,-0.20302486419677734,0.3595237135887146
1789323629575433500,0.79443359375,-0.4677238464355469,-0.1676950454711914,0.23286378383636475
1789323629594284800,0.813284912109375,-0.46238136291503906,-0.11693906784057617,0.06556744873523712
1789323629613136000,0.832135986328125,-0.40404701232910156,-0.08755683898925781,-0.08443310856819153
1789323629631987000,0.850987060546875,-0.2684764862060547,0.017700672149658203,-0.14554795622825623
1789323629650838000,0.869838134765625,0.045322418212890625,0.12719154357910156,-0.054734379053115845
1789323629669689000,0.888689208984375,0.407501220703125,0.017455101013183594,-0.07355034351348877
1789323629688540400,0.90754052734375,0.24338150024414062,-0.07982206344604492,-0.10187974572181702
1789323629707391500,0.9263916015625,-0.12737751007080078,0.023892879486083984,-0.1182246059179306
1789323629726242600,0.94524267578125,-0.6536693572998047,0.030116558074951172,-0.05522669851779938
1789323629745093600,0.96409375,-1.0383234024047852,-0.039703369140625,0.23952385783195496
1789323629763944700,0.98294482421875,-1.2270350456237793,-0.13407230377197266,0.5653603672981262
1789323629782796000,1.001796142578125,-1.1512432098388672,-0.5093371868133545,0.9226413369178772
1789323629801647000,1.020647216796875,-0.9770035743713379,-1.151745080947876,1.280519962310791
1789323629820498200,1.039498291015625,-0.7860164642333984,-1.5205676555633545,1.8890085220336914
1789323629839349200,1.058349365234375,-0.6468286514282227,-1.9537632465362549,2.361863613128662
1789323629858200300,1.077200439453125,-0.7002487182617188,-2.3938076496124268,2.6336987018585205
1789323629877051600,1.0960517578125,-0.4555215835571289,-1.4031248092651367,1.5919231176376343
1789323629895902700,1.11490283203125,-0.5645318031311035,-0.7195539474487305,0.5447748899459839
1789323629914753800,1.13375390625,-1.015821933746338,-1.1939008235931396,0.4334537386894226
1789323629933604900,1.15260498046875,-1.2742156982421875,-1.5770609378814697,0.2863333225250244
1789323629961881600,1.180881591796875,-0.8949985504150391,-1.716262698173523,0.3737754821777344
1789323629980733000,1.19973291015625,0.6631345748901367,-1.6786171197891235,0.586688756942749
1789323629999584000,1.218583984375,1.3203849792480469,-1.4430049657821655,0.45183730125427246
1789323630018435000,1.23743505859375,0.5735130310058594,-1.5069410800933838,0.7052514553070068
1789323630037286100,1.2562861328125,-0.6577472686767578,-1.972589373588562,1.1917805671691895
1789323630056137200,1.27513720703125,-1.3789234161376953,-2.2299368381500244,1.43990159034729
1789323630074988500,1.293988525390625,-1.4697685241699219,-1.9620931148529053,1.3774330615997314
1789323630093839600,1.312839599609375,-1.4162187576293945,-1.8561874628067017,1.5830366611480713
1789323630112690700,1.331690673828125,-1.2239031791687012,-1.9021813869476318,2.0775489807128906
1789323630131541800,1.350541748046875,-1.1675915718078613,-2.065239906311035,2.9237804412841797
1789323630150393000,1.36939306640625,-1.1469783782958984,-2.3205947875976562,3.535581350326538
1789323630169244200,1.388244140625,-0.7384696006774902,-2.1937739849090576,2.6494946479797363
1789323630188095200,1.40709521484375,-0.21863031387329102,-2.4869489669799805,0.9881505966186523
1789323630206946600,1.425946533203125,0.20408058166503906,-2.7151577472686768,-0.4097576141357422
1789323630225797600,1.444797607421875,0.5727720260620117,-2.8790574073791504,-1.4538352489471436
1789323630244648700,1.463648681640625,2.1558475494384766,-3.0793490409851074,-2.529686212539673
1789323630263499800,1.482499755859375,3.7752842903137207,-2.8328347206115723,-4.322400093078613
1789323630291776500,1.510776611328125,6.3861403465271,-2.536646842956543,-7.285285949707031
1789323630310627800,1.5296279296875,9.777820587158203,-1.0199298858642578,-9.237066268920898
1789323630329479000,1.54847900390625,9.371537208557129,-0.5648126602172852,-8.720137596130371
1789323630348330000,1.567330078125,6.527282238006592,0.7286796569824219,-9.480915069580078
1789323630376606700,1.595606689453125,3.242206335067749,2.065298557281494,-10.925416946411133
1789323630395458000,1.6144580078125,4.638944625854492,4.169140815734863,-7.209133148193359
1789323630414309000,1.63330908203125,5.592250823974609,4.690884113311768,-3.3728485107421875
1789323630433160200,1.65216015625,5.954278469085693,5.468816757202148,-2.032862663269043
1789323630452011500,1.671011474609375,5.5029215812683105,5.4302978515625,-1.527493953704834
1789323630470862600,1.689862548828125,4.011562824249268,4.722705841064453,-0.9525671005249023
1789323630489713700,1.708713623046875,3.2332229614257812,4.394013404846191,-1.1187405586242676
1789323630508565000,1.72756494140625,2.4808483123779297,3.204646348953247,-0.7562642097473145
1789323630527416000,1.746416015625,1.4123914241790771,2.160672187805176,-0.7023825645446777
1789323630546267400,1.765267333984375,0.01993560791015625,1.7525529861450195,-0.7403287887573242
1789323630565118500,1.784118408203125,-0.8283267021179199,1.0612940788269043,0.2574758529663086
1789323630583969500,1.802969482421875,-0.7597675323486328,-0.3964962959289551,1.373215675354004
1789323630612246300,1.831246337890625,-1.1807811260223389,-2.6812491416931152,2.2129311561584473
1789323630631097600,1.85009765625,-1.1085484027862549,-4.309821128845215,1.180109977722168
1789323630649948700,1.86894873046875,-0.7968552112579346,-5.895687580108643,1.2022223472595215
1789323630668799700,1.8877998046875,0.1601572036743164,-6.1305999755859375,1.290266513824463
1789323630687651000,1.906651123046875,-0.0019207000732421875,-5.976088047027588,0.3559260368347168
1789323630706502100,1.925502197265625,-0.8529305458068848,-5.5243682861328125,-1.2586631774902344
1789323630725353200,1.944353271484375,-1.499326229095459,-4.793089389801025,-2.48787784576416
1789323630744204500,1.96320458984375,-1.0328073501586914,-3.8518431186676025,-3.262869358062744
1789323630763055600,1.9820556640625,-0.6872687339782715,-3.329970121383667,-2.8663997650146484
1789323630781907000,2.000906982421875,-0.6358771324157715,-2.3994550704956055,-2.0739617347717285
1789323630800758000,2.019758056640625,-0.5057973861694336,-2.045896053314209,-1.27032470703125
1789323630819609000,2.038609130859375,-0.7035622596740723,-2.1246583461761475,-0.6758933067321777
1789323630838460400,2.05746044921875,-1.105881690979004,-1.8051958084106445,0.465848445892334
1789323630857311500,2.0763115234375,-1.6899714469909668,-1.7136750221252441,0.9452037811279297
1789323630876162800,2.095162841796875,-1.6491680145263672,-1.386820912361145,0.8885154724121094
1789323630895014000,2.114013916015625,-1.6999225616455078,-0.6779792308807373,1.2333979606628418
1789323630913865000,2.132864990234375,-1.9217090606689453,-0.03366529941558838,2.1253538131713867
1789323630932716300,2.15171630859375,-2.0217113494873047,0.4782036542892456,2.8854198455810547
1789323630951567400,2.1705673828125,-2.3586654663085938,1.5992906093597412,2.856111764907837
1789323630970418700,2.189418701171875,-2.261748790740967,2.361917018890381,2.6998445987701416
1789323630989269800,2.208269775390625,-1.1213712692260742,2.7000162601470947,2.8980865478515625
1789323631008120800,2.227120849609375,-0.48552799224853516,2.3909032344818115,2.9976747035980225
1789323631026972200,2.24597216796875,-0.5740666389465332,2.013331651687622,2.281183958053589
1789323631045823200,2.2648232421875,-0.7404170036315918,1.977997064590454,1.4143805503845215
1789323631064674600,2.283674560546875,-0.5997061729431152,1.9311782121658325,1.0105204582214355
1789323631083525600,2.302525634765625,-0.5209956169128418,1.685902714729309,0.8349552154541016
1789323631102377000,2.321376953125,-0.4686741828918457,1.328385353088379,0.04121541976928711
1789323631121228000,2.34022802734375,-0.5298929214477539,1.2542612552642822,-0.547053337097168
1789323631140079400,2.359079345703125,-0.2811884880065918,1.2590274810791016,-0.7115025520324707
1789323631158930400,2.377930419921875,0.22899532318115234,1.4784815311431885,-0.5557126998901367
1789323631177781800,2.39678173828125,0.7526893615722656,2.2770302295684814,0.20128679275512695
1789323631196632800,2.4156328125,0.6600918769836426,2.737919569015503,0.8508367538452148
1789323631215484200,2.434484130859375,0.28597450256347656,2.773437976837158,0.5963001251220703
1789323631234335200,2.453335205078125,-0.35274696350097656,1.417402744293213,-1.7133498191833496
1789323631253186300,2.472186279296875,-1.2116622924804688,-0.2704920768737793,-2.215296745300293
1789323631272037600,2.49103759765625,-0.9521832466125488,0.06277084350585938,-2.2651429176330566
1789323631290888700,2.509888671875,-0.5847301483154297,-0.4371194839477539,-1.978196144104004
1789323631309740000,2.528739990234375,-0.038559913635253906,-1.7465453147888184,-1.259429931640625
1789323631328591000,2.547591064453125,-0.07706403732299805,-4.192660331726074,0.2998642921447754
1789323631347442400,2.5664423828125,0.8031964302062988,-5.0020246505737305,0.5772621631622314
1789323631366293500,2.58529345703125,0.8142542839050293,-6.0151472091674805,0.8683834075927734
1789323631385144800,2.604144775390625,0.5345711708068848,-4.977956771850586,1.2510629892349243
1789323631403996000,2.622995849609375,0.6871280670166016,-3.301302909851074,1.2448515892028809
1789323631422847200,2.64184716796875,0.4723806381225586,-1.355886459350586,0.43164896965026855
1789323631441698300,2.6606982421875,0.1900167465209961,0.6762981414794922,-0.5163822174072266
1789323631460549600,2.679549560546875,-0.01929759979248047,0.9725980758666992,-0.5637369155883789
1789323631479400700,2.698400634765625,0.03046894073486328,0.8330578804016113,-0.25318217277526855
1789323631498252000,2.717251953125,-0.0003266334533691406,2.330214023590088,-0.21889901161193848
1789323631517103000,2.73610302734375,-0.12795686721801758,6.632057189941406,-0.6577610969543457
1789323631535954400,2.754954345703125,0.20115232467651367,3.3342270851135254,-0.3539924621582031
1789323631554805500,2.773805419921875,0.6189842224121094,-1.2736310958862305,-1.503359079360962
1789323631573656800,2.79265673828125,1.2903056144714355,-2.527306079864502,-3.1642215251922607
1789323631592508000,2.8115078125,0.9156661033630371,-3.377800941467285,-2.242107629776001
1789323631611359200,2.830359130859375,0.9742159843444824,-3.7258872985839844,-0.1438593864440918
1789323631630210300,2.849210205078125,0.8756809234619141,-4.0725603103637695,1.613974690437317
1789323631649061600,2.8680615234375,0.8415474891662598,-4.658885955810547,2.0543627738952637
1789323631667912700,2.88691259765625,0.46242523193359375,-4.97593355178833,1.468012809753418
1789323631686764000,2.905763916015625,0.12425804138183594,-4.930292129516602,0.8883719444274902
1789323631705615000,2.924614990234375,-0.18148088455200195,-4.934674263000488,0.18691587448120117
1789323631724466400,2.943466552734375,-0.4291415214538574,-3.9202003479003906,-0.40151357650756836
1789323631743317500,2.9623173828125,0.3428640365600586,-2.3633222579956055,0.31569957733154297
1789323631762168800,2.9811689453125,-0.7891554832458496,-1.4627890586853027,0.5816168785095215
1789323631781020000,3.00002001953125,-1.7103118896484375,-0.47132349014282227,0.1445331573486328
1789323631799871200,3.018871337890625,-1.5213322639465332,0.031880855560302734,-0.014470338821411133
1789323631818722300,3.037722412109375,-1.2812986373901367,-0.3733205795288086,-0.3466522693634033
1789323631837573600,3.05657373046875,-1.754608154296875,-1.1024610996246338,-1.096738576889038
1789323631856425000,3.075425048828125,-1.9419212341308594,-1.5441741943359375,-1.6107072830200195
1789323631875276000,3.094276123046875,-2.2825798988342285,-1.6477456092834473,-1.202282428741455
1789323631894127400,3.11312744140625,-3.051194190979004,-1.0891270637512207,-0.2812485694885254
1789323631912978400,3.131978515625,-3.2975358963012695,-0.04035043716430664,0.8693493604660034
1789323631931829800,3.150829833984375,-3.191286563873291,0.6330883502960205,1.6183336973190308
1789323631950680800,3.169680908203125,-3.2134509086608887,0.9085100889205933,1.8869786262512207
1789323631969532200,3.1885322265625,-2.959897041320801,1.0592730045318604,1.6784785985946655
1789323631988383200,3.20738330078125,-2.4633560180664062,0.8456939458847046,1.339862585067749
1789323632007234600,3.226234619140625,-2.1749181747436523,0.6970152854919434,1.0697036981582642
1789323632026086000,3.2450859375,-2.1672987937927246,0.8261837959289551,0.9605478048324585
1789323632044937000,3.26393701171875,-2.0327491760253906,1.0186042785644531,0.950921893119812
1789323632063788300,3.282788330078125,-1.8946161270141602,1.3668503761291504,1.0776293277740479
1789323632092065000,3.31106494140625,-1.6829395294189453,1.8489617109298706,1.0693103075027466
1789323632110916400,3.329916259765625,-1.5373520851135254,2.097898006439209,0.8716719150543213
1789323632129767400,3.348767333984375,-1.3047447204589844,2.312734842300415,0.7882587909698486
1789323632148618800,3.36761865234375,-0.917273998260498,2.616105556488037,0.6233065128326416
1789323632167469800,3.3864697265625,-0.745603084564209,2.501328229904175,0.2229001522064209
1789323632186321200,3.405321044921875,-0.604952335357666,1.810192346572876,0.010877370834350586
1789323632205172500,3.42417236328125,-0.38677263259887695,1.0690455436706543,-0.28558993339538574
1789323632224023600,3.4430234375,-0.13004541397094727,0.3605074882507324,-0.48427462577819824
1789323632242875000,3.461875,0.08624410629272461,-0.14667797088623047,-0.6022286415100098
1789323632261726200,3.480726318359375,0.2912931442260742,-0.4720616340637207,-0.6426701545715332
1789323632280577300,3.499577392578125,0.5916180610656738,-0.6307845115661621,-0.5435442924499512
1789323632299428600,3.5184287109375,1.0979042053222656,-0.6924514770507812,-0.5604074001312256
1789323632318279700,3.53727978515625,1.5612225532531738,-0.834599494934082,-0.6909613609313965
1789323632337131000,3.556131103515625,1.835212230682373,-1.2051072120666504,-0.9982414245605469
1789323632355982300,3.574982421875,2.054924964904785,-1.771407127380371,-1.4203944206237793
1789323632384259000,3.603259033203125,1.805976390838623,-2.2050514221191406,-1.586451768875122
1789323632403110400,3.6221103515625,1.6048126220703125,-2.050694465637207,-1.4395101070404053
1789323632421961500,3.64096142578125,1.5727729797363281,-1.8237543106079102,-1.110506296157837
1789323632440812800,3.659812744140625,1.7829313278198242,-1.589029312133789,-0.5613610744476318
1789323632459664100,3.6786640625,2.0652785301208496,-1.4407968521118164,-0.40192651748657227
1789323632478515200,3.69751513671875,1.9835033416748047,-1.256800651550293,-0.4388599395751953
1789323632497366500,3.716366455078125,1.5456233024597168,-1.0887031555175781,-0.4310731887817383
1789323632516217600,3.735217529296875,0.8550581932067871,-1.0791163444519043,-0.3074321746826172
1789323632535069000,3.75406884765625,0.29616689682006836,-1.1350727081298828,-0.17721867561340332
1789323632553920300,3.772920166015625,-0.11342477798461914,-1.147963523864746,-0.058828115463256836
1789323632572771300,3.791771240234375,-0.44921350479125977,-0.990969181060791,0.0011930465698242188
1789323632591622700,3.81062255859375,-0.6009178161621094,-0.8799066543579102,-0.06914567947387695
1789323632610473700,3.8294736328125,-0.46933603286743164,-1.0244083404541016,-0.27935051918029785
1789323632629325000,3.848324951171875,-0.24677038192749023,-1.4855594635009766,-0.6012780666351318
1789323632648176400,3.86717626953125,-0.0686192512512207,-2.044480800628662,-0.8092308044433594
1789323632667027500,3.88602734375,0.18440866470336914,-2.3629231452941895,-0.7696475982666016
1789323632685878800,3.904878662109375,0.3917980194091797,-2.3387012481689453,-0.6562619209289551
1789323632704730000,3.923730224609375,0.3997206687927246,-2.2277965545654297,-0.7895650863647461
1789323632723581200,3.942581298828125,0.19124507904052734,-2.007333278656006,-1.1112277507781982
1789323632742432500,3.9614326171875,-0.009021759033203125,-1.6028809547424316,-1.3337395191192627
1789323632761283800,3.980283935546875,-0.13096952438354492,-1.511756420135498,-1.2486863136291504
1789323632780135000,3.999135009765625,-0.3232250213623047,-1.7052688598632812,-1.085150957107544
1789323632798986200,4.017986328125,-0.6334381103515625,-1.7510099411010742,-0.9280962944030762
1789323632817837600,4.036837646484375,-1.218355655670166,-1.600039005279541,-0.6900656223297119
1789323632836688600,4.055688720703125,-1.8727660179138184,-1.2102530002593994,-0.2724437713623047
1789323632855540000,4.0745400390625,-2.2376108169555664,-0.7075254917144775,-0.1003103256225586
1789323632874391300,4.093391357421875,-2.1156396865844727,-0.41148877143859863,-0.18338465690612793
1789323632893242400,4.112242431640625,-2.207752227783203,-0.14326977729797363,-0.028744101524353027
1789323632912093700,4.13109375,-2.6756200790405273,-0.029229164123535156,0.3237851858139038
1789323632930945000,4.149945068359375,-2.7275843620300293,0.07340669631958008,0.7800124883651733
1789323632949796000,4.168796142578125,-2.6686081886291504,0.11086273193359375,1.0734565258026123
1789323632968647400,4.1876474609375,-2.8555707931518555,0.15136504173278809,1.1662704944610596
1789323632996924400,4.21592431640625,-2.8664145469665527,0.5686951875686646,1.3800392150878906
1789323633015775500,4.234775390625,-2.6292014122009277,0.8137043714523315,1.6704444885253906
1789323633034626800,4.253626708984375,-1.3538708686828613,1.4008146524429321,1.603621244430542
1789323633053478100,4.27247802734375,-3.0355687141418457,1.4236217737197876,0.7892483472824097
1789323633081755000,4.3007548828125,-2.468780517578125,1.3456698656082153,1.0595301389694214
1789323633100606200,4.319606201171875,-1.771106243133545,1.2353901863098145,1.1543478965759277
1789323633119457500,4.33845751953125,-1.8158302307128906,1.256023645401001,0.5655796527862549
1789323633138308600,4.35730859375,-2.094191074371338,1.2721741199493408,0.5945839881896973
1789323633157160000,4.376159912109375,-1.5544896125793457,1.2943317890167236,0.6848225593566895
1789323633176011300,4.39501123046875,-1.002115249633789,0.22302675247192383,0.34766101837158203
1789323633194862300,4.4138623046875,-0.4235668182373047,-0.5521774291992188,-0.01440882682800293
1789323633213713700,4.432713623046875,-0.6983780860900879,-0.9048986434936523,-0.4878408908843994
1789323633232565000,4.45156494140625,-0.7223973274230957,-1.2971272468566895,-0.35105419158935547
1789323633251416000,4.470416015625,-0.19723939895629883,-2.3292994499206543,-0.3685603141784668
1789323633270267400,4.489267333984375,0.9107651710510254,-3.28965425491333,-0.36537766456604004
1789323633289118700,4.50811865234375,1.626345157623291,-3.689696788787842,-0.9377381801605225
1789323633307970000,4.526969970703125,1.6134352684020996,-3.042351722717285,-1.3517851829528809
1789323633326821000,4.545821044921875,1.3027949333190918,-2.0712032318115234,-1.4507062435150146
1789323633345672400,4.56467236328125,1.623805046081543,-1.6520051956176758,-1.1191864013671875
1789323633364523800,4.583523681640625,2.253892421722412,-1.2738513946533203,-0.9069015979766846
1789323633383374800,4.602374755859375,2.5129494667053223,-1.0170574188232422,-0.5951037406921387
1789323633402226200,4.62122607421875,3.4214019775390625,-1.5320625305175781,-0.7711682319641113
1789323633421077500,4.640077392578125,3.208829879760742,-2.7723474502563477,-0.5420644283294678
1789323633439928600,4.658928466796875,2.5148963928222656,-2.2067127227783203,-0.3824014663696289
1789323633458780000,4.67777978515625,2.034003734588623,-0.6906442642211914,0.3061079978942871
1789323633477631200,4.69663134765625,1.4874448776245117,-0.2924785614013672,0.0652618408203125
1789323633496482600,4.715482666015625,0.9532761573791504,-1.0497121810913086,0.25940632820129395
1789323633515333600,4.734333740234375,0.640192985534668,-1.7346620559692383,0.3320786952972412
1789323633534185000,4.75318505859375,0.4333500862121582,-1.4098315238952637,0.5011370182037354
1789323633553036300,4.772036376953125,0.3600006103515625,-0.4059758186340332,-0.2514476776123047
1789323633571887600,4.7908876953125,-0.08867931365966797,0.2671389579772949,-0.19093537330627441
1789323633590738700,4.80973876953125,0.7037076950073242,0.5262537002563477,-0.7429935932159424
1789323633609590000,4.828590087890625,1.2097468376159668,-0.15384531021118164,-1.1328723430633545
1789323633628441300,4.84744140625,1.0759248733520508,-1.024339199066162,-1.5239436626434326
1789323633647292400,4.86629248046875,0.8958110809326172,-1.0845003128051758,-1.8194313049316406
1789323633666143700,4.885143798828125,0.9652276039123535,-0.8867855072021484,-2.0105209350585938
1789323633684995000,4.9039951171875,1.5071353912353516,-1.1398568153381348,-1.7789878845214844
1789323633703846400,4.922846435546875,1.1670494079589844,-2.110311508178711,-1.5799968242645264
1789323633722697500,4.941697509765625,-0.17774057388305664,-2.708395481109619,-2.013948917388916
1789323633741548800,4.960548828125,-0.6209373474121094,-1.6330738067626953,-1.7002434730529785
1789323633760400100,4.979400146484375,-0.30362796783447266,-0.6304011344909668,-0.549034833908081
1789323633779251200,4.998251220703125,-0.16681766510009766,-0.7942695617675781,0.06684088706970215
1789323633798102500,5.0171025390625,-1.2183833122253418,-0.7652502059936523,0.8483591079711914
1789323633816953900,5.035953857421875,-2.286423683166504,-0.04866600036621094,0.6631510257720947
1789323633835805200,5.05480517578125,-2.1585421562194824,-0.06636619567871094,0.03257179260253906
1789323633854656300,5.07365625,-0.945286750793457,-0.1437969207763672,-0.5955874919891357
1789323633873507600,5.092507568359375,-2.1306190490722656,0.30278944969177246,-0.19365191459655762
1789323633892359000,5.11135888671875,-4.950936794281006,0.24313998222351074,0.07274806499481201
1789323633911210200,5.130210205078125,-5.195235729217529,0.8168985843658447,1.3059000968933105
1789323633930061300,5.149061279296875,-3.816403865814209,1.048348307609558,2.5300533771514893
1789323633948912600,5.16791259765625,-2.790276527404785,1.4714369773864746,3.1571273803710938
1789323633967764000,5.186763916015625,-3.347932815551758,1.4628597497940063,1.6117432117462158
1789323633986615000,5.205614990234375,-3.5195813179016113,0.770249605178833,0.8978500366210938
1789323634005466400,5.22446630859375,-1.834843635559082,0.9122846126556396,1.1358333826065063
1789323634024317700,5.243317626953125,-1.7183771133422852,0.7675232887268066,1.2644232511520386
1789323634043169000,5.2621689453125,-2.5734663009643555,1.0035194158554077,1.0270962715148926
1789323634062020000,5.28102001953125,-2.07674503326416,1.0611579418182373,0.9140548706054688
1789323634080871400,5.299871337890625,-2.1491522789001465,1.295274019241333,0.7541253566741943
1789323634099722800,5.31872265625,-1.8831768035888672,1.834028720855713,0.5909595489501953
1789323634118574000,5.337573974609375,-1.647965431213379,2.4949722290039062,0.8899960517883301
1789323634137425200,5.356425048828125,-1.766840934753418,2.7191262245178223,0.4996311664581299
1789323634156276500,5.3752763671875,-0.7487468719482422,1.0309882164001465,-0.1518421173095703
1789323634175127800,5.3941279296875,0.1304793357849121,-0.6538028717041016,-0.40485095977783203
1789323634193979100,5.412979248046875,-0.4424309730529785,-1.9168014526367188,-1.2293179035186768
1789323634212830200,5.431830322265625,-0.7477006912231445,-2.9531006813049316,-1.7156522274017334
1789323634241107200,5.460107177734375,-0.16654348373413086,-2.6969990730285645,-1.0107862949371338
1789323634259958500,5.47895849609375,0.3998684883117676,-2.392439365386963,-0.6483862400054932
1789323634278809900,5.497809814453125,1.1252288818359375,-2.1833348274230957,-0.5173838138580322
1789323634297661000,5.516660888671875,1.415672779083252,-2.0959978103637695,-0.9636552333831787
1789323634316512300,5.53551220703125,2.1528429985046387,-2.420506000518799,-1.052755355834961
1789323634335363600,5.554363525390625,2.7392187118530273,-2.470165252685547,-0.8563618659973145
1789323634354214700,5.573214599609375,2.2587332725524902,-2.1358394622802734,-0.9147899150848389
1789323634373066000,5.59206591796875,2.603799343109131,-1.6183586120605469,-0.7108304500579834
1789323634391917300,5.610917236328125,2.4701876640319824,-1.4654016494750977,-0.7167339324951172
1789323634410768600,5.6297685546875,2.1912808418273926,-1.36749267578125,-0.3587076663970947
1789323634429619700,5.64861962890625,2.412602424621582,-1.1579084396362305,-0.5415041446685791
1789323634448471000,5.667470947265625,2.041646957397461,-0.7939615249633789,-0.3773345947265625
1789323634467322400,5.686322265625,0.9620461463928223,-0.2543935775756836,0.06484746932983398
1789323634486173700,5.705173583984375,0.25206565856933594,-0.2598724365234375,0.08139729499816895
1789323634505024800,5.724024658203125,-0.14829730987548828,-0.47873783111572266,0.1551806926727295
1789323634523876000,5.7428759765625,0.13480091094970703,-0.820533275604248,0.3854680061340332
1789323634542727400,5.7617275390625,0.613184928894043,-1.2124385833740234,0.4756643772125244
1789323634561578800,5.780578857421875,1.100313663482666,-1.9231114387512207,0.23711562156677246
1789323634580429800,5.799429931640625,1.5361032485961914,-2.3159351348876953,-0.5880508422851562
1789323634599281200,5.81828125,1.8412232398986816,-2.0845208168029785,-1.20106840133667
1789323634618132500,5.837132568359375,1.018934726715088,-1.6991710662841797,-1.7504894733428955
1789323634636983600,5.855983642578125,0.03159809112548828,-0.6978421211242676,-2.0452160835266113
1789323634655835000,5.8748349609375,-0.19588804244995117,0.13354063034057617,-1.3909387588500977
1789323634674686200,5.893686279296875,0.16661453247070312,0.09762763977050781,-0.5703330039978027
1789323634693537500,5.91253759765625,0.5228757858276367,-0.8273019790649414,-0.45647644996643066
1789323634712388600,5.931388671875,0.7521305084228516,-1.580240249633789,-0.7846922874450684
1789323634750091300,5.96909130859375,-0.03635883331298828,-1.7708854675292969,-0.9915750026702881
1789323634768942600,5.987942626953125,-1.2770256996154785,-1.840017318725586,0.1654338836669922
1789323634787793700,6.006793701171875,-2.4473352432250977,-0.31154870986938477,0.45934486389160156
1789323634806645000,6.02564501953125,-1.8019680976867676,0.33997631072998047,-0.6023492813110352
1789323634825496300,6.044496337890625,-0.7896614074707031,-0.3837559223175049,-1.3205687999725342
1789323634844347600,6.06334765625,-2.8325653076171875,0.803354024887085,0.42203354835510254
1789323634863198700,6.08219873046875,-4.445611953735352,1.0071547031402588,1.9238640069961548
1789323634882050000,6.101050048828125,-4.011078357696533,0.6598663330078125,2.401679754257202
1789323634900901400,6.1199013671875,-3.641378879547119,0.6749112606048584,2.3244147300720215
1789323634919752400,6.13875244140625,-3.229489803314209,1.0413250923156738,2.0946712493896484
1789323634938603800,6.157603759765625,-3.3315367698669434,1.054380178451538,1.6827417612075806
1789323634957455000,6.176455078125,-4.381324291229248,1.1519991159439087,1.2453500032424927
1789323634976306400,6.195306396484375,-2.6842446327209473,1.5838193893432617,2.383737087249756
1789323634995157500,6.214157470703125,-2.476121425628662,1.7588990926742554,1.8527710437774658
1789323635014008800,6.2330087890625,-1.9096193313598633,1.5132089853286743,2.021350383758545
1789323635032860200,6.251860107421875,-1.8020257949829102,1.572937250137329,0.960092306137085
1789323635051711200,6.270711181640625,-2.794156074523926,1.562619924545288,0.6160988807678223
1789323635070562600,6.2895625,-1.5079374313354492,1.7702422142028809,0.7241089344024658
1789323635089414000,6.308413818359375,-1.3257484436035156,2.031433582305908,0.5084810256958008
1789323635108265200,6.32726513671875,-1.4879236221313477,0.7430882453918457,-0.025003671646118164
1789323635127116300,6.3461162109375,-0.27676963806152344,-1.079638957977295,0.0978846549987793
1789323635145967600,6.364967529296875,0.04229021072387695,-1.8397836685180664,-0.8239891529083252
1789323635164819000,6.38381884765625,0.04389142990112305,-2.4272446632385254,-1.8415331840515137
1789323635183670300,6.402670166015625,-0.38559818267822266,-2.3940329551696777,-2.1415133476257324
1789323635202521300,6.421521240234375,-0.6545553207397461,-2.194626808166504,-2.303779363632202
1789323635221372700,6.44037255859375,-0.14519405364990234,-2.0679478645324707,-1.6182234287261963
1789323635240224000,6.45922412109375,1.152674674987793,-1.9697246551513672,-1.1565895080566406
1789323635259075000,6.478074951171875,2.1980247497558594,-2.0390801429748535,-1.436033010482788
1789323635277926400,6.496926513671875,2.689988613128662,-2.422947883605957,-1.4275670051574707
1789323635296777700,6.51577783203125,2.3808798789978027,-2.4433107376098633,-1.3353917598724365
1789323635315628800,6.53462890625,2.289907455444336,-2.134389877319336,-1.0793979167938232
1789323635334480100,6.553480224609375,2.596907138824463,-1.7122392654418945,-0.8257393836975098
1789323635353331500,6.57233154296875,2.1919827461242676,-1.2481956481933594,-0.49117541313171387
1789323635372182500,6.5911826171875,1.7235236167907715,-0.9861936569213867,-0.4804987907409668
1789323635391033900,6.610033935546875,1.594101905822754,-0.6547336578369141,-0.4605109691619873
1789323635409885200,6.62888525390625,1.3750834465026855,-0.37572288513183594,-0.45458316802978516
1789323635428736500,6.647736572265625,1.0673565864562988,-0.28099727630615234,-0.06314492225646973
1789323635457013200,6.67601318359375,0.6393647193908691,-0.4886960983276367,0.17615413665771484
1789323635475864600,6.694864501953125,0.29293298721313477,-0.9691667556762695,0.28879880905151367
1789323635494715600,6.713715576171875,0.33119964599609375,-0.9410314559936523,0.049843549728393555
1789323635513567000,6.73256689453125,0.48882484436035156,-0.8409762382507324,-0.5010998249053955
1789323635532418300,6.751418212890625,0.7277274131774902,-0.9425334930419922,-0.7035031318664551
1789323635551269600,6.77026953125,0.6080813407897949,-1.1772117614746094,-0.8278324604034424
1789323635570120700,6.78912060546875,0.7269206047058105,-1.6405377388000488,-0.6446163654327393
1789323635588972000,6.807971923828125,0.712193489074707,-1.554614543914795,-0.8090856075286865
1789323635607823400,6.8268232421875,0.6571216583251953,-1.4762420654296875,-1.0509483814239502
1789323635626674400,6.84567431640625,1.1651129722595215,-1.48158597946167,-1.5515048503875732
1789323635645525800,6.86452587890625,1.7044644355773926,-1.8916044235229492,-1.766965389251709
1789323635673802500,6.892802490234375,0.9713387489318848,-2.026430606842041,-1.2497758865356445
1789323635692653800,6.91165380859375,-1.4648890495300293,-1.1416730880737305,-0.5820584297180176
1789323635711505200,6.930505126953125,-2.6030211448669434,-0.3167896270751953,-0.21112394332885742
1789323635730356200,6.949356201171875,-2.1486363410949707,-0.4383559226989746,0.014190435409545898
1789323635749207600,6.96820751953125,-1.1319527626037598,-0.6163849830627441,-0.12496399879455566
1789323635768059000,6.987058837890625,-1.6129236221313477,-0.5379424095153809,0.2632577419281006
1789323635786910000,7.005909912109375,-3.1513514518737793,-0.4228076934814453,1.1365724802017212
1789323635805761300,7.02476123046875,-3.6027092933654785,1.148125171661377,1.8797394037246704
1789323635824612600,7.043612548828125,-2.5683584213256836,2.043389320373535,2.926187038421631
1789323635843463700,7.062463623046875,-2.376636028289795,0.4210073947906494,2.215543508529663
1789323635862315000,7.08131494140625,-3.1949429512023926,-0.3566017150878906,1.2824338674545288
1789323635881166300,7.100166259765625,-4.030942440032959,0.2691652774810791,1.2186673879623413
1789323635900017400,7.119017333984375,-3.0543179512023926,1.6115435361862183,2.8257877826690674
1789323635918868700,7.13786865234375,-2.613440990447998,2.1519453525543213,2.7089662551879883
1789323635937720000,7.156719970703125,-1.9133954048156738,2.0244970321655273,2.0427181720733643
1789323635956571100,7.175571044921875,-2.4481377601623535,1.8382304906845093,1.2901411056518555
1789323635975422500,7.19442236328125,-1.9774680137634277,1.5229618549346924,1.2844586372375488
1789323635994273500,7.2132734375,-2.0331544876098633,1.340672254562378,1.3077800273895264
1789323636013124900,7.232124755859375,-2.155555248260498,1.217517375946045,1.132704734802246
1789323636031976200,7.25097607421875,-1.922983169555664,1.5284440517425537,1.1461036205291748
1789323636050827300,7.2698271484375,-1.708695411682129,1.333972454071045,0.5949287414550781
1789323636069678600,7.2886787109375,-1.2619266510009766,0.3714108467102051,0.13692522048950195
1789323636088529700,7.30752978515625,-0.32343387603759766,-0.21858882904052734,-0.06403756141662598
1789323636107381000,7.326381103515625,-0.09522390365600586,-1.336510181427002,-0.16768479347229004
1789323636126232300,7.345232421875,0.19271469116210938,-2.938685894012451,-0.6429314613342285
1789323636145083400,7.36408349609375,0.0213470458984375,-3.4834485054016113,-1.017695665359497
1789323636163934700,7.382934814453125,0.43344688415527344,-3.6071324348449707,-1.163759708404541
1789323636182786000,7.4017861328125,1.232095718383789,-3.564443588256836,-1.1274149417877197
1789323636201637000,7.42063720703125,2.159083366394043,-3.1367340087890625,-1.4993302822113037
1789323636220488400,7.439488525390625,2.608330726623535,-2.024582862854004,-1.594754695892334
1789323636239339500,7.458339599609375,2.4425387382507324,-0.4212775230407715,-1.259535789489746
1789323636258190800,7.47719091796875,1.9505119323730469,0.22524642944335938,-0.15256071090698242
1789323636277042200,7.496042236328125,2.1856284141540527,-0.18037033081054688,0.1720120906829834
1789323636295893200,7.514893310546875,2.21071720123291,-1.2647743225097656,0.5121269226074219
1789323636314744600,7.53374462890625,1.7270598411560059,-2.6279096603393555,-0.4732787609100342
1789323636333595600,7.552595703125,1.50258207321167,-2.079756736755371,-0.7902607917785645
1789323636352447000,7.571447021484375,1.8931422233581543,-0.8592243194580078,-0.4560050964355469
1789323636371298000,7.590298095703125,2.3039517402648926,-0.6792840957641602,-0.5420138835906982
1789323636390149400,7.6091494140625,1.6208314895629883,-0.6155557632446289,-0.19141864776611328
1789323636409000700,7.628000732421875,0.9944524765014648,-0.3195762634277344,-0.27136921882629395
1789323636427851800,7.646851806640625,0.277193546295166,-0.268618106842041,-0.13131022453308105
1789323636446703000,7.665703125,0.49840641021728516,-0.4396224021911621,-0.12528395652770996
1789323636465554200,7.68455419921875,0.907862663269043,-0.688535213470459,-0.1476123332977295
1789323636484405500,7.703405517578125,1.223564624786377,-1.0755023956298828,-0.23952960968017578
1789323636503256600,7.722256591796875,1.325160026550293,-1.6234960556030273,-0.19117021560668945
1789323636522108000,7.74110791015625,1.1736783981323242,-2.2522659301757812,-0.08117055892944336
1789323636540959200,7.759959228515625,1.0664677619934082,-2.3393259048461914,-0.18510890007019043
1789323636559810300,7.778810302734375,0.8838949203491211,-1.618204116821289,-0.5556323528289795
1789323636578661400,7.797661376953125,0.5276951789855957,-1.3102693557739258,-0.8800108432769775
1789323636597512700,7.8165126953125,0.3614969253540039,-1.061788558959961,-1.275522232055664
1789323636616364000,7.835364013671875,0.08761262893676758,-1.0919055938720703,-1.7049837112426758
1789323636635215000,7.854215087890625,-0.15607595443725586,-0.879025936126709,-1.5998485088348389
1789323636654066400,7.87306640625,-0.20972156524658203,-0.985661506652832,-0.6938686370849609
1789323636672917500,7.89191748046875,-0.045334815979003906,-1.1290202140808105,0.5222694873809814
1789323636691768800,7.910768798828125,-1.003654956817627,-0.7994117736816406,0.9770448207855225
1789323636710620000,7.929619873046875,-1.270677089691162,-0.35727500915527344,0.3645496368408203
1789323636729471200,7.94847119140625,-1.3844256401062012,-0.07825899124145508,-0.2574310302734375
1789323636748322300,7.967322265625,-2.4560909271240234,0.17979073524475098,-0.06068778038024902
1789323636767173600,7.986173583984375,-3.2309327125549316,1.3238072395324707,1.0814530849456787
1789323636786024700,8.005024658203125,-3.527163505554199,1.556129813194275,2.038498640060425
1789323636804876000,8.0238759765625,-3.20515775680542,0.7088537216186523,2.6310431957244873
1789323636823727000,8.04272705078125,-3.9448094367980957,0.8981410264968872,2.679142951965332
1789323636842578400,8.061578369140625,-3.390958786010742,1.298857569694519,2.8511250019073486
1789323636861429500,8.080429443359375,-3.4681038856506348,1.5526481866836548,2.7273941040039062
1789323636880280800,8.09928076171875,-2.426008701324463,1.6658707857131958,2.173530101776123
1789323636899132000,8.1181318359375,-2.289482593536377,1.572648286819458,1.1720545291900635
1789323636917983200,8.136983154296875,-2.192901611328125,1.5425021648406982,1.286867380142212
1789323636936834300,8.155834228515625,-2.429778575897217,1.6160813570022583,0.9758830070495605
1789323636955685600,8.174685546875,-1.976853370666504,1.4513928890228271,1.6117445230484009
1789323636974536700,8.19353662109375,-1.5224323272705078,1.560288429260254,1.339101791381836
1789323636993388000,8.212387939453125,-1.8411893844604492,1.7590281963348389,0.8934664726257324
1789323637012239000,8.231239013671875,-1.4464855194091797,1.407348394393921,0.2312304973602295
1789323637031090400,8.25009033203125,-1.403745174407959,-0.22999095916748047,-0.24911236763000488
1789323637049941500,8.26894140625,-0.6121106147766113,-1.13307523727417,-0.21409964561462402
1789323637068792600,8.28779248046875,-0.2792038917541504,-1.9374818801879883,-0.528327226638794
1789323637087644000,8.306643798828125,-0.09104585647583008,-2.9280147552490234,-0.8534626960754395
1789323637106495000,8.325494873046875,0.25440120697021484,-3.0619101524353027,-1.1353223323822021
1789323637125346300,8.34434619140625,0.37072086334228516,-2.6974611282348633,-1.3726673126220703
1789323637144197400,8.363197265625,0.6244044303894043,-2.077312469482422,-1.5810160636901855
1789323637163048700,8.382048583984375,1.3331294059753418,-1.4386577606201172,-1.4670155048370361
1789323637181899800,8.400899658203125,2.0948853492736816,-1.1089692115783691,-1.1081862449645996
1789323637200751000,8.419751220703125,2.858916759490967,-1.2048001289367676,-1.0385644435882568
1789323637219602200,8.438602294921875,3.2745213508605957,-1.7083663940429688,-1.0652072429656982
1789323637238453200,8.457453369140625,3.02935791015625,-2.175962448120117,-1.4093427658081055
1789323637257304600,8.4763046875,2.2495222091674805,-1.9418144226074219,-1.4414699077606201
1789323637276155600,8.49515576171875,1.7349324226379395,-0.5198383331298828,-1.0129809379577637
1789323637295007000,8.514007080078125,1.6514945030212402,-0.05482292175292969,-0.4014859199523926
1789323637313858000,8.532858154296875,1.9277572631835938,-0.6444282531738281,-0.5782177448272705
1789323637332709000,8.551709228515625,1.778273582458496,-1.0979375839233398,-0.008656978607177734
1789323637351560400,8.570560546875,1.2314462661743164,-0.7176270484924316,0.05255436897277832
1789323637370411500,8.58941162109375,0.4066925048828125,-0.2744431495666504,-0.13750886917114258
1789323637389262600,8.6082626953125,-0.14325809478759766,-0.312624454498291,-0.29575371742248535
1789323637408114000,8.627114013671875,0.05354785919189453,-0.886235237121582,-0.39284420013427734
1789323637426965000,8.645965087890625,0.6056208610534668,-1.564321517944336,-0.5755894184112549
1789323637445816000,8.664816162109375,1.073728084564209,-1.5980725288391113,-0.8340377807617188
1789323637464667400,8.68366748046875,0.9208312034606934,-1.531613826751709,-0.8690159320831299
1789323637483518500,8.7025185546875,0.5483574867248535,-1.9227900505065918,-0.5708706378936768
1789323637502369800,8.721369873046875,0.4510459899902344,-1.8462715148925781,-0.5952317714691162
1789323637521220900,8.740220947265625,0.10111427307128906,-1.2821555137634277,-0.7327589988708496
1789323637540072000,8.759072021484375,0.03610372543334961,-0.8300313949584961,-1.0921375751495361
1789323637558923300,8.77792333984375,0.2865939140319824,-0.6229648590087891,-1.2173008918762207
1789323637577774300,8.7967744140625,0.7907590866088867,-0.834662914276123,-1.1203081607818604
1789323637596625400,8.81562548828125,0.6165003776550293,-1.4721269607543945,-1.3429994583129883
1789323637615476700,8.834476806640625,-0.49971437454223633,-1.568115234375,-1.3013789653778076
1789323637634327800,8.853327880859375,-1.287221908569336,-0.6720709800720215,-0.41768527030944824
1789323637653179000,8.872178955078125,-1.9975695610046387,-0.07315301895141602,0.10279083251953125
1789323637672030200,8.8910302734375,-1.7014703750610352,0.5114727020263672,-0.33536529541015625
1789323637690881300,8.90988134765625,-0.8180227279663086,0.023786544799804688,-0.6651575565338135
1789323637709732400,8.928732421875,-2.0858888626098633,-0.013101577758789062,-0.39556288719177246
1789323637728583700,8.947583740234375,-3.2439751625061035,0.5834460258483887,1.150113582611084
1789323637747434800,8.966434814453125,-2.724639892578125,0.9997589588165283,2.3094606399536133
1789323637766285800,8.985285888671875,-2.361562728881836,0.3883793354034424,1.9110462665557861
1789323637785137200,9.00413720703125,-2.7578020095825195,0.40054917335510254,1.459175705909729
1789323637803988200,9.02298828125,-4.4273505210876465,0.7908164262771606,0.5762629508972168
1789323637822839300,9.04183935546875,-3.7853775024414062,1.5756080150604248,1.9797966480255127
1789323637841690400,9.0606904296875,-3.529902458190918,1.7740459442138672,1.9426413774490356
1789323637860541700,9.079541748046875,-2.646294116973877,1.7505245208740234,2.1984636783599854
1789323637879392800,9.098392822265625,-3.1913866996765137,1.923667550086975,1.8602402210235596
1789323637898243800,9.117243896484375,-2.8986310958862305,2.0438504219055176,1.4925576448440552
1789323637917095200,9.13609521484375,-1.807180404663086,1.5702152252197266,1.5367785692214966
1789323637935946200,9.1549462890625,-1.8015942573547363,1.5882229804992676,0.7079918384552002
1789323637954797300,9.17379736328125,-2.627592086791992,2.0037343502044678,0.4407639503479004
1789323637973648400,9.1926484375,-1.699033260345459,1.9131803512573242,0.04230999946594238
1789323637992499500,9.21149951171875,-0.8830480575561523,0.0019822120666503906,-0.5262851715087891
1789323638011350800,9.230350830078125,0.5389914512634277,-1.3884830474853516,-0.8289530277252197
1789323638030201900,9.249201904296875,-0.1470928192138672,-2.4899802207946777,-1.4858264923095703
1789323638049053000,9.268052978515625,-0.06365156173706055,-3.562356948852539,-1.8030767440795898
1789323638067904000,9.286904052734375,-0.40073728561401367,-3.7228798866271973,-2.0036041736602783
1789323638086755300,9.30575537109375,-0.04927778244018555,-3.6556544303894043,-1.72328782081604
1789323638105606400,9.3246064453125,0.937596321105957,-2.811946392059326,-1.0772454738616943
1789323638124457500,9.34345751953125,1.8330049514770508,-1.6531548500061035,-1.0315635204315186
1789323638143308500,9.36230859375,2.4590959548950195,-0.5439872741699219,-1.5675549507141113
1789323638162159900,9.381159912109375,2.2679805755615234,0.06952953338623047,-1.6836228370666504
1789323638181011000,9.400010986328125,1.8480496406555176,-0.0722970962524414,-1.499713659286499
1789323638199862000,9.418862060546875,1.8305158615112305,-0.8041591644287109,-0.6621475219726562
1789323638218713000,9.437713134765625,1.6151351928710938,-1.8497886657714844,-0.21256422996520996
1789323638237564200,9.456564208984375,1.600369930267334,-1.7793703079223633,-0.2028813362121582
1789323638256415500,9.47541552734375,1.5209827423095703,-0.8543567657470703,-0.9645607471466064
1789323638275266600,9.4942666015625,2.002096652984619,-0.8813114166259766,-1.2200450897216797
1789323638294117600,9.51311767578125,2.2493228912353516,-1.356837272644043,-0.9294419288635254
1789323638312968700,9.53196875,1.826467514038086,-1.5572509765625,-0.8217451572418213
1789323638331819800,9.55081982421875,1.3413896560668945,-0.728764533996582,-1.1569242477416992
1789323638350671000,9.569671142578125,0.08176660537719727,0.1790013313293457,-0.7979137897491455
1789323638369522200,9.588522216796875,-0.042946815490722656,0.41376399993896484,-0.4823880195617676
1789323638388373200,9.607373291015625,0.3204340934753418,0.14978361129760742,-0.05034518241882324
1789323638407224300,9.626224365234375,0.42618751525878906,-0.7347421646118164,0.09164595603942871
1789323638426075400,9.645075439453125,0.43209409713745117,-1.4270296096801758,-0.3134346008300781
1789323638444926500,9.663926513671875,0.4554109573364258,-2.0329365730285645,-0.7084560394287109
1789323638463777500,9.682777587890625,0.6445012092590332,-2.4719271659851074,-0.8108010292053223
1789323638482628900,9.70162890625,0.818204402923584,-2.128016471862793,-1.0398046970367432
1789323638501480000,9.72047998046875,0.8596324920654297,-1.9360437393188477,-1.097257137298584
1789323638520331000,9.7393310546875,0.9670038223266602,-1.768876075744629,-1.301790475845337
1789323638539182000,9.75818212890625,0.9628410339355469,-1.9437050819396973,-1.233814001083374
1789323638558033200,9.777033203125,0.36301088333129883,-1.5130882263183594,-0.9511563777923584
1789323638576884200,9.79588427734375,-1.221869945526123,-0.7357039451599121,-0.26158714294433594
1789323638595735600,9.814735595703125,-2.490375518798828,-0.35387563705444336,0.327908992767334
1789323638614586600,9.833586669921875,-2.3392162322998047,0.29686737060546875,-0.03911423683166504
1789323638633437700,9.852437744140625,-1.4815917015075684,0.3773798942565918,-0.01594233512878418
1789323638652288800,9.871288818359375,-1.2189335823059082,0.47907447814941406,0.14664077758789062
1789323638671139800,9.890139892578125,-2.7934417724609375,0.862462043762207,0.524467945098877
1789323638689991000,9.908990966796875,-3.8322958946228027,0.6234714984893799,1.425261378288269
1789323638708842000,9.927842041015625,-2.842121124267578,0.5640947818756104,2.4249002933502197
1789323638727693000,9.946693115234375,-2.413461685180664,0.7398333549499512,2.466033935546875
1789323638746544400,9.96554443359375,-2.8591814041137695,0.6102685928344727,1.7847471237182617
1789323638765395500,9.9843955078125,-3.346245288848877,1.0367069244384766,1.6133424043655396
1789323638784246500,10.00324658203125,-2.429414749145508,1.4822347164154053,2.118482828140259
1789323638803097600,10.02209765625,-1.5346412658691406,1.4418938159942627,2.142472743988037
1789323638821948700,10.04094873046875,-2.609262466430664,1.2848789691925049,1.7314683198928833
1789323638840799700,10.0597998046875,-2.887709140777588,1.5984081029891968,1.4930340051651
1789323638859650800,10.07865087890625,-1.8091354370117188,1.2954180240631104,1.601243495941162
1789323638878502000,10.097501953125,-1.9618778228759766,1.001922845840454,1.38435697555542
1789323638897353000,10.11635302734375,-2.7536191940307617,1.203456163406372,0.8415317535400391
1789323638916204000,10.1352041015625,-1.8871331214904785,1.7737462520599365,0.7379207611083984
1789323638935055000,10.15405517578125,-1.2583966255187988,1.6056694984436035,0.6914880275726318
1789323638953906200,10.17290625,-0.8752832412719727,0.8283171653747559,0.333665132522583
1789323638972757500,10.191757568359375,0.2568950653076172,0.2219099998474121,-0.14782142639160156
1789323638991608600,10.210608642578125,-0.01620340347290039,-0.976588249206543,-0.6346485614776611
1789323639010459600,10.229459716796875,0.2998623847961426,-2.5674080848693848,-1.4676239490509033
1789323639029310700,10.248310791015625,0.511594295501709,-3.950991630554199,-1.965421199798584
1789323639048161800,10.267161865234375,1.025611400604248,-4.733328342437744,-2.0974037647247314
1789323639067012900,10.286012939453125,1.7484931945800781,-3.9521398544311523,-1.9360744953155518
1789323639085864000,10.304864013671875,2.1217427253723145,-2.026266574859619,-1.6196832656860352
1789323639104715000,10.323715087890625,2.1847214698791504,-0.6819138526916504,-1.8040096759796143
1789323639123566000,10.342566162109375,3.144436836242676,-0.2801814079284668,-1.6791298389434814
1789323639142417200,10.361417236328125,3.587292194366455,-1.0380630493164062,-1.3362562656402588
1789323639161268200,10.380268310546874,1.9140238761901855,-2.09637451171875,-1.0754034519195557
1789323639180119300,10.399119384765624,1.2244815826416016,-3.2585983276367188,-0.37307310104370117
1789323639198970400,10.417970458984374,1.757951259613037,-2.6647119522094727,0.6399216651916504
1789323639217821400,10.436821533203124,1.0786476135253906,-0.4464683532714844,0.3736000061035156
1789323639236672500,10.455672607421874,1.2231440544128418,0.9490289688110352,-0.06287002563476562
1789323639255523600,10.474523681640624,1.1232333183288574,1.6595478057861328,-0.1605665683746338
1789323639274374700,10.493374755859374,0.7402791976928711,1.3825325965881348,0.3184623718261719
1789323639293225700,10.512225830078124,1.1799626350402832,0.3105044364929199,0.5084426403045654
1789323639312076800,10.531076904296874,1.5783681869506836,-1.0807228088378906,0.6147196292877197
1789323639330927900,10.549927978515624,1.0243139266967773,-1.9025506973266602,0.5359437465667725
1789323639349779000,10.568779052734374,0.42954540252685547,-2.419217109680176,-0.2951993942260742
1789323639368630000,10.587630126953124,0.12441825866699219,-2.2767434120178223,-0.7872982025146484
1789323639387481000,10.606481201171874,0.23668813705444336,-1.1587119102478027,-1.6705045700073242
1789323639406332200,10.625332275390624,0.6880931854248047,-0.346097469329834,-1.1907472610473633
1789323639425183200,10.644183349609374,3.4646921157836914,0.0031747817993164062,-0.1743927001953125
1789323639444034300,10.663034423828124,5.513064384460449,-2.3313164710998535,-0.1714496612548828
1789323639462885400,10.681885498046874,2.750629425048828,-5.00428581237793,-1.9376258850097656
1789323639481736200,10.700736083984374,-1.4736299514770508,-2.5452780723571777,-3.309684991836548
1789323639500587300,10.719587158203124,-7.447755813598633,-0.015811920166015625,-0.8055727481842041
1789323639519438300,10.738438232421874,-4.77488899230957,4.708619117736816,1.6641167402267456
1789323639538289400,10.757289306640626,-3.0955982208251953,2.1643054485321045,2.560239553451538
1789323639557140500,10.776140380859376,-0.6995382308959961,0.5853490829467773,1.3263397216796875
1789323639575991600,10.794991455078126,-0.20888614654541016,0.19692564010620117,1.2001550197601318
1789323639594842600,10.813842529296876,1.7330894470214844,-0.5348186492919922,0.6907668113708496
1789323639613693700,10.832693603515626,2.07871150970459,-2.737222194671631,-0.2801694869995117
1789323639632544800,10.851544677734376,-2.3339433670043945,-1.6831884384155273,-1.4711899757385254
1789323639651395800,10.870395751953126,-1.884389877319336,0.46210741996765137,0.43010830879211426
1789323639670247000,10.889246826171876,-1.1462407112121582,1.4156378507614136,2.7725205421447754
1789323639689098000,10.908097900390626,-1.731842041015625,0.3136417865753174,1.315250277519226
1789323639707948800,10.92694873046875,-4.535233497619629,-0.017602205276489258,-0.013113021850585938
1789323639726800000,10.9457998046875,-5.606191158294678,-0.024240970611572266,-0.5375101566314697
1789323639745651000,10.96465087890625,-9.233843803405762,-0.8679831027984619,-1.0927960872650146
1789323639764502000,10.983501953125,-8.6642484664917,5.147486686706543,9.355320930480957
1789323639783353000,11.00235302734375,4.343446731567383,5.764606475830078,5.968879699707031
1789323639802204200,11.0212041015625,1.6776113510131836,2.8013930320739746,3.6996216773986816
1789323639821055200,11.04005517578125,-6.41837739944458,3.6441071033477783,-1.1853053569793701
1789323639839906300,11.05890625,-0.2646369934082031,2.7804958820343018,-0.3528463840484619
1789323639858757000,11.077757080078126,2.202610969543457,0.5807065963745117,-1.579418659210205
1789323639877608200,11.096608154296876,-1.7753186225891113,-0.14788389205932617,-0.745159387588501
1789323639896459300,11.115459228515626,-0.9174413681030273,-3.2753353118896484,0.2174067497253418
1789323639915310300,11.134310302734375,-1.2144489288330078,-4.686480522155762,-1.9435632228851318
1789323639934161400,11.153161376953125,-1.0504450798034668,-3.0340209007263184,-1.9623723030090332
1789323639953012500,11.172012451171875,-0.4541764259338379,-0.4058361053466797,-0.3057589530944824
1789323639971863600,11.190863525390625,0.3873772621154785,0.6271862983703613,1.0932526588439941
1789323639990714400,11.20971435546875,1.6364145278930664,0.43277597427368164,0.7219939231872559
1789323640009565400,11.2285654296875,0.5220499038696289,-0.14487934112548828,-1.0687174797058105
1789323640028416500,11.24741650390625,-0.024624347686767578,-0.9620957374572754,-2.8602216243743896
1789323640047267600,11.266267578125,0.8102207183837891,-1.9076638221740723,-2.9727301597595215
1789323640066118700,11.28511865234375,2.1603994369506836,-2.2721080780029297,-1.9313666820526123
1789323640084969500,11.303969482421875,2.296731948852539,-2.369692802429199,-0.4834609031677246
1789323640103820500,11.322820556640625,2.189060688018799,-2.2656326293945312,-0.7022099494934082
1789323640122671600,11.341671630859375,2.7699198722839355,-2.462660789489746,-0.9057350158691406
1789323640141522700,11.360522705078125,2.9751529693603516,-2.7259254455566406,-0.8027772903442383
1789323640160373800,11.379373779296875,2.2351784706115723,-2.279430389404297,-0.735271692276001
1789323640179224600,11.398224609375,1.9215307235717773,-1.1648445129394531,-0.9048154354095459
1789323640198075600,11.41707568359375,1.6545829772949219,-0.005329132080078125,-0.5036017894744873
1789323640216926700,11.4359267578125,1.6243071556091309,0.5148801803588867,-0.24339818954467773
1789323640235777800,11.45477783203125,1.0355000495910645,-0.1296396255493164,0.26842546463012695
1789323640254628600,11.473628662109375,0.43255615234375,-0.3629274368286133,0.7107405662536621
1789323640273479700,11.492479736328125,0.20563697814941406,-0.39311838150024414,0.9557104110717773
1789323640292330800,11.511330810546875,0.34785985946655273,-0.4883852005004883,0.7533299922943115
1789323640311181800,11.530181884765625,0.1551671028137207,-0.997164249420166,0.4525623321533203
1789323640330032600,11.54903271484375,0.1896829605102539,-1.2585597038269043,0.02813100814819336
1789323640348883700,11.5678837890625,0.7200121879577637,-0.913210391998291,-0.7820706367492676
1789323640367734800,11.58673486328125,1.4743480682373047,-1.2478423118591309,-1.3895690441131592
1789323640386585600,11.605585693359375,2.0573973655700684,-1.5092239379882812,-2.2345614433288574
1789323640405436700,11.624436767578125,2.0068225860595703,-2.013681411743164,-2.2287118434906006
1789323640424287700,11.643287841796875,1.3493366241455078,-2.1858673095703125,-1.7143516540527344
1789323640443138800,11.662138916015625,0.09377813339233398,-1.9003324508666992,-1.657249927520752
1789323640461989600,11.68098974609375,-1.1009254455566406,-0.8396906852722168,-1.5254981517791748
1789323640480840700,11.6998408203125,-1.4918437004089355,0.331667423248291,-0.4499814510345459
1789323640499691800,11.71869189453125,-1.0318922996520996,0.5417256355285645,1.1531884670257568
1789323640518542800,11.73754296875,-0.4414072036743164,-0.1758723258972168,1.594358205795288
1789323640537393700,11.7563935546875,-0.9537849426269531,-0.7446236610412598,0.10734939575195312
1789323640556244700,11.77524462890625,-1.340273380279541,-1.4639458656311035,-0.27027273178100586
1789323640575095800,11.794095703125,-2.0886406898498535,-1.3539752960205078,0.4551353454589844
1789323640593946600,11.812946533203124,-2.182828903198242,-0.5524201393127441,1.1683415174484253
1789323640612797700,11.831797607421874,-3.2153029441833496,0.39429211616516113,1.0718119144439697
1789323640631648800,11.850648681640624,-3.82676362991333,1.6367219686508179,2.099888324737549
1789323640650499600,11.86949951171875,-2.893594264984131,1.7945181131362915,2.804675340652466
1789323640669350700,11.8883505859375,-3.1189637184143066,2.047473669052124,2.31038236618042
1789323640688201700,11.90720166015625,-2.984827995300293,1.6715537309646606,1.921015739440918
1789323640707052500,11.926052490234374,-3.621464252471924,1.4615033864974976,1.6647976636886597
1789323640725903600,11.944903564453124,-3.5398716926574707,1.2480320930480957,1.7066044807434082
1789323640744754700,11.963754638671874,-2.4542198181152344,0.9909296035766602,2.545130491256714
1789323640763605500,11.98260546875,-1.7464747428894043,1.289891242980957,2.1517434120178223
1789323640782456600,12.00145654296875,-2.0861973762512207,1.3505468368530273,1.7659896612167358
1789323640801307600,12.0203076171875,-1.815504550933838,1.5241897106170654,1.3895080089569092
1789323640820158500,12.039158447265624,-1.5015029907226562,1.8162915706634521,0.8474698066711426
1789323640839009500,12.058009521484376,-1.2789888381958008,2.090847969055176,0.488145112991333
1789323640857860600,12.076860595703126,-0.897089958190918,0.8080019950866699,-0.13473248481750488
1789323640876711400,12.09571142578125,-0.06784296035766602,-0.8983030319213867,-0.48480749130249023
1789323640895562500,12.1145625,0.2232956886291504,-2.250250816345215,-1.351619005203247
1789323640914413300,12.133413330078126,0.2063765525817871,-3.750730037689209,-2.0863070487976074
1789323640942689800,12.161689697265626,-0.10365486145019531,-3.759307384490967,-1.982194423675537
1789323640961540900,12.180540771484376,0.3763704299926758,-2.5305657386779785,-1.2531683444976807
1789323640980392000,12.199391845703126,1.4974074363708496,-1.244213581085205,-0.7800655364990234
1789323640999242800,12.21824267578125,2.597930431365967,-0.7117781639099121,-1.0009660720825195
1789323641018093800,12.23709375,2.694131851196289,-0.9649577140808105,-1.4122860431671143
1789323641036944600,12.255944580078125,2.1477408409118652,-1.329261302947998,-1.1635627746582031
1789323641055795700,12.274795654296875,2.025508403778076,-1.5387134552001953,-0.730703592300415
1789323641074646800,12.293646728515625,1.7029500007629395,-1.3875274658203125,-0.031491994857788086
1789323641093497600,12.31249755859375,1.3645296096801758,-0.7332267761230469,-0.12372469902038574
1789323641112348700,12.3313486328125,1.6208739280700684,-0.38167572021484375,-0.26378583908081055
1789323641131199500,12.350199462890625,2.3584532737731934,-0.9439630508422852,-0.9361476898193359
1789323641150050600,12.369050537109375,2.65700626373291,-1.7132329940795898,-1.1389999389648438
1789323641168901400,12.3879013671875,1.9297661781311035,-0.8848638534545898,-0.9433629512786865
1789323641187752400,12.40675244140625,0.7838234901428223,-0.03180265426635742,-0.42414188385009766
1789323641206603300,12.425603271484375,0.24935007095336914,0.17345333099365234,-0.4841594696044922
1789323641225454300,12.444454345703125,-0.04263114929199219,-0.46785545349121094,0.011229515075683594
1789323641244305200,12.46330517578125,0.19500446319580078,-1.4395232200622559,-0.036942481994628906
1789323641263156200,12.48215625,0.3602437973022461,-1.4890875816345215,-0.49622035026550293
1789323641282007300,12.50100732421875,0.47937583923339844,-0.7479639053344727,-0.8132228851318359
1789323641300858000,12.519858154296875,0.9353117942810059,-0.4493417739868164,-1.0847971439361572
1789323641319709200,12.538709228515625,1.3893251419067383,-0.23874759674072266,-1.449136734008789
1789323641338560000,12.55756005859375,1.2821612358093262,-0.7213058471679688,-1.8804571628570557
1789323641357411000,12.5764111328125,0.7552862167358398,-1.3587956428527832,-1.9623045921325684
1789323641376262000,12.595261962890625,0.35848283767700195,-1.4744606018066406,-2.039803981781006
1789323641395113000,12.614113037109375,-0.2501707077026367,-1.635329246520996,-1.781813144683838
1789323641413963800,12.6329638671875,-0.11839485168457031,-1.2436394691467285,-1.2723355293273926
1789323641432814800,12.65181494140625,0.35816192626953125,-0.9585156440734863,-0.5690007209777832
1789323641451665700,12.670665771484375,-0.16067028045654297,-1.4412364959716797,0.02665853500366211
1789323641470516700,12.689516845703125,-1.6904006004333496,-0.9291768074035645,0.05958271026611328
1789323641489367600,12.708367431640625,-2.1371774673461914,0.48927974700927734,-0.6314148902893066
1789323641508218600,12.727218505859375,-2.207611560821533,-0.3982412815093994,-1.0377676486968994
1789323641527069400,12.7460693359375,-3.452484130859375,0.3806149959564209,-0.12522530555725098
1789323641545920500,12.76492041015625,-4.064424991607666,1.1261756420135498,1.0852195024490356
1789323641564771300,12.783771240234374,-2.27701997756958,1.012789011001587,2.6869969367980957
1789323641583622400,12.802622314453124,-2.136277675628662,0.5252881050109863,2.5591719150543213
1789323641602473200,12.82147314453125,-4.153652191162109,0.3301825523376465,1.638073205947876
1789323641621324300,12.84032421875,-3.3887624740600586,0.3572864532470703,1.6130133867263794
1789323641640175000,12.859175048828124,-3.7549633979797363,1.050213098526001,1.5419816970825195
1789323641659026000,12.87802587890625,-3.194187641143799,1.9298222064971924,2.2953755855560303
1789323641677877000,12.896876953125,-2.5619144439697266,2.0124330520629883,2.1023917198181152
1789323641696727800,12.915727783203126,-2.5620055198669434,1.563166856765747,1.8357511758804321
1789323641715579000,12.934578857421876,-3.3951144218444824,1.2355685234069824,1.2673165798187256
1789323641734429700,12.9534296875,-2.472454071044922,1.234663963317871,1.7951425313949585
1789323641753280800,12.97228076171875,-1.617340087890625,1.4860222339630127,1.2310750484466553
1789323641772131600,12.991131591796876,-1.6272850036621094,1.3946640491485596,0.7242076396942139
1789323641790982700,13.009982666015626,-1.7547235488891602,0.6437044143676758,-0.3156013488769531
1789323641809833500,13.02883349609375,-1.104935646057129,-0.5555014610290527,-0.7982048988342285
1789323641828684500,13.0476845703125,0.6074533462524414,-0.6690530776977539,-1.6229467391967773
1789323641847535400,13.066535400390626,-0.08936595916748047,-2.1291322708129883,-1.9070279598236084
1789323641866386200,13.08538623046875,0.13837814331054688,-2.8662967681884766,-1.7666804790496826
1789323641885237200,13.1042373046875,-0.052820682525634766,-2.925062656402588,-2.0888755321502686
1789323641904088000,13.123088134765625,1.1056199073791504,-2.728188991546631,-1.8804435729980469
1789323641922939100,13.141939208984375,2.459351062774658,-2.5318374633789062,-1.8024752140045166
1789323641941790000,13.1607900390625,2.736783504486084,-2.653212070465088,-1.8671252727508545
1789323641960640800,13.179640869140625,2.1829333305358887,-2.4948997497558594,-1.7216241359710693
1789323641979491800,13.198491943359375,2.3368444442749023,-1.497650146484375,-0.8679053783416748
1789323641998342700,13.2173427734375,2.748518466949463,-0.5593643188476562,-0.23092937469482422
1789323642017193700,13.23619384765625,1.9596138000488281,-0.24016857147216797,-0.620438814163208
1789323642036044500,13.25504443359375,0.8468656539916992,0.05493640899658203,-0.8525896072387695
1789323642054895400,13.273895263671875,0.7691106796264648,0.4537520408630371,-0.7596969604492188
1789323642073746400,13.292746337890625,1.2574729919433594,-0.038573265075683594,0.28329920768737793
1789323642092597200,13.31159716796875,2.2735767364501953,-1.7732973098754883,-0.13357257843017578
1789323642111448000,13.330447998046875,1.9479165077209473,-2.112426280975342,-0.2138078212738037
1789323642130299100,13.349299072265625,0.9517960548400879,-0.9226140975952148,-0.4737224578857422
1789323642149150000,13.36814990234375,0.11106586456298828,-0.20709609985351562,-0.3868434429168701
1789323642168000800,13.387000732421875,-0.19726324081420898,-0.01107168197631836,-0.45963072776794434
1789323642186851800,13.405851806640625,0.9160819053649902,-0.7778387069702148,-0.34850597381591797
1789323642205702700,13.42470263671875,2.1422104835510254,-2.61594295501709,-1.0469517707824707
1789323642224553700,13.4435537109375,1.3750810623168945,-3.1037983894348145,-1.4416701793670654
1789323642243404500,13.462404541015625,0.37039852142333984,-1.3708348274230957,-1.7020204067230225
1789323642262255400,13.48125537109375,-0.08583402633666992,0.04931211471557617,-1.2926788330078125
1789323642281106400,13.5001064453125,-0.16198968887329102,0.6347074508666992,-0.5894734859466553
1789323642299957200,13.518957275390624,-0.003177642822265625,-0.30621910095214844,-0.4440436363220215
1789323642318808000,13.53780810546875,0.15236806869506836,-1.1070880889892578,-0.878089427947998
1789323642337659100,13.5566591796875,0.2950911521911621,-1.541703701019287,-1.463761806488037
1789323642356510000,13.575510009765624,0.9411077499389648,-2.306534767150879,-1.6874737739562988
1789323642375360800,13.59436083984375,0.24776744842529297,-2.8335089683532715,-0.309126615524292
1789323642394211800,13.6132119140625,-1.6086149215698242,-1.4273452758789062,0.4768044948577881
1789323642413062700,13.632062744140624,-2.065749168395996,-0.5808839797973633,-0.01321554183959961
1789323642431913500,13.65091357421875,-1.294600486755371,0.4543452262878418,-0.5407464504241943
1789323642450764500,13.6697646484375,-1.389915943145752,0.28528714179992676,0.17703747749328613
1789323642469615400,13.688615478515626,-2.016063690185547,0.821911096572876,1.5328876972198486
1789323642488466200,13.707466064453126,-1.74916410446167,0.5048689842224121,1.9492108821868896
1789323642507317000,13.72631689453125,-2.5913314819335938,-0.13605165481567383,1.1302160024642944
1789323642526168000,13.74516796875,-3.859043598175049,-0.13940668106079102,0.7599365711212158
1789323642545019000,13.764018798828126,-3.662774085998535,0.5245082378387451,1.354311466217041
1789323642563869700,13.78286962890625,-3.6934804916381836,1.9927995204925537,2.1919689178466797
1789323642582720500,13.801720458984375,-3.576624870300293,2.0742645263671875,2.1406102180480957
1789323642601571600,13.820571533203125,-3.693267345428467,2.0262904167175293,2.277132987976074
1789323642620422400,13.83942236328125,-3.2758984565734863,2.370150089263916,2.127591133117676
1789323642639273200,13.858273193359375,-2.0705862045288086,2.063744068145752,2.2878332138061523
1789323642658124300,13.877124267578125,-1.8399863243103027,1.5848636627197266,1.098233699798584
1789323642676975000,13.89597509765625,-2.108138084411621,0.9536490440368652,0.7322683334350586
1789323642695826000,13.914825927734375,-1.7847681045532227,0.938847541809082,0.44883036613464355
1789323642714676700,13.9336767578125,-1.8351106643676758,0.7083134651184082,0.23328852653503418
1789323642733527800,13.95252783203125,-0.5705399513244629,0.318204402923584,0.599926233291626
1789323642752378600,13.971378662109375,-1.005246639251709,-0.13469505310058594,-0.14893269538879395
1789323642771229400,13.9902294921875,-1.4359030723571777,-0.4445972442626953,-0.37465763092041016
1789323642790080300,14.009080322265625,-0.8964204788208008,-0.21272802352905273,-0.6265604496002197
1789323642808931000,14.02793115234375,0.3481893539428711,-0.6604394912719727,-1.2361371517181396
1789323642827782100,14.0467822265625,0.62042236328125,-2.102604866027832,-1.7862775325775146
1789323642846633000,14.065633056640625,0.7030539512634277,-3.7141270637512207,-2.9445345401763916
1789323642865483800,14.08448388671875,0.9513134956359863,-4.567831993103027,-2.8418140411376953
1789323642884334800,14.1033349609375,1.1657428741455078,-3.4232287406921387,-1.4864976406097412
1789323642903185700,14.122185546875,1.5110969543457031,-1.2162609100341797,-0.3314497470855713
1789323642931462000,14.1504619140625,1.3173770904541016,0.3420286178588867,-0.07062959671020508
1789323642950312700,14.169312744140624,1.6635894775390625,-0.689021110534668,-0.24547839164733887
1789323642969163500,14.18816357421875,2.0782618522644043,-1.9990410804748535,-0.3508291244506836
1789323642988014600,14.2070146484375,2.111400604248047,-2.776754379272461,-0.8169293403625488
1789323643006865400,14.225865478515624,2.1143178939819336,-1.8932723999023438,-0.8204374313354492
1789323643025716200,14.24471630859375,2.177093982696533,-0.8080205917358398,-0.37323856353759766
1789323643044567000,14.263567138671876,2.295091152191162,-0.9670891761779785,-0.6820147037506104
1789323643063417900,14.28241796875,1.81486177444458,-0.5253229141235352,-1.0493888854980469
1789323643082268700,14.3012685546875,0.7565441131591797,0.20584535598754883,-0.7770369052886963
1789323643101119700,14.32011962890625,0.3196401596069336,0.27714967727661133,-0.6171274185180664
1789323643119970600,14.338970458984376,0.007630348205566406,-0.05265092849731445,-0.4815678596496582
1789323643138821400,14.3578212890625,0.8152399063110352,-1.1439180374145508,-0.3754739761352539
1789323643157672200,14.376672119140625,0.6140871047973633,-1.323995590209961,-0.5564179420471191
1789323643176523000,14.39552294921875,0.49098920822143555,-1.1807398796081543,-0.847935676574707
1789323643195374000,14.4143740234375,0.5850930213928223,-1.1276850700378418,-1.1796140670776367
1789323643214225000,14.433224853515625,1.3338637351989746,-1.7102336883544922,-1.4039993286132812
1789323643233075700,14.45207568359375,1.2978343963623047,-2.337146759033203,-1.8545761108398438
1789323643251926500,14.470926513671875,0.9013252258300781,-1.9086346626281738,-2.07861328125
1789323643270777300,14.48977734375,-0.2978668212890625,-1.8104181289672852,-1.8841891288757324
1789323643289628200,14.508628173828125,-0.831484317779541,-1.0793418884277344,-1.549375057220459
1789323643308479200,14.527479248046875,-0.23252058029174805,-0.6656737327575684,0.18683981895446777
1789323643327330000,14.546330078125,0.14740610122680664,-1.7205147743225098,0.7028906345367432
1789323643346180900,14.565180908203125,-0.9521646499633789,-1.8962512016296387,1.2480242252349854
1789323643365031700,14.58403173828125,-2.7047247886657715,-0.9712686538696289,0.287675142288208
1789323643383882500,14.602882568359375,-2.0036020278930664,0.4612114429473877,-1.4757776260375977
1789323643402733300,14.6217333984375,-2.1724143028259277,1.1215219497680664,-1.0006451606750488
1789323643421584100,14.640584228515625,-3.4320006370544434,0.85589599609375,0.18252038955688477
1789323643440435000,14.65943505859375,-3.232442855834961,1.5469385385513306,2.1505954265594482
1789323643459285800,14.67828564453125,-2.7167816162109375,1.0234203338623047,3.0202653408050537
1789323643478136800,14.69713671875,-2.7063660621643066,0.7693102359771729,2.5055463314056396
1789323643496987600,14.715987548828124,-2.522571563720703,0.34554505348205566,1.5231353044509888
1789323643515838500,14.73483837890625,-2.855165481567383,-0.17747259140014648,0.7753512859344482
1789323643534689300,14.753689208984374,-2.9934682846069336,0.5180394649505615,0.8542308807373047
1789323643553540000,14.7725400390625,-2.5530338287353516,0.9518241882324219,1.4615918397903442
1789323643572391000,14.791390869140624,-2.1521520614624023,1.7217785120010376,1.6853054761886597
1789323643591241700,14.81024169921875,-2.9902291297912598,1.8237553834915161,1.149511694908142
1789323643610092500,14.829092529296876,-2.876063823699951,2.108142375946045,1.1646684408187866
1789323643628943400,14.847943359375,-2.082479953765869,2.192852258682251,1.0884089469909668
1789323643647794200,14.866794189453126,-1.8341541290283203,1.7448296546936035,0.3610219955444336
1789323643666645000,14.88564501953125,-1.9797563552856445,1.4853603839874268,-0.3994755744934082
1789323643685495800,14.904495849609376,-2.147697925567627,0.8656110763549805,-0.25129222869873047
1789323643704347000,14.923346923828126,-1.4494695663452148,-0.1416177749633789,-0.457141637802124
1789323643723197700,14.94219775390625,-1.022684097290039,-1.4028849601745605,-0.6536409854888916
1789323643742048500,14.961048583984375,0.11312675476074219,-1.9927716255187988,-0.9542534351348877
1789323643760899300,14.9798994140625,0.32263612747192383,-2.277355194091797,-1.5210685729980469
1789323643789175600,15.008175537109375,-0.3855400085449219,-2.824993133544922,-2.2851028442382812
1789323643808026400,15.0270263671875,0.03214883804321289,-2.0839710235595703,-1.7233929634094238
1789323643826877200,15.045877197265625,0.5961055755615234,-1.3868746757507324,-1.086512565612793
1789323643845728000,15.06472802734375,1.0587811470031738,-0.5618100166320801,-0.49966907501220703
1789323643864578800,15.083578857421875,2.314643383026123,-0.264862060546875,-1.159909963607788
1789323643883429600,15.1024296875,2.6243386268615723,-1.4964618682861328,-1.5370571613311768
1789323643902280400,15.121280517578125,1.2451581954956055,-2.983999729156494,-1.986457109451294
1789323643921131300,15.14013134765625,1.0184135437011719,-3.1246871948242188,-1.973006248474121
1789323643939982000,15.158982177734375,1.7517204284667969,-1.0531940460205078,-0.7479884624481201
1789323643958833000,15.1778330078125,1.5352716445922852,-0.14504337310791016,-0.5019841194152832
1789323643977683700,15.19668359375,1.686875820159912,0.0028228759765625,-1.2029480934143066
1789323643996534500,15.215534423828124,1.4698915481567383,-0.7130050659179688,-1.5291357040405273
1789323644015385300,15.23438525390625,1.871645450592041,-1.1164312362670898,-1.8597450256347656
1789323644034236200,15.253236083984374,1.4802947044372559,-0.4125685691833496,-1.7940309047698975
1789323644053087000,15.2720869140625,0.3377213478088379,-0.5115962028503418,-1.879427194595337
1789323644071937800,15.290937744140624,-0.6452641487121582,-0.8335561752319336,-2.0206897258758545
1789323644090788600,15.30978857421875,-0.8493008613586426,-0.7573328018188477,-0.9827539920806885
1789323644109639400,15.328639404296876,-0.5733861923217773,-0.1493668556213379,-0.44089722633361816
1789323644128490200,15.347490234375,-0.08705854415893555,0.5232524871826172,-1.103902816772461
1789323644147341000,15.366341064453126,-0.005142688751220703,-0.0684041976928711,-1.4156148433685303
1789323644166191900,15.38519189453125,0.9035625457763672,-0.6501283645629883,-2.24161696434021
1789323644185042700,15.404042724609376,0.49736833572387695,-2.303365707397461,-2.1503429412841797
1789323644203893500,15.4228935546875,0.0957179069519043,-2.762449264526367,-1.7869513034820557
1789323644222744300,15.441744384765625,-0.6995706558227539,-2.6954331398010254,-1.2857568264007568
1789323644241595100,15.46059521484375,-1.4824261665344238,-2.489433765411377,-0.7871017456054688
1789323644260446000,15.479446044921875,-1.083317756652832,-2.13950777053833,-0.7179319858551025
1789323644279296800,15.498296875,-0.28029298782348633,-2.136648178100586,-0.5638244152069092
1789323644298147600,15.517147705078125,0.46143436431884766,-2.2290000915527344,-1.789275884628296
1789323644316998400,15.535998291015625,-0.45058393478393555,-1.7439179420471191,-2.066972255706787
1789323644335849200,15.55484912109375,-1.9597177505493164,-0.9423742294311523,-1.149714469909668
1789323644354699800,15.57369970703125,-3.2650184631347656,0.1876544952392578,-0.3641195297241211
1789323644373550800,15.59255078125,-3.839395523071289,0.5129814147949219,-0.23594164848327637
1789323644392401400,15.6114013671875,-3.4281206130981445,0.8291826248168945,0.26272153854370117
1789323644411252200,15.630252197265625,-2.600801944732666,1.0204010009765625,0.6294381618499756
1789323644430103000,15.64910302734375,-3.0646443367004395,0.26232290267944336,-0.11577749252319336
1789323644448953900,15.667953857421875,-2.631824493408203,0.47060441970825195,-0.24795198440551758
1789323644467804700,15.6868046875,-3.3320837020874023,0.5075685977935791,0.45112085342407227
1789323644486655500,15.705655517578125,-3.0144052505493164,1.5206488370895386,1.70144522190094
1789323644505506300,15.72450634765625,-3.0387444496154785,1.6606937646865845,1.2717677354812622
1789323644524357000,15.743357177734374,-3.335340976715088,1.907465934753418,1.071470856666565
1789323644543208000,15.7622080078125,-1.8283352851867676,1.9772562980651855,0.17393946647644043
1789323644562058800,15.781058837890624,-2.5051321983337402,1.3789427280426025,-0.466144323348999
1789323644580909600,15.79990966796875,-2.1657114028930664,1.05428147315979,-1.1504454612731934
1789323644599760100,15.818760009765626,-1.6165485382080078,1.0713369846343994,-1.007028579711914
1789323644618611000,15.83761083984375,-2.5936765670776367,1.1887004375457764,-0.7632303237915039
1789323644637461800,15.856461669921876,-2.33689546585083,1.7252559661865234,-0.07082676887512207
1789323644656312600,15.8753125,-1.673393726348877,2.458479404449463,-0.9194011688232422
1789323644675163400,15.894163330078126,-0.8334403038024902,2.829538583755493,-1.742264747619629
1789323644694014200,15.91301416015625,-0.38619184494018555,1.7955701351165771,-1.8306269645690918
1789323644712865000,15.931864990234375,0.06639719009399414,0.5965108871459961,-3.016038656234741
1789323644731715800,15.9507158203125,-0.07713747024536133,-1.8854966163635254,-3.927598237991333
1789323644759991800,15.97899169921875,-0.22933101654052734,-4.442432880401611,-4.677283763885498
1789323644778842600,15.997842529296875,-0.896918773651123,-4.593481540679932,-4.631368637084961
1789323644797693400,16.016693359375,-0.17029619216918945,-3.548222541809082,-3.2624423503875732
1789323644816544300,16.035544189453127,0.8437814712524414,-2.3361635208129883,-2.376938581466675
1789323644835395000,16.05439501953125,1.4696593284606934,-1.8429484367370605,-2.3312411308288574
1789323644854246000,16.073245849609375,1.0474166870117188,-2.3573474884033203,-2.6683146953582764
1789323644873096400,16.092096435546875,-0.09517860412597656,-2.645885467529297,-2.973250389099121
1789323644891947300,16.110947265625,0.8906826972961426,-2.6695055961608887,-2.1752235889434814
1789323644920223500,16.139223388671876,1.6409711837768555,-2.2438039779663086,-1.7201735973358154
1789323644939074300,16.15807421875,1.1779675483703613,-1.7461705207824707,-1.6928155422210693
1789323644957925000,16.176925048828124,1.3300724029541016,-0.5995903015136719,-1.6312997341156006
1789323644976776000,16.19577587890625,0.29918575286865234,-0.16331005096435547,-1.373002529144287
1789323644995626500,16.21462646484375,-0.8544597625732422,0.1998615264892578,-1.4247932434082031
1789323645014477300,16.233477294921876,-1.376905918121338,0.29084253311157227,-1.75956130027771
1789323645033328000,16.252328125,-0.8691902160644531,-0.4184699058532715,-1.352329969406128
1789323645052179000,16.271178955078124,0.47237682342529297,-1.7920770645141602,-1.3657658100128174
1789323645080455200,16.299455078125,0.5284700393676758,-2.6177291870117188,-1.7898106575012207
1789323645099305700,16.3183056640625,0.22668123245239258,-2.4912052154541016,-1.2962238788604736
1789323645118156500,16.337156494140626,-0.029325008392333984,-1.9002270698547363,-1.1611385345458984
1789323645137007400,16.35600732421875,-1.466578483581543,-1.6551532745361328,-0.2951991558074951
1789323645155858200,16.374858154296874,-1.7263641357421875,-0.6581263542175293,-0.6953814029693604
1789323645174709000,16.393708984375,-1.38035249710083,-0.3558235168457031,-0.4950990676879883
1789323645193559800,16.412559814453125,-0.5601081848144531,-0.9911417961120605,-0.029656171798706055
1789323645212410400,16.431410400390625,-0.09708976745605469,-1.6343913078308105,0.19705438613891602
1789323645231261200,16.45026123046875,-1.071967601776123,-1.7587051391601562,0.41180944442749023
1789323645250112000,16.469112060546873,-1.8733291625976562,-1.0882954597473145,0.2262096405029297
1789323645268962800,16.487962890625,-2.138824462890625,-0.3592243194580078,-0.06408452987670898
1789323645287813400,16.5068134765625,-1.4347023963928223,-0.224931001663208,0.6554079055786133
1789323645306664200,16.525664306640625,-0.5575933456420898,-0.3776390552520752,0.8739075660705566
1789323645325515000,16.544514892578125,-1.2908358573913574,-1.402540683746338,0.6432185173034668
1789323645344365800,16.56336572265625,-2.8685355186462402,-0.5358762741088867,0.5870873928070068
1789323645363216400,16.58221630859375,-3.7961440086364746,-0.47658681869506836,1.2074308395385742
1789323645382067200,16.601067138671876,-3.6768393516540527,0.06155228614807129,3.008726119995117
1789323645400918000,16.61991796875,-3.2648768424987793,0.43145322799682617,3.611003875732422
1789323645419768800,16.638768798828124,-3.3369808197021484,0.3499581813812256,4.091660022735596
1789323645438619600,16.65761962890625,-2.4698047637939453,0.5200226306915283,3.9027507305145264
1789323645457470200,16.67647021484375,-2.134815216064453,-0.07889771461486816,3.0647220611572266
1789323645476321000,16.695321044921876,-2.2740049362182617,0.31093788146972656,3.172119617462158
1789323645495171800,16.714171875,-2.3840198516845703,0.30850958824157715,2.7008509635925293
1789323645514022700,16.733022705078124,-1.979264736175537,0.2679300308227539,3.024740219116211
1789323645532873200,16.751873291015624,-1.5188794136047363,0.9731543064117432,3.3172059059143066
1789323645551724000,16.77072412109375,-1.4085426330566406,1.5128288269042969,2.550179958343506
1789323645570574800,16.789574951171875,-1.0856294631958008,1.6883351802825928,2.47214937210083
1789323645589425400,16.80842529296875,-0.7982468605041504,2.028658151626587,1.9412157535552979
1789323645608276200,16.827276123046875,-0.24866914749145508,1.5544967651367188,1.226883888244629
1789323645627127000,16.846126953125,0.5909543037414551,-0.6721100807189941,1.8119232654571533
1789323645645977900,16.864977783203123,1.0995006561279297,-2.444550037384033,0.9211106300354004
1789323645664828400,16.883828369140623,0.34566259384155273,-4.710719585418701,0.3442726135253906
1789323645683679200,16.90267919921875,0.3962740898132324,-4.775217056274414,-0.42092037200927734
1789323645711955500,16.93095556640625,1.5322489738464355,-2.702503204345703,0.6200728416442871
1789323645730806000,16.949805908203125,2.7578930854797363,-1.1009407043457031,0.2548336982727051
1789323645749656800,16.96865673828125,3.326669692993164,-0.7504620552062988,0.07565593719482422
1789323645768507600,16.987507568359376,3.667179822921753,-1.9360594749450684,-0.3377370834350586
1789323645787358500,17.0063583984375,4.069989204406738,-3.792787551879883,-1.6169934272766113
1789323645806209000,17.025208984375,3.354022264480591,-4.325117588043213,-1.114457130432129
1789323645825059800,17.044059814453124,2.430253744125366,-3.2420754432678223,0.17754507064819336
1789323645843910700,17.06291064453125,3.7208642959594727,-2.163937568664551,1.7026033401489258
1789323645862761500,17.081761474609376,4.164333820343018,-1.8097429275512695,1.6125364303588867
1789323645881612000,17.100612060546876,3.8839447498321533,-1.6799216270446777,0.19096803665161133
1789323645900462800,17.119462890625,3.571096181869507,-1.21281099319458,0.31234121322631836
1789323645919313400,17.1383134765625,2.996663808822632,-0.3353614807128906,0.4572601318359375
1789323645938164200,17.157164306640624,2.187976598739624,-0.03528928756713867,1.1090426445007324
1789323645957015000,17.17601513671875,2.067309856414795,-0.21694087982177734,0.8207130432128906
1789323645975865900,17.194865966796876,1.4148244857788086,-1.2288966178894043,1.3898978233337402
1789323645994716400,17.21371630859375,1.151501178741455,-1.6014652252197266,1.4368407726287842
1789323646013567200,17.232567138671875,1.2040481567382812,-1.1417746543884277,1.158266544342041
1789323646032418000,17.25141796875,1.4878358840942383,-0.8735208511352539,0.6914739608764648
1789323646051268600,17.2702685546875,2.000178337097168,-1.083371639251709,0.06326818466186523
1789323646070119400,17.289119384765623,2.1505284309387207,-1.7077436447143555,-0.561161994934082
1789323646088970200,17.30797021484375,2.3359012603759766,-0.9383807182312012,-1.1976728439331055
1789323646107820800,17.32682080078125,2.4978137016296387,-0.3482189178466797,-1.3365373611450195
1789323646126671600,17.345671630859375,2.463499069213867,-1.1512956619262695,-1.1718850135803223
1789323646145522400,17.3645224609375,2.1285667419433594,-2.0789194107055664,-1.1450510025024414
1789323646164373000,17.383373046875,0.9265589714050293,-2.470078945159912,-0.8310508728027344
1789323646183223800,17.402223876953126,-0.14711952209472656,-1.4641132354736328,-0.22246837615966797
1789323646202074600,17.42107470703125,-1.513904094696045,-0.5375237464904785,0.2595987319946289
1789323646220925200,17.43992529296875,-1.2332735061645508,-0.47973203659057617,1.5132191181182861
1789323646239776000,17.45877587890625,-0.8426098823547363,0.7193613052368164,2.358222246170044
1789323646258626800,17.477626708984374,-1.1133251190185547,0.6635606288909912,1.7088139057159424
1789323646277477400,17.496477294921874,-1.910067081451416,0.9161908626556396,0.3723924160003662
1789323646296328200,17.515328125,-3.2343344688415527,0.8556592464447021,1.0640761852264404
1789323646315179000,17.534178955078126,-3.690861225128174,0.5272293090820312,1.996039628982544
1789323646334029600,17.553029541015626,-2.918050765991211,0.22925114631652832,3.1901631355285645
1789323646352880400,17.57188037109375,-2.6881766319274902,0.48880457878112793,2.977527618408203
1789323646371731000,17.59073095703125,-3.47383451461792,0.9630413055419922,2.879281997680664
1789323646390581800,17.609581787109374,-3.452425956726074,2.077948570251465,3.1178770065307617
1789323646409432600,17.6284326171875,-2.8608174324035645,1.8594850301742554,2.541104316711426
1789323646428283100,17.647283203125,-2.5982208251953125,2.1241230964660645,2.940703868865967
1789323646447134000,17.666134033203125,-2.1555891036987305,1.9701571464538574,2.7834997177124023
1789323646465984800,17.68498486328125,-1.5934267044067383,1.6653462648391724,2.2493743896484375
1789323646484835300,17.70383544921875,-2.0188956260681152,1.2852036952972412,1.7052922248840332
1789323646503686100,17.72268603515625,-2.136296272277832,1.1649138927459717,1.4812195301055908
1789323646522536700,17.74153662109375,-1.6707181930541992,1.4132721424102783,0.8376996517181396
1789323646541387500,17.760387451171876,-1.1349620819091797,1.2308568954467773,1.220224380493164
1789323646560238300,17.77923828125,-0.44806957244873047,0.9602575302124023,1.1295833587646484
1789323646579089000,17.7980888671875,-0.28726863861083984,-0.011057853698730469,0.6095871925354004
1789323646597939700,17.816939697265624,0.36044740676879883,-0.8925032615661621,-0.11890363693237305
1789323646616790500,17.83579052734375,0.591707706451416,-1.8829522132873535,-0.7690925598144531
1789323646635641000,17.85464111328125,0.36055517196655273,-2.9122838973999023,-1.6179933547973633
1789323646654492000,17.873491943359376,0.39748525619506836,-3.6676716804504395,-2.5862674713134766
1789323646673342500,17.892342529296876,0.5689764022827148,-3.789961338043213,-2.2466373443603516
1789323646692193300,17.911193359375,1.3330602645874023,-2.7220988273620605,-1.157909870147705
1789323646711043800,17.9300439453125,2.277909278869629,-1.4134182929992676,-0.8861513137817383
1789323646729894700,17.948894775390624,2.226902484893799,0.13492059707641602,-1.0265092849731445
1789323646748745500,17.967745361328124,1.8862242698669434,0.8971843719482422,-0.9539742469787598
1789323646767596000,17.986595947265624,1.7514023780822754,0.13302946090698242,-0.23457670211791992
1789323646786446800,18.00544677734375,2.1402840614318848,-1.133901596069336,-0.18327808380126953
1789323646805297400,18.02429736328125,2.6689043045043945,-2.7651891708374023,-0.40315771102905273
1789323646824148200,18.043148193359375,2.1883223056793213,-3.0375022888183594,-0.20084714889526367
1789323646842998800,18.061998779296875,1.3971095085144043,-1.3684978485107422,-0.2035202980041504
1789323646861849600,18.080849609375,1.1039533615112305,-0.26804065704345703,-0.2586021423339844
1789323646880700200,18.0997001953125,1.17185640335083,-0.5060253143310547,-0.9381198883056641
1789323646899551000,18.118551025390627,0.7726225852966309,-1.041585922241211,-1.0664691925048828
1789323646918401500,18.137401611328126,0.797492504119873,-0.9193048477172852,-0.3449740409851074
1789323646937252400,18.15625244140625,1.218979835510254,-1.095278263092041,-0.11872625350952148
1789323646956103200,18.175103271484375,1.0817465782165527,-1.5747332572937012,-0.3973674774169922
1789323646974953700,18.19395361328125,0.4877195358276367,-1.7018046379089355,-0.46445131301879883
1789323646993804500,18.212804443359374,0.43197107315063477,-1.0989952087402344,-1.3927111625671387
1789323647012655000,18.231655029296874,0.3136892318725586,-1.140965461730957,-1.276472568511963
1789323647031506000,18.250505859375,0.24018096923828125,-1.6050372123718262,-0.7116842269897461
1789323647050356500,18.2693564453125,0.22003412246704102,-1.4158515930175781,-0.44805049896240234
1789323647069207300,18.288207275390626,-0.023253917694091797,-0.9534783363342285,-0.698183536529541
1789323647088057900,18.307057861328126,0.527440071105957,-1.0573773384094238,-0.7089939117431641
1789323647106908700,18.32590869140625,1.7597031593322754,-1.9875874519348145,-0.5940656661987305
1789323647125759200,18.34475927734375,1.2482094764709473,-2.468682289123535,-0.8950252532958984
1789323647144610000,18.363610107421874,-0.9077086448669434,-1.592473030090332,-0.8087668418884277
1789323647163460600,18.382460693359373,-2.1010937690734863,-0.8434920310974121,-0.519127368927002
1789323647182311400,18.4013115234375,-1.7903399467468262,-0.29970455169677734,0.28554725646972656
1789323647201162000,18.420161865234373,-1.6754493713378906,0.7300379276275635,-0.6017544269561768
1789323647220012800,18.4390126953125,-3.187344551086426,0.7360372543334961,0.2685089111328125
1789323647238863400,18.45786328125,-3.524770736694336,1.6601366996765137,1.6507515907287598
1789323647257714200,18.476714111328125,-2.4933910369873047,1.4888328313827515,2.5812158584594727
1789323647276564700,18.495564697265625,-2.691636562347412,1.6945154666900635,2.0699124336242676
1789323647295415600,18.51441552734375,-4.077037334442139,0.9388339519500732,0.709728479385376
1789323647314266000,18.53326611328125,-3.7282795906066895,0.2902650833129883,0.4463651180267334
1789323647333117000,18.552116943359376,-3.2496819496154785,0.8676179647445679,1.1220901012420654
1789323647351967500,18.570967529296876,-2.7985997200012207,1.1634106636047363,1.8938878774642944
1789323647370818300,18.589818359375,-2.7174320220947266,1.7089461088180542,1.7077256441116333
1789323647389668900,18.6086689453125,-3.467911720275879,1.9905011653900146,0.8848400115966797
1789323647408519700,18.627519775390624,-2.813565254211426,2.2098708152770996,1.0995380878448486
1789323647427370200,18.646370361328124,-1.7518315315246582,2.526451349258423,0.8268144130706787
1789323647446221000,18.665220947265624,-1.610091209411621,2.2066493034362793,0.4961686134338379
1789323647465071600,18.684071533203124,-1.9266972541809082,2.2607855796813965,0.07551980018615723
1789323647483922200,18.702922119140624,-2.5427489280700684,1.4206390380859375,-0.3419656753540039
1789323647502773000,18.72177294921875,-1.4246463775634766,-0.29332923889160156,-0.031767845153808594
1789323647521623600,18.74062353515625,-0.9313335418701172,-1.213259220123291,-0.4255080223083496
1789323647540474400,18.759474365234375,-1.3105711936950684,-2.3315486907958984,-0.4245586395263672
1789323647559325000,18.778324951171875,-0.23203325271606445,-3.114635467529297,-0.23798131942749023
1789323647578175700,18.79717578125,1.16717529296875,-3.5882787704467773,-1.2429351806640625
1789323647597026300,18.8160263671875,0.8687572479248047,-2.668471336364746,-1.8163776397705078
1789323647615876900,18.834876953125,0.72711181640625,-1.9154043197631836,-2.2908668518066406
1789323647634727700,18.853727783203126,0.6874456405639648,-2.052374839782715,-1.2914834022521973
1789323647653578200,18.872578125,0.7296805381774902,-0.2234339714050293,-1.6565675735473633
1789323647672429000,18.891428955078126,0.8266196250915527,0.7948317527770996,0.6894893646240234
1789323647691279600,18.910279541015626,2.453530788421631,-0.9717898368835449,0.6174843311309814
1789323647710130400,18.92913037109375,1.909947395324707,-1.9936943054199219,-1.5912938117980957
1789323647728981000,18.94798095703125,1.7181005477905273,-2.8655052185058594,-1.8257651329040527
1789323647747831600,18.96683154296875,1.5311405658721924,-2.4498291015625,-0.9556293487548828
1789323647766682400,18.985682373046874,3.316084861755371,0.711639404296875,-0.19006967544555664
1789323647785533000,19.004532958984374,-0.24444985389709473,-0.2985262870788574,-0.3913607597351074
1789323647804383500,19.023383544921874,1.637629508972168,0.07711315155029297,-1.1450157165527344
1789323647823234300,19.042234375,1.2271251678466797,0.6174626350402832,-0.3519864082336426
1789323647842084900,19.0610849609375,1.3842830657958984,-0.5823302268981934,0.33053112030029297
1789323647860935700,19.079935791015625,1.4128522872924805,-4.864763259887695,1.1840200424194336
1789323647879786200,19.0987861328125,-0.22919273376464844,-4.678957939147949,-0.46305227279663086
1789323647898636800,19.11763671875,-1.2869510650634766,-1.9699182510375977,0.05050945281982422
1789323647917487600,19.136487548828125,1.1317591667175293,2.8657455444335938,0.3753786087036133
1789323647936338200,19.155338134765625,1.6144733428955078,1.3733997344970703,0.6521506309509277
1789323647955188700,19.174188720703125,1.5040831565856934,-0.8751683235168457,-0.5286121368408203
1789323647974039600,19.19303955078125,3.0911498069763184,-2.5762553215026855,-1.3701281547546387
1789323647992890000,19.21189013671875,2.8549299240112305,-3.975363254547119,-1.7461614608764648
1789323648011741000,19.230740966796876,2.3441224098205566,-3.9041829109191895,-2.017202377319336
1789323648030591500,19.249591552734376,0.9952187538146973,-4.313158988952637,-1.3478789329528809
1789323648049442000,19.268442138671876,0.42633867263793945,-1.494049072265625,-0.3093900680541992
1789323648068292900,19.28729296875,0.24790525436401367,-0.6342315673828125,0.22190427780151367
1789323648087143400,19.306143310546876,0.8111186027526855,-0.4637918472290039,-0.0745701789855957
1789323648105994000,19.324993896484376,0.08453655242919922,-1.1020355224609375,-0.2014169692993164
1789323648124844800,19.3438447265625,-1.892594337463379,-0.37493896484375,-0.10581684112548828
1789323648143695400,19.3626953125,-2.6984524726867676,0.414628267288208,0.18176555633544922
1789323648162546000,19.3815458984375,-3.3754258155822754,-0.4123389720916748,0.2759842872619629
1789323648181396500,19.400396484375,-5.466355800628662,0.5196244716644287,1.6486773490905762
1789323648200247300,19.419247314453123,-5.565871238708496,1.6084880828857422,3.031688690185547
1789323648219097900,19.438097900390623,-3.678255081176758,1.5381795167922974,3.958645820617676
1789323648237948400,19.456948486328123,-2.5101184844970703,0.43974483013153076,3.698410749435425
1789323648256799200,19.47579931640625,-2.5343337059020996,0.32521986961364746,2.623009204864502
1789323648275649800,19.49464990234375,-3.1005806922912598,0.28331828117370605,1.1696557998657227
1789323648294500400,19.513500244140626,-3.0876927375793457,0.35990095138549805,1.4720773696899414
1789323648313351200,19.53235107421875,-2.3120508193969727,1.6716246604919434,2.4176931381225586
1789323648332201700,19.55120166015625,-2.047579288482666,1.0188385248184204,1.3037755489349365
1789323648351052300,19.57005224609375,-1.5712623596191406,1.1952027082443237,1.6340653896331787
1789323648369903000,19.588903076171874,-0.19880199432373047,1.2640632390975952,1.1179940700531006
1789323648388753700,19.607753662109374,-0.8381967544555664,1.4424940347671509,0.36290884017944336
1789323648407604200,19.626604248046874,-1.4725923538208008,1.2344415187835693,0.05369091033935547
1789323648426455000,19.645455078125,-1.3953957557678223,0.6893868446350098,0.2251296043395996
1789323648445305600,19.6643056640625,-1.3541393280029297,-0.1605997085571289,0.9051363468170166
1789323648464156200,19.68315625,-0.7475566864013672,-2.1882576942443848,1.3321828842163086
1789323648483006700,19.7020068359375,-0.23691368103027344,-2.414104461669922,0.3919386863708496
1789323648501857500,19.720857421875,-0.45868682861328125,-1.9262676239013672,-0.2050795555114746
1789323648520708000,19.7397080078125,0.8727173805236816,-1.2331862449645996,-0.8195109367370605
1789323648539558700,19.75855859375,1.26939058303833,-1.8065576553344727,-0.7228388786315918
1789323648558409200,19.7774091796875,1.0778861045837402,-4.492053985595703,-0.37418031692504883
1789323648577260000,19.796260009765625,1.4014225006103516,-3.6720409393310547,-0.6797428131103516
1789323648596110600,19.815110595703125,1.5230369567871094,-2.1727566719055176,-0.9539117813110352
1789323648614961200,19.833961181640625,1.7592458724975586,-0.7466435432434082,-1.244743824005127
1789323648633811700,19.852811767578125,2.445277690887451,-0.33930349349975586,-0.8463640213012695
1789323648652662500,19.87166259765625,2.5755767822265625,-0.5851941108703613,-0.8661785125732422
1789323648671513000,19.89051318359375,2.004875659942627,-1.0669031143188477,-1.2192461490631104
1789323648690363600,19.90936376953125,2.0466132164001465,-0.8259820938110352,-1.3209846019744873
1789323648709214200,19.928214111328124,1.9196844100952148,-4.507468223571777,0.07329297065734863
1789323648728065000,19.94706494140625,1.8624286651611328,-3.686704635620117,-0.2872314453125
1789323648746915600,19.96591552734375,2.3219871520996094,0.04271984100341797,-0.8319122791290283
1789323648765766100,19.98476611328125,1.1133008003234863,-1.8557624816894531,0.1527707576751709
1789323648784616700,20.00361669921875,0.19027042388916016,-2.817890167236328,0.09866666793823242
1789323648803467300,20.02246728515625,-0.872800350189209,-0.5074100494384766,-0.3713078498840332
1789323648822318000,20.041318115234375,-1.2599444389343262,2.3899521827697754,-0.044025421142578125
1789323648841168600,20.060168701171875,-1.4742443561553955,3.788825273513794,1.110666036605835
1789323648860019200,20.079019287109375,-0.09704160690307617,2.8307085037231445,1.326364517211914
1789323648878869800,20.097869873046875,0.821406364440918,4.881429672241211,-0.9047036170959473
1789323648897720600,20.116720458984375,1.7601318359375,4.450089454650879,-2.3282485008239746
1789323648916571100,20.135571044921875,2.5217185020446777,-0.01158761978149414,-2.3365345001220703
1789323648935421700,20.154421630859375,1.7534880638122559,-1.239889144897461,-2.0127358436584473
1789323648954272300,20.173272216796875,1.6244497299194336,-0.3665637969970703,-1.6805753707885742
1789323648973122800,20.192122802734374,1.9979372024536133,-0.7737598419189453,-1.9470372200012207
1789323649001398800,20.220398681640624,1.5427169799804688,-2.035280227661133,-1.530756950378418
1789323649020249300,20.239249267578124,0.13660001754760742,-2.088569164276123,-0.2643260955810547
1789323649039100000,20.258099853515624,-0.7391085624694824,-1.2078032493591309,0.07581615447998047
1789323649057950700,20.27695068359375,-0.9784131050109863,-1.0007333755493164,1.4720039367675781
1789323649076801300,20.29580126953125,-0.8392539024353027,-1.1902422904968262,2.2179319858551025
1789323649095651800,20.31465185546875,-1.8440847396850586,-2.268599033355713,1.684478998184204
1789323649114502400,20.33350244140625,-1.4472384452819824,-3.908890724182129,1.0197467803955078
1789323649133353000,20.35235302734375,-2.4802422523498535,-0.9434618949890137,0.06135845184326172
1789323649152203500,20.37120361328125,-3.1223220825195312,-0.35611915588378906,1.0362269878387451
1789323649171054300,20.390054443359375,-2.9627952575683594,-1.035346269607544,1.54190993309021
1789323649189905000,20.40890478515625,-1.531118392944336,-1.901153802871704,2.7154488563537598
1789323649208755500,20.42775537109375,-2.0483689308166504,4.632437229156494,1.0588915348052979
1789323649227606000,20.44660595703125,-1.8896522521972656,2.0409388542175293,2.7424476146698
1789323649246456600,20.46545654296875,-1.5120973587036133,0.23950481414794922,1.5768237113952637
1789323649265307100,20.48430712890625,-2.3143792152404785,0.6693871021270752,1.2809529304504395
1789323649284157700,20.50315771484375,-2.602313995361328,0.46639084815979004,1.7910239696502686
1789323649303008300,20.52200830078125,-1.9564495086669922,-0.17826628684997559,2.604945182800293
1789323649321859000,20.540859130859374,-1.6068334579467773,-0.7696449756622314,2.2418243885040283
1789323649340709600,20.559709716796874,-1.4073467254638672,-0.38674402236938477,2.4223194122314453
1789323649359560200,20.578560302734374,-0.6117830276489258,0.8795695304870605,2.364474296569824
1789323649378410800,20.59741064453125,-0.5895676612854004,-0.077056884765625,1.8266661167144775
1789323649397261300,20.61626123046875,-0.7045736312866211,-1.895826816558838,1.2688002586364746
1789323649416111900,20.63511181640625,0.6932888031005859,-2.7522311210632324,1.0115256309509277
1789323649434962400,20.65396240234375,2.320347785949707,-0.12340927124023438,-0.28920865058898926
1789323649453813000,20.67281298828125,0.9424538612365723,-1.2083301544189453,-1.1396310329437256
1789323649472663600,20.69166357421875,0.36460018157958984,-3.5630831718444824,-2.1328537464141846
1789323649491514000,20.71051416015625,0.36556386947631836,-3.41831111907959,-1.8579216003417969
1789323649510365000,20.729364990234377,-0.047088623046875,-0.21777725219726562,-1.686591625213623
1789323649529215500,20.748215576171877,0.8053040504455566,-0.22069931030273438,-1.6814854145050049
1789323649548066000,20.767066162109376,2.233285903930664,1.962416172027588,-1.2622449398040771
1789323649566916600,20.78591650390625,3.951801300048828,-0.34279870986938477,-0.6513593196868896
1789323649585767200,20.80476708984375,5.05733585357666,1.223707675933838,-2.238659381866455
1789323649604617700,20.82361767578125,0.9568567276000977,2.3916516304016113,0.5630290508270264
1789323649623468300,20.84246826171875,-1.9698607921600342,7.455689430236816,0.2014622688293457
1789323649642318800,20.86131884765625,-1.4528205394744873,4.070148944854736,0.6709480285644531
1789323649661169400,20.88016943359375,-1.4375455379486084,0.4858088493347168,-0.11074638366699219
1789323649680020000,20.89902001953125,2.7013680934906006,-1.2062573432922363,-3.418553352355957
1789323649698870500,20.91787060546875,2.155479907989502,3.2357585430145264,-2.4418587684631348
1789323649717721000,20.93672119140625,4.598919868469238,-0.7051548957824707,-1.349626064300537
1789323649736571600,20.955571533203123,3.2880282402038574,-2.2789206504821777,-2.204672336578369
1789323649755422200,20.974422119140623,0.9821655750274658,-4.940245628356934,-1.564420223236084
1789323649774272800,20.993272705078127,-0.9846692085266113,-3.8386926651000977,1.2987966537475586
1789323649793123300,21.012123291015627,0.3153402805328369,-1.2488408088684082,2.422844886779785
1789323649811974000,21.030973876953126,-1.05702805519104,-2.2818727493286133,0.6210222244262695
1789323649830824400,21.049824462890626,-0.8610883951187134,-3.883732795715332,-0.2960953712463379
1789323649849675000,21.068675048828126,-0.9184870719909668,-4.367363452911377,-0.5006537437438965
1789323649868525600,21.087525634765626,-2.0297765731811523,-4.818870544433594,-0.7053804397583008
1789323649887376100,21.106376220703126,0.6029036045074463,-3.1627273559570312,-1.6528525352478027
1789323649906226700,21.125226806640626,1.0306098461151123,-3.765946388244629,-0.34363555908203125
1789323649925077200,21.1440771484375,1.4652631282806396,-3.6971120834350586,0.8933248519897461
1789323649943927800,21.162927734375,1.4319050312042236,-2.2426986694335938,4.6411590576171875
1789323649962778400,21.1817783203125,-1.2435442209243774,-3.5089406967163086,4.668015003204346
1789323649981629000,21.20062890625,0.6667506694793701,-1.1320676803588867,1.5957093238830566
1789323650000479500,21.2194794921875,2.2716012001037598,-0.9962162971496582,-0.3737802505493164
1789323650019330000,21.238330078125,4.208441257476807,0.982825756072998,-2.4113526344299316
1789323650038180600,21.2571806640625,1.1341490745544434,0.7787981033325195,-0.2603487968444824
1789323650057031200,21.27603125,5.11290168762207,2.8287723064422607,3.130970001220703
1789323650075881700,21.2948818359375,2.2763805389404297,3.6394999027252197,1.6849308013916016
1789323650094732300,21.313732177734376,3.3235812187194824,4.261368751525879,1.31685209274292
1789323650113582800,21.332582763671876,3.6171703338623047,4.888472080230713,0.799522876739502
1789323650132433400,21.351433349609376,2.265655994415283,5.147225379943848,-1.8424677848815918
1789323650151284000,21.370283935546876,3.1704001426696777,5.74666690826416,-3.1875858306884766
1789323650170134500,21.389134521484376,2.9296226501464844,5.9451680183410645,-2.1666431427001953
1789323650188985000,21.407985107421876,2.1320905685424805,5.632798671722412,-2.0781073570251465
1789323650207835600,21.426835693359376,0.9179377555847168,4.935207843780518,-2.764247417449951
1789323650226686200,21.445686279296876,-0.7913079261779785,4.140283584594727,-4.125228404998779
1789323650245536500,21.46453662109375,-2.010313034057617,3.139279365539551,-2.8458151817321777
1789323650264387000,21.483386962890624,-1.5961365699768066,2.315513849258423,-2.188007354736328
1789323650283237600,21.502237548828123,-2.047518253326416,1.8776322603225708,-2.755551815032959
1789323650302088200,21.521088134765623,-2.215081214904785,0.14470887184143066,-3.3611679077148438
1789323650320938800,21.539938720703127,-2.9497036933898926,-0.49892759323120117,-3.964540958404541
1789323650339789300,21.558789306640627,-1.565774917602539,-0.690691351890564,-3.399634838104248
1789323650377490400,21.596490478515626,-0.2903919219970703,-0.017615906894207,0.008259773254394531
1789323650396341000,21.615341064453126,1.0267119407653809,-1.9271751642227173,1.2383513450622559
1789323650415191600,21.634191650390626,1.226766586303711,-1.0889214277267456,2.1399664878845215
1789323650434041900,21.653041748046874,-1.9302334785461426,-3.712867259979248,1.287942886352539
1789323650452892400,21.671892333984374,-1.6514930725097656,-3.569603681564331,-1.3536911010742188
1789323650471743000,21.690742919921874,-3.202683687210083,-4.715334415435791,1.165834903717041
1789323650490593500,21.709593505859374,-0.8133120536804199,-3.1741538047790527,2.406491279602051
1789323650509444000,21.728444091796874,2.468381404876709,-1.4012916088104248,1.1553864479064941
1789323650528294700,21.747294677734374,0.6795439720153809,-0.45319676399230957,1.6734795570373535
1789323650547145200,21.766145263671874,0.583592414855957,1.1895326375961304,1.2979426383972168
1789323650565995800,21.784995849609373,-0.8421010971069336,-0.8091345429420471,2.226691246032715
1789323650584846000,21.80384619140625,1.4254117012023926,-0.5673762559890747,0.37764453887939453
1789323650603696600,21.822696533203125,2.458141326904297,-0.32575178146362305,-0.6200947761535645
1789323650622547200,21.841547119140625,3.702855110168457,-0.8833165168762207,-0.13788938522338867
1789323650641397800,21.860397705078125,1.2341012954711914,-2.324432134628296,0.9081735610961914
1789323650660248300,21.879248291015625,-0.3887977600097656,-3.2488484382629395,0.14243602752685547
1789323650679098600,21.8980986328125,-3.123249053955078,-2.337925434112549,-0.39992451667785645
1789323650697949200,21.91694921875,-5.015432357788086,-1.32107675075531,-0.05236506462097168
1789323650716799700,21.9357998046875,-2.394124984741211,0.8410532474517822,-0.33362245559692383
1789323650735650300,21.954650390625,-0.24602031707763672,1.0989603996276855,-1.041029691696167
1789323650754500900,21.9735009765625,0.9158172607421875,-1.2189315557479858,0.2760152816772461
1789323650773351400,21.992351318359376,1.8464832305908203,-1.6650056838989258,0.5533850193023682
1789323650792202000,22.011201904296875,2.763439178466797,-1.1847114562988281,-0.3258814811706543
1789323650820477700,22.039477783203125,2.412510871887207,-2.0912973880767822,-0.43946242332458496
1789323650914730200,22.133730224609376,-0.8723764419555664,-1.024317741394043,0.10408559441566467
1789323650933580500,22.15258056640625,-0.40590763092041016,-0.5735249519348145,-0.17773494124412537
1789323650952431000,22.17143115234375,0.5445919036865234,-0.6014697551727295,-0.11202883720397949
1789323650971281700,22.19028173828125,-0.032731056213378906,-0.8187334537506104,0.49837130308151245
1789323650990132200,22.20913232421875,0.061786651611328125,-0.6619448661804199,0.20546120405197144
1789323651008982800,22.227982666015624,1.1202917098999023,-0.8721144199371338,-0.2441052794456482
1789323651027833000,22.2468330078125,1.141183853149414,-0.9451236724853516,-0.5838388204574585
1789323651046683600,22.26568359375,-0.35617637634277344,-0.9042067527770996,-0.03374451398849487
1789323651065534200,22.2845341796875,-0.18920612335205078,-0.46729111671447754,0.3991970121860504
1789323651084384800,22.303384765625,0.9155235290527344,-0.249922513961792,-0.7858451008796692
1789323651103235300,22.3222353515625,-1.8117594718933105,0.12746810913085938,0.3902400732040405
1789323651122085600,22.341085693359375,-2.545673370361328,-0.4333786964416504,0.48532673716545105
1789323651140936200,22.359936279296875,-1.82374906539917,-1.0306141376495361,-0.5845545530319214
1789323651159786800,22.378786865234375,0.09897708892822266,-0.09093022346496582,-2.3995912075042725
1789323651178637000,22.397636962890626,0.7655649185180664,0.16786670684814453,-1.8077448606491089
1789323651197487600,22.416487548828126,0.5915966033935547,-0.212083101272583,-0.652574896812439
1789323651216338200,22.435338134765626,0.5458230972290039,0.1711423397064209,0.08644220978021622
1789323651235188700,22.454188720703126,0.188232421875,-0.344482421875,0.07205100357532501
1789323651254039000,22.4730390625,-0.4226808547973633,-0.5625207424163818,0.3126296401023865
1789323651272889600,22.4918896484375,-0.6714544296264648,-0.1588764190673828,-0.0543670728802681
1789323651291740200,22.510740234375,0.40151119232177734,0.08202266693115234,-1.052657127380371
1789323651310590700,22.5295908203125,0.4364795684814453,-0.5704836845397949,-0.9456557035446167
1789323651329441000,22.54844091796875,-0.4777717590332031,-0.6846871376037598,-0.7782478928565979
1789323651348291600,22.56729150390625,-0.9912600517272949,-0.17394113540649414,-0.8402270078659058
1789323651367142100,22.58614208984375,-0.38051414489746094,-0.03630638122558594,-0.983670175075531
1789323651385992700,22.60499267578125,0.6446743011474609,0.015949249267578125,-1.1041146516799927
1789323651404843000,22.623843017578125,0.2897987365722656,-0.18309497833251953,-0.8592594265937805
1789323651423693600,22.642693603515625,-0.03773212432861328,-0.361325740814209,-0.7036941051483154
1789323651442544000,22.661544189453124,0.05999946594238281,-0.26749086380004883,-0.7565382719039917
1789323651461394700,22.680394775390624,0.28104591369628906,0.08072900772094727,-0.775293231010437
1789323651480245000,22.699244873046876,-0.31191062927246094,-0.2151198387145996,-0.46210241317749023
1789323651499095600,22.718095458984376,-0.6874732971191406,-0.02029132843017578,-0.2530883848667145
1789323651517946000,22.736946044921876,0.012618064880371094,0.22029352188110352,-0.3388586640357971
1789323651536796400,22.75579638671875,0.9398288726806641,0.10276603698730469,-0.5502074360847473
1789323651555647000,22.77464697265625,0.91259765625,-0.23945951461791992,-0.5925459861755371
1789323651574497500,22.79349755859375,0.16265296936035156,-0.28816938400268555,-0.27273815870285034
1789323651593347800,22.812347900390623,-0.23889732360839844,-0.07645416259765625,-0.053104329854249954
1789323651612198400,22.831198486328127,-0.5016355514526367,-0.24941396713256836,0.08895393460988998
1789323651631049000,22.850049072265627,0.06351852416992188,-0.46863555908203125,0.33507364988327026
1789323651649899500,22.8688994140625,0.3786001205444336,-0.6162257194519043,0.5423908233642578
1789323651668749800,22.887749755859375,0.3096942901611328,-0.37741947174072266,-0.12603773176670074
1789323651687600400,22.906600341796874,0.09875679016113281,-0.48924970626831055,-0.6314014792442322
1789323651706451000,22.925450927734374,-0.2635364532470703,-0.6997127532958984,-0.4037957787513733
1789323651725301200,22.94430126953125,-0.7037549018859863,-0.8637607097625732,0.051718153059482574
1789323651744151800,22.96315185546875,-0.717432975769043,-0.5310425758361816,-0.333231121301651
1789323651763002400,22.98200244140625,0.2114877700805664,-0.2798905372619629,-0.3361065983772278
1789323651781853000,23.00085302734375,0.7405195236206055,-0.43025684356689453,0.3250448405742645
1789323651800703200,23.019703125,0.4852142333984375,-0.2910451889038086,0.6137971878051758
1789323651819553800,23.0385537109375,-0.10346412658691406,-0.1028900146484375,0.7745320200920105
1789323651838404000,23.057404052734373,-0.24712181091308594,0.0018911361694335938,0.6714510917663574
1789323651857254700,23.076254638671877,-0.40674495697021484,0.12463140487670898,0.48035913705825806
1789323651876105200,23.095105224609377,-0.40679264068603516,0.25478649139404297,-0.022741615772247314
1789323651894955800,23.113955810546877,-0.2850313186645508,0.2092142105102539,-0.9380108118057251
1789323651913806000,23.13280615234375,-0.12629222869873047,0.038838863372802734,-0.9573195576667786
1789323651932656600,23.15165673828125,-0.32256603240966797,0.006154537200927734,-0.0033858418464660645
1789323651951507200,23.170507080078124,-0.3302783966064453,0.1643962860107422,0.2653951942920685
1789323651970357500,23.189357421875,0.053208351135253906,0.13457012176513672,-0.10542792081832886
1789323651989208000,23.2082080078125,0.5444726943969727,0.06743574142456055,-0.17522555589675903
1789323652008058600,23.22705859375,0.43398094177246094,0.12323236465454102,0.2884887158870697
1789323652026909000,23.245908935546876,0.11237430572509766,0.3146181106567383,0.43629392981529236
1789323652045759500,23.264759521484375,0.14388465881347656,0.3034782409667969,0.1970934271812439
1789323652064610000,23.283610107421875,0.04897308349609375,-0.04615163803100586,-0.043052613735198975
1789323652083460400,23.30246044921875,-0.25034046173095703,-0.147216796875,-0.3136413097381592
1789323652102311000,23.321310791015627,-0.2312784194946289,-0.21846723556518555,-0.5665644407272339
1789323652121161500,23.340161376953127,0.17732810974121094,-0.14019060134887695,-0.8315613269805908
1789323652140011800,23.35901171875,-0.07790470123291016,-0.18821001052856445,-0.1662917137145996
1789323652158862300,23.3778623046875,-0.7787642478942871,-0.2176074981689453,0.49943631887435913
1789323652177712600,23.396712646484374,-0.9806938171386719,-0.3806877136230469,0.22405481338500977
1789323652196563200,23.415563232421874,-0.8394737243652344,-0.6414909362792969,-0.0757216215133667
1789323652215413800,23.434413818359374,-0.8155307769775391,-0.49930667877197266,-0.22727227210998535
1789323652234264000,23.45326416015625,-0.32967376708984375,0.1009664535522461,-0.9694939851760864
1789323652253114600,23.472114501953126,-0.7210774421691895,0.3234543800354004,-1.0237038135528564
1789323652271965200,23.490965087890626,-0.18209075927734375,-0.3545241355895996,-0.5314604043960571
1789323652290815500,23.5098154296875,-0.06528949737548828,-0.19864511489868164,-0.23910832405090332
1789323652309666000,23.528666015625,0.20968914031982422,-0.06346845626831055,-0.19887959957122803
1789323652328516600,23.5475166015625,0.6266241073608398,-0.10793828964233398,-0.34119391441345215
1789323652347367000,23.566366943359377,0.7506990432739258,-0.16890859603881836,-0.6410571932792664
1789323652366217500,23.585217529296877,0.6591024398803711,-0.10391712188720703,-0.8680965900421143
1789323652385068000,23.604068115234377,0.5603103637695312,-0.08963871002197266,-0.7566576600074768
1789323652403918300,23.62291845703125,0.5335798263549805,-0.11126565933227539,-0.3855178952217102
1789323652422769000,23.641768798828124,0.44942283630371094,-0.06958341598510742,0.05610013008117676
1789323652441619200,23.660619140625,0.40784645080566406,0.013222694396972656,0.2226046919822693
1789323652460469800,23.6794697265625,0.3946695327758789,0.07206106185913086,0.09604477882385254
1789323652479320300,23.6983203125,0.3420743942260742,0.03458356857299805,-0.008302152156829834
1789323652498170600,23.717170654296876,0.11231422424316406,-0.02906179428100586,0.03929734230041504
1789323652517021200,23.736021240234376,-0.12626266479492188,-0.0024857521057128906,0.07070183753967285
1789323652545297000,23.764296875,-0.04108142852783203,0.026949405670166016,-0.08649659156799316
1789323652564147200,23.783147216796873,0.028783798217773438,-0.03221273422241211,-0.10090094804763794
1789323652582997800,23.801997802734373,-0.1451711654663086,-0.06182718276977539,-0.06312131881713867
1789323652601848300,23.820848388671877,-0.3258371353149414,-0.03385734558105469,0.044835686683654785
1789323652620698600,23.83969873046875,-0.6119647026062012,-0.11111688613891602,0.046107351779937744
1789323652639549200,23.858549072265625,-0.579383373260498,-0.02874469757080078,-0.2219531536102295
1789323652658399500,23.8773994140625,-0.43541812896728516,-0.06808185577392578,-0.24652165174484253
1789323652677250000,23.89625,-0.08879661560058594,-0.18958139419555664,-0.18422949314117432
1789323652714951000,23.933950927734376,0.1578197479248047,-0.31082868576049805,0.05965307354927063
1789323652752651800,23.97165185546875,-0.19328594207763672,-0.2825617790222168,-0.21679240465164185
1789323652771502300,23.99050244140625,-0.0490264892578125,-0.23817825317382812,-0.5338361859321594
1789323652790352600,24.0093525390625,0.08362960815429688,-0.23692035675048828,-0.463165283203125
