time,seconds_elapsed,z,y,x
1789323567235625000,0.289625,-0.5412106513977051,0.05375456064939499,0.02076880633831024
1789323567254476000,0.30847607421875,-0.5974085927009583,-0.4294256269931793,-0.04459185153245926
1789323567301603800,0.355603759765625,0.11606097966432571,-0.1820324808359146,0.15026842057704926
1789323567320455000,0.374454833984375,0.3286358118057251,0.1832541823387146,0.19974705576896667
1789323567339306000,0.393305908203125,0.18997350335121155,0.2638860046863556,0.09895725548267365
1789323567358157000,0.412156982421875,0.01038440316915512,-0.21685077250003815,0.0036650835536420345
1789323567377008000,0.431008056640625,-0.014049487188458443,-0.7763868570327759,0.1301104724407196
1789323567405284900,0.459284912109375,0.18630841374397278,-0.6163448691368103,0.7525638341903687
1789323567452412700,0.50641259765625,0.32374903559684753,-0.7220214605331421,0.7855495810508728
1789323567480689400,0.534689453125,0.12644538283348083,-0.4031592011451721,0.4227063059806824
1789323567499540500,0.55354052734375,0.02504473738372326,-0.014660334214568138,0.24617144465446472
1789323567518391600,0.5723916015625,0.18936264514923096,0.010995250195264816,0.3658975064754486
1789323567537242600,0.59124267578125,0.3414636254310608,0.3762819170951843,0.2883199155330658
1789323567565519400,0.619519287109375,0.03237490355968475,0.18019993603229523,-0.46729815006256104
1789323567584370400,0.638370361328125,0.2480039894580841,0.2620534598827362,-0.7281299233436584
1789323567603221500,0.657221435546875,0.7000309824943542,1.3255385160446167,-0.6633801460266113
1789323567622072600,0.676072509765625,1.0451596975326538,2.5228755474090576,-0.5656445622444153
1789323567640924000,0.694923828125,1.4349565505981445,2.7794313430786133,-0.49173203110694885
1789323567659775000,0.71377490234375,1.6121022701263428,2.801421880722046,-0.8845068216323853
1789323567688051700,0.7420517578125,2.072070360183716,2.929089069366455,-1.899200439453125
1789323567706902800,0.76090283203125,1.4416759014129639,3.0628645420074463,-2.567467451095581
1789323567725753900,0.77975390625,0.7519529461860657,2.260822057723999,-2.5980098247528076
1789323567744605000,0.79860498046875,1.3610440492630005,2.0537447929382324,-2.1496479511260986
1789323567763456000,0.8174560546875,1.729995846748352,1.3206517696380615,-2.4727859497070312
1789323567782307300,0.836307373046875,1.4312914609909058,2.3194634914398193,-3.1905314922332764
1789323567801158400,0.855158447265625,0.8484668135643005,5.3530073165893555,-4.436736583709717
1789323567820009500,0.874009521484375,0.23090025782585144,4.398252964019775,-6.235070705413818
1789323567838860500,0.892860595703125,-1.1734375953674316,0.5992411375045776,-5.329794883728027
1789323567857711900,0.9117119140625,-2.2822017669677734,-1.2723948955535889,-3.612016201019287
1789323567876563000,0.93056298828125,-3.136776924133301,-1.1496145725250244,-3.414712429046631
1789323567895414000,0.9494140625,-3.334080696105957,-0.6646018028259277,-3.888730049133301
1789323567914265300,0.968265380859375,-3.070805549621582,-0.6096255779266357,-3.9400410652160645
1789323567933116400,0.987116455078125,-2.723233461380005,-0.4080459773540497,-4.0745038986206055
1789323567951967500,1.005967529296875,-2.5833494663238525,-0.11300674080848694,-4.05312442779541
1789323567970818600,1.024818603515625,-2.1930179595947266,0.010995250195264816,-3.2803261280059814
1789323567989669600,1.043669677734375,-1.7226656675338745,0.4318690001964569,-2.860063314437866
1789323568008521000,1.06252099609375,-0.8191461563110352,1.7263307571411133,-3.2925431728363037
1789323568027372000,1.0813720703125,-0.4214846193790436,2.683528423309326,-3.8099308013916016
1789323568046223000,1.10022314453125,-0.237008735537529,3.029878854751587,-3.226571559906006
1789323568065074400,1.119074462890625,0.7324058413505554,2.0372519493103027,-2.0940606594085693
1789323568083925500,1.137925537109375,1.8344507217407227,1.4068576097488403,-1.700675129890442
1789323568102776600,1.156776611328125,2.888162136077881,1.437399983406067,-1.4117443561553955
1789323568121628000,1.1756279296875,3.7702255249023438,2.3347346782684326,-0.38666632771492004
1789323568140479000,1.19447900390625,3.1306686401367188,2.381769895553589,0.30725616216659546
1789323568159330000,1.213330078125,2.3206851482391357,3.3548495769500732,0.786160409450531
1789323568178181400,1.232181396484375,2.0806221961975098,2.6792523860931396,1.2571237087249756
1789323568197032400,1.251032470703125,2.500885009765625,0.7556180357933044,1.216196894645691
1789323568225309200,1.27930908203125,1.6365361213684082,-1.0995250940322876,1.0256125926971436
1789323568244160300,1.29816015625,1.3879213333129883,-1.0592091083526611,1.4019708633422852
1789323568263011600,1.317011474609375,1.700675129890442,-0.5338805317878723,1.5846141576766968
1789323568291288300,1.345288330078125,1.9272994995117188,-0.5754181146621704,1.4630554914474487
1789323568310139400,1.364139404296875,1.4245721101760864,-1.6536399126052856,1.4581687450408936
1789323568338416000,1.392416015625,0.8270871639251709,-1.035386085510254,0.9486457705497742
1789323568366692900,1.42069287109375,1.276059865951538,-1.0848647356033325,0.7421793937683105
1789323568479799800,1.5337998046875,0.5045598149299622,-0.3793361485004425,-0.4074351191520691
1789323568498651100,1.552651123046875,-0.11667182296514511,-0.5858024954795837,-0.38483378291130066
1789323568517502200,1.571502197265625,-0.5448757410049438,-0.23151111602783203,-0.49295374751091003
1789323568536353500,1.590353515625,-0.9144383668899536,0.16859383881092072,-0.4453076422214508
1789323568555204600,1.60920458984375,-1.0060654878616333,0.6633801460266113,-0.4489727318286896
1789323568574055700,1.6280556640625,-1.0561549663543701,0.3035911023616791,-0.258999228477478
1789323568592907000,1.646906982421875,-0.9651386737823486,-0.09895725548267365,0.17836740612983704
1789323568611758000,1.665758056640625,-0.9529217481613159,-0.8661814332008362,0.4752391576766968
1789323568630609400,1.684609375,-1.3084348440170288,-0.684759795665741,0.5479300022125244
1789323568649460500,1.70346044921875,-2.1844661235809326,1.2131426334381104,0.024433890357613564
1789323568668311800,1.722311767578125,-2.153923749923706,1.6994534730911255,-0.042759306728839874
1789323568687163000,1.741162841796875,-2.127657413482666,1.5974419116973877,-0.2651077210903168
1789323568706014000,1.760013916015625,-2.0732920169830322,1.3463836908340454,-0.5943543910980225
1789323568724865300,1.778865234375,-2.0861196517944336,0.47585001587867737,-0.9376505613327026
1789323568743716400,1.79771630859375,-3.056145191192627,-0.11972606182098389,-1.3059914112091064
1789323568762567700,1.816567626953125,-3.284602165222168,-0.24617144465446472,-1.8643821477890015
1789323568781418800,1.835418701171875,-2.1178839206695557,-0.7470661997795105,-2.2614328861236572
1789323568809695500,1.863695556640625,-1.1123528480529785,-0.629172682762146,-1.9291319847106934
1789323568828546800,1.882546875,-0.8826742768287659,0.08429691940546036,-1.756262183189392
1789323568847398000,1.90139794921875,-1.4093009233474731,-0.08918370306491852,-1.119683027267456
1789323568866249200,1.920249267578125,-0.9541434049606323,0.015271181240677834,-0.9119949340820312
1789323568885100300,1.939100341796875,-0.026877280324697495,0.5876350402832031,-0.9547542929649353
1789323568903951600,1.95795166015625,0.7018635272979736,0.5705313682556152,-0.9547542929649353
1789323568922802700,1.976802734375,0.555260181427002,0.3689517378807068,-0.7763868570327759
1789323568941654000,1.995654052734375,0.11300674080848694,-0.1423274129629135,-0.27121618390083313
1789323568960505000,2.014505126953125,-0.40193748474121094,-0.7800519466400146,0.6151232123374939
1789323568979356400,2.0333564453125,-0.8105943202972412,-1.4532819986343384,1.0928057432174683
1789323569007633200,2.061633056640625,-1.3353121280670166,-0.23212195932865143,0.3115321099758148
1789323569035910000,2.089909912109375,-1.909584879875183,0.4953971207141876,0.6145123243331909
1789323569054761200,2.10876123046875,-1.927910327911377,0.9217684864997864,1.3102673292160034
1789323569083038000,2.137037841796875,-0.045202698558568954,1.530248761177063,1.8845402002334595
1789323569111314700,2.165314697265625,0.2217375487089157,0.577861487865448,1.178935170173645
1789323569130166000,2.184166015625,-0.0781884491443634,0.7281299233436584,0.5112791657447815
1789323569149017000,2.20301708984375,0.23273280262947083,0.7574505805969238,0.864959716796875
1789323569167868400,2.221868408203125,-0.5558710098266602,0.09895725548267365,1.26872980594635
1789323569186719500,2.240719482421875,-0.7018635272979736,0.5662553906440735,1.3182083368301392
1789323569205570800,2.25957080078125,-0.28404396772384644,0.2767138183116913,1.521696925163269
1789323569224422000,2.278421875,0.02504473738372326,-0.37200596928596497,1.5455199480056763
1789323569243273200,2.297273193359375,-0.1716480851173401,-0.7024743556976318,1.853997826576233
1789323569262124300,2.316124267578125,-0.14110571146011353,-0.8502993583679199,2.050079822540283
1789323569280975600,2.3349755859375,0.19241689145565033,-0.46546560525894165,2.1441502571105957
1789323569309252400,2.36325244140625,0.8063184022903442,-0.22540263831615448,1.9389055967330933
1789323569328103700,2.382103759765625,0.8612946271896362,0.1435490995645523,1.9199693202972412
1789323569346954800,2.400954833984375,0.6279509663581848,0.009773556143045425,2.269373893737793
1789323569365806000,2.41980615234375,0.4978405237197876,-0.7214106321334839,2.3310694694519043
1789323569384657400,2.438657470703125,0.53143709897995,-1.9242452383041382,1.9590635299682617
1789323569403508500,2.457508544921875,0.8441908955574036,-1.904698133468628,1.6438663005828857
1789323569422359800,2.47635986328125,1.0121738910675049,-0.9089407324790955,1.6933449506759644
1789323569441211000,2.4952109375,0.6969767212867737,-0.5796940326690674,1.4661097526550293
1789323569460062200,2.514062255859375,0.469741553068161,0.14721418917179108,0.5986303091049194
1789323569478913300,2.532913330078125,0.2626643180847168,0.43797749280929565,0.1044548824429512
1789323569497764600,2.5517646484375,0.15210096538066864,-0.02504473738372326,0.2858765125274658
1789323569516616000,2.570615966796875,0.23151111602783203,-0.09712471067905426,0.38910970091819763
1789323569535467000,2.589467041015625,0.10017894953489304,0.2095206081867218,0.1313321590423584
1789323569554318300,2.608318359375,-0.29381752014160156,0.3164188861846924,-0.046424392610788345
1789323569573169700,2.627169677734375,-0.314586341381073,0.17592400312423706,-0.36223241686820984
1789323569592020700,2.646020751953125,-0.5241069197654724,0.6383354067802429,-0.6377245187759399
1789323569610872000,2.6648720703125,-0.7708892226219177,0.8313631415367126,-0.9736905097961426
1789323569629723400,2.683723388671875,-0.9064973592758179,1.2479609251022339,-1.2748382091522217
1789323569648574500,2.702574462890625,-1.1490037441253662,1.2736165523529053,-1.5339138507843018
1789323569667425800,2.72142578125,-1.1563338041305542,1.0304993391036987,-1.6389795541763306
1789323569686277000,2.740277099609375,-1.1862653493881226,0.8545753359794617,-1.650585651397705
1789323569705128200,2.759128173828125,-1.5180318355560303,0.5913001298904419,-1.6328710317611694
1789323569723979500,2.7779794921875,-1.4459518194198608,0.30908870697021484,-1.780696153640747
1789323569742830600,2.79683056640625,-1.5901117324829102,0.3274141252040863,-1.877210021018982
1789323569761682000,2.815681884765625,-1.5888900756835938,-0.024433890357613564,-1.7128920555114746
1789323569780533200,2.834533203125,-1.4483952522277832,0.1178935244679451,-1.6994534730911255
1789323569799384300,2.85338427734375,-1.2864443063735962,-0.14110571146011353,-1.9560092687606812
1789323569818235600,2.872235595703125,-1.1483927965164185,-0.6016845703125,-2.0366411209106445
1789323569837087000,2.8910869140625,-0.9743013978004456,-0.6792621612548828,-2.171027421951294
1789323569855938300,2.909938232421875,-0.8423583507537842,-0.4080459773540497,-2.3237392902374268
1789323569874789400,2.928789306640625,-0.5625903010368347,-0.6786513328552246,-2.1233813762664795
1789323569893640700,2.947640625,-0.5851916670799255,-0.38605546951293945,-1.8808751106262207
1789323569912492000,2.966491943359375,-0.4837910234928131,-0.0910162404179573,-1.8045191764831543
1789323569931343000,2.985343017578125,-0.23151111602783203,-0.16004198789596558,-1.667689323425293
1789323569950194400,3.0041943359375,0.10628741979598999,-0.5216635465621948,-1.4661097526550293
1789323569969045800,3.023045654296875,0.5717530250549316,-0.5436540842056274,-1.155722975730896
1789323569987896800,3.041896728515625,0.7470661997795105,0.12155860662460327,-0.6951441764831543
1789323570006748200,3.060748046875,0.4868452548980713,-0.182643324136734,-0.14721418917179108
1789323570025599500,3.079599609375,0.38544461131095886,-0.09895725548267365,0.16248537600040436
1789323570044450800,3.098450927734375,0.28282228112220764,-0.13988402485847473,0.4220954477787018
1789323570063302000,3.117302001953125,0.27060532569885254,-0.182643324136734,0.7281299233436584
1789323570082153200,3.1361533203125,0.1716480851173401,0.15943112969398499,0.9052756428718567
1789323570101004500,3.155004638671875,0.1832541823387146,0.11178504675626755,1.115407109260559
1789323570119855900,3.17385595703125,0.22967857122421265,0.6572716236114502,1.273005723953247
1789323570138707000,3.19270703125,0.337798535823822,0.2596100866794586,1.258345365524292
1789323570157558300,3.211558349609375,0.2877090573310852,0.40987852215766907,1.248571753501892
1789323570176409600,3.23040966796875,0.22906772792339325,0.01038440316915512,1.4642772674560547
1789323570195261000,3.249260986328125,0.38666632771492004,0.21868331730365753,1.5180318355560303
1789323570214112000,3.268112060546875,0.4563029110431671,0.41293275356292725,1.492987036705017
1789323570232963300,3.28696337890625,0.4220954477787018,0.44103172421455383,1.549185037612915
1789323570251814700,3.305814697265625,0.3781144618988037,0.45141613483428955,1.6811280250549316
1789323570270666000,3.324666015625,0.4709632396697998,0.1704263836145401,1.6304277181625366
1789323570289517300,3.343517333984375,0.6157340407371521,-0.0659715011715889,1.6536399126052856
1789323570308368400,3.362368408203125,0.577861487865448,-0.05131116881966591,1.6640242338180542
1789323570327219700,3.3812197265625,0.5864133834838867,-0.39643988013267517,1.7403801679611206
1789323570346071000,3.400071044921875,0.6053496599197388,-0.3310792148113251,1.984719157218933
1789323570364922400,3.41892236328125,0.652384877204895,-0.5118899941444397,2.0415279865264893
1789323570383773700,3.437773681640625,0.8399149775505066,-0.4159869849681854,1.945624828338623
1789323570402624800,3.456624755859375,0.8710681796073914,-0.5980194807052612,1.9670045375823975
1789323570421476000,3.47547607421875,0.6120689511299133,-1.1300674676895142,1.8741557598114014
1789323570440327400,3.494327392578125,0.3414636254310608,-1.1648857593536377,1.6530290842056274
1789323570459178800,3.5131787109375,0.3243598937988281,-0.7934905886650085,1.4025816917419434
1789323570478030000,3.532030029296875,0.5210527181625366,-0.49112120270729065,1.5284161567687988
1789323570496881400,3.55088134765625,0.569309651851654,-0.7403468489646912,1.2113101482391357
1789323570515732500,3.569732421875,0.38544461131095886,-0.6053496599197388,0.8912261724472046
1789323570544009500,3.598009521484375,0.12094775587320328,0.09895725548267365,0.554649293422699
1789323570562860800,3.61686083984375,-0.03787253051996231,0.367730051279068,0.43981003761291504
1789323570581712100,3.635712158203125,-0.045202698558568954,0.6652126908302307,0.3573456406593323
1789323570600563500,3.6545634765625,0.17897824943065643,0.5344913601875305,0.1575985997915268
1789323570619414800,3.673414794921875,0.2241809368133545,0.3811686933040619,-0.33291175961494446
1789323570638266000,3.69226611328125,-0.03237490355968475,0.20157960057258606,-0.4587462842464447
1789323570657117200,3.7111171875,-0.284654825925827,0.237008735537529,-0.7171346545219421
1789323570675968500,3.729968505859375,-0.4202629029750824,0.42759308218955994,-1.0109522342681885
1789323570694819800,3.74881982421875,-0.6664343476295471,0.6963658928871155,-1.1911520957946777
1789323570713671200,3.767671142578125,-0.786160409450531,0.9309312105178833,-1.4227396249771118
1789323570732522500,3.7865224609375,-0.8759549856185913,0.9767447710037231,-1.6426446437835693
1789323570751373800,3.805373779296875,-0.9749122262001038,0.9064973592758179,-1.7403801679611206
1789323570770225200,3.82422509765625,-0.9822424054145813,0.7721109390258789,-1.821012020111084
1789323570789076500,3.843076416015625,-1.106244444847107,0.5222744345664978,-1.9059197902679443
1789323570807927600,3.861927490234375,-1.138619303703308,0.18814095854759216,-2.067183494567871
1789323570826779000,3.88077880859375,-1.3518813848495483,-0.028098974376916885,-1.9389055967330933
1789323570845630200,3.899630126953125,-1.4141877889633179,-0.42514967918395996,-1.9957143068313599
1789323570864481500,3.9184814453125,-1.2778924703598022,-0.24250635504722595,-2.0885632038116455
1789323570883332900,3.937332763671875,-1.245517611503601,-0.12888877093791962,-2.179579257965088
1789323570902184200,3.95618408203125,-1.109298586845398,-0.3029802441596985,-2.318241596221924
1789323570930461200,3.984461181640625,-0.9431481957435608,-0.27915719151496887,-2.3610010147094727
1789323570949312500,4.0033125,-0.6872031688690186,-0.53143709897995,-2.3115224838256836
1789323570968163800,4.022163818359375,-0.46729815006256104,-0.23945212364196777,-1.9382946491241455
1789323570987015200,4.04101513671875,-0.3243598937988281,-0.1850867122411728,-1.650585651397705
1789323571005866500,4.059866455078125,-0.16553960740566254,-0.45447036623954773,-1.3243168592453003
1789323571024717800,4.0787177734375,0.05008947476744652,-0.3029802441596985,-0.9144383668899536
1789323571043569200,4.097569091796875,0.3408527672290802,-0.1172826737165451,-0.43797749280929565
1789323571062420200,4.116420166015625,0.35795649886131287,-0.08979454636573792,0.16615045070648193
1789323571081271600,4.135271484375,0.4172086715698242,0.010995250195264816,0.6200099587440491
1789323571100123000,4.154122802734375,0.5766398310661316,0.3512371778488159,0.8906152844429016
1789323571118974200,4.17297412109375,0.6762079000473022,0.6340594291687012,1.0549331903457642
1789323571137825500,4.191825439453125,0.5076140761375427,-0.08796200156211853,1.3372210264205933
1789323571156676900,4.2106767578125,0.4355340898036957,0.44103172421455383,1.3476054668426514
1789323571175528200,4.229528076171875,0.3127537965774536,-0.1582094430923462,1.2888877391815186
1789323571194379500,4.248379638671875,0.1954711228609085,-0.25716668367385864,1.4679423570632935
1789323571213230800,4.26723095703125,0.16187451779842377,-0.22967857122421265,1.5962202548980713
1789323571232082200,4.286082275390625,0.2217375487089157,-0.04337015375494957,1.5638453960418701
1789323571250933500,4.30493359375,0.28160059452056885,0.010995250195264816,1.4435083866119385
1789323571269784800,4.323784912109375,0.33230090141296387,-0.05986303091049194,1.3243168592453003
1789323571288636200,4.34263623046875,0.5094466209411621,-0.23212195932865143,1.3793694972991943
1789323571307487500,4.361487548828125,0.7525638341903687,-0.42392799258232117,1.4771050214767456
1789323571326338800,4.3803388671875,0.9700254201889038,-0.5076140761375427,1.557736873626709
1789323571345190100,4.399190185546875,0.9578084945678711,-0.4593571424484253,1.5284161567687988
1789323571364041500,4.41804150390625,0.8472451567649841,-0.5412106513977051,1.4856568574905396
1789323571382892800,4.436892822265625,0.6560499668121338,-0.4337015450000763,1.3604332208633423
1789323571401744100,4.455744140625,0.6285618543624878,-0.7110261917114258,1.4679423570632935
1789323571420595500,4.474595458984375,0.8478559851646423,-0.6193991303443909,1.5595693588256836
1789323571439446800,4.49344677734375,0.869846522808075,-0.9327637553215027,1.5571260452270508
1789323571458298000,4.512298095703125,0.6713211536407471,-1.1697725057601929,1.6664676666259766
1789323571477149400,4.5311494140625,0.49295374751091003,-1.5748405456542969,1.7110595703125
1789323571496000800,4.550000732421875,0.6255075931549072,-1.1795459985733032,1.621264934539795
1789323571514852000,4.56885205078125,0.8539644479751587,-0.6725428104400635,1.525972843170166
1789323571533703400,4.587703369140625,0.9345963001251221,-0.896723747253418,1.2278029918670654
1789323571552554800,4.6065546875,0.49173203110694885,-0.5118899941444397,0.999346137046814
1789323571571406000,4.625406005859375,0.31886225938796997,0.12644538283348083,0.5998520255088806
1789323571590257400,4.64425732421875,0.3255815804004669,0.3426853120326996,0.5705313682556152
1789323571609108700,4.663108642578125,0.44042086601257324,-0.054365407675504684,0.47585001587867737
1789323571627960000,4.6819599609375,0.53143709897995,0.36101073026657104,0.18569757044315338
1789323571646811600,4.700811767578125,0.2620534598827362,0.367730051279068,-0.18569757044315338
1789323571665662700,4.719662841796875,0.0922379344701767,0.37506023049354553,-0.6395570635795593
1789323571684514300,4.738514404296875,-0.02626643143594265,0.6859814524650574,-0.8741224408149719
1789323571703365600,4.75736572265625,-0.1582094430923462,1.0335536003112793,-0.9675820469856262
1789323571722217000,4.776217041015625,-0.23212195932865143,1.0005677938461304,-1.2155860662460327
1789323571741068300,4.795068359375,-0.39888325333595276,0.8619054555892944,-1.507036566734314
1789323571759919600,4.813919677734375,-0.6114581227302551,1.0201148986816406,-1.654861569404602
1789323571778771000,4.83277099609375,-0.8759549856185913,1.0750911235809326,-1.829563856124878
1789323571797622300,4.851622314453125,-0.9590302109718323,1.060430884361267,-1.8973679542541504
1789323571816473600,4.8704736328125,-0.869235634803772,0.6908682584762573,-2.0922281742095947
1789323571835325000,4.889324951171875,-1.1697725057601929,0.41110020875930786,-2.0421388149261475
1789323571854176300,4.90817626953125,-1.4966521263122559,0.21868331730365753,-1.9572309255599976
1789323571873027600,4.927027587890625,-1.3512704372406006,0.31947311758995056,-2.153312921524048
1789323571891879000,4.94587890625,-1.096470832824707,0.12644538283348083,-2.3084681034088135
1789323571910730500,4.96473046875,-0.7342383861541748,-0.46424391865730286,-2.3206851482391357
1789323571929581800,4.983581787109375,-0.652384877204895,-0.5851916670799255,-2.478283643722534
1789323571948433200,5.00243310546875,-0.6065713167190552,-0.47829338908195496,-2.634049654006958
1789323571967284500,5.021284423828125,-0.4862344264984131,-0.393385648727417,-2.313354969024658
1789323571986135800,5.0401357421875,-0.6542174220085144,-0.061084724962711334,-2.0366411209106445
1789323572004987100,5.058987060546875,-0.5412106513977051,-0.18936264514923096,-1.7721441984176636
1789323572033264000,5.08726416015625,0.1716480851173401,-0.4831801950931549,-1.298661231994629
1789323572052115500,5.106115478515625,0.517998456954956,0.11667182296514511,-1.2039799690246582
1789323572070966800,5.124966796875,0.37689274549484253,-0.21685077250003815,-0.8441908955574036
1789323572089818400,5.143818359375,0.046424392610788345,-0.3817795515060425,-0.3439069986343384
1789323572108669700,5.162669677734375,0.15454435348510742,-0.10873081535100937,0.08857285231351852
1789323572127521000,5.18152099609375,0.43736663460731506,-0.2620534598827362,0.4813476502895355
1789323572146372400,5.200372314453125,0.6328377723693848,-0.6212316751480103,0.7824953198432922
1789323572165223700,5.2192236328125,0.6658235192298889,-0.04886778071522713,0.9095515608787537
1789323572184075000,5.238074951171875,0.7232431769371033,0.4575245976448059,1.037218689918518
1789323572202926300,5.25692626953125,0.6560499668121338,0.5192201733589172,1.1575555801391602
1789323572221777700,5.275777587890625,0.47646087408065796,0.4569137394428253,1.0708152055740356
1789323572240629200,5.294629150390625,0.23212195932865143,-0.30969956517219543,1.3671525716781616
1789323572259480600,5.31348046875,0.31825143098831177,-0.4080459773540497,1.6237083673477173
1789323572278332000,5.332331787109375,0.4343124032020569,-0.04031591862440109,1.623097538948059
1789323572297183200,5.351183349609375,0.37200596928596497,0.5357130169868469,1.391586422920227
1789323572316034600,5.37003466796875,0.07207997888326645,0.6426113247871399,1.4581687450408936
1789323572334886000,5.388885986328125,-0.08246438205242157,0.42881476879119873,1.7965781688690186
1789323572353737200,5.4077373046875,0.5143333673477173,-0.2901524603366852,2.0390844345092773
1789323572372588800,5.4265888671875,1.3029371500015259,-0.06902574002742767,1.8747665882110596
1789323572391440100,5.445440185546875,1.4038033485412598,-0.05131116881966591,1.6652460098266602
1789323572410291500,5.46429150390625,0.8667922616004944,-0.30481278896331787,1.6860147714614868
1789323572429142800,5.483142822265625,0.5485408306121826,-0.7024743556976318,1.8509435653686523
1789323572447994000,5.501994140625,0.5351021885871887,-0.5198310017585754,1.7220547199249268
1789323572466845400,5.520845458984375,0.7244648337364197,-0.2852656841278076,1.7000643014907837
1789323572485697000,5.539697021484375,0.7965448498725891,-0.8961129188537598,1.9541767835617065
1789323572504548400,5.55854833984375,0.6762079000473022,-1.6933449506759644,2.0794005393981934
1789323572523399700,5.577399658203125,0.6340594291687012,-1.7477103471755981,1.7018967866897583
1789323572542251000,5.5962509765625,0.6132906675338745,-0.5644228458404541,1.2754490375518799
1789323572561102300,5.615102294921875,0.4605788290500641,-0.43797749280929565,1.2015365362167358
1789323572579954000,5.633953857421875,0.3561239540576935,-0.3426853120326996,0.8478559851646423
1789323572598805200,5.65280517578125,0.237008735537529,0.02504473738372326,0.46851983666419983
1789323572617656600,5.671656494140625,0.13988402485847473,0.2993151545524597,0.5021164417266846
1789323572636508000,5.6905078125,0.15515519678592682,0.07024743407964706,0.27915719151496887
1789323572655359200,5.709359130859375,0.12216944992542267,0.04031591862440109,-0.08979454636573792
1789323572674210800,5.7282109375,-0.06352811306715012,0.25655585527420044,-0.21623992919921875
1789323572693062100,5.747062255859375,-0.13621893525123596,0.19241689145565033,-0.4306473135948181
1789323572711913500,5.76591357421875,-0.22479179501533508,0.6365028619766235,-0.7977665066719055
1789323572730764800,5.784764892578125,-0.3665083646774292,1.0164498090744019,-0.939483106136322
1789323572749616400,5.803616455078125,-0.4856235682964325,1.0763128995895386,-1.1850436925888062
1789323572768467700,5.8224677734375,-0.5974085927009583,0.9785773158073425,-1.3610440492630005
1789323572787319000,5.841319091796875,-0.7971556782722473,0.836860716342926,-1.4306806325912476
1789323572806170400,5.86017041015625,-0.9284878373146057,1.003622055053711,-1.621264934539795
1789323572825021700,5.879021728515625,-1.0195040702819824,1.0488247871398926,-1.7544296979904175
1789323572843873300,5.897873291015625,-1.1013575792312622,0.7415685653686523,-1.7208330631256104
1789323572862724600,5.916724609375,-1.296217918395996,0.4355340898036957,-1.7544296979904175
1789323572881576000,5.935575927734375,-1.3744826316833496,0.12216944992542267,-2.006709575653076
1789323572900427300,5.95442724609375,-1.2381874322891235,0.1325538605451584,-2.1698057651519775
1789323572919278600,5.973278564453125,-1.2290246486663818,-0.005497625097632408,-2.156367063522339
1789323572938130200,5.992130126953125,-1.1508362293243408,-0.26816195249557495,-2.197293996810913
1789323572956981500,6.0109814453125,-1.0146173238754272,-0.2510582208633423,-2.3811590671539307
1789323572975832800,6.029832763671875,-0.7574505805969238,-0.5638120174407959,-2.4074254035949707
1789323572994684200,6.04868408203125,-0.5088357925415039,-0.36162158846855164,-2.2394423484802246
1789323573013535700,6.06753564453125,-0.3384093940258026,-0.42881476879119873,-2.0561883449554443
1789323573032387000,6.086386962890625,-0.1973036676645279,-0.37078428268432617,-1.8326181173324585
1789323573051238400,6.10523828125,-0.13377554714679718,-0.36223241686820984,-1.4771050214767456
1789323573070090000,6.124090087890625,0.011606098152697086,-0.30603447556495667,-1.161220669746399
1789323573088941300,6.14294140625,0.1172826737165451,-0.25777754187583923,-0.7678350210189819
1789323573107792600,6.161792724609375,0.17714570462703705,-0.3280249834060669,-0.31886225938796997
1789323573126644000,6.18064404296875,0.3176405727863312,-0.3042019307613373,0.0794101431965828
1789323573145495600,6.19949560546875,0.45202696323394775,0.02504473738372326,0.42392799258232117
1789323573164347000,6.218346923828125,0.4159869849681854,0.34451785683631897,0.7482879161834717
1789323573183198200,6.2371982421875,0.3927747905254364,0.28343313932418823,0.8484668135643005
1789323573202049500,6.256049560546875,0.3640649616718292,0.3408527672290802,0.994459331035614
1789323573220901000,6.274901123046875,0.25533416867256165,0.37322768568992615,1.2278029918670654
1789323573239752400,6.29375244140625,0.24372805655002594,-0.012216945178806782,1.2913310527801514
1789323573258603800,6.312603759765625,0.2919849753379822,0.05131116881966591,1.252847671508789
1789323573277455000,6.331455078125,0.1960819661617279,0.1044548824429512,1.2699514627456665
1789323573296306700,6.350306640625,0.19119518995285034,0.05131116881966591,1.368374228477478
1789323573315158000,6.369157958984375,0.27121618390083313,0.1557660549879074,1.5473524332046509
1789323573334009300,6.38800927734375,0.5167768001556396,0.2504473626613617,1.5045931339263916
1789323573352861000,6.40686083984375,0.7348492741584778,0.0910162404179573,1.3616548776626587
1789323573371712300,6.425712158203125,0.8551861643791199,-0.2718270421028137,1.4954304695129395
1789323573390563600,6.4445634765625,0.8674030900001526,-0.5839699506759644,1.5559042692184448
1789323573409415200,6.463415283203125,0.8112051486968994,-0.3402419090270996,1.4209071397781372
1789323573428266500,6.4822666015625,0.6774296164512634,-0.13560809195041656,1.3866996765136719
1789323573447117800,6.501117919921875,0.5949652194976807,-0.42576053738594055,1.644477128982544
1789323573465969400,6.519969482421875,0.8313631415367126,-0.92054682970047,1.8087950944900513
1789323573484820700,6.53882080078125,0.8680139780044556,-0.5839699506759644,1.8912594318389893
1789323573503672000,6.557672119140625,0.6823163628578186,-0.9657495021820068,2.035419464111328
1789323573522523400,6.5765234375,0.45508119463920593,-1.8869835138320923,2.301748752593994
1789323573541375000,6.595375,0.49173203110694885,-1.6786845922470093,1.8637713193893433
1789323573560226300,6.614226318359375,0.712247908115387,-0.37322768568992615,1.4257938861846924
1789323573579077600,6.63307763671875,0.5222744345664978,-0.5644228458404541,1.6194324493408203
1789323573597929200,6.65192919921875,0.5607577562332153,-0.527161180973053,1.2345223426818848
1789323573616780500,6.670780517578125,0.6096255779266357,-0.08612946420907974,0.8991671800613403
1789323573635631900,6.6896318359375,0.4874561131000519,-0.26632940769195557,0.7788302302360535
1789323573654483500,6.7084833984375,0.4727957844734192,-0.47707170248031616,0.4862344264984131
1789323573673334800,6.727334716796875,0.3042019307613373,-0.2480039894580841,0.20646637678146362
1789323573692186000,6.74618603515625,0.06841489672660828,0.16370706260204315,-0.02870982140302658
1789323573711037700,6.76503759765625,-0.1429382562637329,0.6713211536407471,-0.4593571424484253
1789323573729889000,6.783888916015625,-0.11178504675626755,1.1086877584457397,-0.7983773946762085
1789323573748740600,6.80274072265625,0.04947862774133682,1.054322361946106,-1.1331216096878052
1789323573767592000,6.821592041015625,-0.011606098152697086,0.9229902029037476,-1.4184637069702148
1789323573786443300,6.840443359375,-0.2602209448814392,0.5222744345664978,-1.543076515197754
1789323573805294600,6.859294677734375,-0.5882459282875061,0.7262973785400391,-1.6670784950256348
1789323573824146200,6.878146240234375,-0.8661814332008362,0.629172682762146,-1.8332289457321167
1789323573842997500,6.89699755859375,-1.0146173238754272,0.7977665066719055,-2.0024337768554688
1789323573861849000,6.91584912109375,-1.2015365362167358,0.6884248852729797,-2.0739028453826904
1789323573880700400,6.934700439453125,-1.1935955286026,0.9107732772827148,-2.180190324783325
1789323573899551700,6.9535517578125,-1.1312891244888306,0.9743013978004456,-2.3781046867370605
1789323573918403000,6.972403076171875,-1.100746750831604,0.29748260974884033,-2.3048031330108643
1789323573937254700,6.991254638671875,-1.109298586845398,-0.10262233763933182,-2.346951484680176
1789323573956106000,7.01010595703125,-1.0286667346954346,-0.3946073353290558,-2.434302568435669
1789323573974957600,7.02895751953125,-0.9443698525428772,-0.18630841374397278,-2.3322911262512207
1789323573993809000,7.047808837890625,-0.80937260389328,-0.2608317732810974,-2.2938077449798584
1789323574012660200,7.06666015625,-0.6041279435157776,-0.3298575282096863,-2.3432865142822266
1789323574031511800,7.08551171875,-0.4074351191520691,-0.652384877204895,-2.2504377365112305
1789323574050363100,7.104363037109375,-0.16676130890846252,-0.7617265582084656,-1.9474574327468872
1789323574069214500,7.12321435546875,0.25655585527420044,-0.11117420345544815,-1.6841822862625122
1789323574088066000,7.142066162109375,0.5357130169868469,0.045202698558568954,-1.3334795236587524
1789323574106917400,7.16091748046875,0.517998456954956,0.014660334214568138,-0.7745543122291565
1789323574125768700,7.179768798828125,0.3573456406593323,0.04092676565051079,-0.1710372269153595
1789323574144620300,7.198620361328125,0.2779355049133301,-0.3536805510520935,0.30786702036857605
1789323574163471600,7.2174716796875,0.37322768568992615,0.023212196305394173,0.5088357925415039
1789323574182323200,7.2363232421875,0.3811686933040619,-0.0012216945178806782,0.7293516397476196
1789323574201174500,7.255174560546875,0.38605546951293945,0.39949411153793335,0.9400939345359802
1789323574220025900,7.27402587890625,0.34940463304519653,0.3530697226524353,1.1453386545181274
1789323574238877400,7.29287744140625,0.33596599102020264,0.6303943991661072,1.1905412673950195
1789323574257728800,7.311728759765625,0.37567105889320374,0.42453885078430176,1.0866972208023071
1789323574276580400,7.330580322265625,0.28098973631858826,0.0647498071193695,1.0366077423095703
1789323574295431700,7.349431640625,0.25594499707221985,-0.13499724864959717,1.2870551347732544
1789323574314283000,7.368282958984375,0.3799470067024231,-0.021990500390529633,1.4581687450408936
1789323574333134600,7.387134521484375,0.41537612676620483,0.25777754187583923,1.4013599157333374
1789323574351986000,7.40598583984375,0.25289076566696167,0.2877090573310852,1.3592115640640259
1789323574370837200,7.424837158203125,0.17470231652259827,0.30603447556495667,1.5210859775543213
1789323574389688800,7.443688720703125,0.46424391865730286,-0.12216944992542267,1.576673150062561
1789323574408540200,7.4625400390625,0.8594620823860168,-0.28098973631858826,1.572397232055664
1789323574427391700,7.481391845703125,0.9278770089149475,-0.3518480062484741,1.5473524332046509
1789323574446243000,7.5002431640625,0.786771297454834,-0.265718549489975,1.557736873626709
1789323574465094400,7.519094482421875,0.6810947060585022,-0.38605546951293945,1.7800853252410889
1789323574483946000,7.537946044921875,0.786160409450531,-0.49417543411254883,1.9230235815048218
1789323574502797300,7.55679736328125,0.9517000317573547,-0.809983491897583,1.8411699533462524
1789323574521649000,7.57564892578125,0.9040539264678955,-0.9327637553215027,1.797799825668335
1789323574540500200,7.594500244140625,0.6132906675338745,-1.2699514627456665,1.7025076150894165
1789323574559351800,7.613351806640625,0.4043808877468109,-0.9064973592758179,1.6059937477111816
1789323574578203100,7.632203125,0.6346703171730042,-0.7342383861541748,1.709837794303894
1789323574597054500,7.651054443359375,0.7702783942222595,-0.5357130169868469,1.405635952949524
1789323574615906000,7.669906005859375,0.5430431962013245,-0.4367557764053345,0.9193251132965088
1789323574634757400,7.68875732421875,0.33718767762184143,-0.007330167107284069,0.8130376935005188
1789323574653608700,7.707608642578125,0.2516690790653229,0.04947862774133682,0.7250757217407227
1789323574672460300,7.726460205078125,0.2602209448814392,0.20341213047504425,0.3414636254310608
1789323574691311600,7.7453115234375,0.1056765764951706,0.2993151545524597,0.017714571207761765
1789323574710163200,7.7641630859375,-0.10017894953489304,0.7898254990577698,-0.33596599102020264
1789323574729014500,7.7830146484375,-0.2351761907339096,1.1209046840667725,-0.652384877204895
1789323574747866000,7.8018662109375,-0.33596599102020264,1.0714260339736938,-0.8869501948356628
1789323574766717400,7.820717529296875,-0.3054236173629761,0.8448017835617065,-1.2100883722305298
1789323574785568800,7.83956884765625,-0.5100574493408203,0.7110261917114258,-1.428848147392273
1789323574804420400,7.85842041015625,-0.9107732772827148,0.5033381581306458,-1.6573050022125244
1789323574823271700,7.877271728515625,-1.1685508489608765,0.6762079000473022,-1.793523907661438
1789323574842123300,7.896123291015625,-1.3738718032836914,0.8014315962791443,-1.7904696464538574
1789323574860974600,7.914974609375,-1.456336259841919,0.8777875304222107,-1.7293848991394043
1789323574879826200,7.933826171875,-1.437399983406067,0.9895725846290588,-1.7367150783538818
1789323574898677500,7.952677490234375,-1.2974395751953125,1.060430884361267,-1.92363440990448
1789323574917529000,7.971529052734375,-1.2302464246749878,0.569309651851654,-1.9352405071258545
1789323574936380400,7.99038037109375,-1.3414969444274902,0.04459185153245926,-1.9437923431396484
1789323574955231700,8.009231689453125,-1.4435083866119385,-0.18753011524677277,-2.0476362705230713
1789323574974083300,8.028083251953126,-1.3653199672698975,-0.21990501880645752,-2.26693058013916
1789323574992934700,8.0469345703125,-1.0970816612243652,-0.49295374751091003,-2.356724977493286
1789323575011786200,8.0657861328125,-0.7727217674255371,-0.3897205591201782,-2.3512275218963623
1789323575049489200,8.1034892578125,-0.25411245226860046,-0.011606098152697086,-2.1624755859375
1789323575077766100,8.13176611328125,-0.0916270911693573,0.21379654109477997,-1.2638429403305054
1789323575096617700,8.15061767578125,-0.028098974376916885,0.13927318155765533,-0.7922688722610474
1789323575115469000,8.169468994140624,-0.02870982140302658,0.15149012207984924,-0.37567105889320374
1789323575134320400,8.1883203125,0.05925218388438225,0.23028941452503204,-0.022601349279284477
1789323575153172000,8.207171875,0.29259583353996277,0.07146912813186646,0.2504473626613617
1789323575172023300,8.226023193359374,0.53143709897995,-0.29503923654556274,0.4966188073158264
1789323575190875000,8.244875,0.48989951610565186,-0.2522799074649811,0.8105943202972412
1789323575209726200,8.263726318359375,0.5033381581306458,0.1423274129629135,1.014006495475769
1789323575228577800,8.282577880859375,0.38910970091819763,0.20524467527866364,1.0989142656326294
1789323575247429000,8.30142919921875,0.21318569779396057,0.363454133272171,1.1581664085388184
1789323575266280700,8.32028076171875,0.03176405653357506,0.4428642690181732,1.235133171081543
1789323575285132000,8.339132080078125,-0.05070032179355621,-0.08246438205242157,1.2607887983322144
1789323575303983400,8.3579833984375,0.0024433890357613564,-0.08918370306491852,1.3200409412384033
1789323575322835000,8.3768349609375,0.13927318155765533,0.0653606578707695,1.414798617362976
1789323575341686300,8.395686279296875,0.3268032968044281,0.38666632771492004,1.6072155237197876
1789323575360537900,8.414537841796875,0.48989951610565186,0.33169007301330566,1.715335488319397
1789323575379389200,8.43338916015625,0.6664343476295471,0.10078980028629303,1.8185685873031616
1789323575398240800,8.45224072265625,0.8167027831077576,0.05864133685827255,1.780696153640747
1789323575417092000,8.471092041015625,0.9547542929649353,-0.0787992998957634,1.803908348083496
1789323575435943700,8.489943603515625,1.0231691598892212,-0.32191649079322815,1.8985896110534668
1789323575454795000,8.508794921875,0.883895993232727,-0.24556060135364532,2.020148277282715
1789323575473646300,8.527646240234375,0.7452336549758911,-0.6963658928871155,2.1325440406799316
1789323575492498000,8.546497802734375,0.7379034757614136,-0.5558710098266602,2.2418859004974365
1789323575511349200,8.565349365234376,0.6035171151161194,-0.7275190949440002,2.0629074573516846
1789323575530200800,8.584200927734376,0.43981003761291504,-0.7941014170646667,1.8625496625900269
1789323575549052200,8.60305224609375,0.29687178134918213,-1.1202938556671143,1.8784316778182983
1789323575567903700,8.62190380859375,0.4679090082645416,-0.9675820469856262,1.627373456954956
1789323575586755000,8.640755126953126,0.5577035546302795,-0.8319739699363708,1.3200409412384033
1789323575605606700,8.659606689453126,0.43736663460731506,-0.5399889945983887,1.0121738910675049
1789323575624458000,8.6784580078125,0.19119518995285034,-0.6041279435157776,0.9419264793395996
1789323575643309600,8.6973095703125,0.1172826737165451,-0.36162158846855164,0.629172682762146
1789323575662161000,8.716160888671874,-0.0781884491443634,0.1325538605451584,0.42331716418266296
1789323575681012500,8.735012451171874,-0.12400199472904205,0.36223241686820984,0.05925218388438225
1789323575699863800,8.75386376953125,-0.08674030750989914,0.6896465420722961,-0.2907632887363434
1789323575718715100,8.772715087890624,-0.0018325417768210173,0.4886777997016907,-0.7171346545219421
1789323575737566700,8.791566650390624,0.04886778071522713,0.5528167486190796,-0.9852966070175171
1789323575756418000,8.81041796875,-0.17348061501979828,0.2907632887363434,-1.26872980594635
1789323575775269600,8.82926953125,-0.5558710098266602,0.7476770281791687,-1.3653199672698975
1789323575794121000,8.848120849609375,-0.8643488883972168,0.8900044560432434,-1.4477843046188354
1789323575812972500,8.86697265625,-0.9571976661682129,0.9309312105178833,-1.6774629354476929
1789323575831824000,8.885823974609375,-1.0524898767471313,0.5357130169868469,-1.7819178104400635
1789323575850675500,8.904675537109375,-1.2125318050384521,0.9663603901863098,-1.867436408996582
1789323575869526800,8.92352685546875,-1.2846118211746216,1.0469921827316284,-2.1924071311950684
1789323575888378400,8.94237841796875,-1.2082558870315552,0.7342383861541748,-2.23760986328125
1789323575907229700,8.961229736328125,-1.3708176612854004,0.2113531529903412,-1.992049217224121
1789323575926081300,8.980081298828125,-1.332257866859436,-0.18814095854759216,-2.0482470989227295
1789323575944932600,8.9989326171875,-1.3212625980377197,-0.10201149433851242,-2.219895362854004
1789323575963784000,9.017783935546875,-1.1667182445526123,-0.24006296694278717,-2.4434654712677
1789323575982635500,9.036635498046875,-0.9743013978004456,-0.34451785683631897,-2.304192304611206
1789323576001486800,9.05548681640625,-0.8997780084609985,-0.36284327507019043,-2.2736499309539795
1789323576020338400,9.07433837890625,-0.6297835111618042,-0.3701734244823456,-2.356114149093628
1789323576039189800,9.093189697265625,-0.37444937229156494,-0.19913621246814728,-1.98899507522583
1789323576058041300,9.112041259765626,-0.2235700935125351,0.0012216945178806782,-1.5632344484329224
1789323576076892700,9.130892578125,-0.04886778071522713,-0.1423274129629135,-1.1086877584457397
1789323576095744300,9.149744140625,0.03665083646774292,-0.40987852215766907,-0.6279509663581848
1789323576114595600,9.168595703125,0.13744063675403595,-0.1185043677687645,-0.2638860046863556
1789323576133447200,9.187447265625,0.3671191930770874,0.023212196305394173,0.11300674080848694
1789323576152298500,9.206298583984376,0.5344913601875305,0.12705622613430023,0.5381564497947693
1789323576171149800,9.22514990234375,0.5540384650230408,-0.07635590434074402,0.8264763355255127
1789323576190001400,9.24400146484375,0.7495095729827881,0.2596100866794586,1.1447277069091797
1789323576208852700,9.262852783203124,0.7928797602653503,0.17225892841815948,1.4716074466705322
1789323576227704300,9.281704345703124,0.6908682584762573,-0.11972606182098389,1.6640242338180542
1789323576246555600,9.3005556640625,0.5491516590118408,-0.182643324136734,1.5589585304260254
1789323576265407200,9.3194072265625,0.37261682748794556,-0.1563768982887268,1.2748382091522217
1789323576284258600,9.338258544921874,0.1325538605451584,-0.14110571146011353,1.0622633695602417
1789323576303110100,9.357110107421875,-0.07757759839296341,-0.06047387793660164,1.0891406536102295
1789323576321961500,9.37596142578125,-0.10078980028629303,-0.1973036676645279,1.184432864189148
1789323576340813000,9.39481298828125,0.1172826737165451,-0.05008947476744652,1.245517611503601
1789323576359664400,9.413664306640625,0.3830012381076813,-0.07696675509214401,1.2589561939239502
1789323576378515700,9.432515625,0.6285618543624878,-0.3646758198738098,1.2571237087249756
1789323576397367300,9.4513671875,0.8771766424179077,-0.6004628539085388,1.383034586906433
1789323576416218600,9.470218505859375,1.0628741979599,-0.6108472347259521,1.5791164636611938
1789323576435070200,9.4890703125,1.1777135133743286,-0.9596410393714905,1.825287938117981
1789323576453921500,9.507921630859375,1.2137534618377686,-0.6572716236114502,2.003655433654785
1789323576472773000,9.526773193359375,1.1893196105957031,-0.6646018028259277,2.0427496433258057
1789323576491624400,9.54562451171875,1.1233481168746948,-0.3823903799057007,1.9944926500320435
1789323576510476000,9.56447607421875,0.8038749694824219,-1.0207257270812988,2.061685800552368
1789323576529327400,9.583327392578125,0.5210527181625366,-0.8985562920570374,1.9395164251327515
1789323576548179000,9.602178955078125,0.5149442553520203,-0.29687178134918213,1.6542507410049438
1789323576567030300,9.6210302734375,0.7091936469078064,0.08063183724880219,1.6292059421539307
1789323576585881900,9.6398818359375,0.5790832042694092,-0.037261683493852615,1.2375766038894653
1789323576604733200,9.658733154296876,0.38727715611457825,0.07024743407964706,0.5106683373451233
1789323576623584500,9.67758447265625,0.22662433981895447,0.5888567566871643,0.48073679208755493
1789323576642436000,9.69643603515625,0.22784602642059326,0.31825143098831177,0.19363857805728912
1789323576661287400,9.715287353515626,0.38849884271621704,0.20035789906978607,-0.21501824259757996
1789323576680139000,9.734138916015626,0.3115321099758148,-0.34818294644355774,-0.5509842038154602
1789323576698990300,9.752990234375,0.051922015845775604,-0.3042019307613373,-0.6963658928871155
1789323576717842000,9.771842041015624,-0.17470231652259827,-0.4043808877468109,-0.869235634803772
1789323576736693200,9.790693359375,-0.4953971207141876,0.3701734244823456,-1.0433270931243896
1789323576755544600,9.809544677734374,-0.684148907661438,0.5344913601875305,-0.9816315174102783
1789323576774396200,9.828396240234374,-0.7501204609870911,1.0757020711898804,-1.0873081684112549
1789323576793247700,9.847247802734374,-0.9064973592758179,1.235133171081543,-1.4471734762191772
1789323576812099000,9.86609912109375,-1.110520362854004,1.6884582042694092,-1.4630554914474487
1789323576830950400,9.884950439453124,-1.276059865951538,2.09039568901062,-1.5650670528411865
1789323576849802000,9.903802001953125,-1.5632344484329224,1.4215179681777954,-1.7855829000473022
1789323576868653300,9.9226533203125,-1.7593164443969727,0.9761339426040649,-1.9254668951034546
1789323576887505000,9.9415048828125,-1.9505116939544678,0.3793361485004425,-2.145371913909912
1789323576906356200,9.960356201171875,-1.993270993232727,0.09407047927379608,-2.3109116554260254
1789323576925207800,9.979207763671875,-1.7293848991394043,-0.0397050715982914,-2.2095108032226562
1789323576944059100,9.99805908203125,-1.3096565008163452,-0.05925218388438225,-2.179579257965088
1789323576962910500,10.016910400390625,-1.0665392875671387,-0.29442837834358215,-2.112997055053711
1789323576981762000,10.035761962890625,-0.8704573512077332,-0.8301414251327515,-2.009152889251709
1789323577000613400,10.05461328125,-0.5399889945983887,-0.5076140761375427,-2.023202419281006
1789323577019465000,10.07346484375,-0.34451785683631897,-0.12888877093791962,-1.8784316778182983
1789323577038316300,10.09231640625,-0.16187451779842377,-0.2993151545524597,-1.562012791633606
1789323577057168000,10.11116796875,0.0653606578707695,-0.20035789906978607,-1.0854755640029907
1789323577076019200,10.130019287109375,0.2473931461572647,-0.09468132257461548,-0.44042086601257324
1789323577094870500,10.14887060546875,0.5992411375045776,0.6474980711936951,0.017714571207761765
1789323577113722000,10.16772216796875,0.49173203110694885,0.18142163753509521,0.261442631483078
1789323577132573400,10.186573486328125,0.4068242609500885,0.2858765125274658,0.43736663460731506
1789323577151425000,10.205425048828126,0.314586341381073,0.19363857805728912,0.7104153633117676
1789323577170276400,10.2242763671875,0.16187451779842377,0.19180603325366974,1.1373976469039917
1789323577189128000,10.2431279296875,0.047646086663007736,0.06841489672660828,1.2174185514450073
1789323577207979300,10.261979248046876,-0.11300674080848694,0.10384403169155121,1.178935170173645
1789323577226830800,10.280830810546876,-0.1569877415895462,-0.16553960740566254,1.1868761777877808
1789323577245682200,10.29968212890625,-0.04459185153245926,-0.02076880633831024,1.281557559967041
1789323577264533500,10.318533447265626,0.03420744836330414,-0.22662433981895447,1.446562647819519
1789323577283385000,10.337385009765624,0.25533416867256165,-0.4031592011451721,1.668911099433899
1789323577302236400,10.356236328125,0.5106683373451233,-0.0018325417768210173,1.8576629161834717
1789323577330513700,10.384513671875,0.8118160367012024,-0.38788801431655884,1.9718912839889526
1789323577349365000,10.403364990234374,0.8551861643791199,-0.2718270421028137,1.9663937091827393
1789323577368216600,10.422216552734374,0.8612946271896362,-0.6157340407371521,1.8491109609603882
1789323577387068000,10.44106787109375,0.8900044560432434,-0.02993151545524597,1.7416019439697266
1789323577405919500,10.45991943359375,0.8002098798751831,-0.2980934679508209,1.7984106540679932
1789323577424770800,10.478770751953125,0.7537854909896851,-0.4746283292770386,2.0366411209106445
1789323577443622100,10.4976220703125,0.9657495021820068,-0.6114581227302551,2.1056668758392334
1789323577462473700,10.5164736328125,0.9083298444747925,-0.9614735841751099,1.982886552810669
1789323577481325000,10.535324951171875,0.6279509663581848,-1.8839292526245117,1.7000643014907837
1789323577500176600,10.5541767578125,0.5754181146621704,-1.2931636571884155,1.364098310470581
1789323577519028000,10.573028076171875,0.7507312893867493,-0.6413896083831787,1.3108782768249512
1789323577537879600,10.591879638671875,0.883895993232727,-0.5925218462944031,1.2375766038894653
1789323577556731000,10.61073095703125,1.1044118404388428,-1.1942063570022583,0.7788302302360535
1789323577575582200,10.629582275390625,0.9547542929649353,-0.7702783942222595,0.4068242609500885
1789323577594433800,10.648433837890625,0.731184184551239,-0.9022213816642761,0.25594499707221985
1789323577613285000,10.66728515625,0.29259583353996277,-0.21807247400283813,0.20157960057258606
1789323577632136700,10.68613671875,-0.05619794875383377,0.26877278089523315,0.014660334214568138
1789323577650988000,10.704988037109375,-0.047646086663007736,1.0317209959030151,0.0036650835536420345
1789323577669839600,10.723839599609375,0.11911521852016449,0.5943543910980225,-0.6407787799835205
1789323577688691000,10.74269091796875,0.29748260974884033,1.0909732580184937,-1.1935955286026
1789323577707542300,10.761542236328125,0.03237490355968475,1.1172395944595337,-1.3151541948318481
1789323577726393900,10.780393798828126,-0.17409147322177887,1.0653176307678223,-1.5107016563415527
1789323577745245200,10.7992451171875,-0.4453076422214508,0.7598940134048462,-1.7171679735183716
1789323577764096800,10.8180966796875,-0.6792621612548828,0.5558710098266602,-1.8087950944900513
1789323577782948000,10.836947998046876,-0.8906152844429016,1.100746750831604,-1.844224214553833
1789323577801799400,10.85579931640625,-1.0250016450881958,1.0695935487747192,-2.023813247680664
1789323577820651000,10.874651123046876,-1.1190721988677979,1.0744802951812744,-2.174081802368164
1789323577839502300,10.89350244140625,-1.175881028175354,0.41232189536094666,-2.136820077896118
1789323577858354000,10.91235400390625,-1.3163758516311646,0.5015056133270264,-2.1875205039978027
1789323577877205200,10.931205322265624,-1.1850436925888062,0.31031039357185364,-2.695134401321411
1789323577914908200,10.968908203125,-1.063485026359558,-0.5070032477378845,-2.419642448425293
1789323577933759500,10.987759521484374,-0.7403468489646912,-0.1441599577665329,-2.422085762023926
1789323577952611000,11.006611083984374,-0.4611896872520447,-0.1172826737165451,-2.3524491786956787
1789323577971462400,11.02546240234375,-0.5167768001556396,-0.14782503247261047,-2.211954355239868
1789323577990313700,11.044313720703125,-0.3390202224254608,-0.37444937229156494,-1.7923022508621216
1789323578009165300,11.063165283203125,0.04825693368911743,-0.013438640162348747,-1.3647091388702393
1789323578028016600,11.0820166015625,0.291374146938324,0.01038440316915512,-0.8906152844429016
1789323578046868000,11.100867919921875,0.29442837834358215,0.08735115826129913,-0.36223241686820984
1789323578065719600,11.119719482421875,0.25350162386894226,-0.12155860662460327,0.12216944992542267
1789323578084571000,11.13857080078125,0.3811686933040619,-0.17348061501979828,0.6468872427940369
1789323578103422500,11.15742236328125,0.4074351191520691,-0.15332266688346863,0.92054682970047
1789323578122273800,11.176273681640625,0.4324798583984375,0.3176405727863312,0.9455915689468384
1789323578141125000,11.195125,0.3561239540576935,0.6035171151161194,1.1031901836395264
1789323578159976700,11.213976806640625,0.1325538605451584,0.5748072862625122,1.362265706062317
1789323578178828000,11.232828125,-0.05070032179355621,0.06291726976633072,1.4587795734405518
1789323578197679600,11.2516796875,-0.12094775587320328,-0.36039987206459045,1.412966012954712
1789323578216531000,11.270531005859375,-0.05741964280605316,-0.5894675850868225,1.3433294296264648
1789323578235382300,11.28938232421875,0.1423274129629135,-0.3555130958557129,1.3995274305343628
1789323578254233900,11.30823388671875,0.3524588644504547,0.1185043677687645,1.5394114255905151
1789323578273085200,11.327085205078125,0.5057815313339233,0.17714570462703705,1.5882792472839355
1789323578291936500,11.3459365234375,0.6505523324012756,-0.19119518995285034,1.6792954206466675
1789323578310788000,11.3647880859375,0.9168817400932312,-0.1575985997915268,1.7379368543624878
1789323578329639400,11.383639404296876,1.1496145725250244,-0.15210096538066864,1.7477103471755981
1789323578348491000,11.402490966796876,1.1807677745819092,-0.29381752014160156,1.729995846748352
1789323578367342300,11.42134228515625,0.9229902029037476,-0.4990622103214264,1.7611490488052368
1789323578386193700,11.440193603515626,0.7000309824943542,-0.5949652194976807,1.728163242340088
1789323578405045200,11.459045166015626,0.6499415040016174,-0.3665083646774292,1.8026865720748901
1789323578423896600,11.477896484375,0.5265503525733948,-1.014006495475769,1.9547876119613647
1789323578442748000,11.496747802734374,0.6120689511299133,-1.3390535116195679,1.806962490081787
1789323578471025200,11.525025146484374,0.8570187091827393,-0.4953971207141876,1.2778924703598022
1789323578489876500,11.54387646484375,0.8893936276435852,-0.24189551174640656,1.277281641960144
1789323578508728000,11.56272802734375,0.7898254990577698,-0.16431790590286255,1.156944751739502
1789323578527579400,11.581579345703124,0.7171346545219421,-0.18569757044315338,0.9804098606109619
1789323578546430700,11.6004306640625,0.6383354067802429,-0.2223484069108963,0.8228112459182739
1789323578565282300,11.6192822265625,0.5625903010368347,-0.2357870489358902,0.4031592011451721
1789323578584133600,11.638133544921875,0.28221142292022705,0.07085828483104706,0.055587101727724075
1789323578602985000,11.65698486328125,0.042759306728839874,-0.06047387793660164,-0.1319430023431778
1789323578621836500,11.67583642578125,-0.11911521852016449,0.5509842038154602,-0.446529358625412
1789323578640687900,11.69468798828125,-0.30664533376693726,0.9009997248649597,-0.7702783942222595
1789323578668965000,11.722965087890625,-0.5192201733589172,1.5351355075836182,-1.0970816612243652
1789323578687816400,11.74181640625,-0.5870242118835449,1.7666466236114502,-1.3414969444274902
1789323578706667800,11.760667724609375,-0.7684458494186401,1.4587795734405518,-1.5296379327774048
1789323578725519400,11.779519287109375,-1.0824213027954102,1.4624446630477905,-1.6915124654769897
1789323578744370700,11.79837060546875,-1.3799803256988525,1.2058124542236328,-1.9547876119613647
1789323578763222300,11.81722216796875,-1.5833925008773804,1.0488247871398926,-2.0097639560699463
1789323578782073600,11.836073486328125,-1.7904696464538574,0.2107423096895218,-2.0329761505126953
1789323578800925000,11.854925048828125,-1.857051968574524,0.011606098152697086,-2.0800113677978516
1789323578819776300,11.8737763671875,-1.6530290842056274,0.08979454636573792,-2.3231284618377686
1789323578838627800,11.8926279296875,-1.3763152360916138,0.1459924876689911,-2.3640551567077637
1789323578857479200,11.911479248046875,-1.2180293798446655,0.08979454636573792,-2.3322911262512207
1789323578876330500,11.93033056640625,-1.0671501159667969,-0.02076880633831024,-2.286477565765381
1789323578895182000,11.94918212890625,-0.8631271719932556,-0.32069480419158936,-2.2675414085388184
1789323578914033400,11.968033447265626,-0.7299624681472778,-0.4874561131000519,-2.1753034591674805
1789323578932884700,11.986884765625,-0.48928865790367126,-0.21318569779396057,-1.8711014986038208
1789323578951736300,12.005736328125,-0.2901524603366852,-0.11300674080848694,-1.4166311025619507
1789323578970587600,12.024587646484376,0.07452336698770523,0.08735115826129913,-1.1086877584457397
1789323578989439000,12.04343896484375,0.1429382562637329,0.02626643143594265,-0.7201889157295227
1789323579008290600,12.06229052734375,0.13927318155765533,-0.06291726976633072,-0.25472331047058105
1789323579027142000,12.081141845703126,0.19119518995285034,0.0390942245721817,0.20157960057258606
1789323579045993200,12.0999931640625,0.30481278896331787,0.29259583353996277,0.4196520745754242
1789323579064844800,12.1188447265625,0.291374146938324,0.34573954343795776,0.6200099587440491
1789323579083696000,12.137696044921874,0.1716480851173401,0.1459924876689911,0.9785773158073425
1789323579102547500,12.15654736328125,0.1985253542661667,0.2583884000778198,1.1691616773605347
1789323579121399000,12.17539892578125,0.1710372269153595,0.04337015375494957,1.1813786029815674
1789323579140250400,12.19425048828125,0.11483928561210632,-0.08307522535324097,1.2339115142822266
1789323579159101700,12.213101806640625,0.11545012891292572,-0.2522799074649811,1.4386216402053833
1789323579177953000,12.231953125,0.2089097648859024,0.18875180184841156,1.5137559175491333
1789323579196804600,12.2508046875,0.22967857122421265,0.18630841374397278,1.391586422920227
1789323579215656000,12.269656005859375,0.18081079423427582,-0.12278030067682266,1.5198643207550049
1789323579234507300,12.28850732421875,0.3897205591201782,-0.32252734899520874,1.8625496625900269
1789323579253358800,12.30735888671875,0.6835380792617798,-0.055587101727724075,1.9272994995117188
1789323579281635800,12.3356357421875,0.9303203821182251,-0.3793361485004425,1.829563856124878
1789323579300487200,12.354487060546875,0.8179244995117188,-0.17409147322177887,1.9340187311172485
1789323579319338800,12.3733388671875,0.7336275577545166,-0.7776085734367371,2.0690159797668457
1789323579338190000,12.392190185546875,0.8148702383041382,-0.8118160367012024,2.1924071311950684
1789323579357041400,12.41104150390625,0.8704573512077332,-0.6584933400154114,1.9767780303955078
1789323579375893000,12.42989306640625,0.8509102463722229,-0.6835380792617798,1.8179577589035034
1789323579394744300,12.448744384765625,0.7110261917114258,-1.2607887983322144,1.91386079788208
1789323579413595600,12.467595703125,0.5919110178947449,-1.571175456047058,1.7159463167190552
1789323579432447000,12.486447021484375,0.5790832042694092,-0.9052756428718567,1.4251830577850342
1789323579451298600,12.505298583984375,0.624896764755249,-0.9455915689468384,1.4325132369995117
1789323579470150000,12.52414990234375,0.6981984376907349,-0.8594620823860168,1.1270132064819336
1789323579489001200,12.543001220703125,0.5387672781944275,-0.8435800671577454,0.5509842038154602
1789323579507852800,12.561852783203125,0.39949411153793335,-0.3781144618988037,0.21196399629116058
1789323579526704000,12.5807041015625,0.23334364593029022,-0.21379654109477997,0.10750912129878998
1789323579545555500,12.599555419921876,0.18814095854759216,0.2339545041322708,-0.16676130890846252
1789323579564406800,12.61840673828125,0.19363857805728912,0.46241137385368347,-0.16431790590286255
1789323579583258400,12.63725830078125,0.1441599577665329,0.29687178134918213,-0.4074351191520691
1789323579602109700,12.656109619140626,0.0910162404179573,0.4734066128730774,-0.731184184551239
1789323579620961000,12.6749609375,-0.2339545041322708,0.7922688722610474,-0.9376505613327026
1789323579639812400,12.693812255859376,-0.4190412163734436,1.0280559062957764,-1.2216944694519043
1789323579658664000,12.712663818359376,-0.503948986530304,1.152668833732605,-1.5339138507843018
1789323579677515300,12.731515380859374,-0.5387672781944275,1.206423282623291,-1.8026865720748901
1789323579696366600,12.75036669921875,-0.8179244995117188,1.248571753501892,-1.9285211563110352
1789323579715218000,12.769218017578124,-1.1441168785095215,1.0390511751174927,-1.9749455451965332
1789323579734069500,12.788069580078124,-1.211920976638794,0.6041279435157776,-1.946846604347229
1789323579752920800,12.8069208984375,-1.2644537687301636,0.4844018816947937,-2.0653510093688965
1789323579771772200,12.825772216796874,-1.3757044076919556,0.2473931461572647,-2.0965042114257812
1789323579790623500,12.84462353515625,-1.313321590423584,0.061084724962711334,-2.2993054389953613
1789323579809475000,12.86347509765625,-1.1349542140960693,-0.20035789906978607,-2.4850029945373535
1789323579828326400,12.882326416015625,-0.8075400590896606,-0.5070032477378845,-2.671311378479004
1789323579847177700,12.901177734375,-0.3799470067024231,-0.8057075142860413,-2.9064877033233643
1789323579866029000,12.920029052734375,0.19424942135810852,-0.49417543411254883,-2.810584545135498
1789323579884880600,12.938880615234375,0.24494975805282593,-0.03420744836330414,-2.1062777042388916
1789323579903732000,12.95773193359375,-0.09345962852239609,-0.31031039357185364,-1.4685531854629517
1789323579922583300,12.976583251953125,-0.29503923654556274,-0.16553960740566254,-1.2791141271591187
1789323579941434600,12.9954345703125,-0.3115321099758148,-0.2583884000778198,-0.9486457705497742
1789323579960286000,13.014285888671875,-0.1563768982887268,-0.08368607610464096,-0.4330907166004181
1789323579979137500,13.033137451171875,-0.006719320081174374,0.01832541823387146,-0.09040539711713791
1789323579997988900,13.05198876953125,0.2583884000778198,0.10750912129878998,0.20035789906978607
1789323580016840200,13.070840087890625,0.2773246467113495,-0.3817795515060425,0.527161180973053
1789323580035691500,13.08969140625,0.22784602642059326,-0.6328377723693848,0.9058864712715149
1789323580054543000,13.108543212890625,0.2901524603366852,-0.32313820719718933,1.1972606182098389
1789323580073394400,13.12739453125,0.4178195297718048,0.04214845970273018,1.3011046648025513
1789323580092245800,13.146245849609375,0.4227063059806824,-0.11972606182098389,1.3072131872177124
1789323580111097000,13.16509716796875,0.3939964771270752,-0.24067382514476776,1.3836454153060913
1789323580129948400,13.183948486328125,0.42637139558792114,0.0036650835536420345,1.4612230062484741
1789323580148800000,13.202800048828125,0.49356457591056824,0.17897824943065643,1.4819917678833008
1789323580167651300,13.2216513671875,0.573585569858551,0.32130566239356995,1.4832135438919067
1789323580186502700,13.240502685546875,0.6713211536407471,0.4056025743484497,1.682349681854248
1789323580205354000,13.25935400390625,0.9052756428718567,-0.04153761267662048,1.8753774166107178
1789323580224205300,13.278205322265626,1.0512681007385254,0.03787253051996231,1.8130710124969482
1789323580243057000,13.297056884765626,0.8979454636573792,-0.038483377546072006,1.6066046953201294
1789323580261908200,13.315908203125,0.790436327457428,-0.261442631483078,1.7825286388397217
1789323580280759600,13.334759521484376,0.8912261724472046,-0.7739434838294983,1.964561104774475
1789323580299611000,13.35361083984375,1.0030112266540527,-0.9828532338142395,1.8149036169052124
1789323580318462200,13.372462158203126,0.9358180165290833,-0.6053496599197388,1.6053829193115234
1789323580337313800,13.391313720703126,0.767224133014679,-1.3592115640640259,1.6542507410049438
1789323580356165000,13.4101650390625,0.7385143637657166,-1.8985896110534668,1.9132499694824219
1789323580375016400,13.429016357421874,0.6731536984443665,-1.4789376258850098,1.8271205425262451
1789323580393867800,13.44786767578125,0.5558710098266602,-0.7226322889328003,1.5546826124191284
1789323580412719400,13.46671923828125,0.26877278089523315,-0.3298575282096863,1.5833925008773804
1789323580431570700,13.48557080078125,0.16187451779842377,-0.1557660549879074,1.3169866800308228
1789323580450422000,13.504422119140624,0.3573456406593323,0.2644968628883362,0.8276980519294739
1789323580469273300,13.5232734375,0.42392799258232117,0.53143709897995,0.2638860046863556
1789323580488124700,13.542124755859374,0.2480039894580841,0.5943543910980225,-0.01710372418165207
1789323580506976000,13.56097607421875,0.046424392610788345,0.4556920528411865,-0.15943112969398499
1789323580525827600,13.57982763671875,0.1050657257437706,0.028098974376916885,-0.5344913601875305
1789323580544679000,13.598678955078125,0.11667182296514511,0.24678228795528412,-1.014006495475769
1789323580563530200,13.6175302734375,-0.32374903559684753,0.7525638341903687,-1.3066022396087646
1789323580582381600,13.636381591796875,-0.7519529461860657,1.3616548776626587,-1.4184637069702148
1789323580601233000,13.65523291015625,-0.9633061289787292,1.2192511558532715,-1.7061727046966553
1789323580620084200,13.674084228515625,-0.9358180165290833,1.3573789596557617,-1.7440452575683594
1789323580638935800,13.692935791015625,-1.109298586845398,1.4557254314422607,-1.7971889972686768
1789323580657787100,13.711787109375,-1.2552911043167114,1.6298168897628784,-2.1557562351226807
1789323580676638500,13.730638427734375,-1.4074684381484985,0.8637380003929138,-2.243107557296753
1789323580695489800,13.74948974609375,-1.5168100595474243,0.16553960740566254,-2.197293996810913
1789323580714341000,13.768341064453125,-1.4917653799057007,0.04825693368911743,-2.2541027069091797
1789323580733192400,13.7871923828125,-1.3139324188232422,-0.15026842057704926,-2.2687630653381348
1789323580752044000,13.8060439453125,-1.1257915496826172,0.043981000781059265,-2.4275834560394287
1789323580770895400,13.824895263671875,-0.9791881442070007,-0.034818295389413834,-2.572964906692505
1789323580789746700,13.84374658203125,-0.832584798336029,-0.1575985997915268,-2.5137128829956055
1789323580808598000,13.862597900390625,-0.6780404448509216,-0.16615045070648193,-2.3060247898101807
1789323580827449300,13.881449462890625,-0.5076140761375427,0.04459185153245926,-2.164919137954712
1789323580846300700,13.90030078125,-0.2980934679508209,0.009773556143045425,-1.9260777235031128
1789323580865152000,13.919152099609375,-0.11972606182098389,-0.09651386737823486,-1.5229185819625854
1789323580884003300,13.93800341796875,0.015271181240677834,0.04825693368911743,-0.9877400398254395
1789323580902855000,13.95685498046875,0.20341213047504425,0.13316470384597778,-0.5338805317878723
1789323580921706200,13.975706298828126,0.12888877093791962,-0.17592400312423706,-0.04092676565051079
1789323580940557600,13.9945576171875,0.20463383197784424,-0.32130566239356995,0.36162158846855164
1789323580959409000,14.013408935546876,0.3274141252040863,0.026877280324697495,0.5974085927009583
1789323580978260200,14.03226025390625,0.4312581717967987,0.2345653474330902,0.832584798336029
1789323580997111600,14.051111572265626,0.4605788290500641,0.05741964280605316,1.0989142656326294
1789323581015963000,14.069962890625,0.5491516590118408,0.3500154912471771,1.1819894313812256
1789323581034814500,14.088814453125,0.5057815313339233,0.10934165865182877,1.273005723953247
1789323581053665800,14.107665771484376,0.32191649079322815,-0.2101314514875412,1.5326920747756958
1789323581072517000,14.12651708984375,0.16309621930122375,-0.32008397579193115,1.6353144645690918
1789323581091368400,14.145368408203124,0.09345962852239609,0.10140064358711243,1.3372210264205933
1789323581110219800,14.1642197265625,-0.05803048983216286,0.033596597611904144,1.2418525218963623
1789323581129071000,14.183071044921874,0.1441599577665329,0.12644538283348083,1.502760648727417
1789323581147922400,14.20192236328125,0.5491516590118408,0.04153761267662048,1.6389795541763306
1789323581166773800,14.220773681640624,0.9633061289787292,-0.36223241686820984,1.6719653606414795
1789323581185625300,14.239625244140624,1.0995250940322876,-0.4355340898036957,1.7458778619766235
1789323581204476700,14.2584765625,0.888171911239624,-0.41354358196258545,1.766035795211792
1789323581223328000,14.277327880859374,0.7843278646469116,-0.679872989654541,1.7580947875976562
1789323581242179300,14.296179443359375,0.8002098798751831,-0.624896764755249,1.8625496625900269
1789323581261030700,14.31503076171875,0.9083298444747925,-0.5234960913658142,1.9309645891189575
1789323581279882000,14.333882080078125,0.9804098606109619,-0.17286977171897888,1.927910327911377
1789323581298733300,14.3527333984375,0.864959716796875,-0.5803049206733704,2.1820228099823
1789323581317584600,14.371584716796875,0.6114581227302551,-1.2406307458877563,2.2736499309539795
1789323581336436000,14.39043603515625,0.6536065936088562,-1.0573766231536865,1.7177788019180298
1789323581355287300,14.409287353515625,0.6658235192298889,-0.5796940326690674,1.2363548278808594
1789323581374139000,14.428138916015625,0.5051707029342651,-0.42514967918395996,0.9743013978004456
1789323581392990200,14.446990234375,0.30725616216659546,-0.448361873626709,0.8020424246788025
1789323581411841500,14.465841552734375,0.1973036676645279,-0.3268032968044281,0.6426113247871399
1789323581430692900,14.48469287109375,0.21562908589839935,-0.3658975064754486,0.31031039357185364
1789323581449544200,14.503544189453125,0.07391251623630524,0.288930743932724,-0.029320668429136276
1789323581468395500,14.5223955078125,-0.03176405653357506,0.5399889945983887,-0.17348061501979828
1789323581487246800,14.541246826171875,-0.16248537600040436,0.7983773946762085,-0.40987852215766907
1789323581506098200,14.56009814453125,-0.15087927877902985,0.8741224408149719,-0.7837170362472534
1789323581524949500,14.578949462890625,-0.1582094430923462,1.175881028175354,-1.0866972208023071
1789323581543800800,14.59780078125,-0.34757208824157715,1.1954281330108643,-1.3763152360916138
1789323581562652200,14.616652099609375,-0.5760289430618286,0.8118160367012024,-1.7587056159973145
1789323581581503500,14.63550341796875,-0.8454126119613647,0.8570187091827393,-1.8796533346176147
1789323581600354800,14.654354736328125,-1.183211088180542,0.9633061289787292,-1.942570686340332
1789323581619206100,14.6732060546875,-1.3194301128387451,1.1056334972381592,-2.0250349044799805
1789323581638057700,14.6920576171875,-1.3163758516311646,0.7550072073936462,-2.1380417346954346
1789323581656909000,14.710908935546875,-1.45939040184021,0.7574505805969238,-2.2394423484802246
1789323581675760400,14.729760498046875,-1.3439403772354126,0.5173876285552979,-2.3750505447387695
1789323581694611700,14.74861181640625,-1.2449066638946533,0.5161659121513367,-2.423307418823242
1789323581713463000,14.767463134765626,-1.1117420196533203,0.3017585575580597,-2.4495737552642822
1789323581732314400,14.786314453125,-0.8741224408149719,0.20768806338310242,-2.6444342136383057
1789323581751165700,14.805165771484376,-0.5509842038154602,-0.17225892841815948,-2.5424225330352783
1789323581770017000,14.82401708984375,-0.31031039357185364,0.10140064358711243,-2.188742160797119
1789323581788868400,14.842868408203126,-0.23945212364196777,0.3268032968044281,-1.8430025577545166
1789323581807719700,14.8617197265625,-0.17653486132621765,0.05008947476744652,-1.543687343597412
1789323581826571000,14.880571044921876,-0.1575985997915268,0.130721315741539,-1.2106993198394775
1789323581845422300,14.89942236328125,-0.062306419014930725,0.14660334587097168,-0.6474980711936951
1789323581864273700,14.918273681640626,0.13377554714679718,0.517998456954956,-0.18630841374397278
1789323581883125000,14.937125,0.17592400312423706,0.6700994372367859,-0.05803048983216286
1789323581901976300,14.955976318359374,0.08674030750989914,0.1178935244679451,0.3017585575580597
1789323581920827600,14.97482763671875,0.016492875292897224,0.17775654792785645,0.6224533319473267
1789323581939679000,14.993678955078124,-0.034818295389413834,0.19241689145565033,0.5741963982582092
1789323581958530300,15.0125302734375,-0.11300674080848694,0.17531315982341766,0.6016845703125
1789323581977381600,15.031381591796874,-0.1966928243637085,0.11056335270404816,0.8814526200294495
1789323581996233000,15.05023291015625,-0.18081079423427582,-0.06841489672660828,1.2174185514450073
1789323582015084300,15.069084228515624,-0.06902574002742767,0.21440738439559937,1.4300698041915894
1789323582033935600,15.087935546875,-0.03787253051996231,-0.03665083646774292,1.5229185819625854
1789323582052787000,15.106786865234374,0.08002099394798279,0.15454435348510742,1.5595693588256836
1789323582071638300,15.12563818359375,0.17775654792785645,0.06902574002742767,1.784972071647644
1789323582090489600,15.144489501953124,0.42576053738594055,0.4031592011451721,1.993270993232727
1789323582109341000,15.1633408203125,0.7757760286331177,0.21440738439559937,2.098947525024414
1789323582128192300,15.182192138671875,1.0237799882888794,0.2473931461572647,2.156978130340576
1789323582147043600,15.201043701171875,1.0610417127609253,-0.0794101431965828,2.2308905124664307
1789323582165895000,15.21989501953125,0.8313631415367126,0.14965757727622986,2.25715708732605
1789323582184746200,15.238746337890625,0.6084038615226746,-0.4715740978717804,2.4190316200256348
1789323582203597600,15.25759765625,0.6548282504081726,-0.4605788290500641,2.6352715492248535
1789323582222449000,15.276448974609375,0.6047387719154358,-0.5357130169868469,2.4825596809387207
1789323582241300200,15.29530029296875,0.5112791657447815,-1.0256125926971436,2.2498269081115723
1789323582260151600,15.314151611328125,0.46485477685928345,-1.245517611503601,2.0445821285247803
1789323582279003000,15.3330029296875,0.5045598149299622,-0.7146912813186646,1.4661097526550293
1789323582297854200,15.351854248046875,0.5833591222763062,-0.23334364593029022,1.1245697736740112
1789323582316705500,15.37070556640625,0.5632011890411377,-0.337798535823822,1.0934165716171265
1789323582335556900,15.389556884765625,0.47951510548591614,-0.6218425035476685,0.9254335761070251
1789323582354408200,15.408408203125,0.37444937229156494,-0.9132166504859924,0.518609344959259
1789323582373259500,15.427259521484375,0.0781884491443634,-0.7036960124969482,0.17592400312423706
1789323582392110800,15.44611083984375,-0.17958909273147583,-0.2877090573310852,-0.19363857805728912
1789323582410962000,15.4649619140625,-0.2626643180847168,-0.006108472589403391,-0.3573456406593323
1789323582429813200,15.483813232421875,-0.1960819661617279,0.17897824943065643,-0.5729747414588928
1789323582448664600,15.50266455078125,-0.23151111602783203,0.6670452356338501,-0.6591041684150696
1789323582467516000,15.521515869140625,-0.4593571424484253,0.8289197087287903,-0.7965448498725891
1789323582486367200,15.5403671875,-0.4837910234928131,0.9675820469856262,-0.8863393664360046
1789323582505218600,15.559218505859375,-0.7476770281791687,1.243685007095337,-1.1771026849746704
1789323582524070000,15.57806982421875,-0.9040539264678955,1.2681188583374023,-1.3671525716781616
1789323582542921200,15.596921142578125,-1.0445488691329956,1.8601062297821045,-1.6072155237197876
1789323582561772500,15.6157724609375,-1.3427186012268066,1.5442981719970703,-1.8582737445831299
1789323582580624000,15.634623779296875,-1.6939557790756226,1.1306782960891724,-2.051912307739258
1789323582599475200,15.65347509765625,-2.0629074573516846,0.3573456406593323,-2.1203272342681885
1789323582618326500,15.672326416015625,-2.0598533153533936,-0.130721315741539,-2.4672884941101074
1789323582637177600,15.691177490234375,-1.8692690134048462,-0.13866232335567474,-2.607783317565918
1789323582665454600,15.71945458984375,-1.192984700202942,-0.6132906675338745,-2.353060007095337
1789323582684306000,15.738305908203126,-0.9730796813964844,-0.5564818382263184,-2.2742607593536377
1789323582703157200,15.7571572265625,-0.5509842038154602,-0.7653915882110596,-2.1759142875671387
1789323582722008600,15.776008544921876,-0.28282228112220764,-0.3530697226524353,-1.7684792280197144
1789323582740860000,15.79485986328125,-0.21562908589839935,-0.1588202863931656,-1.3402752876281738
1789323582759711200,15.813711181640626,-0.2363978922367096,-0.34757208824157715,-0.9950701594352722
1789323582778562600,15.8325625,-0.2241809368133545,-0.29442837834358215,-0.7299624681472778
1789323582797414000,15.851413818359376,-0.15149012207984924,-0.3640649616718292,-0.3280249834060669
1789323582816265000,15.870264892578126,-0.012827792204916477,-0.27915719151496887,0.00916270911693573
1789323582835116300,15.8891162109375,0.047646086663007736,-0.38422292470932007,0.26755109429359436
1789323582853967600,15.907967529296876,0.16431790590286255,0.038483377546072006,0.5644228458404541
1789323582872819000,15.92681884765625,0.21990501880645752,-0.05864133685827255,0.9083298444747925
1789323582891670300,15.945670166015624,0.35978904366493225,0.42698222398757935,1.2607887983322144
1789323582910521600,15.964521484375,0.4611896872520447,0.2638860046863556,1.3885321617126465
1789323582929373000,15.983373046875,0.5259394645690918,0.19974705576896667,1.450838565826416
1789323582948224000,16.00222412109375,0.5729747414588928,0.014660334214568138,1.276059865951538
1789323582967075300,16.021075439453124,0.5375455617904663,-0.37322768568992615,1.1997040510177612
1789323582985926700,16.0399267578125,0.5063923597335815,-0.10262233763933182,1.364098310470581
1789323583004778000,16.058778076171876,0.5008947253227234,-0.4037700295448303,1.5650670528411865
1789323583023629300,16.07762939453125,0.4990622103214264,-0.08979454636573792,1.6072155237197876
1789323583042480600,16.096480712890624,0.4227063059806824,-0.13316470384597778,1.4746615886688232
1789323583061331700,16.115331787109376,0.48989951610565186,-0.1325538605451584,1.4673315286636353
1789323583080183000,16.13418310546875,0.6859814524650574,-0.5754181146621704,1.6713544130325317
1789323583099034400,16.153034423828124,0.9565867781639099,-0.9119949340820312,1.8057408332824707
1789323583117885700,16.1718857421875,1.1545013189315796,-0.948034942150116,1.8979787826538086
1789323583136737000,16.190737060546876,1.2565127611160278,-1.0531007051467896,2.0622966289520264
1789323583155588000,16.209588134765625,1.349437952041626,-1.3433294296264648,2.047025442123413
1789323583174439400,16.228439453125,1.4300698041915894,-2.1178839206695557,1.965782880783081
1789323583193290800,16.247290771484376,1.1966497898101807,-1.9101957082748413,1.780696153640747
1789323583212142000,16.26614208984375,0.8264763355255127,-1.2864443063735962,1.5858358144760132
1789323583230993400,16.284993408203125,0.8179244995117188,-0.7495095729827881,1.7165571451187134
1789323583249844500,16.303844482421876,0.8722898960113525,-0.7959339618682861,1.941348910331726
1789323583268695800,16.32269580078125,0.9816315174102783,-0.33291175961494446,1.2870551347732544
1789323583287547100,16.341547119140625,0.791047215461731,0.1985253542661667,0.7238540053367615
1789323583306398500,16.3603984375,0.6041279435157776,0.5283828973770142,0.3390202224254608
1789323583325249500,16.37924951171875,0.5241069197654724,0.7947123050689697,-0.18997350335121155
1789323583344100900,16.398100830078125,0.393385648727417,1.170383334159851,-0.444085955619812
1789323583362952200,16.4169521484375,0.32374903559684753,0.7574505805969238,-0.6395570635795593
1789323583381803500,16.435803466796877,0.2626643180847168,0.7165238261222839,-1.1221264600753784
1789323583400654800,16.45465478515625,-0.03542914241552353,0.6206207871437073,-1.3084348440170288
1789323583419506000,16.473505859375,-0.38605546951293945,0.8912261724472046,-1.479548454284668
1789323583438357200,16.492357177734377,-0.6316160559654236,0.6914790868759155,-1.7483211755752563
1789323583457208600,16.51120849609375,-0.833195686340332,1.1355650424957275,-1.7861937284469604
1789323583476060000,16.530059814453125,-1.1538904905319214,1.1624423265457153,-1.936462163925171
1789323583494911000,16.548910888671877,-1.2931636571884155,1.2143644094467163,-2.13620924949646
1789323583513762300,16.56776220703125,-1.3934189081192017,0.49051034450531006,-2.2767040729522705
1789323583532613600,16.586613525390625,-1.5901117324829102,0.3817795515060425,-2.275482416152954
1789323583551465000,16.60546484375,-1.5412440299987793,0.1185043677687645,-2.2889211177825928
1789323583570316000,16.62431591796875,-1.414798617362976,0.16859383881092072,-2.4617908000946045
1789323583589167400,16.64316748046875,-1.3078240156173706,0.18569757044315338,-2.3524491786956787
1789323583608018700,16.662018798828125,-1.2088667154312134,-0.05986303091049194,-2.3988735675811768
1789323583626869800,16.680869873046873,-0.9217684864997864,-0.5760289430618286,-2.460569143295288
1789323583645721000,16.69972119140625,-0.5522059202194214,-0.40193748474121094,-2.4147555828094482
1789323583664572400,16.718572509765625,-0.2596100866794586,-0.5045598149299622,-2.1178839206695557
1789323583683423700,16.737423828125,0.0012216945178806782,-0.312142938375473,-1.7953563928604126
1789323583702274800,16.75627490234375,0.08429691940546036,-0.16187451779842377,-1.4343457221984863
1789323583721126100,16.775126220703125,0.17409147322177887,-0.1435490995645523,-1.01706063747406
1789323583739977500,16.7939775390625,0.2516690790653229,-0.01954711228609085,-0.4618005156517029
1789323583758828500,16.81282861328125,0.24250635504722595,-0.182643324136734,0.0012216945178806782
1789323583777680000,16.831679931640625,0.2870981991291046,-0.1459924876689911,0.28037887811660767
1789323583796531200,16.85053125,0.3695625960826874,-0.007941014133393764,0.45141613483428955
1789323583815382300,16.86938232421875,0.3506263196468353,0.18081079423427582,0.6951441764831543
1789323583834233600,16.888233642578125,0.30786702036857605,0.20463383197784424,0.9651386737823486
1789323583853085000,16.9070849609375,0.26999449729919434,-0.020157959312200546,1.1538904905319214
1789323583871936000,16.92593603515625,0.3054236173629761,-0.13805148005485535,1.321873426437378
1789323583890787300,16.944787353515625,0.2919849753379822,-0.31092125177383423,1.4789376258850098
1789323583909638700,16.963638671875,0.342074453830719,-0.08796200156211853,1.5229185819625854
1789323583928489700,16.98248974609375,0.3304683566093445,0.05070032179355621,1.53452467918396
1789323583947341000,17.001341064453126,0.40010493993759155,0.11972606182098389,1.593776822090149
1789323583966192400,17.0201923828125,0.5974085927009583,-0.11239589750766754,1.8100167512893677
1789323583985043500,17.03904345703125,1.0017894506454468,0.2101314514875412,1.9382946491241455
1789323584003894800,17.057894775390626,1.2424633502960205,0.01038440316915512,1.8967571258544922
1789323584022746000,17.07674609375,1.2339115142822266,-0.342074453830719,1.992049217224121
1789323584041597200,17.09559716796875,1.0506572723388672,-0.4190412163734436,2.0134289264678955
1789323584060448500,17.114448486328126,0.8270871639251709,-0.3836120665073395,1.761759877204895
1789323584079299600,17.133299560546874,0.7660024762153625,-0.5821374654769897,1.7874153852462769
1789323584098151000,17.15215087890625,0.6297835111618042,-1.009730577468872,1.8136818408966064
1789323584117002200,17.171002197265626,0.5363239049911499,-1.1642749309539795,1.6157673597335815
1789323584135853300,17.189853271484374,0.5106683373451233,-1.5510175228118896,1.5644562244415283
1789323584154704600,17.20870458984375,0.6090146899223328,-1.7251089811325073,1.5833925008773804
1789323584173556000,17.227555908203126,0.7146912813186646,-1.395862340927124,1.3757044076919556
1789323584192407000,17.246406982421874,0.6297835111618042,-0.998735249042511,0.9975135922431946
1789323584211258400,17.26525830078125,0.4599680006504059,-0.9474241137504578,1.0133955478668213
1789323584230109400,17.284109375,0.20707722008228302,-0.22540263831615448,0.6810947060585022
1789323584248960800,17.302960693359374,0.16615045070648193,0.14049486815929413,0.6377245187759399
1789323584267812000,17.32181201171875,0.2486148327589035,0.5589252710342407,0.446529358625412
1789323584286663200,17.3406630859375,0.21929416060447693,0.5173876285552979,0.024433890357613564
1789323584305514500,17.359514404296874,0.20524467527866364,0.9633061289787292,-0.3640649616718292
1789323584324365600,17.378365478515626,0.07696675509214401,1.090362310409546,-0.5412106513977051
1789323584343217000,17.397216796875,-0.17653486132621765,1.2406307458877563,-0.9584193229675293
1789323584362068200,17.416068115234374,-0.46302223205566406,1.7031185626983643,-1.298661231994629
1789323584380919300,17.434919189453126,-0.675597071647644,1.5614019632339478,-1.5320812463760376
1789323584399770600,17.4537705078125,-0.7519529461860657,1.4691640138626099,-1.8601062297821045
1789323584418621700,17.47262158203125,-1.0518789291381836,0.7690566778182983,-2.0109856128692627
1789323584437473000,17.49147314453125,-1.382423758506775,0.7275190949440002,-2.0103747844696045
1789323584456324000,17.510323974609374,-1.4661097526550293,0.6310052275657654,-2.108110189437866
1789323584475175400,17.529175537109374,-1.474050760269165,0.554649293422699,-2.26693058013916
1789323584494026800,17.54802685546875,-1.5320812463760376,-0.06291726976633072,-2.223560333251953
1789323584512877800,17.5668779296875,-1.4111335277557373,-0.2498365342617035,-2.486835479736328
1789323584531729200,17.585729248046874,-1.1868761777877808,-0.20646637678146362,-2.558304786682129
1789323584550580200,17.604580322265626,-0.9590302109718323,-0.19424942135810852,-2.483170509338379
1789323584569431600,17.623431640625,-0.7983773946762085,-0.2492256760597229,-2.2736499309539795
1789323584588282600,17.64228271484375,-0.6951441764831543,-0.4856235682964325,-2.0794005393981934
1789323584607134000,17.661134033203126,-0.4581354558467865,-0.3017585575580597,-2.1924071311950684
1789323584625985000,17.679985107421874,-0.17225892841815948,-0.3426853120326996,-2.228447198867798
1789323584644836400,17.69883642578125,0.15393351018428802,-0.007941014133393764,-1.9254668951034546
1789323584663687400,17.7176875,0.2773246467113495,0.10628741979598999,-1.0830321311950684
1789323584682538800,17.736538818359374,0.367730051279068,-0.0030542362947016954,-0.3958290219306946
1789323584701389800,17.755389892578126,0.38788801431655884,-0.00916270911693573,-0.05131116881966591
1789323584720241200,17.7742412109375,0.4727957844734192,-0.0030542362947016954,0.18753011524677277
1789323584739092200,17.79309228515625,0.5705313682556152,0.1178935244679451,0.5076140761375427
1789323584757943600,17.811943603515626,0.5375455617904663,0.0922379344701767,0.8997780084609985
1789323584776794600,17.830794677734374,0.5686988234519958,0.3249707520008087,1.2705622911453247
1789323584795646000,17.84964599609375,0.648108959197998,0.4086568057537079,1.4600013494491577
1789323584814497000,17.8684970703125,0.6646018028259277,0.2522799074649811,1.4832135438919067
1789323584833348400,17.887348388671874,0.5748072862625122,-0.08918370306491852,1.5992745161056519
1789323584852199400,17.906199462890626,0.5467082858085632,0.0910162404179573,1.8747665882110596
1789323584871050500,17.925050537109374,0.5864133834838867,0.062306419014930725,1.9309645891189575
1789323584889901800,17.94390185546875,0.5283828973770142,0.43736663460731506,1.7397693395614624
1789323584908753000,17.9627529296875,0.45080527663230896,-0.16248537600040436,1.8985896110534668
1789323584927604200,17.981604248046875,0.6432221531867981,-0.365286648273468,2.1203272342681885
1789323584946455300,18.000455322265626,0.7843278646469116,-0.10140064358711243,1.7495429515838623
1789323584965306600,18.019306640625,0.5864133834838867,-0.033596597611904144,1.4575579166412354
1789323584984157700,18.03815771484375,0.3243598937988281,-0.4159869849681854,1.6683002710342407
1789323585003009000,18.057009033203126,0.5405998229980469,-0.6267293095588684,1.728774070739746
1789323585021860000,18.075860107421875,0.7776085734367371,-0.9236010313034058,1.6029396057128906
1789323585040711200,18.094711181640626,0.6859814524650574,-1.180156946182251,1.6487531661987305
1789323585059562500,18.1135625,0.5002838969230652,-2.0567991733551025,1.6163781881332397
1789323585078413600,18.13241357421875,0.3500154912471771,-1.644477128982544,1.299272060394287
1789323585097265000,18.151264892578126,0.4453076422214508,-1.273005723953247,1.1172395944595337
1789323585116116000,18.170115966796875,0.6139014959335327,-1.0115630626678467,1.109298586845398
1789323585134967000,18.188967041015626,0.3830012381076813,-0.6920899152755737,0.9046648144721985
1789323585153818400,18.207818359375,0.29442837834358215,-0.27121618390083313,0.6835380792617798
1789323585172669400,18.22666943359375,0.19363857805728912,-0.16370706260204315,0.8038749694824219
1789323585191520800,18.245520751953126,0.1435490995645523,-0.00916270911693573,0.5906893014907837
1789323585210371800,18.264371826171875,0.0910162404179573,0.5302154421806335,0.4037700295448303
1789323585229223000,18.283222900390626,0.023823043331503868,1.0598199367523193,0.14782503247261047
1789323585248074200,18.30207421875,0.0012216945178806782,1.2009257078170776,-0.3115321099758148
1789323585266925300,18.32092529296875,0.03665083646774292,1.345162034034729,-0.7098045349121094
1789323585285776600,18.339776611328126,-0.16737215220928192,1.3793694972991943,-0.9822424054145813
1789323585304627700,18.358627685546875,-0.3970507085323334,1.1636639833450317,-1.3647091388702393
1789323585323478800,18.377478759765626,-0.7379034757614136,1.0030112266540527,-1.729995846748352
1789323585342330000,18.396330078125,-1.0188932418823242,1.0946383476257324,-1.899200439453125
1789323585361181200,18.41518115234375,-1.2479609251022339,0.9956810474395752,-2.008542060852051
1789323585380032300,18.4340322265625,-1.4062467813491821,0.8582404255867004,-2.122159719467163
1789323585398883600,18.452883544921875,-1.4239612817764282,0.5595360994338989,-2.335345506668091
1789323585417734700,18.471734619140626,-1.5009280443191528,0.40254834294319153,-2.7953133583068848
1789323585436585700,18.490585693359375,-1.6450880765914917,0.036039989441633224,-2.960853099822998
1789323585455437000,18.50943701171875,-1.8197903633117676,0.10811996459960938,-3.1624326705932617
1789323585474288000,18.5282880859375,-1.690901517868042,-0.3115321099758148,-3.2351233959198
1789323585493139200,18.54713916015625,-1.2174185514450073,-0.34635040163993835,-3.181368827819824
1789323585511990500,18.565990478515626,-0.5289937257766724,-0.16187451779842377,-3.2021377086639404
1789323585530841600,18.584841552734375,-0.009773556143045425,0.4367557764053345,-3.1728169918060303
1789323585549692700,18.603692626953126,-0.031153209507465363,0.9694145917892456,-1.909584879875183
1789323585568543700,18.622543701171875,-0.1973036676645279,0.53143709897995,-0.2987042963504791
1789323585587395000,18.64139501953125,0.3139754831790924,-0.13621893525123596,0.3365768492221832
1789323585606246100,18.66024609375,0.4556920528411865,-0.0787992998957634,0.5986303091049194
1789323585634523000,18.68852294921875,0.1985253542661667,0.08124268800020218,0.9590302109718323
1789323585653374000,18.7073740234375,0.12522368133068085,0.16859383881092072,1.1716049909591675
1789323585672225300,18.726225341796876,0.2510582208633423,0.11972606182098389,1.3255385160446167
1789323585691076400,18.745076416015625,0.31825143098831177,0.13499724864959717,1.5552934408187866
1789323585709927400,18.763927490234376,0.27060532569885254,-0.13866232335567474,1.5082582235336304
1789323585728778500,18.782778564453125,0.11972606182098389,-0.19119518995285034,1.3200409412384033
1789323585747629800,18.8016298828125,0.053143709897994995,-0.25472331047058105,1.1630531549453735
1789323585766481000,18.82048095703125,0.05497625470161438,-0.18875180184841156,0.9095515608787537
1789323585785332000,18.83933203125,-0.031153209507465363,0.1979145109653473,0.8771766424179077
1789323585804183000,18.85818310546875,-0.10628741979598999,0.20707722008228302,1.1551121473312378
1789323585823034400,18.877034423828125,0.08551861345767975,0.4294256269931793,1.664635181427002
1789323585841885400,18.895885498046876,0.5925218462944031,0.5143333673477173,2.0140397548675537
1789323585860736500,18.914736572265625,1.1276240348815918,0.10140064358711243,1.8851510286331177
1789323585879587800,18.933587890625,1.3384426832199097,-0.3542914092540741,1.7171679735183716
1789323585898439000,18.95243896484375,1.0237799882888794,-1.1740484237670898,1.951122522354126
1789323585917290000,18.9712900390625,0.569309651851654,-1.271173119544983,2.1264357566833496
1789323585936141000,18.99014111328125,0.42759308218955994,-0.7128587365150452,1.9779998064041138
1789323585954992000,19.0089921875,0.4428642690181732,-0.503948986530304,1.9798322916030884
1789323585973843500,19.027843505859376,0.6407787799835205,-0.27854636311531067,2.1319332122802734
1789323585992694500,19.046694580078125,0.6878139972686768,-1.1624423265457153,2.2253928184509277
1789323586020971300,19.07497119140625,0.8105943202972412,-1.5363571643829346,2.069626808166504
1789323586039822300,19.093822265625,1.0011786222457886,-1.3549355268478394,1.7012859582901
1789323586058673400,19.11267333984375,0.8759549856185913,-0.9352071285247803,1.4819917678833008
1789323586077524500,19.1315244140625,0.6047387719154358,-0.5027272701263428,0.8765658140182495
1789323586096375600,19.15037548828125,0.21868331730365753,0.05741964280605316,0.6560499668121338
1789323586115227000,19.169226806640626,-0.008551862090826035,0.5723638534545898,0.448361873626709
1789323586134078000,19.188077880859375,0.18019993603229523,0.7440119385719299,-0.12216944992542267
1789323586152929000,19.206928955078126,0.26816195249557495,1.2827792167663574,-0.6896465420722961
1789323586171780000,19.225780029296875,0.036039989441633224,0.8356390595436096,-1.0231691598892212
1789323586190631200,19.244631103515626,-0.16370706260204315,0.9718579649925232,-1.5668995380401611
1789323586209482200,19.263482177734375,-0.4202629029750824,0.9590302109718323,-2.0189266204833984
1789323586228333600,19.28233349609375,-0.7562289237976074,0.9199360013008118,-2.109942674636841
1789323586247184600,19.3011845703125,-1.0176715850830078,0.34451785683631897,-2.0965042114257812
1789323586266035700,19.32003564453125,-1.1215155124664307,0.2596100866794586,-1.992049217224121
1789323586284886800,19.33888671875,-1.1606098413467407,0.6175665855407715,-2.055577278137207
1789323586303737900,19.35773779296875,-1.1422843933105469,0.754396378993988,-2.0922281742095947
1789323586322589000,19.3765888671875,-1.1416735649108887,0.998735249042511,-2.0140397548675537
1789323586341440000,19.39543994140625,-1.0653176307678223,0.7941014170646667,-2.048858165740967
1789323586360291300,19.414291259765626,-0.9578084945678711,0.9345963001251221,-2.1899638175964355
1789323586379142400,19.433142333984375,-0.9046648144721985,0.578472375869751,-2.3115224838256836
1789323586397993500,19.451993408203126,-0.8704573512077332,-0.27060532569885254,-2.3090789318084717
1789323586416844500,19.470844482421874,-0.7831062078475952,-0.6627692580223083,-2.671922206878662
1789323586435695600,19.489695556640626,-0.3042019307613373,-0.42881476879119873,-3.073248863220215
1789323586454546700,19.508546630859374,-0.036039989441633224,-0.05741964280605316,-2.3225176334381104
1789323586473397800,19.527397705078126,-0.16309621930122375,-0.020157959312200546,-1.469774842262268
1789323586492248800,19.546248779296874,-0.32191649079322815,0.02748812735080719,-1.1795459985733032
1789323586511100000,19.565099853515626,-0.35856732726097107,0.1582094430923462,-0.8759549856185913
1789323586529951000,19.583950927734374,-0.10873081535100937,0.43797749280929565,-0.5564818382263184
1789323586548802000,19.602802001953126,0.12278030067682266,0.23945212364196777,-0.1563768982887268
1789323586567653000,19.621653076171874,0.237008735537529,-0.061084724962711334,0.2993151545524597
1789323586586504400,19.64050439453125,0.2107423096895218,-0.42392799258232117,0.6511631608009338
1789323586605355500,19.65935546875,0.26938363909721375,-0.25777754187583923,0.8900044560432434
1789323586624206600,19.67820654296875,0.3274141252040863,-0.18081079423427582,1.09219491481781
1789323586643057700,19.6970576171875,0.4214846193790436,0.16615045070648193,1.2546802759170532
1789323586661908700,19.71590869140625,0.4886777997016907,0.3946073353290558,1.3023263216018677
1789323586680759800,19.734759765625,0.448361873626709,0.5589252710342407,1.4270155429840088
1789323586699611000,19.75361083984375,0.3426853120326996,0.31092125177383423,1.593776822090149
1789323586718462000,19.7724619140625,0.3023693859577179,0.24006296694278717,1.7813069820404053
1789323586737313000,19.79131298828125,0.4679090082645416,0.08002099394798279,1.964561104774475
1789323586756164000,19.8101640625,0.739736020565033,0.3029802441596985,1.9547876119613647
1789323586775015200,19.82901513671875,0.8857285380363464,0.23028941452503204,1.7666466236114502
1789323586793866200,19.8478662109375,0.7641699314117432,0.12705622613430023,1.7165571451187134
1789323586812717300,19.86671728515625,0.629172682762146,-0.1301104724407196,1.8375048637390137
1789323586831568400,19.885568359375,0.6212316751480103,-0.40071579813957214,1.9419597387313843
1789323586850419500,19.90441943359375,0.6572716236114502,-0.7134696245193481,1.8601062297821045
1789323586869270500,19.9232705078125,0.5851916670799255,-0.5210527181625366,1.7831394672393799
1789323586888121600,19.94212158203125,0.5118899941444397,-0.7983773946762085,1.8332289457321167
1789323586906972700,19.96097265625,0.4587462842464447,-1.1807677745819092,1.9804431200027466
1789323586925823700,19.97982373046875,0.3549022674560547,-1.4893219470977783,1.8375048637390137
1789323586944674800,19.9986748046875,0.30664533376693726,-1.1752700805664062,1.557736873626709
1789323586963526000,20.01752587890625,0.39766156673431396,-1.2717839479446411,1.53452467918396
1789323586982377000,20.036376953125,0.3799470067024231,-0.5436540842056274,1.383034586906433
1789323587001228000,20.05522802734375,0.3017585575580597,-0.3683409094810486,0.9791881442070007
1789323587020079000,20.0740791015625,0.19180603325366974,-0.03420744836330414,0.7977665066719055
1789323587038930200,20.09293017578125,0.06841489672660828,-0.04092676565051079,0.6603258848190308
1789323587057781200,20.11178125,0.08307522535324097,0.3164188861846924,0.38788801431655884
1789323587076632300,20.13063232421875,0.08612946420907974,0.4874561131000519,0.16676130890846252
1789323587095483400,20.1494833984375,-0.004275931045413017,0.5558710098266602,-0.3390202224254608
1789323587114334500,20.16833447265625,-0.1575985997915268,0.6584933400154114,-0.8167027831077576
1789323587133185500,20.187185546875,-0.2993151545524597,1.1422843933105469,-1.0866972208023071
1789323587152036600,20.20603662109375,-0.6096255779266357,1.1184613704681396,-1.3359229564666748
1789323587170887700,20.2248876953125,-0.763559103012085,1.3983057737350464,-1.4722182750701904
1789323587189738500,20.243738525390626,-0.9492566585540771,1.3934189081192017,-1.6750195026397705
1789323587208589600,20.262589599609374,-1.060430884361267,1.014006495475769,-2.0622966289520264
1789323587227440600,20.281440673828126,-1.353713870048523,0.48806697130203247,-2.0635182857513428
1789323587246291700,20.300291748046874,-1.6536399126052856,0.5931326746940613,-2.028700113296509
1789323587265142800,20.319142822265626,-1.6139347553253174,0.8405258059501648,-2.2559351921081543
1789323587283993900,20.337993896484374,-1.5888900756835938,0.2486148327589035,-2.1557562351226807
1789323587302845000,20.356844970703126,-1.5314704179763794,0.013438640162348747,-2.1875205039978027
1789323587321696000,20.375696044921874,-1.4209071397781372,-0.11911521852016449,-2.2846450805664062
1789323587340547000,20.394547119140626,-1.166107416152954,-0.5424323678016663,-2.3836023807525635
1789323587359398100,20.413398193359374,-0.8362498879432678,-0.420873761177063,-2.5747976303100586
1789323587378249000,20.4322490234375,-0.518609344959259,-0.4324798583984375,-2.61694598197937
1789323587406525700,20.460525634765624,-0.2626643180847168,0.006719320081174374,-1.7135028839111328
1789323587425376800,20.479376708984375,-0.05070032179355621,0.29259583353996277,-1.1673290729522705
1789323587444227800,20.498227783203124,0.007941014133393764,0.006108472589403391,-0.7727217674255371
1789323587463078700,20.51707861328125,-0.012827792204916477,-0.0781884491443634,-0.4049917459487915
1789323587481929700,20.5359296875,0.022601349279284477,0.11972606182098389,-0.11178504675626755
1789323587500780800,20.55478076171875,0.18936264514923096,0.3042019307613373,0.0647498071193695
1789323587519632000,20.5736318359375,0.265718549489975,-0.023212196305394173,0.5125008225440979
1789323587538483000,20.59248291015625,0.24678228795528412,-0.05070032179355621,1.0335536003112793
1789323587557334000,20.611333984375,0.2724378705024719,-0.13621893525123596,1.3059914112091064
1789323587576185000,20.63018505859375,0.3029802441596985,-0.16004198789596558,1.2259705066680908
1789323587595036000,20.649035888671875,0.2229592502117157,-0.2596100866794586,1.2247487306594849
1789323587613887000,20.667886962890623,0.11117420345544815,-0.23823043704032898,1.2546802759170532
1789323587632738000,20.686738037109375,0.10811996459960938,-0.21868331730365753,1.482602596282959
1789323587651589000,20.705589111328123,0.2596100866794586,-0.053143709897994995,1.6927341222763062
1789323587670440200,20.724440185546875,0.390942245721817,0.05070032179355621,1.7501537799835205
1789323587689291000,20.743291015625,0.5485408306121826,0.17958909273147583,1.8094059228897095
1789323587708142000,20.76214208984375,0.6762079000473022,-0.45080527663230896,2.0311434268951416
1789323587726993200,20.7809931640625,0.8686248064041138,-0.4349232614040375,2.1441502571105957
1789323587745844200,20.79984423828125,0.8393041491508484,-0.5094466209411621,1.9993793964385986
1789323587764695300,20.8186953125,0.7091936469078064,-0.8466343283653259,1.9841082096099854
1789323587783546000,20.837546142578127,0.6413896083831787,-0.791047215461731,2.1178839206695557
1789323587802397200,20.856397216796875,0.7128587365150452,-0.6762079000473022,2.130711555480957
1789323587821248300,20.875248291015627,0.8423583507537842,-0.8380824327468872,2.1148295402526855
1789323587840099300,20.894099365234375,0.8258655071258545,-0.9743013978004456,2.0274784564971924
1789323587858950400,20.912950439453127,0.5393781065940857,-1.4038033485412598,1.659137487411499
1789323587877801200,20.93180126953125,0.6426113247871399,-1.389753818511963,1.5375789403915405
1789323587896652300,20.95065234375,0.8796200752258301,-0.943759024143219,1.5180318355560303
1789323587915503400,20.96950341796875,0.9168817400932312,-0.7049177289009094,1.0451596975326538
1789323587934354200,20.988354248046875,0.6303943991661072,-0.624896764755249,0.8551861643791199
1789323587953205200,21.007205322265627,0.4453076422214508,-0.23151111602783203,0.6065713167190552
1789323587972056300,21.026056396484375,0.2107423096895218,-0.04703523963689804,0.13499724864959717
1789323587990907400,21.044907470703127,0.18753011524677277,0.2718270421028137,-0.2211267054080963
1789323588009758200,21.06375830078125,0.14843589067459106,0.2852656841278076,-0.38544461131095886
1789323588028609300,21.082609375,0.06963659077882767,0.46851983666419983,-0.6468872427940369
1789323588047460400,21.10146044921875,-0.008551862090826035,0.6090146899223328,-0.8380824327468872
1789323588066311400,21.1203115234375,-0.13744063675403595,0.888171911239624,-1.0995250940322876
1789323588085162200,21.139162353515626,-0.3432961702346802,0.9132166504859924,-1.4618338346481323
1789323588104013300,21.158013427734375,-0.469741553068161,1.040272831916809,-1.6585266590118408
1789323588122864400,21.176864501953126,-0.6731536984443665,1.4257938861846924,-1.7721441984176636
1789323588141715500,21.195715576171875,-0.9877400398254395,1.276059865951538,-2.0097639560699463
1789323588160566300,21.214566162109374,-1.165496587753296,1.4746615886688232,-2.1869094371795654
1789323588179417300,21.233417236328126,-1.3940298557281494,1.142895221710205,-2.2712063789367676
1789323588198268400,21.252268310546874,-1.4312914609909058,0.7556180357933044,-2.287088394165039
1789323588217119200,21.271119140625,-1.5186426639556885,0.5082249045372009,-2.316409111022949
1789323588235970300,21.28997021484375,-1.4135769605636597,0.09345962852239609,-2.5943446159362793
1789323588264246800,21.318246826171876,-1.0659284591674805,-0.3133646547794342,-2.634660482406616
1789323588283097600,21.33709765625,-0.7751652002334595,-0.36101073026657104,-2.521043062210083
1789323588301948700,21.35594873046875,-0.46546560525894165,-0.41171106696128845,-2.3787155151367188
1789323588320799700,21.3747998046875,-0.3683409094810486,-0.46546560525894165,-2.052523136138916
1789323588339650800,21.39365087890625,-0.21562908589839935,-0.363454133272171,-1.660359263420105
1789323588358501600,21.412501708984376,0.0036650835536420345,-0.2089097648859024,-1.1856545209884644
1789323588377352700,21.431352783203124,0.29320669174194336,-0.10017894953489304,-0.8026533126831055
1789323588396203500,21.45020361328125,0.2919849753379822,-0.22784602642059326,-0.208298921585083
1789323588415054600,21.4690546875,0.27121618390083313,0.04092676565051079,0.26816195249557495
1789323588433905700,21.48790576171875,0.3170297145843506,0.047646086663007736,0.5051707029342651
1789323588452756500,21.506756591796876,0.469741553068161,0.30847787857055664,0.6945333480834961
1789323588471607600,21.525607666015624,0.522885262966156,0.3151971995830536,0.975523054599762
1789323588490458600,21.544458740234376,0.5613686442375183,0.17653486132621765,1.2650647163391113
1789323588509309400,21.563309326171876,0.4837910234928131,-0.05864133685827255,1.2998830080032349
1789323588528160500,21.582160400390624,0.3836120665073395,-0.3817795515060425,1.3757044076919556
1789323588547011300,21.60101123046875,0.3292466700077057,-0.3665083646774292,1.4398432970046997
1789323588565862400,21.6198623046875,0.15454435348510742,0.13927318155765533,1.2919420003890991
1789323588584713500,21.63871337890625,-0.06963659077882767,-0.17775654792785645,1.1245697736740112
1789323588603564300,21.657564208984375,-0.004886778071522713,-0.22662433981895447,1.3151541948318481
1789323588622415400,21.676415283203124,0.24617144465446472,-0.4343124032020569,1.6004961729049683
1789323588641266200,21.69526611328125,0.6230642199516296,-0.3042019307613373,1.7550405263900757
1789323588660117200,21.7141171875,0.9785773158073425,-0.416597843170166,1.8827075958251953
1789323588678968000,21.732968017578123,1.1624423265457153,-0.41354358196258545,2.089784860610962
1789323588697819100,21.751819091796875,1.2241379022598267,-0.46851983666419983,2.0739028453826904
1789323588716670000,21.770669921875,1.1618314981460571,-0.37567105889320374,1.9156934022903442
1789323588735521000,21.78952099609375,1.0897514820098877,-0.7043069005012512,1.8649930953979492
1789323588754372000,21.8083720703125,1.1080769300460815,-0.971247136592865,1.9957143068313599
1789323588773223000,21.827222900390623,0.8405258059501648,-1.4117443561553955,1.9816648960113525
1789323588792074000,21.846073974609375,0.7055285573005676,-1.7996324300765991,1.706783652305603
1789323588810924800,21.8649248046875,0.42637139558792114,-1.184432864189148,1.49848473072052
1789323588829776000,21.88377587890625,0.3695625960826874,-0.4874561131000519,1.4441193342208862
1789323588848626700,21.902626708984375,0.5002838969230652,-0.16798299551010132,1.7031185626983643
1789323588867477800,21.921477783203127,0.7128587365150452,-0.363454133272171,1.1630531549453735
1789323588886328600,21.94032861328125,0.869846522808075,0.1313321590423584,0.6713211536407471
1789323588905179600,21.9591796875,0.739736020565033,-0.21318569779396057,0.02076880633831024
1789323588924030500,21.978030517578127,0.4453076422214508,0.265718549489975,-0.2510582208633423
1789323588942881500,21.996881591796875,0.2095206081867218,0.08857285231351852,-0.6261184215545654
1789323588961732400,22.015732421875,0.12827792763710022,0.22784602642059326,-1.0219475030899048
1789323588980583400,22.03458349609375,0.12400199472904205,0.13621893525123596,-1.4612230062484741
1789323588999434200,22.053434326171875,-0.021379653364419937,0.70308518409729,-1.566288709640503
1789323589018285300,22.072285400390626,-0.2217375487089157,1.1013575792312622,-1.6023286581039429
1789323589037136100,22.09113623046875,-0.4746283292770386,1.4172420501708984,-1.7477103471755981
1789323589055987200,22.1099873046875,-0.7171346545219421,1.8546086549758911,-1.7580947875976562
1789323589074838000,22.128838134765626,-0.9132166504859924,1.6334819793701172,-1.886372685432434
1789323589093689000,22.147689208984374,-1.1257915496826172,1.7507646083831787,-2.171638250350952
1789323589112540000,22.166539794921874,-1.4709964990615845,1.035996913909912,-2.371385335922241
1789323589131391000,22.185390869140626,-1.9254668951034546,0.3958290219306946,-2.5802950859069824
1789323589150241800,22.20424169921875,-2.003655433654785,0.04092676565051079,-2.4874463081359863
1789323589169092900,22.2230927734375,-1.802075743675232,-0.06719319522380829,-2.4123122692108154
1789323589187943700,22.241943603515626,-1.2742273807525635,-0.2883199155330658,-2.4300267696380615
1789323589206794500,22.26079443359375,-1.0298885107040405,-0.022601349279284477,-2.335345506668091
1789323589225645600,22.2796455078125,-0.9248227477073669,-0.1704263836145401,-2.3976519107818604
1789323589263347500,22.317347412109374,-0.16553960740566254,-0.6022953987121582,-1.91386079788208
1789323589282198300,22.3361982421875,0.08490777015686035,0.0525328628718853,-1.3903647661209106
1789323589301049300,22.35504931640625,0.3017585575580597,0.10689827054738998,-0.833195686340332
1789323589319900200,22.373900146484374,0.33718767762184143,0.016492875292897224,-0.46363306045532227
1789323589338751000,22.3927509765625,0.2901524603366852,0,-0.10201149433851242
1789323589357602000,22.41160205078125,0.4343124032020569,0.1447708010673523,0.08857285231351852
1789323589376452900,22.430452880859374,0.5436540842056274,0.2730487287044525,0.3304683566093445
1789323589395304000,22.449303955078125,0.522885262966156,0.20219044387340546,0.7501204609870911
1789323589414154800,22.46815478515625,0.5528167486190796,0.10323318839073181,1.081810474395752
1789323589433005600,22.487005615234374,0.5424323678016663,0.08368607610464096,1.2888877391815186
1789323589451856600,22.505856689453125,0.49234288930892944,0.0787992998957634,1.3665416240692139
1789323589470707500,22.52470751953125,0.36223241686820984,-0.03176405653357506,1.3151541948318481
1789323589489558300,22.543558349609373,0.1698155403137207,-0.34879377484321594,1.4154094457626343
1789323589508409300,22.562409423828125,0.16859383881092072,-0.3823903799057007,1.6261518001556396
1789323589527260200,22.58126025390625,0.45080527663230896,-0.16004198789596558,1.789247989654541
1789323589546111200,22.600111328125,0.7140804529190063,0.08002099394798279,1.7306066751480103
1789323589564962000,22.618962158203125,0.8167027831077576,-0.03237490355968475,1.7263307571411133
1789323589583812900,22.637812744140625,0.7702783942222595,-0.2504473626613617,1.8234554529190063
1789323589602664000,22.656663818359377,0.8356390595436096,-0.5864133834838867,1.9065306186676025
1789323589621514800,22.6755146484375,0.9266552925109863,-0.6633801460266113,1.8979787826538086
1789323589640365600,22.694365478515625,0.8234221339225769,-0.7592831254005432,1.8094059228897095
1789323589659216400,22.71321630859375,0.7379034757614136,-0.7146912813186646,1.803297519683838
1789323589678067500,22.7320673828125,0.6969767212867737,-0.9785773158073425,1.945624828338623
1789323589696918300,22.750918212890625,0.6163448691368103,-1.0280559062957764,2.0567991733551025
1789323589715769000,22.76976904296875,0.4092676639556885,-1.2345223426818848,1.8552194833755493
1789323589734620200,22.7886201171875,0.37689274549484253,-0.9889616966247559,1.641422986984253
1789323589753471000,22.807470947265625,0.47646087408065796,-0.4862344264984131,1.3702067136764526
1789323589772321800,22.82632177734375,0.7653915882110596,-0.07269082218408585,1.1667182445526123
1789323589791172900,22.8451728515625,0.6713211536407471,-0.16737215220928192,0.9236010313034058
1789323589810023700,22.864023681640624,0.48806697130203247,-0.2742704153060913,0.6584933400154114
1789323589828874500,22.88287451171875,0.2602209448814392,-0.11483928561210632,0.2773246467113495
1789323589847725300,22.901725341796876,0.16370706260204315,0.10201149433851242,-0.028098974376916885
1789323589866576400,22.920576416015624,0.08246438205242157,0.4049917459487915,-0.2907632887363434
1789323589885427200,22.93942724609375,0.0397050715982914,0.45263782143592834,-0.48928865790367126
1789323589904278000,22.958278076171876,0.018936265259981155,0.6810947060585022,-0.7476770281791687
1789323589923129000,22.977129150390624,-0.06963659077882767,0.8588512539863586,-1.0897514820098877
1789323589941980000,22.99597998046875,-0.3506263196468353,1.4722182750701904,-1.4068576097488403
1789323589960830700,23.014830810546876,-0.7128587365150452,1.372650146484375,-1.5638453960418701
1789323589979681500,23.033681640625,-0.9449806809425354,1.6163781881332397,-1.7043402194976807
1789323589998532600,23.05253271484375,-1.1752700805664062,1.192984700202942,-1.8423917293548584
1789323590017383400,23.071383544921876,-1.3964731693267822,1.4587795734405518,-2.0042662620544434
1789323590036234200,23.090234130859375,-1.6237083673477173,0.8160919547080994,-2.0164830684661865
1789323590055085000,23.1090849609375,-1.7495429515838623,0.5289937257766724,-2.188131332397461
1789323590073936100,23.12793603515625,-1.7623707056045532,0.258999228477478,-2.41414475440979
1789323590092787000,23.146786865234375,-1.6841822862625122,-0.02626643143594265,-2.4092578887939453
1789323590111637800,23.1656376953125,-1.3787586688995361,-0.2858765125274658,-2.5546395778656006
1789323590130488600,23.184488525390623,-1.0335536003112793,-0.183865025639534,-2.8118062019348145
1789323590149339400,23.20333935546875,-0.7482879161834717,-0.365286648273468,-2.6878042221069336
1789323590168190200,23.222190185546875,-0.6395570635795593,-0.4068242609500885,-2.2528810501098633
1789323590187041300,23.241041259765623,-0.5277720093727112,-0.15454435348510742,-1.8087950944900513
1789323590205892000,23.25989208984375,-0.3549022674560547,-0.0390942245721817,-1.5363571643829346
1789323590224743000,23.278742919921875,-0.2339545041322708,-0.3390202224254608,-1.0983033180236816
1789323590243593700,23.29759375,0.025655584409832954,-0.11483928561210632,-0.48073679208755493
1789323590262444500,23.316444580078127,0.33291175961494446,0.16126367449760437,-0.05925218388438225
1789323590281295600,23.335295654296875,0.4966188073158264,0.4556920528411865,0.11361759155988693
1789323590300146400,23.354146484375,0.4330907166004181,-0.30664533376693726,0.29565006494522095
1789323590318997200,23.372997314453126,0.46363306045532227,-0.01832541823387146,0.8105943202972412
1789323590337848000,23.39184814453125,0.4862344264984131,0.01588202826678753,1.1068552732467651
1789323590356699000,23.410698974609375,0.3683409094810486,0.1172826737165451,1.111131191253662
1789323590375549700,23.4295498046875,0.22723518311977386,-0.07207997888326645,1.1251806020736694
1789323590394400800,23.44840087890625,0.17592400312423706,0.0018325417768210173,1.166107416152954
1789323590413251600,23.46725146484375,0.25716668367385864,-0.11545012891292572,1.3476054668426514
1789323590432102400,23.486102294921874,0.42881476879119873,-0.06047387793660164,1.5546826124191284
1789323590450953200,23.504953125,0.5491516590118408,0.1850867122411728,1.625540852546692
1789323590469804000,23.523803955078126,0.5876350402832031,-0.031153209507465363,1.7715333700180054
1789323590488654800,23.54265478515625,0.7043069005012512,-0.04703523963689804,2.0183157920837402
1789323590507505700,23.561505615234374,0.7971556782722473,-0.06963659077882767,2.0048770904541016
1789323590526356700,23.580356689453126,0.8991671800613403,-0.14843589067459106,1.9303536415100098
1789323590545207600,23.59920751953125,0.9504783153533936,-0.42331716418266296,2.0329761505126953
1789323590564058400,23.618058349609374,0.8936695456504822,-0.42576053738594055,2.023202419281006
1789323590582909200,23.6369091796875,0.8313631415367126,-0.38544461131095886,2.023813247680664
1789323590601760000,23.655760009765626,0.8112051486968994,-0.4752391576766968,2.3664987087249756
1789323590620610800,23.67461083984375,0.8875610828399658,-1.0433270931243896,2.512491226196289
1789323590639461600,23.693461669921874,0.8515210747718811,-1.4630554914474487,2.23760986328125
1789323590658312400,23.7123125,0.5803049206733704,-0.8576295375823975,1.6640242338180542
1789323590677163300,23.731163330078125,0.3158080279827118,-0.5393781065940857,1.4416759014129639
1789323590696014000,23.75001416015625,0.45019441843032837,-0.2748812735080719,1.5595693588256836
1789323590714865000,23.768864990234373,0.5888567566871643,-0.6145123243331909,1.0213366746902466
1789323590733716000,23.787716064453125,0.5992411375045776,-0.3042019307613373,0.38910970091819763
1789323590752566800,23.80656689453125,0.3396310806274414,-0.12644538283348083,0.02993151545524597
1789323590771417600,23.82541748046875,0.17592400312423706,0.11606097966432571,0.010995250195264816
1789323590790268400,23.844268310546877,0.17897824943065643,-0.10628741979598999,-0.288930743932724
1789323590809119200,23.863119140625,0.04092676565051079,0.30664533376693726,-0.6981984376907349
1789323590827970000,23.881969970703125,-0.1569877415895462,0.5063923597335815,-0.8955020904541016
1789323590846820900,23.90082080078125,-0.37506023049354553,1.1648857593536377,-1.115407109260559
1789323590865671700,23.919671630859376,-0.48073679208755493,1.1984822750091553,-1.323706030845642
1789323590884522500,23.9385224609375,-0.605960488319397,1.4178528785705566,-1.5876684188842773
1789323590903373300,23.957373291015625,-0.7452336549758911,1.202147364616394,-1.7727551460266113
1789323590922224000,23.97622412109375,-1.0335536003112793,1.170383334159851,-1.7800853252410889
1789323590941075000,23.995074951171876,-1.2736165523529053,0.9547542929649353,-1.8332289457321167
1789323590959925800,24.01392578125,-1.5003172159194946,0.832584798336029,-1.8228446245193481
1789323590978776600,24.032776611328124,-1.538800597190857,0.49234288930892944,-1.7971889972686768
1789323590997627400,24.05162744140625,-1.5107016563415527,0.7006418108940125,-1.9199693202972412
1789323591016478200,24.070478271484376,-1.3224843740463257,0.5467082858085632,-2.0341978073120117
1789323591035329000,24.0893291015625,-1.2888877391815186,0.5876350402832031,-2.16552996635437
1789323591054179800,24.108179931640624,-1.3041589260101318,0.006719320081174374,-2.3365671634674072
1789323591073030700,24.12703076171875,-1.175881028175354,-0.46424391865730286,-2.573575973510742
1789323591091881500,24.145881591796876,-0.8887827396392822,-0.21318569779396057,-2.645655870437622
1789323591110732300,24.164732177734376,-0.5296045541763306,0.01710372418165207,-2.2644870281219482
1789323591129583000,24.1835830078125,-0.5882459282875061,0.3011476993560791,-1.6261518001556396
1789323591148434000,24.202433837890624,-0.6462764143943787,0.20646637678146362,-1.295607089996338
