time,seconds_elapsed,z,y,x
1789214101499145200,0.041145263671875,0.003906324505805969,-0.3009326756000519,0.5795270204544067
1789214101509176300,0.05117626953125,-0.09897078573703766,-0.17191050946712494,0.20209157466888428
1789214101519208400,0.06120849609375,-0.2283277064561844,0.0014026869321241975,-0.13574717938899994
1789214101529239300,0.0712392578125,-0.3335723876953125,0.15492220222949982,-0.4359419047832489
1789214101539271400,0.081271484375,-0.34378108382225037,0.196786031126976,-0.6483199596405029
1789214101549302300,0.09130224609375,-0.2801022231578827,0.07055006921291351,-0.6992736458778381
1789214101559334400,0.10133447265625,-0.19171003997325897,-0.16707900166511536,-0.5652061104774475
1789214101569366500,0.111366455078125,-0.0930204913020134,-0.37340766191482544,-0.2281375676393509
1789214101579397400,0.1213974609375,0.00962439738214016,-0.47010305523872375,0.20540136098861694
1789214101589429500,0.131429443359375,0.15019989013671875,-0.19575858116149902,0.6538140177726746
1789214101599460400,0.14146044921875,0.22882066667079926,0.1833495795726776,0.9670408964157104
1789214101609492200,0.1514921875,0.21960826218128204,0.32368752360343933,1.0942766666412354
1789214101619523300,0.1615234375,0.15421806275844574,0.29353415966033936,1.0752017498016357
1789214101629555500,0.171555419921875,0.06323303282260895,0.16848409175872803,0.9228990077972412
1789214101639586600,0.181586669921875,-0.03936498239636421,0.014161624945700169,0.6469742059707642
1789214101649618400,0.191618408203125,-0.1110634058713913,-0.08611544221639633,0.312728613615036
1789214101659649300,0.201649169921875,-0.1530180424451828,-0.1921984702348709,-0.048534512519836426
1789214101669681400,0.211681396484375,-0.17946696281433105,-0.42950209975242615,-0.4153716266155243
1789214101679713300,0.22171337890625,-0.20952951908111572,-0.7812013030052185,-0.8032304048538208
1789214101689744400,0.231744384765625,-0.25075340270996094,-1.0450955629348755,-1.1485837697982788
1789214101699776500,0.241776611328125,-0.2825760245323181,-1.056226134300232,-1.4108856916427612
1789214101709807400,0.251807373046875,-0.30705633759498596,-0.8587504029273987,-1.5618139505386353
1789214101719839200,0.261839111328125,-0.3226377069950104,-0.5789046287536621,-1.6164237260818481
1789214101729870300,0.271870361328125,-0.35547688603401184,-0.3588353991508484,-1.582898497581482
1789214101739902200,0.281902099609375,-0.38983646035194397,-0.2836143970489502,-1.447948694229126
1789214101749933600,0.29193359375,-0.4116024672985077,-0.26531821489334106,-1.239720106124878
1789214101759965400,0.30196533203125,-0.3983079493045807,-0.21255141496658325,-0.9959644675254822
1789214101769996300,0.311996337890625,-0.3877631723880768,-0.1566964089870453,-0.7143415808677673
1789214101780028400,0.3220283203125,-0.36277472972869873,-0.08109964430332184,-0.4217946529388428
1789214101790060300,0.332060302734375,-0.3213364779949188,-0.00011717908637365326,-0.1485484540462494
1789214101800091400,0.34209130859375,-0.3109184503555298,-0.07275782525539398,0.04282549396157265
1789214101810123500,0.35212353515625,-0.2724277973175049,-0.3037463128566742,0.14069373905658722
1789214101820154400,0.362154296875,-0.17094644904136658,-0.5363097786903381,0.24912700057029724
1789214101830186200,0.372186279296875,-0.03032408282160759,-0.6109136939048767,0.391665518283844
1789214101840217300,0.38221728515625,0.11757802963256836,-0.6266103982925415,0.45626741647720337
1789214101850249200,0.392249267578125,0.2291407734155655,-0.5445112586021423,0.5132102966308594
1789214101860280300,0.4022802734375,0.27109089493751526,-0.46986550092697144,0.6016581654548645
1789214101870312400,0.4123125,0.20636701583862305,-0.31029102206230164,0.7125476598739624
1789214101880343600,0.422343505859375,0.023918649181723595,-0.09173285216093063,0.7669097185134888
1789214101890375400,0.43237548828125,-0.24712510406970978,-0.021255753934383392,0.7141208052635193
1789214101900407300,0.4424072265625,-0.34978756308555603,0.09299013018608093,0.6157039403915405
1789214101910438400,0.4524384765625,-0.2570626735687256,0.26547881960868835,0.4929191470146179
1789214101920470500,0.462470458984375,-0.1580793857574463,0.35949158668518066,0.3299259841442108
1789214101930501400,0.47250146484375,-0.15473631024360657,0.42765066027641296,0.15406599640846252
1789214101940533500,0.482533447265625,-0.13951848447322845,0.6036131978034973,0.09497152268886566
1789214101950564400,0.492564453125,-0.06676465272903442,0.7345056533813477,0.12683171033859253
1789214101960596200,0.50259619140625,0.13394847512245178,0.7657536268234253,0.13851580023765564
1789214101970627300,0.51262744140625,0.38671308755874634,0.859921395778656,0.08960764855146408
1789214101980659500,0.522659423828125,0.5948492288589478,1.0366157293319702,-0.07137431204319
1789214101990690600,0.532690673828125,0.6279398202896118,1.1283714771270752,-0.3052981197834015
1789214102000722400,0.542722412109375,0.5422600507736206,0.967144250869751,-0.5485920310020447
1789214102010754300,0.55275439453125,0.3727133870124817,0.774300217628479,-0.715715765953064
1789214102020785400,0.562785400390625,0.1151774525642395,0.5169102549552917,-0.836685061454773
1789214102030817300,0.5728173828125,-0.14772021770477295,0.10221824795007706,-0.9120311737060547
1789214102040843300,0.58284326171875,-0.4105193614959717,-0.3799467980861664,-0.928211510181427
1789214102050875100,0.592875244140625,-0.554248034954071,-0.7364660501480103,-0.9136442542076111
1789214102060906200,0.60290625,-0.28667038679122925,-1.3847047090530396,-0.7154155969619751
1789214102070938000,0.612938232421875,0.07792995125055313,-1.1826871633529663,-0.4493578374385834
1789214102080969200,0.62296923828125,0.4791894853115082,-0.718407154083252,0.04231762886047363
1789214102091001300,0.63300146484375,0.819957971572876,0.11046312749385834,0.5679694414138794
1789214102101033200,0.643033203125,1.0000559091567993,0.8057817220687866,1.0217132568359375
1789214102111064300,0.653064208984375,0.9210598468780518,0.9102380871772766,1.1687716245651245
1789214102121096200,0.66309619140625,0.7815908789634705,0.41436415910720825,0.9273175001144409
1789214102131127000,0.673126953125,0.6626021862030029,0.22408156096935272,0.5264329314231873
1789214102141159200,0.6831591796875,0.5587500929832458,0.10619514435529709,0.15917180478572845
1789214102151190000,0.69318994140625,0.39784136414527893,-0.10528088361024857,-0.19269302487373352
1789214102161222100,0.70322216796875,0.30530211329460144,-0.3170053958892822,-0.4092263877391815
1789214102171253200,0.713253173828125,0.27497830986976624,-0.45147210359573364,-0.5101562142372131
1789214102181285000,0.72328515625,0.26792892813682556,-0.4664992690086365,-0.5250123739242554
1789214102191317000,0.73331689453125,0.22548158466815948,-0.3635057806968689,-0.4031597077846527
1789214102201348000,0.74334814453125,0.11317822337150574,-0.3066456913948059,-0.20169104635715485
1789214102211380200,0.753380126953125,-0.04041639715433121,-0.3566468060016632,0.04073251411318779
1789214102221411300,0.763411376953125,-0.24703802168369293,-0.5250512361526489,0.3292742967605591
1789214102231443200,0.773443115234375,-0.5296359062194824,-0.7171666622161865,0.587500274181366
1789214102241474000,0.78347412109375,-0.8477256894111633,-0.9400548338890076,0.7762911915779114
1789214102251506200,0.793506103515625,-1.2076811790466309,-1.2003540992736816,0.8884356021881104
1789214102261537000,0.803537109375,-1.6080890893936157,-1.3428432941436768,0.9184738993644714
1789214102271569200,0.813569091796875,-1.9586329460144043,-1.3265596628189087,0.8308753371238708
1789214102281600300,0.823600341796875,-2.025251626968384,-0.9786011576652527,0.3605949282646179
1789214102291632000,0.833632080078125,-1.7866287231445312,-0.7734658718109131,-0.06169239431619644
1789214102301664000,0.8436640625,-1.3793808221817017,-0.41022586822509766,-0.38320305943489075
1789214102311695000,0.853695068359375,-0.7011852860450745,-0.031676970422267914,-0.5373420119285583
1789214102321727200,0.863727294921875,0.0694672241806984,0.4767167568206787,-0.4016244113445282
1789214102331758300,0.87375830078125,0.4525107443332672,0.6411552429199219,-0.26914864778518677
1789214102341790200,0.883790283203125,0.4661831557750702,0.39306581020355225,-0.22837059199810028
1789214102351821300,0.8938212890625,0.39458540081977844,0.1537000834941864,-0.09354326874017715
1789214102361853200,0.903853271484375,0.14141970872879028,-0.19295747578144073,0.025144236162304878
1789214102371885000,0.913885009765625,-0.2294933795928955,-0.42218106985092163,0.08229673653841019
1789214102381916200,0.923916259765625,-0.4637751281261444,-0.31259679794311523,0.07455971837043762
1789214102391948300,0.9339482421875,-0.5084810853004456,0.10090557485818863,0.017434917390346527
1789214102401979100,0.943979248046875,-0.4920442998409271,0.7131942510604858,0.0056741307489573956
1789214102412011300,0.95401123046875,-0.4314022660255432,1.3189947605133057,0.07578983902931213
1789214102422042000,0.9640419921875,-0.3755379319190979,1.8137037754058838,0.19059258699417114
1789214102432074000,0.974073974609375,-0.3483297526836395,1.8919522762298584,0.3376619219779968
1789214102442105000,0.98410498046875,-0.33233800530433655,1.5138903856277466,0.4014347791671753
1789214102452137200,0.99413720703125,-0.294236958026886,1.1835650205612183,0.40582260489463806
1789214102462169000,1.004169189453125,-0.23737287521362305,0.7095997929573059,0.2864362895488739
1789214102472200200,1.0142001953125,-0.13718608021736145,0.34496909379959106,0.1288975328207016
1789214102482232000,1.024232177734375,-0.07893822342157364,0.2788199186325073,-0.035115111619234085
1789214102492263200,1.03426318359375,-0.11720918118953705,0.3017728924751282,-0.14378832280635834
1789214102502295300,1.04429541015625,-0.11901746690273285,0.329506516456604,-0.18811877071857452
1789214102512326100,1.054326171875,-0.1842382848262787,0.4544367492198944,-0.10380709171295166
1789214102522358300,1.064358154296875,-0.32641008496284485,0.6233291029930115,0.09239012002944946
1789214102532389000,1.07438916015625,-0.44290846586227417,0.3536800444126129,0.11063303798437119
1789214102542421000,1.0844208984375,-0.5295509099960327,0.18789906799793243,0.13389362394809723
1789214102552453000,1.094453125,-0.43587982654571533,0.13732217252254486,0.20097385346889496
1789214102562484200,1.104484130859375,-0.3018251061439514,0.0051867724396288395,0.20811858773231506
1789214102572516000,1.11451611328125,-0.20883630216121674,-0.1763838231563568,0.18132798373699188
1789214102582547200,1.124547119140625,-0.11709120124578476,-0.37871161103248596,0.1613774448633194
1789214102592579000,1.1345791015625,0.03015577234327793,-0.3443901240825653,0.14919747412204742
1789214102602610200,1.144610107421875,0.13595810532569885,-0.5167747139930725,0.06656570732593536
1789214102612642000,1.15464208984375,0.23093414306640625,-0.585862934589386,0.0895080417394638
1789214102622674200,1.164674072265625,0.22458970546722412,-0.5893381237983704,0.07318313419818878
1789214102632705300,1.174705322265625,0.09528949856758118,-0.4883449077606201,0.03937457129359245
1789214102642737200,1.184737060546875,0.017585119232535362,-0.2995041608810425,-0.00899855513125658
1789214102652768300,1.194768310546875,-0.04212428256869316,-0.028598621487617493,-0.09034480899572372
1789214102662800100,1.204800048828125,-0.017286311835050583,0.21739010512828827,-0.16836397349834442
1789214102672831000,1.2148310546875,0.0923008993268013,0.17894499003887177,-0.3174093961715698
1789214102682863400,1.22486328125,0.05329970642924309,0.09558936953544617,-0.46387553215026855
1789214102692894200,1.234894287109375,0.0415266714990139,-0.12807168066501617,-0.5923836827278137
1789214102702926000,1.244926025390625,-0.0027134947013109922,-0.40216660499572754,-0.719675600528717
1789214102712958200,1.254958251953125,0.07568730413913727,-0.4584493339061737,-0.7644017934799194
1789214102722989000,1.264989013671875,0.11177393794059753,-0.3946152329444885,-0.766004741191864
1789214102733021200,1.275021240234375,0.10285340994596481,-0.2621530592441559,-0.7019107341766357
1789214102743052300,1.28505224609375,0.055800147354602814,-0.12967756390571594,-0.5603072643280029
1789214102753084200,1.295084228515625,0.007393734063953161,-0.18644897639751434,-0.46050742268562317
1789214102763115300,1.305115234375,0.039031021296978,-0.15462152659893036,-0.3472788631916046
1789214102773147100,1.315147216796875,0.06385887414216995,-0.10014444589614868,-0.2760654091835022
1789214102783179000,1.325178955078125,0.09941553324460983,-0.1492035984992981,-0.26036500930786133
1789214102793210400,1.33521044921875,0.08923374116420746,-0.15492753684520721,-0.20771564543247223
1789214102803242200,1.3452421875,0.07389872521162033,-0.16125120222568512,-0.10290614515542984
1789214102813273000,1.355273193359375,-0.019051454961299896,-0.21096709370613098,0.023814784362912178
1789214102823305200,1.36530517578125,-0.15605910122394562,-0.3585786521434784,0.17183327674865723
1789214102833336000,1.375336181640625,-0.23044545948505402,-0.48360687494277954,0.26277491450309753
1789214102843368000,1.385367919921875,-0.21558767557144165,-0.5200905799865723,0.29685163497924805
1789214102853400300,1.395400390625,-0.11856260150671005,-0.4568152129650116,0.30991098284721375
1789214102863431200,1.40543115234375,-0.022936474531888962,-0.3388134837150574,0.2937757074832916
1789214102873463000,1.415463134765625,0.07426118105649948,-0.21961358189582825,0.2574999928474426
1789214102883494100,1.425494140625,0.19229860603809357,-0.061047639697790146,0.2998436987400055
1789214102893526000,1.435526123046875,0.22789335250854492,0.0744665116071701,0.37260472774505615
1789214102903557000,1.44555712890625,0.23911111056804657,-0.047751810401678085,0.4418748915195465
1789214102913589200,1.45558935546875,0.3214864134788513,-0.40321084856987,0.4711344838142395
1789214102923621000,1.46562109375,0.3110646605491638,-0.7398386597633362,0.5207657217979431
1789214102933652200,1.47565234375,0.1670025736093521,-1.0003855228424072,0.572484016418457
1789214102943684000,1.48568408203125,0.13116520643234253,-1.0044394731521606,0.5694789290428162
1789214102953715200,1.495715087890625,0.200351744890213,-0.7489448189735413,0.45834413170814514
1789214102963747300,1.505747314453125,0.29103875160217285,-0.43172478675842285,0.3349710702896118
1789214102973778200,1.515778076171875,0.33114543557167053,-0.12573768198490143,0.20323887467384338
1789214102983810300,1.525810302734375,0.305629163980484,-0.05452236533164978,0.07608944177627563
1789214102993842200,1.53584228515625,0.26466280221939087,-0.27337828278541565,-0.00507065886631608
1789214103003873000,1.545873046875,0.2537190914154053,-0.5538778305053711,-0.04621143639087677
1789214103013905200,1.5559052734375,0.28954634070396423,-0.823448896408081,-0.0030277478508651257
1789214103023936300,1.565936279296875,0.3383847177028656,-1.0352298021316528,0.06035016104578972
1789214103033968000,1.575968017578125,0.35270825028419495,-1.0889079570770264,0.13361239433288574
1789214103043999000,1.5859990234375,0.32253170013427734,-1.0423657894134521,0.12979021668434143
1789214103054030800,1.59603076171875,0.279256671667099,-0.8224826455116272,0.08872001618146896
1789214103064063000,1.60606298828125,0.2647656202316284,-0.530345618724823,-0.004169445019215345
1789214103074094000,1.616093994140625,0.27539002895355225,-0.2163591980934143,-0.1113390401005745
1789214103084126000,1.6261259765625,0.27972298860549927,0.11884009838104248,-0.17157335579395294
1789214103094157000,1.636156982421875,0.29331016540527344,0.3577725291252136,-0.16624410450458527
1789214103104189000,1.64618896484375,0.3026866316795349,0.4769713580608368,-0.11848350614309311
1789214103114221000,1.656220947265625,0.3114961087703705,0.534383237361908,-0.08844464272260666
1789214103124252200,1.666252197265625,0.2624902129173279,0.4788736402988434,-0.0950346365571022
1789214103134284000,1.676283935546875,0.1891973465681076,0.3228222727775574,-0.11558065563440323
1789214103144315000,1.68631494140625,0.19288289546966553,0.19295001029968262,-0.16256068646907806
1789214103154347000,1.696346923828125,0.29855474829673767,0.11051798611879349,-0.14232918620109558
1789214103164377900,1.7063779296875,0.3942684829235077,0.07484334707260132,-0.10561297833919525
1789214103174410000,1.716409912109375,0.4127710461616516,0.0807555690407753,-0.09015759080648422
1789214103184442000,1.726442138671875,0.44498705863952637,0.22603446245193481,-0.11755859106779099
1789214103194473000,1.736472900390625,0.4828827679157257,0.4426533281803131,-0.22489409148693085
1789214103204505000,1.746505126953125,0.5160870552062988,0.6427121162414551,-0.3239319920539856
1789214103214536000,1.756535888671875,0.35647475719451904,0.585182249546051,-0.33948805928230286
1789214103224567800,1.76656787109375,-0.6829767227172852,0.39935964345932007,0.037751372903585434
1789214103234600200,1.77660009765625,-0.7945111989974976,0.531085193157196,0.49850645661354065
1789214103244631000,1.786631103515625,-0.5024370551109314,0.0860709697008133,0.3610399663448334
1789214103254663000,1.796662841796875,0.1367325484752655,-0.7260757088661194,0.0023587618488818407
1789214103264694000,1.806694091796875,0.8144516348838806,-1.0295127630233765,-0.2104693502187729
1789214103274726000,1.816725830078125,1.1710782051086426,-1.302936315536499,-0.38698235154151917
1789214103284757000,1.826757080078125,1.2099488973617554,-1.6382323503494263,-0.4058593511581421
1789214103294789000,1.8367890625,1.060820460319519,-1.9934109449386597,-0.19745448231697083
1789214103304821000,1.846821044921875,0.8014969825744629,-2.4666473865509033,0.12500637769699097
1789214103314852000,1.85685205078125,0.5034628510475159,-3.144019603729248,0.43006375432014465
1789214103324884000,1.866884033203125,0.4796707332134247,-5.259504318237305,0.1991828829050064
1789214103334914800,1.876914794921875,0.669697105884552,-7.5263991355896,-0.22011318802833557
1789214103344947200,1.886947265625,0.6467204093933105,-8.747498512268066,-0.4773250222206116
1789214103354978000,1.89697802734375,0.37691131234169006,-9.041582107543945,-0.6823370456695557
1789214103365010000,1.907010009765625,-0.150613471865654,-8.43787670135498,-0.7649991512298584
1789214103375042000,1.9170419921875,-0.597598671913147,-6.958642959594727,-1.0517339706420898
1789214103385073000,1.927072998046875,-0.660420298576355,-5.660245895385742,-1.3775091171264648
1789214103395104800,1.937104736328125,-0.23428334295749664,-4.794609069824219,-1.6297414302825928
1789214103405136100,1.94713623046875,0.4802800714969635,-4.298354625701904,-1.7415246963500977
1789214103415168000,1.95716796875,1.3244776725769043,-4.316692352294922,-1.6739943027496338
1789214103425199900,1.967199951171875,1.9396190643310547,-4.516754150390625,-1.433899998664856
1789214103435231000,1.97723095703125,2.3045287132263184,-4.7670817375183105,-1.0122592449188232
1789214103445262800,1.987262939453125,2.5007965564727783,-5.165241241455078,-0.4412386417388916
1789214103455294000,1.9972939453125,2.593414545059204,-5.382958889007568,0.21814991533756256
1789214103465326000,2.007326171875,2.665921926498413,-5.436986446380615,0.8261346817016602
1789214103475357000,2.01735693359375,2.811213731765747,-5.531646728515625,1.2659114599227905
1789214103485389000,2.02738916015625,3.015824794769287,-5.580894470214844,1.5578075647354126
1789214103495421000,2.0374208984375,3.2084827423095703,-5.513453960418701,1.700934648513794
1789214103505452000,2.0474521484375,3.3664238452911377,-5.53582763671875,1.7754451036453247
1789214103515484200,2.057484130859375,3.506695032119751,-5.570127964019775,1.9363921880722046
1789214103525515000,2.067514892578125,3.7219502925872803,-5.325879096984863,2.306187152862549
1789214103535547100,2.077547119140625,3.9736101627349854,-4.833038806915283,2.8384859561920166
1789214103545579000,2.0875791015625,4.257258415222168,-4.170413970947266,3.3041040897369385
1789214103555609900,2.09760986328125,4.587183952331543,-3.2651028633117676,3.3545730113983154
1789214103565642000,2.10764208984375,5.015978813171387,-1.9907294511795044,2.858201742172241
1789214103575673000,2.117673095703125,5.322237491607666,-0.7183184623718262,1.999667763710022
1789214103585705000,2.127705078125,5.300697326660156,0.40847137570381165,1.1108078956604004
1789214103595736000,2.137736083984375,4.936279773712158,1.3095450401306152,0.47260430455207825
1789214103605768000,2.147767822265625,4.395334720611572,1.879056453704834,0.12215813249349594
1789214103615799800,2.1577998046875,3.928189754486084,2.2118337154388428,-0.09181620925664902
1789214103625831000,2.167830810546875,3.7724976539611816,2.3266429901123047,-0.29554030299186707
1789214103635863000,2.177863037109375,3.816675901412964,2.3116142749786377,-0.582038938999176
1789214103645894100,2.18789404296875,3.890669345855713,2.151689052581787,-0.8994203209877014
1789214103655926000,2.197926025390625,4.0473151206970215,1.903815507888794,-1.0578852891921997
1789214103665958000,2.2079580078125,4.35073709487915,1.5481536388397217,-0.8978914022445679
1789214103675989000,2.217989013671875,4.5465803146362305,1.4294184446334839,-0.5332404971122742
1789214103686021000,2.228021240234375,4.326566696166992,1.7007132768630981,-0.0941600576043129
1789214103696052000,2.238052001953125,3.7790679931640625,2.3297102451324463,0.3116929233074188
1789214103706084000,2.248083984375,3.097252368927002,3.417325973510742,0.6310935616493225
1789214103716116000,2.258115966796875,2.85127329826355,4.282054424285889,0.4204891622066498
1789214103726146800,2.268146728515625,2.7381062507629395,4.50697135925293,-0.1994292140007019
1789214103736179000,2.278178955078125,2.452282428741455,4.17203950881958,-0.9067288637161255
1789214103746210000,2.2882099609375,2.0303053855895996,3.280730962753296,-1.388540267944336
1789214103756242000,2.298241943359375,1.610177755355835,2.1411266326904297,-1.4152789115905762
1789214103766274000,2.308274169921875,1.314577341079712,0.8936687111854553,-0.9098204970359802
1789214103776305000,2.318304931640625,1.15317964553833,-0.02592853643000126,-0.1516110897064209
1789214103786337000,2.3283369140625,1.0362170934677124,-0.19440330564975739,0.5828719735145569
1789214103796368000,2.338367919921875,0.9856111407279968,0.047689225524663925,1.112018346786499
1789214103806400000,2.34839990234375,1.015926480293274,0.41795942187309265,1.1473947763442993
1789214103816431000,2.35843115234375,1.1818714141845703,0.6399238109588623,0.9375479817390442
1789214103826463000,2.368462890625,1.1263256072998047,0.5607432126998901,0.5976575613021851
1789214103836494800,2.378494873046875,0.9088074564933777,0.06297603249549866,0.5323309898376465
1789214103846526000,2.38852587890625,0.6165332198143005,-0.11133477836847305,0.723863422870636
1789214103856558000,2.39855810546875,0.6037447452545166,-0.5614843964576721,0.7020324468612671
1789214103866589200,2.408589111328125,0.7517597675323486,-0.7406488060951233,0.7532793879508972
1789214103876621000,2.41862109375,0.9492632746696472,-0.7050713896751404,0.7113503217697144
1789214103886653000,2.42865283203125,1.0519933700561523,-1.0426491498947144,0.42344287037849426
1789214103896684000,2.43868408203125,1.0061140060424805,-1.6836738586425781,0.30124878883361816
1789214103906716200,2.448716064453125,0.735588788986206,-1.79432213306427,0.7742296457290649
1789214103916747000,2.4587470703125,0.5620934367179871,-1.3243234157562256,1.3985190391540527
1789214103926779100,2.468779052734375,0.6833394169807434,-1.279686689376831,1.8023473024368286
1789214103936811000,2.47881103515625,0.7316763401031494,-1.4014326333999634,1.7770652770996094
1789214103946841900,2.488841796875,0.6994185447692871,-1.529013991355896,1.4553648233413696
1789214103956874000,2.4988740234375,0.6841399669647217,-1.6875567436218262,1.502655029296875
1789214103966904800,2.50890478515625,0.8939701914787292,-2.7412009239196777,2.0436158180236816
1789214103976937000,2.51893701171875,1.2388801574707031,-1.3299733400344849,2.8989017009735107
1789214103986969000,2.528968994140625,1.4744236469268799,-1.2671935558319092,1.644685983657837
1789214103997000000,2.539,1.1597627401351929,-2.3409457206726074,0.5438968539237976
1789214104007031800,2.54903173828125,0.882407546043396,-3.4620401859283447,1.3150193691253662
1789214104017063000,2.55906298828125,0.6952269673347473,-3.121218681335449,1.7270005941390991
1789214104027095000,2.569094970703125,0.4431036710739136,-2.8864586353302,1.0744198560714722
1789214104037126100,2.579126220703125,0.22651143372058868,-3.210111141204834,1.4110995531082153
1789214104047158000,2.589157958984375,0.42065295577049255,-3.391498327255249,1.6296290159225464
1789214104057190000,2.59918994140625,0.5130473375320435,-2.7254791259765625,2.0326087474823
1789214104067221000,2.609220947265625,0.7414698600769043,-1.9068886041641235,2.122553586959839
1789214104077252900,2.6192529296875,0.7184380292892456,-1.312180519104004,1.5629562139511108
1789214104087284000,2.629283935546875,1.0712522268295288,-0.5163933038711548,0.5508687496185303
1789214104097316000,2.639316162109375,1.2472795248031616,-0.09077810496091843,0.019031481817364693
1789214104107348000,2.649347900390625,0.9962102770805359,-0.6150767803192139,0.17991596460342407
1789214104117379000,2.659379150390625,0.6255211234092712,-1.4716867208480835,0.5785552263259888
1789214104127411000,2.669410888671875,0.49403315782546997,-2.0809614658355713,0.8297113180160522
1789214104137441800,2.67944189453125,0.6348219513893127,-2.3995680809020996,0.8412880301475525
1789214104147474000,2.689473876953125,0.7599335312843323,-2.505556106567383,0.822260320186615
1789214104157506000,2.699506103515625,0.7755175828933716,-2.557792901992798,0.8618226051330566
1789214104167537000,2.709536865234375,0.6388915181159973,-2.652627468109131,0.8854874968528748
1789214104177569000,2.719569091796875,0.45396164059638977,-2.2737104892730713,0.8844576478004456
1789214104187600000,2.729599853515625,0.3082196116447449,-1.867862343788147,0.6091246008872986
1789214104197631700,2.7396318359375,0.10958055406808853,-1.4400508403778076,0.34998437762260437
1789214104207664000,2.7496640625,-0.13645344972610474,-1.1562529802322388,0.13687875866889954
1789214104217695000,2.759695068359375,-0.34569376707077026,-1.045140027999878,-0.09869062155485153
1789214104227726800,2.769726806640625,-0.5074102282524109,-1.1106489896774292,-0.3589014410972595
1789214104237758000,2.779758056640625,-0.6275898814201355,-1.2159055471420288,-0.6275065541267395
1789214104247789800,2.789789794921875,-0.770331859588623,-1.3009352684020996,-0.9035868644714355
1789214104257821700,2.79982177734375,-0.9751217365264893,-1.2752131223678589,-1.077436923980713
1789214104267853000,2.80985302734375,-1.2083790302276611,-1.2064005136489868,-1.0830577611923218
1789214104277885000,2.819885009765625,-1.3835194110870361,-1.1722707748413086,-0.9615524411201477
1789214104287916000,2.829916015625,-1.3833569288253784,-0.9978734254837036,-0.7154560685157776
1789214104297948000,2.839947998046875,-1.1390254497528076,-0.46145471930503845,-0.28201010823249817
1789214104307979800,2.849979736328125,-0.649894654750824,0.09529349207878113,0.04222921282052994
1789214104318011000,2.860010986328125,-0.20184125006198883,0.5323480367660522,0.22698813676834106
1789214104328043000,2.87004296875,-0.010691259987652302,0.848332405090332,0.42124709486961365
1789214104338073900,2.880073974609375,-0.07747002691030502,0.7664324641227722,0.4405371844768524
1789214104348106000,2.89010595703125,-0.20350944995880127,0.681503176689148,0.3971439003944397
1789214104358137900,2.900137939453125,-0.2843552827835083,0.7050881385803223,0.4119934141635895
1789214104368168700,2.910168701171875,-0.2623986005783081,0.8313014507293701,0.5068607926368713
1789214104378201000,2.920201171875,-0.1386689394712448,1.0278328657150269,0.6798528432846069
1789214104388232000,2.93023193359375,0.027700869366526604,1.1779608726501465,0.7468419671058655
1789214104398263800,2.940263916015625,0.11121334135532379,1.1766670942306519,0.8436404466629028
1789214104408296000,2.9502958984375,0.06088971719145775,1.048640489578247,1.2971373796463013
1789214104418326800,2.960326904296875,0.06822565943002701,0.48976758122444153,1.3464792966842651
1789214104428359000,2.97035888671875,-0.04297037050127983,0.4162752330303192,1.1020373106002808
1789214104438391000,2.98039111328125,0.09241515398025513,0.13756318390369415,1.2584519386291504
1789214104448422000,2.990421875,0.1169002577662468,0.08516868948936462,0.5467373728752136
1789214104458454000,3.0004541015625,0.10270188003778458,0.12902109324932098,0.0364173948764801
1789214104468484900,3.01048486328125,0.007526625879108906,-0.13376206159591675,0.317852258682251
1789214104478516700,3.020516845703125,-0.1733584702014923,-0.6069719791412354,0.5861375331878662
1789214104488549000,3.030549072265625,-0.20925761759281158,-0.5575231909751892,0.6557570695877075
1789214104498580000,3.040580078125,0.0008647284121252596,-0.3388933837413788,0.6409624218940735
1789214104508611800,3.05061181640625,0.22440886497497559,-0.2567044794559479,0.5739418268203735
1789214104518643000,3.060642822265625,0.27202245593070984,-0.4493383765220642,0.5201334953308105
1789214104528674800,3.0706748046875,0.2296861857175827,-0.8698403239250183,0.48524925112724304
1789214104538707000,3.08070703125,0.1937958300113678,-1.1298218965530396,0.42841073870658875
1789214104548738000,3.090738037109375,0.16643531620502472,-1.0486739873886108,0.21613895893096924
1789214104558770000,3.10077001953125,0.14256353676319122,-0.8247578144073486,-0.12390303611755371
1789214104568801000,3.110801025390625,0.06662376970052719,-0.6490171551704407,-0.4800558090209961
1789214104578833000,3.1208330078125,-0.06817612797021866,-0.47264665365219116,-0.838623583316803
1789214104588864800,3.13086474609375,-0.20428043603897095,-0.3835516571998596,-1.1978368759155273
1789214104598896000,3.140896240234375,-0.3473164141178131,-0.3369103670120239,-1.453115701675415
1789214104608928000,3.150927978515625,-0.4417475759983063,-0.2745274305343628,-1.5182993412017822
1789214104618958800,3.160958740234375,-0.5062301754951477,-0.4121342897415161,-1.4632885456085205
1789214104628991000,3.170990966796875,-0.5740616917610168,-0.6785529255867004,-1.4499372243881226
1789214104639022800,3.18102294921875,-0.5973507761955261,-0.9799284934997559,-1.3221793174743652
1789214104649053700,3.1910537109375,-0.549028217792511,-1.285605549812317,-1.0706874132156372
1789214104659086000,3.201086181640625,-0.5191025733947754,-1.251901626586914,-0.7217928171157837
1789214104669118000,3.211117919921875,-0.4102588891983032,-0.7237100005149841,-0.4748096466064453
1789214104679148800,3.221148681640625,-0.1466728001832962,0.08367811888456345,-0.29345956444740295
1789214104689181000,3.231180908203125,0.21912994980812073,0.766003429889679,-0.017834125086665154
1789214104699211800,3.241211669921875,0.4836713373661041,1.066448450088501,0.36436066031455994
1789214104709244000,3.251243896484375,0.5406166315078735,0.8937960267066956,0.6605856418609619
1789214104719276000,3.261276123046875,0.5158002376556396,0.728870153427124,0.8168644905090332
1789214104729307000,3.271306884765625,0.5438480973243713,0.801487386226654,0.7411108613014221
1789214104739338800,3.2813388671875,0.5120201706886292,0.923200249671936,0.4998769164085388
1789214104749369900,3.291369873046875,0.4641365110874176,0.8413756489753723,0.31417950987815857
1789214104759401700,3.301401611328125,0.4027152359485626,0.675298273563385,0.20859262347221375
1789214104769433900,3.311433837890625,0.43867430090904236,0.5146684050559998,0.09026917815208435
1789214104779465000,3.32146484375,0.48385483026504517,0.48627322912216187,-0.008628375828266144
1789214104789496800,3.331496826171875,0.5862331390380859,0.4162352979183197,-0.08693143725395203
1789214104799529000,3.341529052734375,0.6926434636116028,0.3217484652996063,-0.2142062932252884
1789214104809559800,3.351559814453125,0.8019686341285706,0.20145907998085022,-0.41913309693336487
1789214104819592000,3.361592041015625,0.6928466558456421,-0.01818033494055271,-0.645323634147644
1789214104829623000,3.371623046875,0.20323514938354492,-0.08058006316423416,-0.9547402858734131
1789214104839655000,3.381655029296875,-0.37883493304252625,0.31518831849098206,-1.101554036140442
1789214104849686800,3.391686767578125,-1.0047537088394165,0.6046283841133118,-1.1983181238174438
1789214104859718000,3.4017177734375,-1.4205697774887085,0.8276817202568054,-1.1529152393341064
1789214104869750000,3.41175,-1.3584965467453003,0.7728360295295715,-1.0434606075286865
1789214104879782000,3.421781982421875,-0.7683331370353699,0.8906816840171814,-0.88458651304245
1789214104889813000,3.43181298828125,-0.08395162224769592,1.0641813278198242,-0.8656514286994934
1789214104899844900,3.441844970703125,0.645566999912262,1.3218077421188354,-0.8732068538665771
1789214104909876000,3.4518759765625,1.240293264389038,1.4983974695205688,-0.9492179751396179
1789214104919907800,3.461907958984375,2.051100015640259,1.6576555967330933,-0.8831750750541687
1789214104929940000,3.47193994140625,2.8301033973693848,1.95319402217865,-0.935543954372406
1789214104939971000,3.48197119140625,3.243572473526001,1.984786868095398,-0.9970803260803223
1789214104950003000,3.4920029296875,3.3035993576049805,1.5965455770492554,-0.988886296749115
1789214104960034800,3.502034912109375,3.2193515300750732,1.1946340799331665,-0.6993402242660522
1789214104970066000,3.51206591796875,2.9334583282470703,1.0064866542816162,0.11805340647697449
1789214104980098000,3.52209814453125,2.6022982597351074,0.9162214398384094,0.5841580033302307
1789214104990129000,3.53212890625,1.8820993900299072,1.0297086238861084,0.763304591178894
1789214105000161000,3.5421611328125,1.144070029258728,1.5574874877929688,0.710859477519989
1789214105010193000,3.55219287109375,0.58697110414505,1.8685842752456665,0.7431585788726807
1789214105020223700,3.5622236328125,0.061822086572647095,1.6780023574829102,0.7080690264701843
1789214105030255900,3.572255859375,-0.39086443185806274,1.4594889879226685,0.6309601068496704
1789214105040288000,3.5822880859375,-0.7497029900550842,1.4514752626419067,0.6081386804580688
1789214105050320000,3.59231982421875,-0.9937732219696045,1.5786638259887695,0.7060372829437256
1789214105060351700,3.602351806640625,-1.350211262702942,1.8315876722335815,0.9267568588256836
1789214105070383900,3.6123837890625,-1.6101136207580566,1.7950369119644165,0.8804264068603516
1789214105080414700,3.622414794921875,-1.6393431425094604,1.7280772924423218,0.6795169711112976
1789214105090446800,3.63244677734375,-1.8178596496582031,1.6424217224121094,0.8278912901878357
1789214105100479000,3.64247900390625,-2.022756576538086,1.0676378011703491,1.144166111946106
1789214105110509800,3.652509765625,-1.755717158317566,0.283178448677063,1.4455121755599976
1789214105120541700,3.662541748046875,-1.1829633712768555,-0.35309627652168274,1.5732847452163696
1789214105130572800,3.67257275390625,-0.6327478885650635,-0.9522273540496826,1.614330530166626
1789214105140605000,3.68260498046875,-0.11810959875583649,-1.5271601676940918,1.4579867124557495
1789214105150636800,3.69263671875,0.2318907529115677,-1.9167864322662354,1.086395502090454
1789214105160668000,3.70266796875,0.11565762013196945,-2.2567787170410156,0.9898908734321594
1789214105170699800,3.71269970703125,-0.08657297492027283,-2.317499876022339,0.8551751375198364
1789214105180731600,3.722731689453125,-0.23101350665092468,-1.8444401025772095,0.48013198375701904
1789214105190762800,3.7327626953125,-0.41902628540992737,-1.417839765548706,0.05271248146891594
1789214105200795000,3.742794921875,-0.7074732780456543,-1.4181468486785889,-0.27366697788238525
1789214105210826000,3.752825927734375,-0.9201890230178833,-1.6366541385650635,-0.6013939380645752
1789214105220857900,3.76285791015625,-1.0185587406158447,-1.801815152168274,-0.8813340067863464
1789214105230889700,3.7728896484375,-1.2345386743545532,-2.177175998687744,-1.140048623085022
1789214105240920800,3.7829208984375,-1.4415723085403442,-2.5405571460723877,-1.4735920429229736
1789214105250953000,3.792952880859375,-1.1351583003997803,-3.0912716388702393,-1.940463900566101
1789214105260984800,3.80298486328125,-0.8429551720619202,-3.1268343925476074,-2.463810920715332
1789214105271016000,3.813015869140625,-0.926952064037323,-3.2779340744018555,-2.2523818016052246
1789214105281047800,3.8230478515625,-1.130768060684204,-3.747722864151001,-1.869642972946167
1789214105291079700,3.83307958984375,-1.4074236154556274,-3.8624842166900635,-1.2637923955917358
1789214105301111000,3.843111083984375,-1.2545545101165771,-3.542015314102173,-1.1465212106704712
1789214105311143000,3.853142822265625,-1.1752463579177856,-2.9489834308624268,-1.3359267711639404
1789214105321174000,3.863174072265625,-1.049557089805603,-2.4686124324798584,-1.557551383972168
1789214105331206000,3.873205810546875,-0.9792291522026062,-1.9855144023895264,-1.564296841621399
1789214105341237800,3.88323779296875,-0.8238469958305359,-1.6597692966461182,-1.3607754707336426
1789214105351268900,3.893268798828125,-0.7246927618980408,-1.4538401365280151,-1.1610755920410156
1789214105361301000,3.903301025390625,-0.6890287399291992,-1.3424315452575684,-1.070855975151062
1789214105371332900,3.913332763671875,-0.7167977690696716,-1.3963052034378052,-0.9043295979499817
1789214105381364000,3.923364013671875,-0.7109457850456238,-1.4187310934066772,-0.7372766733169556
1789214105391395800,3.933395751953125,-0.7401057481765747,-1.5276222229003906,-0.6016728281974792
1789214105401428000,3.943427978515625,-0.8203449845314026,-1.7378054857254028,-0.5134132504463196
1789214105411459000,3.953458984375,-0.6341151595115662,-1.8755003213882446,-0.41219234466552734
1789214105421491000,3.963490966796875,-0.531088650226593,-2.0819945335388184,-0.386965811252594
1789214105431521800,3.973521728515625,-0.6899230480194092,-2.1403937339782715,-0.4458613693714142
1789214105441554000,3.983553955078125,-0.7598565816879272,-1.7609577178955078,-0.5056676864624023
1789214105451585800,3.993585693359375,-0.8469477891921997,-1.4120020866394043,-0.783487856388092
1789214105461616600,4.00361669921875,-0.6681777834892273,-0.8984978199005127,-1.0078586339950562
1789214105471649000,4.01364892578125,-0.6280375719070435,-0.5327190160751343,-1.228872537612915
1789214105481681000,4.023680908203125,-0.4894959330558777,-0.4012869596481323,-1.3666162490844727
1789214105491711700,4.033711669921875,-0.25550714135169983,-0.3425869047641754,-1.266848087310791
1789214105501743900,4.043743896484375,-0.21861489117145538,-0.49323979020118713,-1.106113314628601
1789214105511776000,4.05377587890625,-0.5261074900627136,-0.5339933633804321,-0.9355500936508179
1789214105521806800,4.063806884765625,-0.3431975841522217,-0.5374562740325928,-0.8412459492683411
1789214105531839000,4.0738388671875,-0.11019600927829742,-0.612387478351593,-0.6123829483985901
1789214105541870800,4.083870849609375,0.214345321059227,-0.4798968434333801,-0.3200158178806305
1789214105551901700,4.093901611328125,0.5842581391334534,-0.32666438817977905,-0.1302725225687027
1789214105561933800,4.103933837890625,0.6316632032394409,-0.2971930503845215,-0.08948780596256256
1789214105571965000,4.11396484375,0.6628663539886475,-0.23450598120689392,-0.059475578367710114
1789214105581996800,4.123996826171875,0.7411284446716309,-0.11864621937274933,-0.16143789887428284
1789214105592029000,4.13402880859375,0.8117147088050842,0.04385853558778763,-0.2851142883300781
1789214105602059800,4.144059814453125,0.7010185718536377,0.13065814971923828,-0.3066350221633911
1789214105612092000,4.154091796875,0.4536662995815277,0.32508382201194763,-0.25440672039985657
1789214105622124000,4.1641240234375,0.4039362967014313,0.41585418581962585,-0.2206474244594574
1789214105632155000,4.17415478515625,0.45507296919822693,0.4789609909057617,-0.1518012434244156
1789214105642187000,4.18418701171875,0.5052242875099182,0.42674520611763,-0.036444827914237976
1789214105652219000,4.194218994140625,0.6666675209999084,0.5294697284698486,0.08700200915336609
1789214105662249700,4.204249755859375,0.8903261423110962,0.695469856262207,0.29964691400527954
1789214105672281900,4.21428173828125,1.2407475709915161,0.9181801676750183,0.6986486315727234
1789214105682314000,4.22431396484375,1.8882195949554443,1.2602914571762085,1.2121816873550415
1789214105692344800,4.2343447265625,2.9662935733795166,1.8268320560455322,1.7327615022659302
1789214105702377000,4.244376953125,4.327797889709473,2.7141950130462646,2.0802297592163086
1789214105712407800,4.25440771484375,5.204453945159912,3.2899253368377686,2.0790486335754395
1789214105722439700,4.264439697265625,4.872283935546875,2.824371337890625,1.8402764797210693
1789214105732472000,4.27447216796875,4.3889875411987305,2.1983590126037598,1.5124605894088745
1789214105742503000,4.2845029296875,3.6119191646575928,2.0256736278533936,1.0356053113937378
1789214105752534800,4.29453466796875,3.0431861877441406,2.379240036010742,0.5659946799278259
1789214105762567000,4.30456689453125,2.3995203971862793,2.100780487060547,0.06435715407133102
1789214105772597800,4.31459765625,1.8939778804779053,2.229924201965332,-0.17871302366256714
1789214105782630000,4.3246298828125,1.7802488803863525,2.190648317337036,-0.5521475672721863
1789214105792662000,4.334662109375,1.7045525312423706,1.8647469282150269,-0.6689866185188293
1789214105802692900,4.34469287109375,1.4584665298461914,1.4447981119155884,-0.5299823880195618
1789214105812724700,4.354724853515625,0.8274204134941101,0.6487870216369629,-0.3045436441898346
1789214105822756900,4.3647568359375,0.11154516786336899,-0.3272082209587097,-0.08654794096946716
1789214105832787700,4.37478759765625,0.11142799258232117,-1.1356565952301025,-0.20982620120048523
1789214105842819800,4.38481982421875,0.27149009704589844,-1.2572274208068848,-0.35777944326400757
1789214105852852000,4.39485205078125,0.49893391132354736,-0.9509804844856262,-0.4344364106655121
1789214105862882800,4.4048828125,0.6381916403770447,-0.6334065198898315,-0.4640084207057953
1789214105872914700,4.414914794921875,0.6415496468544006,-0.7136030793190002,-0.3707791268825531
1789214105882947000,4.424947021484375,0.7211198210716248,-0.7999374270439148,-0.17336033284664154
1789214105892978000,4.43497802734375,0.9069491028785706,-0.7840594053268433,0.11066526174545288
1789214105903009800,4.445009765625,0.8808043003082275,-0.8516834378242493,0.3349529504776001
1789214105913042000,4.4550419921875,0.7815315127372742,-1.0318257808685303,0.5311634540557861
1789214105923072800,4.46507275390625,0.3457387685775757,-1.2645690441131592,0.4965975284576416
1789214105933104600,4.475104736328125,0.0029984530992805958,-0.8317166566848755,0.5113087892532349
1789214105943136000,4.485135986328125,-0.42374807596206665,-0.9604546427726746,0.06744109094142914
1789214105953168000,4.49516796875,-0.8633866906166077,-1.0139293670654297,0.06535397469997406
1789214105963199700,4.50519970703125,-1.1621813774108887,-1.2177194356918335,0.17409349977970123
1789214105973230800,4.51523095703125,-1.013084053993225,-1.82525634765625,0.16314232349395752
1789214105983262700,4.5252626953125,-0.8818040490150452,-1.5885266065597534,0.2777216136455536
1789214105993294800,4.535294921875,-1.1007124185562134,-1.0676106214523315,0.17975512146949768
1789214106003326000,4.545325927734375,-1.1578569412231445,-0.6796919703483582,0.16426004469394684
1789214106013357800,4.55535791015625,-1.0707803964614868,-0.37619492411613464,0.23829858005046844
1789214106023389700,4.5653896484375,-0.8241833448410034,0.014524081721901894,0.4477229118347168
1789214106033420800,4.5754208984375,-0.5148705244064331,0.9858255386352539,0.8730542659759521
1789214106043453000,4.585452880859375,-0.12408013641834259,1.5140571594238281,0.9689767956733704
1789214106053484500,4.595484619140625,0.17564480006694794,1.4925246238708496,0.8286593556404114
1789214106063515400,4.605515380859375,-0.014750716276466846,0.9483734965324402,0.4953269064426422
1789214106073547300,4.61554736328125,-0.15662449598312378,-0.18243452906608582,0.39113181829452515
1789214106083579400,4.625579345703125,-0.9494190812110901,-0.5474883913993835,-0.19575166702270508
1789214106093610200,4.6356103515625,-1.0993441343307495,-0.8474966883659363,-0.7031839489936829
1789214106103642400,4.645642333984375,-1.1552902460098267,-0.8244398236274719,-1.3035342693328857
1789214106113674500,4.655674560546875,-0.80567467212677,-0.7983192801475525,-1.5491514205932617
1789214106123705300,4.665705322265625,-0.6847423911094666,-0.8349457383155823,-1.617480993270874
1789214106133737200,4.6757373046875,-0.7738925218582153,-0.8033449053764343,-1.7652236223220825
1789214106143769300,4.685769287109375,-1.0922670364379883,-0.548503577709198,-2.1975038051605225
1789214106153800200,4.69580029296875,-1.620107889175415,-0.5009145140647888,-2.844219207763672
1789214106163832300,4.705832275390625,-2.087672472000122,-0.2216828614473343,-3.252906084060669
1789214106173864400,4.715864501953125,-2.3346784114837646,-0.7062413096427917,-3.5295586585998535
1789214106183895300,4.725895263671875,-2.438002347946167,-0.864111602306366,-3.493565082550049
1789214106193927200,4.73592724609375,-2.3863706588745117,-0.5450872778892517,-3.309551477432251
1789214106203959600,4.74595947265625,-2.0522263050079346,-0.6751065254211426,-2.8081583976745605
1789214106213990400,4.755990478515625,-1.7410407066345215,-0.9259268045425415,-2.2743756771087646
1789214106224022300,4.766022216796875,-1.5703201293945312,-1.108864665031433,-1.6287933588027954
1789214106234054400,4.776054443359375,-1.3416163921356201,-1.379351258277893,-1.1162879467010498
1789214106244085200,4.786085205078125,-1.2503317594528198,-1.3721692562103271,-0.8028828501701355
1789214106254117400,4.796117431640625,-1.189336895942688,-1.094002366065979,-0.6564385890960693
1789214106264149500,4.8061494140625,-1.1174142360687256,-0.8302497863769531,-0.646900475025177
1789214106274180400,4.816180419921875,-1.0275535583496094,-0.5434052348136902,-0.6915033459663391
1789214106284212200,4.826212158203125,-0.9613822102546692,-0.2555183172225952,-0.7480310797691345
1789214106294243300,4.836243408203125,-1.0375478267669678,-0.014463627710938454,-0.6774072647094727
1789214106304275200,4.846275146484375,-0.9861493706703186,-0.02407311275601387,-0.4926712214946747
1789214106314307300,4.856307373046875,-0.8390390276908875,0.05897650122642517,-0.3533703088760376
1789214106324338400,4.86633837890625,-0.7490843534469604,0.14264796674251556,-0.22335585951805115
1789214106334370300,4.876370361328125,-0.6677799224853516,0.11760732531547546,-0.11740066111087799
1789214106344402400,4.88640234375,-0.5936923623085022,0.12462661415338516,-0.03921690955758095
1789214106354433300,4.896433349609375,-0.5655978918075562,0.1023189127445221,0.0012343751732259989
1789214106364465400,4.90646533203125,-0.5755173563957214,0.07365318387746811,0.05939355120062828
1789214106374497500,4.91649755859375,-0.6545884609222412,0.0495624914765358,0.15260446071624756
1789214106384528400,4.9265283203125,-0.8345134854316711,0.13634824752807617,0.18414559960365295
1789214106394560300,4.936560302734375,-0.9436184167861938,0.26216956973075867,0.17419496178627014
1789214106404592400,4.94659228515625,-1.011745810508728,0.2576048970222473,0.15260472893714905
1789214106414623200,4.956623291015625,-1.0327386856079102,0.2505267560482025,0.12671665847301483
1789214106424655400,4.9666552734375,-1.0742565393447876,0.2512117326259613,0.0873412936925888
1789214106434687500,4.9766875,-1.0175347328186035,0.14544162154197693,0.1011497899889946
1789214106444718300,4.98671826171875,-0.9113582372665405,0.06251930445432663,0.16174176335334778
1789214106454750200,4.996750244140625,-0.894148051738739,0.08768457919359207,0.23311661183834076
1789214106464782600,5.006782470703125,-0.999944269657135,0.06698622554540634,0.3454660475254059
1789214106474813400,5.0168134765625,-0.9802238345146179,0.12368625402450562,0.41897010803222656
1789214106484845300,5.02684521484375,-0.8873399496078491,0.022842198610305786,0.5065617561340332
1789214106494877400,5.03687744140625,-0.6916418671607971,0.18978111445903778,0.5446920990943909
1789214106504908300,5.046908203125,-0.48163801431655884,-0.014849785715341568,0.4647013545036316
1789214106514940200,5.056940185546875,-0.4619242250919342,-0.08453672379255295,0.4789596498012543
1789214106524972500,5.06697265625,-0.08082880079746246,0.06430202722549438,0.4699733555316925
1789214106535003400,5.07700341796875,0.32513147592544556,0.157279372215271,0.39609408378601074
1789214106545035300,5.08703515625,0.6422756314277649,0.054541006684303284,0.37450170516967773
1789214106555066400,5.09706640625,0.9830108284950256,-0.17028650641441345,0.4897478520870209
1789214106565098200,5.10709814453125,1.2268658876419067,-0.33371537923812866,0.6526702046394348
1789214106575130400,5.11713037109375,1.4178874492645264,-0.07537278532981873,0.5803190469741821
1789214106585161500,5.127161376953125,1.6175239086151123,0.32652297616004944,0.6572622656822205
1789214106595193300,5.137193359375,1.9528273344039917,0.4434565305709839,0.925296425819397
1789214106605225200,5.14722509765625,2.175539970397949,0.535059928894043,1.2232437133789062
1789214106615256300,5.15725634765625,2.1739418506622314,0.6185692548751831,1.4259322881698608
1789214106625288200,5.1672880859375,1.7444889545440674,0.6082186102867126,1.5265414714813232
1789214106635320300,5.1773203125,1.2661607265472412,0.6771230697631836,1.5011540651321411
1789214106645351400,5.187351318359375,1.0946409702301025,0.6504725813865662,1.390916347503662
1789214106655383300,5.19738330078125,1.1443251371383667,0.5203819274902344,1.2566652297973633
1789214106665415200,5.207415283203125,1.0527012348175049,0.5794486999511719,1.0999963283538818
1789214106675446300,5.2174462890625,0.9634453654289246,0.5191938877105713,1.065081238746643
1789214106685478400,5.227478515625,1.0365906953811646,0.28689008951187134,1.061269998550415
1789214106695510300,5.23751025390625,1.2069249153137207,0.19810189306735992,1.092285394668579
1789214106705541400,5.247541259765625,1.1976741552352905,0.22387491166591644,1.1206632852554321
1789214106715573200,5.2575732421875,1.4370659589767456,0.376426637172699,1.1976293325424194
1789214106725605400,5.26760546875,1.7849799394607544,0.8578835129737854,1.2662774324417114
1789214106735636500,5.277636474609375,2.089681625366211,1.539245843887329,1.131432294845581
1789214106745668400,5.28766845703125,2.1296989917755127,1.8936326503753662,0.8248938918113708
1789214106755700200,5.2977001953125,1.714404821395874,1.5270214080810547,0.6080263257026672
1789214106765731300,5.3077314453125,1.021301507949829,0.8148679137229919,0.6678733825683594
1789214106775763200,5.31776318359375,0.2974708378314972,0.15915903449058533,0.47151240706443787
1789214106785795300,5.32779541015625,-0.08938633650541306,0.02221023105084896,0.13032737374305725
1789214106795826400,5.337826416015625,-0.24472026526927948,0.15700693428516388,-0.14040903747081757
1789214106805858300,5.3478583984375,-0.38728272914886475,0.32464227080345154,-0.22873970866203308
1789214106815890400,5.357890380859375,-0.5515417456626892,0.6264330148696899,-0.3488783538341522
1789214106825921300,5.36792138671875,-0.7591625452041626,1.1077349185943604,-0.5215404033660889
1789214106835953400,5.377953369140625,-0.8571264147758484,1.7694969177246094,-0.8650743365287781
1789214106845984500,5.387984619140625,-0.6081210970878601,2.369983673095703,-1.3629534244537354
1789214106856016400,5.398016357421875,0.1443348079919815,2.1934242248535156,-1.659682035446167
1789214106866048300,5.40804833984375,0.758072018623352,1.9767624139785767,-1.4095109701156616
1789214106876079400,5.418079345703125,1.2516409158706665,1.433469295501709,-0.7533766031265259
1789214106886111200,5.428111328125,1.635653018951416,0.6969010233879089,-0.12222391366958618
1789214106896143400,5.438143310546875,1.7882391214370728,-0.009650230407714844,0.15601836144924164
1789214106906174500,5.448174560546875,1.6979334354400635,-0.6323636174201965,0.2343592345714569
1789214106916206300,5.458206298828125,1.470718502998352,-1.0366032123565674,0.4596882462501526
1789214106926238200,5.46823828125,1.3320108652114868,-0.7218841910362244,0.600661039352417
1789214106936269300,5.478269287109375,1.2525302171707153,-1.0438307523727417,0.4126560091972351
1789214106946301400,5.488301513671875,0.5364783406257629,-2.1700923442840576,-0.21800556778907776
1789214106956333300,5.498333251953125,0.26108166575431824,-1.994870662689209,-0.55417799949646
1789214106966364400,5.508364501953125,0.004171309061348438,-2.0242958068847656,-0.7200391292572021
1789214106976396300,5.518396240234375,-0.1665325164794922,-0.5756593346595764,-0.7118837237358093
1789214106986428200,5.52842822265625,-0.2612214684486389,1.813978910446167,-0.7533672451972961
1789214106996459500,5.53845947265625,-0.4232868254184723,4.275786399841309,-0.965348482131958
1789214107006491400,5.548491455078125,-0.4232860207557678,5.031168460845947,-0.7408485412597656
1789214107016523300,5.558523193359375,-0.37244120240211487,3.892533302307129,-0.54819655418396
1789214107026554400,5.568554443359375,-0.3191143274307251,1.4693384170532227,-0.666328489780426
1789214107036586200,5.578586181640625,-0.32283928990364075,-0.44686272740364075,-0.6730455160140991
1789214107046618600,5.58861865234375,-0.5632460713386536,-1.1276044845581055,-0.5595080256462097
1789214107056649700,5.598649658203125,-0.7628962993621826,-0.7717020511627197,-0.49384352564811707
1789214107066681600,5.608681640625,-0.9693242907524109,-0.25143009424209595,-0.4582194983959198
1789214107076713500,5.61871337890625,-1.255271077156067,0.5037012100219727,-0.5362504124641418
1789214107086744600,5.62874462890625,-1.4556840658187866,1.121653437614441,-0.6674726009368896
1789214107096776700,5.638776611328125,-1.3577213287353516,1.03395414352417,-0.7801533341407776
1789214107106808600,5.64880859375,-1.0622984170913696,0.49166375398635864,-0.890338659286499
1789214107116839700,5.658839599609375,-0.7884075045585632,0.004591822158545256,-0.9242202043533325
1789214107126871600,5.66887158203125,-0.6631371974945068,-0.37722131609916687,-0.8424180150032043
1789214107136903700,5.678903564453125,-0.6160994172096252,-0.791632890701294,-0.7557440996170044
1789214107146934800,5.688934814453125,-0.6145278811454773,-1.0547009706497192,-0.7691062688827515
1789214107156966700,5.698966552734375,-0.710344135761261,-1.3119813203811646,-0.8432896733283997
1789214107166998500,5.70899853515625,-1.0011882781982422,-1.3686251640319824,-0.9635423421859741
1789214107177029600,5.719029541015625,-1.2178680896759033,-1.1248761415481567,-1.1148735284805298
1789214107187061500,5.7290615234375,-1.2116833925247192,-0.8461887836456299,-1.117544412612915
1789214107197093600,5.73909375,-0.9643298387527466,-0.635769784450531,-1.0182809829711914
1789214107207124700,5.749124755859375,-0.7167485356330872,-0.48416054248809814,-0.8665140271186829
1789214107217156600,5.759156494140625,-0.5682123303413391,-0.3703727424144745,-0.728638231754303
1789214107227188500,5.7691884765625,-0.5652849674224854,-0.29801490902900696,-0.7431332468986511
1789214107237219600,5.779219482421875,-0.670587956905365,-0.08166743069887161,-0.7169663906097412
1789214107247251700,5.789251708984375,-0.7852237224578857,0.09571560472249985,-0.6409696340560913
1789214107257283600,5.79928369140625,-0.9002230167388916,0.19243095815181732,-0.544457197189331
1789214107267314700,5.809314697265625,-0.9795090556144714,0.2590017318725586,-0.3879495859146118
1789214107277346600,5.8193466796875,-1.0636415481567383,0.39400774240493774,-0.2762014865875244
1789214107287378400,5.82937841796875,-1.0949599742889404,0.4211972951889038,-0.20858091115951538
1789214107297409800,5.839409912109375,-1.1372147798538208,0.4471870958805084,-0.0864507332444191
1789214107307441700,5.849441650390625,-1.0861114263534546,0.5350658297538757,-0.03797747567296028
1789214107317473500,5.8594736328125,-0.9853909015655518,0.7840948104858398,0.03869599848985672
1789214107327504600,5.869504638671875,-0.9047892689704895,1.0122108459472656,0.13227255642414093
1789214107337536500,5.87953662109375,-0.6909946799278259,1.0341717004776,0.1303020864725113
1789214107347568600,5.889568603515625,-0.48452088236808777,1.0709569454193115,0.19788537919521332
1789214107357599700,5.899599853515625,-0.364059716463089,1.0518569946289062,0.32657864689826965
1789214107367631600,5.909631591796875,-0.17967122793197632,0.9500725865364075,0.4534929096698761
1789214107377663500,5.91966357421875,0.035658128559589386,0.9028230309486389,0.45327773690223694
1789214107387694600,5.929694580078125,0.05955573916435242,0.7689515352249146,0.5509217381477356
1789214107397726700,5.939726806640625,0.14453241229057312,0.7835027575492859,0.6615329384803772
1789214107407758600,5.949758544921875,0.1910482496023178,0.781688392162323,0.7011834383010864
1789214107417789700,5.959789794921875,0.2187693566083908,0.7820031642913818,0.819422721862793
1789214107427821600,5.969821533203125,-0.07303985208272934,0.7030268311500549,0.8580933809280396
1789214107437853700,5.979853759765625,-0.2173224687576294,0.21327047049999237,0.6749387383460999
1789214107447884500,5.989884521484375,-0.12971378862857819,-0.53363436460495,0.18210536241531372
1789214107457916700,5.999916748046875,0.22572819888591766,-0.4765591025352478,-0.18935421109199524
1789214107467948800,6.00994873046875,0.5297866463661194,-0.48295333981513977,-0.9129694104194641
1789214107477979600,6.019979736328125,1.336681842803955,-0.576073169708252,-1.395635724067688
1789214107488011500,6.030011474609375,2.0633225440979004,0.01398665551096201,-0.488762229681015
1789214107498043600,6.040043701171875,3.375843048095703,0.7060266137123108,-0.06780647486448288
1789214107508074800,6.05007470703125,4.622945308685303,0.43943408131599426,0.3863074779510498
1789214107518106600,6.060106689453125,4.815489292144775,0.12377520650625229,0.33373135328292847
1789214107528138800,6.070138671875,4.628670692443848,-0.6212214827537537,0.24767690896987915
1789214107538169600,6.080169677734375,4.171875476837158,-1.0079820156097412,0.11347702890634537
1789214107548201500,6.090201416015625,4.2331647872924805,-0.7668750882148743,0.1513351947069168
1789214107558233900,6.10023388671875,4.541754722595215,-0.4215690791606903,0.00535348616540432
1789214107568264700,6.1102646484375,4.328593730926514,-1.5693036317825317,-0.5843744874000549
1789214107578296600,6.120296630859375,2.888455629348755,-2.4131553173065186,-0.5246086716651917
1789214107588328700,6.13032861328125,1.7902748584747314,-1.8344348669052124,-0.1561475247144699
1789214107598359600,6.140359619140625,1.06869375705719,-1.380981683731079,0.34729963541030884
1789214107608391700,6.1503916015625,0.5863984823226929,-0.7901146411895752,0.939050018787384
1789214107618423800,6.160423828125,0.46077534556388855,-0.3706126809120178,1.188011646270752
1789214107628454700,6.17045458984375,0.6468765139579773,-0.10927961766719818,1.1487494707107544
1789214107638486500,6.180486572265625,0.8604774475097656,0.2465013861656189,1.052621841430664
1789214107648518700,6.1905185546875,1.0408693552017212,0.6000677347183228,0.9753707647323608
1789214107658549500,6.200549560546875,0.9806200861930847,1.0468928813934326,1.1018199920654297
1789214107668581600,6.21058154296875,0.786177933216095,1.2209078073501587,1.3203041553497314
1789214107678613800,6.22061376953125,0.6061074733734131,0.9581356048583984,1.406720519065857
1789214107688645600,6.230645751953125,0.3652043342590332,0.5623488426208496,1.178959846496582
1789214107698676500,6.240676513671875,0.39013606309890747,0.38566967844963074,0.9840201735496521
1789214107708708900,6.250708984375,0.35154712200164795,0.34436696767807007,0.6687642335891724
1789214107718740700,6.26074072265625,0.09602586179971695,0.20085427165031433,0.3716718256473541
1789214107728771600,6.270771484375,-0.028681978583335876,0.4049341678619385,0.411577969789505
1789214107738803700,6.2808037109375,-0.1706274002790451,0.4926946461200714,0.36379578709602356
1789214107748835600,6.290835693359375,-0.3819657266139984,0.4158150553703308,0.16381849348545074
1789214107758866400,6.300866455078125,-0.5529119372367859,0.3265765309333801,0.047563258558511734
1789214107768898800,6.31089892578125,-0.5964066386222839,0.2592454254627228,0.12767620384693146
1789214107778930700,6.3209306640625,-0.5279096364974976,0.18519409000873566,0.2025136947631836
1789214107788961500,6.33096142578125,-0.4389571249485016,0.05486883968114853,0.09180235862731934
1789214107798993700,6.34099365234375,-0.3378014862537384,0.027055585756897926,-0.251797080039978
1789214107809025800,6.35102587890625,-0.2812039852142334,0.046554986387491226,-0.534371018409729
1789214107819056600,6.361056640625,-0.12238450348377228,0.6820747256278992,-1.2330549955368042
1789214107829088800,6.3710888671875,-0.17546077072620392,0.6336677670478821,-1.2668046951293945
1789214107839120600,6.38112060546875,-1.0896304845809937,-0.4599281847476959,-0.6596412658691406
1789214107849151500,6.3911513671875,-1.3126262426376343,-0.17630764842033386,-1.2059661149978638
1789214107859183600,6.40118359375,-0.8302809596061707,0.4780014455318451,-1.4051125049591064
1789214107869215700,6.4112158203125,-0.33677855134010315,0.7893630862236023,-1.1317811012268066
1789214107879246600,6.42124658203125,-0.02544703707098961,0.8219175338745117,-0.8506778478622437
1789214107889278700,6.43127880859375,0.012346947565674782,0.46585506200790405,-0.7130131721496582
1789214107899310600,6.441310546875,-0.0725887194275856,-0.2757628858089447,-0.7144110798835754
1789214107909341700,6.451341796875,-0.12227877229452133,-0.8288894295692444,-0.7511088848114014
1789214107919373800,6.461373779296875,-0.33906593918800354,-0.8523234128952026,-0.723119854927063
1789214107929405700,6.47140576171875,-0.5263117551803589,-0.33739134669303894,-0.6718748211860657
1789214107939437600,6.4814375,-0.7176617383956909,-0.08837886154651642,-0.6344770789146423
1789214107949468700,6.49146875,-0.7368900179862976,-0.2617945969104767,-0.6142919063568115
1789214107959500500,6.50150048828125,-0.6109238266944885,-0.43282970786094666,-0.5729514360427856
1789214107969532700,6.51153271484375,-0.5697457790374756,-0.4847049117088318,-0.45712095499038696
1789214107979563800,6.521563720703125,-0.6431280970573425,-0.5152226090431213,-0.37600797414779663
1789214107989595600,6.531595703125,-0.718325138092041,-0.2591402232646942,-0.4868308901786804
1789214107999627500,6.54162744140625,-0.7294009327888489,-0.027394872158765793,-0.6363564729690552
1789214108009658600,6.55165869140625,-0.8381524682044983,0.12011575698852539,-0.7073869705200195
1789214108019690800,6.561690673828125,-0.9861560463905334,0.1026930883526802,-0.7817395329475403
1789214108029722600,6.57172265625,-1.0720595121383667,-0.1401725560426712,-0.7925876379013062
1789214108039753700,6.581753662109375,-1.1294511556625366,-0.41862520575523376,-0.7393832802772522
1789214108049785000,6.59178515625,-1.1956011056900024,-0.5754678249359131,-0.5619469881057739
1789214108059817000,6.60181689453125,-1.1686222553253174,-0.687923014163971,-0.48725008964538574
1789214108069849300,6.611849365234375,-1.2026207447052002,-0.6595430374145508,-1.0313581228256226
1789214108079880200,6.621880126953125,-1.3147131204605103,-0.7774648666381836,-1.4344080686569214
1789214108089912000,6.631912109375,-1.2764781713485718,-0.9150059223175049,-1.71514892578125
1789214108099944200,6.641944091796875,-1.1959558725357056,-0.8410339951515198,-1.8647754192352295
1789214108109975000,6.65197509765625,-1.1559221744537354,-0.8145227432250977,-1.826893925666809
1789214108120007200,6.662007080078125,-1.1579221487045288,-0.7783719301223755,-1.7135825157165527
1789214108130039300,6.672039306640625,-1.2071086168289185,-0.47480034828186035,-1.5762083530426025
1789214108140070100,6.682070068359375,-1.2721595764160156,-0.10190266370773315,-1.3817096948623657
1789214108150102000,6.69210205078125,-1.242552399635315,-0.012557337060570717,-1.1046591997146606
1789214108160134100,6.702134033203125,-1.1166282892227173,-0.19713090360164642,-0.7792180180549622
1789214108170165000,6.7121650390625,-1.0215609073638916,-0.2621386647224426,-0.567846953868866
1789214108180197000,6.722197021484375,-1.091907262802124,-0.15325427055358887,-0.3531111776828766
1789214108190229200,6.732229248046875,-1.1191964149475098,-0.041138648986816406,-0.2504327595233917
1789214108200261000,6.74226123046875,-0.9581387639045715,0.013246563263237476,-0.25594577193260193
1789214108210292200,6.752292236328125,-0.6784765124320984,-0.036249615252017975,-0.19604328274726868
1789214108220324400,6.762324462890625,-0.5018330216407776,0.03261040896177292,-0.03863926976919174
1789214108230356200,6.772356201171875,-0.41589146852493286,0.1317947804927826,0.17334355413913727
1789214108240387300,6.78238720703125,-0.33355188369750977,0.16428321599960327,0.2967970371246338
1789214108250419200,6.792419189453125,-0.2501416504383087,0.20960702002048492,0.4190233647823334
1789214108260451000,6.802451171875,-0.13359321653842926,0.3042837381362915,0.5258062481880188
1789214108270482200,6.812482177734375,0.05319557711482048,0.3773896396160126,0.5931983590126038
1789214108280514300,6.822514404296875,0.24153858423233032,0.4129721224308014,0.6888881325721741
1789214108290546200,6.832546142578125,0.4161252975463867,0.504636287689209,0.7792981863021851
1789214108300578000,6.842578125,0.6313571929931641,0.5944204926490784,0.8562797904014587
1789214108310609200,6.852609130859375,0.8907389640808105,0.6724644303321838,0.8882600665092468
1789214108320641000,6.86264111328125,1.1472322940826416,0.6577051877975464,0.9139761328697205
1789214108330673200,6.872673095703125,1.3769913911819458,0.6019929051399231,0.9096980094909668
1789214108340704300,6.882704345703125,1.546485424041748,0.5026080012321472,0.9038041830062866
1789214108350736100,6.892736083984375,1.6835072040557861,0.4579635560512543,0.9102370142936707
1789214108360768000,6.90276806640625,1.8277565240859985,0.47776365280151367,0.8687388300895691
1789214108370799000,6.912799072265625,1.9743088483810425,0.3910977244377136,0.890333890914917
1789214108380831200,6.922831298828125,2.0897228717803955,0.30360010266304016,0.9071903824806213
1789214108390863000,6.932863037109375,2.1767477989196777,0.20519842207431793,0.8601123690605164
1789214108400894200,6.942894287109375,2.269557476043701,0.08096382766962051,0.7825381755828857
1789214108410926000,6.952926025390625,2.3450403213500977,-0.0682259276509285,0.7301746010780334
1789214108420958000,6.9629580078125,2.423197031021118,-0.2013663947582245,0.6513338088989258
1789214108430990300,6.972990234375,2.4412736892700195,-0.37297382950782776,0.6178855895996094
1789214108441021200,6.983021240234375,2.4325523376464844,-0.462571382522583,0.6714692115783691
1789214108451053000,6.993052978515625,2.443997621536255,-0.41781240701675415,0.7795421481132507
1789214108461085200,7.003085205078125,2.5467121601104736,-0.40553125739097595,0.8422942161560059
1789214108471116000,7.013115966796875,2.6369035243988037,-0.5103503465652466,0.8045774698257446
1789214108481148200,7.023148193359375,2.525010585784912,-0.6103395223617554,0.7874312400817871
1789214108491180300,7.03318017578125,2.2142772674560547,-0.6814504265785217,0.8088739514350891
1789214108501211100,7.043211181640625,1.8290081024169922,-0.5674077868461609,0.8144465684890747
1789214108511243000,7.053242919921875,1.4784564971923828,-0.38121020793914795,0.7924142479896545
1789214108521275100,7.063275146484375,1.2446101903915405,-0.21817228198051453,0.8103445172309875
1789214108531307300,7.073307373046875,1.1013380289077759,-0.11284266412258148,0.9646068215370178
1789214108541338000,7.083338134765625,1.0444412231445312,-0.03605973348021507,1.118730068206787
1789214108551370200,7.093370361328125,1.021151065826416,0.07728200405836105,1.1814546585083008
1789214108561402000,7.103402099609375,0.946749746799469,0.10545265674591064,1.1809337139129639
1789214108571433000,7.113432861328125,0.8178961873054504,0.026088858023285866,1.1353687047958374
1789214108581465300,7.12346533203125,0.6644001007080078,-0.092415951192379,1.0408719778060913
1789214108591497200,7.133497314453125,0.5259186625480652,-0.2534567713737488,0.8976834416389465
1789214108601528000,7.143528076171875,0.4160768389701843,-0.467058002948761,0.7275012731552124
1789214108611560200,7.153560302734375,0.26845622062683105,-0.6743070483207703,0.5620747804641724
1789214108621592000,7.163592041015625,0.05470851808786392,-0.7754096984863281,0.44796234369277954
1789214108631624200,7.173624267578125,-0.19488400220870972,-0.8081924319267273,0.37299594283103943
1789214108641655300,7.1836552734375,-0.4354923367500305,-0.7041475176811218,0.2662141025066376
1789214108651687200,7.193687255859375,-0.5401763916015625,-0.7476356029510498,0.16593970358371735
1789214108661719000,7.203718994140625,-0.6009209752082825,-0.8458111882209778,0.0558273121714592
1789214108671750100,7.213750244140625,-0.6269001364707947,-0.8201300501823425,-0.0989617332816124
1789214108681782300,7.2237822265625,-0.6426644325256348,-0.7083696722984314,-0.31883975863456726
1789214108691814100,7.233814208984375,-0.6397216320037842,-0.6101847887039185,-0.558512806892395
1789214108701845200,7.24384521484375,-0.6808778643608093,-0.4847504496574402,-0.7505490779876709
1789214108711877000,7.253877197265625,-0.7433755993843079,-0.2622273564338684,-0.9007218480110168
1789214108721909000,7.263908935546875,-0.7932126522064209,0.037819549441337585,-0.9853528141975403
1789214108731941000,7.273941162109375,-0.7997217178344727,0.29704391956329346,-1.0073531866073608
1789214108741972200,7.28397216796875,-0.7925027012825012,0.5149672031402588,-0.9835019111633301
1789214108752004000,7.294004150390625,-0.7617713809013367,0.6853141784667969,-0.9406527280807495
1789214108762036000,7.304035888671875,-0.6910791397094727,0.8103615641593933,-0.8790388703346252
1789214108772067000,7.314067138671875,-0.5989667773246765,0.8140375018119812,-0.8134716153144836
1789214108782099200,7.32409912109375,-0.49612292647361755,0.6845045685768127,-0.7690796256065369
1789214108792131000,7.334131103515625,-0.3973044753074646,0.43224090337753296,-0.7215682864189148
1789214108802162200,7.344162109375,-0.3598114252090454,0.21304622292518616,-0.6344581842422485
1789214108812194000,7.354194091796875,-0.39245566725730896,0.05860498920083046,-0.5190700888633728
1789214108822226000,7.364225830078125,-0.46433278918266296,0.07013993710279465,-0.40199723839759827
1789214108832258300,7.37425830078125,-0.5278472900390625,0.12682825326919556,-0.31706103682518005
1789214108842289200,7.3842890625,-0.5675758123397827,0.1593340039253235,-0.27875015139579773
1789214108852321000,7.394321044921875,-0.5871372818946838,0.06537660956382751,-0.2973930537700653
1789214108862353200,7.404353271484375,-0.6257778406143188,0.12364897131919861,-0.2808939814567566
1789214108872384000,7.414384033203125,-0.6719086170196533,0.2975611090660095,-0.24155695736408234
1789214108882416000,7.424416015625,-0.7120386958122253,0.42170196771621704,-0.2473946064710617
1789214108892448300,7.4344482421875,-0.7834977507591248,0.49731338024139404,-0.31817132234573364
1789214108902479000,7.44447900390625,-0.8544571399688721,0.6302890181541443,-0.4392854869365692
1789214108912511200,7.45451123046875,-0.9435638189315796,0.7311567664146423,-0.5664644837379456
1789214108922543000,7.464543212890625,-1.0707324743270874,0.7717779278755188,-0.6820720434188843
1789214108932575200,7.4745751953125,-1.261979579925537,0.7779820561408997,-0.6871978044509888
1789214108942606300,7.4846064453125,-1.357848048210144,0.6474027633666992,-0.6519634127616882
1789214108952638200,7.49463818359375,-1.4046270847320557,0.3340163230895996,-0.6895171403884888
1789214108962670000,7.504670166015625,-1.4067938327789307,0.018249843269586563,-0.81770920753479
1789214108972701200,7.514701171875,-1.3403364419937134,-0.14571379125118256,-0.944203794002533
1789214108982733300,7.5247333984375,-1.2998825311660767,-0.22024555504322052,-0.9870894551277161
1789214108992765200,7.53476513671875,-1.2564916610717773,-0.21646440029144287,-1.0536248683929443
1789214109002796300,7.54479638671875,-1.2585340738296509,-0.15838751196861267,-1.1134133338928223
1789214109012828200,7.554828125,-1.3708467483520508,-0.19357453286647797,-1.1277999877929688
1789214109022860000,7.564860107421875,-1.4868407249450684,-0.28155019879341125,-1.1404659748077393
1789214109032892200,7.57489208984375,-1.6228337287902832,-0.3451603353023529,-1.216412901878357
1789214109042923300,7.58492333984375,-1.6966091394424438,-0.4242498278617859,-1.3152399063110352
1789214109052955100,7.594955078125,-1.7499308586120605,-0.5516780614852905,-1.364040732383728
1789214109062987000,7.604987060546875,-1.8180450201034546,-0.738882839679718,-1.2639663219451904
1789214109073018000,7.61501806640625,-1.8009307384490967,-0.8569716811180115,-1.1311681270599365
1789214109083050000,7.625050048828125,-1.6483789682388306,-0.9078367352485657,-1.200548768043518
1789214109093082000,7.63508203125,-1.3988128900527954,-1.0014289617538452,-1.4059340953826904
1789214109103114200,7.6451142578125,-1.0640606880187988,-1.1372805833816528,-1.311281681060791
1789214109113145000,7.65514501953125,-0.8334240317344666,-1.166407823562622,-0.8592979311943054
1789214109123177000,7.665177001953125,-0.6519144177436829,-0.9463950395584106,-0.45436030626296997
1789214109133209300,7.675209228515625,-0.3466106653213501,-0.6579909324645996,-0.080011747777462
1789214109143240200,7.685240234375,0.026686737313866615,-0.2957557439804077,0.36028599739074707
1789214109153272000,7.69527197265625,0.2837105393409729,0.12508174777030945,0.6952056884765625
1789214109163304200,7.70530419921875,0.49928542971611023,0.5891122817993164,0.9745262861251831
1789214109173336000,7.715336181640625,0.7848588824272156,0.9438772797584534,1.312420129776001
1789214109183367000,7.725366943359375,1.1063148975372314,1.1113954782485962,1.691007137298584
1789214109193399300,7.7353994140625,1.4543876647949219,1.2202012538909912,2.013248920440674
1789214109203431200,7.74543115234375,1.7919883728027344,1.2167274951934814,2.2558019161224365
1789214109213462000,7.7554619140625,2.13521671295166,1.2699848413467407,2.3114099502563477
1789214109223494100,7.765494140625,2.454451084136963,1.292816400527954,2.1828486919403076
1789214109233526300,7.7755263671875,2.746697187423706,1.1392958164215088,2.045754909515381
1789214109243557000,7.78555712890625,3.012185573577881,0.9384010434150696,1.8989297151565552
1789214109253589200,7.79558935546875,3.233879327774048,0.7381691336631775,1.6770747900009155
1789214109263621000,7.80562109375,3.28872013092041,0.6180270314216614,1.22650945186615
1789214109273653000,7.815653076171875,2.9586021900177,0.1311018317937851,0.9013902544975281
1789214109283684000,7.82568408203125,2.348965883255005,-0.5521513223648071,1.1148815155029297
1789214109293716200,7.83571630859375,1.7913342714309692,-0.8670658469200134,1.403171420097351
1789214109303748000,7.845748046875,1.4838504791259766,-1.0652981996536255,1.4781174659729004
1789214109313779200,7.855779296875,1.4084441661834717,-1.3778042793273926,1.4491313695907593
1789214109323811000,7.86581103515625,1.411916971206665,-1.7663609981536865,1.3494173288345337
1789214109333843200,7.87584326171875,1.3656575679779053,-2.025017261505127,1.2757515907287598
1789214109343875000,7.885875,1.2043312788009644,-1.9991066455841064,1.2891185283660889
1789214109353906200,7.89590625,0.9467366933822632,-1.7626190185546875,1.3322889804840088
1789214109363938000,7.90593798828125,0.6444101333618164,-1.3900071382522583,1.3272761106491089
1789214109373970000,7.915969970703125,0.4159242510795593,-1.0219563245773315,1.2589439153671265
1789214109384001000,7.9260009765625,0.2783330976963043,-0.5822213292121887,1.058447003364563
1789214109394033200,7.936033203125,0.11878630518913269,-0.2350119799375534,0.818447470664978
1789214109404065000,7.94606494140625,-0.04608973115682602,-0.12196824699640274,0.6436333060264587
1789214109414096100,7.95609619140625,-0.16909049451351166,0.035591281950473785,0.5611815452575684
1789214109424128000,7.9661279296875,-0.18073302507400513,0.2244086116552353,0.4752536118030548
1789214109434160000,7.97616015625,-0.18281029164791107,0.33226850628852844,0.13749048113822937
1789214109444192300,7.986192138671875,-0.3517705500125885,0.29916831851005554,-0.3616655170917511
1789214109454223000,7.99622314453125,-0.49694985151290894,0.20625384151935577,-0.8218438029289246
1789214109464255000,8.0062548828125,-0.5735516548156738,0.11923132091760635,-1.1439251899719238
1789214109474287000,8.016287109375,-0.623517632484436,0.07483375817537308,-1.2927274703979492
1789214109484318000,8.02631787109375,-0.6844643354415894,0.026506176218390465,-1.2348878383636475
1789214109494350000,8.03635009765625,-0.7244762182235718,-0.09730498492717743,-1.0315842628479004
1789214109504382200,8.04638232421875,-0.7506638765335083,-0.17772552371025085,-0.8073574900627136
1789214109514413000,8.0564130859375,-0.8039447069168091,-0.056951165199279785,-0.6616548895835876
1789214109524445200,8.066445068359375,-0.8867697715759277,0.17637023329734802,-0.6339391469955444
1789214109534477300,8.076477294921874,-0.9662467837333679,0.4191434681415558,-0.723644495010376
1789214109544509200,8.08650927734375,-1.0171290636062622,0.5774950385093689,-0.8900119066238403
1789214109554540000,8.0965400390625,-1.002032995223999,0.4916222095489502,-1.0494811534881592
1789214109564572200,8.106572265625,-0.9108343720436096,0.17624559998512268,-1.1531809568405151
1789214109574604000,8.11660400390625,-0.8455347418785095,-0.04493818059563637,-1.1534539461135864
1789214109584635100,8.12663525390625,-0.8303965330123901,-0.014190121553838253,-1.0312784910202026
1789214109594667300,8.136667236328124,-0.8705207705497742,0.23923495411872864,-0.8729290962219238
1789214109604699100,8.14669921875,-0.9215866327285767,0.6433840394020081,-0.7404146790504456
1789214109614731000,8.15673095703125,-1.0207891464233398,1.0504498481750488,-0.6477777361869812
1789214109624762000,8.16676220703125,-1.1469249725341797,1.2487213611602783,-0.6388105750083923
1789214109634794200,8.176794189453124,-1.2095321416854858,1.123960256576538,-0.7508151531219482
1789214109644826000,8.186826171875,-1.1674437522888184,0.8565032482147217,-0.9155031442642212
1789214109654857200,8.196857177734374,-1.0643755197525024,0.6806392669677734,-1.0453343391418457
1789214109664889000,8.20688916015625,-1.0285487174987793,0.5168388485908508,-1.005113959312439
1789214109674921000,8.2169208984375,-1.087438941001892,0.32975366711616516,-0.8381761312484741
1789214109684952000,8.2269521484375,-1.1915408372879028,0.15795394778251648,-0.7036404609680176
1789214109694984200,8.236984130859375,-1.3711433410644531,0.046968307346105576,-0.7641996741294861
1789214109705016000,8.24701611328125,-1.355376124382019,-0.02979331463575363,-0.9906647801399231
1789214109715048200,8.257048095703125,-1.2152811288833618,-0.26083025336265564,-1.2247425317764282
1789214109725079000,8.2670791015625,-1.1837694644927979,-0.45089393854141235,-1.2158496379852295
1789214109735111000,8.27711083984375,-1.186009168624878,-0.5119509100914001,-0.9384865164756775
1789214109745143300,8.287143310546876,-1.190233826637268,-0.3890326917171478,-0.6774051189422607
1789214109755174100,8.297174072265625,-1.1515175104141235,-0.21434904634952545,-0.622174084186554
1789214109765206000,8.3072060546875,-1.0653187036514282,-0.036309536546468735,-0.6699383854866028
1789214109775238100,8.317238037109375,-0.9843288064002991,0.02165069989860058,-0.6304232478141785
1789214109785270300,8.327270263671876,-0.9364899396896362,-0.04393177106976509,-0.5018567442893982
1789214109795301000,8.337301025390625,-0.939868688583374,-0.05686754360795021,-0.33473432064056396
1789214109805333200,8.347333251953126,-0.9484006762504578,0.04105156287550926,-0.2570411264896393
1789214109815365000,8.357365234375,-0.8236158490180969,0.027050526812672615,-0.3239535689353943
1789214109825396000,8.36739599609375,-0.6372885704040527,-0.04710812494158745,-0.4163402318954468
1789214109835428000,8.377427978515625,-0.47593697905540466,-0.2164124697446823,-0.3989329934120178
1789214109845460200,8.387460205078124,-0.3491007387638092,-0.36202505230903625,-0.32548967003822327
1789214109855492000,8.3974921875,-0.19110044836997986,-0.38310396671295166,-0.1683541238307953
1789214109865523200,8.407523193359374,0.028692098334431648,-0.23319198191165924,0.016955014318227768
1789214109875555000,8.41755517578125,0.28507062792778015,0.007440872024744749,0.22680172324180603
1789214109885587200,8.427587158203124,0.49998825788497925,0.36760011315345764,0.4003463387489319
1789214109895618300,8.437618408203125,0.671630859375,0.6377144455909729,0.5414962768554688
1789214109905650200,8.447650146484374,0.8643579483032227,0.6510235667228699,0.6396987438201904
1789214109915682000,8.45768212890625,1.15511155128479,0.5870416760444641,0.8055601716041565
1789214109925714000,8.4677138671875,1.4407248497009277,0.5871418118476868,0.9661402702331543
1789214109935745000,8.4777451171875,1.5554271936416626,0.6883741617202759,1.114357352256775
1789214109945777200,8.487777099609374,1.5674806833267212,0.8107138872146606,1.3131957054138184
1789214109955809000,8.49780908203125,1.589902639389038,1.0291756391525269,1.4732096195220947
1789214109965840100,8.507840087890624,1.6678688526153564,1.303603172302246,1.5156604051589966
1789214109975872000,8.5178720703125,1.8104029893875122,1.3316068649291992,1.2927346229553223
1789214109985904000,8.527904052734375,1.8669345378875732,0.8615992069244385,1.1662884950637817
1789214109995935200,8.537935302734375,1.8322327136993408,0.4892437160015106,1.1863030195236206
1789214110005967000,8.547967041015625,1.8052250146865845,0.40769585967063904,1.1521819829940796
1789214110015999000,8.5579990234375,1.7931777238845825,0.32666707038879395,1.1210485696792603
1789214110026031000,8.568031005859375,1.9182144403457642,-0.1727089285850525,1.419048547744751
1789214110036062000,8.57806201171875,2.2772116661071777,-0.643695592880249,1.6676421165466309
1789214110046094000,8.588093994140625,2.6797068119049072,0.21134819090366364,0.9415523409843445
1789214110056126700,8.598126708984376,2.5429511070251465,-0.1957162469625473,0.45020923018455505
1789214110066157600,8.608157470703125,1.9705069065093994,-1.151687502861023,0.6613534688949585
1789214110076189400,8.618189453125,1.4992893934249878,-1.3737144470214844,0.8763520121574402
1789214110086221600,8.6282216796875,1.2795442342758179,-1.2148782014846802,0.9851256608963013
1789214110096253700,8.638253662109374,1.1059406995773315,-0.9832497239112854,1.0576698780059814
1789214110106284500,8.648284423828125,0.8474708199501038,-0.8878600597381592,1.1433075666427612
1789214110116316700,8.658316650390624,0.7061648368835449,-0.8596372604370117,1.162091612815857
1789214110126348800,8.668348876953125,0.7110381722450256,-0.820090115070343,1.1030362844467163
1789214110136379600,8.678379638671874,0.6832582354545593,-0.7558911442756653,0.9463827610015869
1789214110146411800,8.688411865234375,0.5195332169532776,-0.5850937962532043,0.8726816773414612
1789214110156443600,8.698443603515624,0.28658729791641235,-0.39586690068244934,0.8769065141677856
1789214110166474500,8.708474609375,0.11847684532403946,-0.19485577940940857,0.8895101547241211
1789214110176506600,8.718506591796874,0.06453212350606918,-0.04324733838438988,0.8592129945755005
1789214110186538800,8.728538818359375,0.05332846939563751,0.00820946041494608,0.7753596305847168
1789214110196570600,8.738570556640624,0.04351285472512245,-0.02003815583884716,0.6481984853744507
1789214110206601700,8.748601806640625,0.024030501022934914,-0.021693844348192215,0.47470954060554504
1789214110216633600,8.758633544921874,0.007676029112190008,0.0038541266694664955,0.3093418776988983
1789214110226665700,8.768665771484375,-0.0712190493941307,0.05477137118577957,0.1934586763381958
1789214110236696800,8.77869677734375,-0.1686531901359558,0.047558996826410294,0.007950601167976856
1789214110246728700,8.788728759765625,-0.29057830572128296,-0.018786204978823662,-0.2589878737926483
1789214110256760600,8.798760498046875,-0.41195693612098694,-0.06469777226448059,-0.5216224193572998
1789214110266791700,8.808791748046875,-0.4920027554035187,0.10598448663949966,-0.7225621938705444
1789214110276823600,8.818823486328125,-0.5469597578048706,0.41228368878364563,-0.8258968591690063
1789214110286855700,8.828855712890626,-0.5756793022155762,0.5990533232688904,-0.8435549139976501
1789214110296887600,8.838887451171875,-0.5361595749855042,0.5050658583641052,-0.7943927049636841
1789214110306918700,8.848918701171876,-0.4437268376350403,0.2868080735206604,-0.7310587763786316
1789214110316950500,8.858950439453125,-0.40057191252708435,0.2265750914812088,-0.68523770570755
1789214110326982400,8.868982421875,-0.46037453413009644,0.3805028796195984,-0.6576404571533203
1789214110337013800,8.879013671875,-0.5850788950920105,0.6168829202651978,-0.6668664216995239
1789214110347045600,8.889045654296876,-0.7184617519378662,0.7959930300712585,-0.7572296261787415
1789214110357077500,8.899077392578125,-0.8215780258178711,0.8243184089660645,-0.9488275647163391
1789214110367109600,8.909109619140626,-0.8932463526725769,0.6751837730407715,-1.218734622001648
1789214110377140500,8.919140380859375,-0.920370876789093,0.4133780002593994,-1.4798914194107056
1789214110387172600,8.929172607421876,-0.8755466938018799,0.08536363393068314,-1.634506344795227
1789214110397204700,8.939204833984375,-0.825993537902832,-0.1027708500623703,-1.6226177215576172
1789214110407235600,8.949235595703126,-0.8318426012992859,0.14710955321788788,-1.4009239673614502
1789214110417267500,8.959267333984375,-0.9503016471862793,0.5833406448364258,-1.084299087524414
1789214110427299600,8.969299560546874,-1.1640799045562744,0.8482958674430847,-0.8917949199676514
1789214110437330700,8.97933056640625,-1.3249516487121582,0.878894567489624,-0.9306618571281433
1789214110447362600,8.989362548828124,-1.4537607431411743,0.7008364200592041,-1.1249136924743652
1789214110457394700,8.999394775390625,-1.531848669052124,0.4342515766620636,-1.3668296337127686
1789214110467426600,9.009426513671874,-1.510550856590271,0.10036681592464447,-1.5774725675582886
1789214110477457400,9.01945751953125,-1.4645707607269287,-0.09944509714841843,-1.6548110246658325
1789214110487489800,9.02948974609375,-1.4682854413986206,-0.1287531852722168,-1.6272335052490234
1789214110497521700,9.039521728515625,-1.5085734128952026,0.03538781777024269,-1.613297462463379
1789214110507552500,9.049552490234374,-1.5724461078643799,0.16905373334884644,-1.6160974502563477
1789214110517584600,9.059584716796875,-1.592525839805603,0.06925683468580246,-1.5653187036514282
1789214110527616500,9.069616455078124,-1.6442729234695435,-0.23400743305683136,-1.3404048681259155
1789214110537647600,9.079647705078125,-1.6579456329345703,-0.5249476432800293,-1.0408827066421509
1789214110547679700,9.0896796875,-1.662846326828003,-0.6015244722366333,-0.7854809761047363
1789214110557711600,9.099711669921875,-1.6338157653808594,-0.5992666482925415,-0.6812943816184998
1789214110567743500,9.109743408203125,-1.5016180276870728,-0.6350626945495605,-0.6546196341514587
1789214110577774600,9.119774658203125,-1.3188858032226562,-0.73581463098526,-0.545894205570221
1789214110587806700,9.129806640625,-1.1306452751159668,-0.6746668219566345,-0.46932780742645264
1789214110597838600,9.139838623046876,-0.9570087790489197,-0.611866295337677,-0.33661529421806335
1789214110607869700,9.14986962890625,-0.7978436350822449,-0.5187622308731079,-0.0675492137670517
1789214110617901600,9.159901611328126,-0.5368360280990601,-0.1762155145406723,0.017958760261535645
1789214110627933400,9.169933349609375,-0.26017725467681885,0.11005406826734543,0.0808732807636261
1789214110637965600,9.179965576171876,-0.08872321248054504,0.13776426017284393,0.16347014904022217
1789214110647996700,9.18999658203125,0.0178128182888031,0.03614335507154465,0.36066123843193054
1789214110658028500,9.200028564453126,0.24993686378002167,0.09290064871311188,0.5593197345733643
1789214110668060400,9.210060302734375,0.5023320913314819,0.23792921006679535,0.6940301656723022
1789214110678091500,9.220091552734376,0.7353829145431519,0.3630165457725525,0.8541172742843628
1789214110688123600,9.23012353515625,0.9636989235877991,0.43758347630500793,0.9806715250015259
1789214110698155500,9.240155517578126,1.1505966186523438,0.5410531163215637,1.0569270849227905
1789214110708186600,9.2501865234375,1.326588749885559,0.6986693739891052,1.0442321300506592
1789214110718218500,9.260218505859376,1.5057719945907593,0.7892232537269592,1.0316582918167114
1789214110728250600,9.270250732421875,1.6815507411956787,0.730060338973999,1.075992226600647
1789214110738282800,9.28028271484375,1.8175219297409058,0.6315449476242065,1.119047999382019
1789214110748313600,9.290313720703125,1.886013150215149,0.607532799243927,1.2158137559890747
1789214110758345700,9.300345703125,1.9113852977752686,0.712204098701477,1.2853624820709229
1789214110768377600,9.310377685546875,1.917777419090271,0.6406476497650146,1.308539628982544
1789214110778408400,9.320408447265624,1.8880366086959839,0.4564327895641327,1.3026679754257202
1789214110788440800,9.33044091796875,1.8338700532913208,0.24531787633895874,1.3174165487289429
1789214110798472700,9.34047265625,1.8144800662994385,0.03175579756498337,1.3290116786956787
1789214110808504600,9.350504638671875,1.8224080801010132,-0.1531626582145691,1.2428171634674072
1789214110818535700,9.36053564453125,1.8026058673858643,-0.39188867807388306,1.1950645446777344
1789214110828567600,9.370567626953125,1.7352193593978882,-0.653401792049408,1.2098573446273804
1789214110838599700,9.380599609375,1.6163952350616455,-1.0174205303192139,1.1132447719573975
1789214110848630800,9.390630859375,1.479993462562561,-1.3231699466705322,1.0223278999328613
1789214110858662700,9.40066259765625,1.3633091449737549,-1.5110112428665161,1.0044554471969604
1789214110868694500,9.410694580078125,1.2116997241973877,-1.4872872829437256,1.046105146408081
1789214110878725600,9.4207255859375,0.987983226776123,-1.3009957075119019,1.119563102722168
1789214110888757800,9.4307578125,0.7205888032913208,-1.0363768339157104,1.2013189792633057
1789214110898789600,9.44078955078125,0.45003214478492737,-0.7144477963447571,1.280523419380188
1789214110908820700,9.45082080078125,0.2709931433200836,-0.4467436671257019,1.3245849609375
1789214110918852600,9.4608525390625,0.20394034683704376,-0.32309311628341675,1.3294345140457153
1789214110928884500,9.470884521484376,0.20621442794799805,-0.34128010272979736,1.1954679489135742
1789214110938916600,9.48091650390625,0.2657366096973419,-0.3940596878528595,0.9246261119842529
1789214110948947700,9.49094775390625,0.2935898005962372,-0.3767523467540741,0.6923419833183289
1789214110958979600,9.5009794921875,0.23743945360183716,-0.2800385653972626,0.5253721475601196
1789214110969011500,9.511011474609376,0.10399138182401657,-0.055936504155397415,0.39827999472618103
1789214110979042600,9.52104248046875,-0.09116213023662567,0.14739876985549927,0.3272921144962311
1789214110989074700,9.53107470703125,-0.29212239384651184,0.20948532223701477,0.27643319964408875
1789214110999106600,9.5411064453125,-0.42267802357673645,0.13850009441375732,0.18683886528015137
1789214111009137700,9.5511376953125,-0.4904317557811737,0.11130309104919434,0.07853129506111145
1789214111019169500,9.56116943359375,-0.5396677255630493,0.13160809874534607,-0.03333345428109169
1789214111029201400,9.571201416015626,-0.552530825138092,0.16141286492347717,-0.1551903784275055
1789214111039232800,9.581232666015625,-0.5059020519256592,0.22107459604740143,-0.2732597589492798
1789214111049265200,9.59126513671875,-0.42757582664489746,0.30296972393989563,-0.36678677797317505
1789214111059297000,9.601297119140625,-0.35108691453933716,0.41962337493896484,-0.43079665303230286
1789214111069329000,9.611328857421874,-0.2915029525756836,0.5317744016647339,-0.4754357635974884
1789214111079360000,9.621360107421875,-0.27239662408828735,0.627022385597229,-0.5102068185806274
1789214111089391900,9.631391845703124,-0.25597983598709106,0.6495655179023743,-0.5264899134635925
1789214111099424000,9.641424072265625,-0.27076172828674316,0.656090497970581,-0.551554262638092
1789214111109455000,9.651455078125,-0.33567705750465393,0.7196255326271057,-0.6110820174217224
1789214111119487000,9.661487060546875,-0.39780595898628235,0.7466848492622375,-0.7137972116470337
1789214111129519000,9.67151904296875,-0.41998130083084106,0.6542243957519531,-0.8507785201072693
1789214111139550000,9.681550048828125,-0.389130175113678,0.5520951151847839,-0.9835717082023621
1789214111149582000,9.69158203125,-0.3631851375102997,0.6011617183685303,-1.0427285432815552
1789214111159614200,9.7016142578125,-0.38946840167045593,0.655203640460968,-0.9959391355514526
1789214111169646000,9.71164599609375,-0.45394647121429443,0.6120002865791321,-0.8870161175727844
1789214111179677000,9.721677001953125,-0.5077465772628784,0.6212374567985535,-0.7404024600982666
1789214111189709000,9.731708984375,-0.598635733127594,0.6523482203483582,-0.5599604845046997
1789214111199741200,9.7417412109375,-0.7654936909675598,0.7444171905517578,-0.4471319615840912
1789214111209772000,9.75177197265625,-0.9691727757453918,0.9023351669311523,-0.4938097298145294
1789214111219804200,9.76180419921875,-1.1584337949752808,0.94622802734375,-0.6771121621131897
1789214111229836000,9.7718359375,-1.2614938020706177,0.7538700699806213,-0.9639514088630676
1789214111239867000,9.781866943359375,-1.2758275270462036,0.5426505208015442,-1.2127699851989746
1789214111249899300,9.791899169921875,-1.2233678102493286,0.4123156666755676,-1.2907750606536865
1789214111259931100,9.80193115234375,-1.1229530572891235,0.34257200360298157,-1.198087215423584
1789214111269963000,9.811962890625,-1.0399484634399414,0.29447105526924133,-1.0404216051101685
1789214111279994000,9.821994140625,-1.0080485343933105,0.3003457188606262,-0.920745849609375
1789214111290026000,9.83202587890625,-1.0569548606872559,0.3152618110179901,-0.8803970813751221
1789214111300058000,9.84205810546875,-1.1689298152923584,0.292328804731369,-0.9740071892738342
1789214111310089200,9.852089111328125,-1.2313498258590698,0.23976412415504456,-1.2254650592803955
1789214111320121000,9.86212109375,-1.2214831113815308,0.13941408693790436,-1.4872287511825562
1789214111330153000,9.872153076171875,-1.2530279159545898,-0.048775263130664825,-1.5751378536224365
1789214111340184000,9.88218408203125,-1.396234393119812,-0.29150375723838806,-1.4237136840820312
1789214111350216200,9.89221630859375,-1.5247217416763306,-0.2955682575702667,-1.169909119606018
1789214111360248000,9.902248046875,-1.5464835166931152,-0.3423512279987335,-0.9599835276603699
1789214111370279200,9.912279052734375,-1.4840826988220215,-0.5016114711761475,-0.8309406042098999
1789214111380311000,9.92231103515625,-1.3564893007278442,-0.5291376113891602,-0.7586837410926819
1789214111390343000,9.932343017578125,-1.1581509113311768,-0.484506756067276,-0.7897090315818787
1789214111400375000,9.942375,-0.9491199851036072,-0.49081793427467346,-0.7910901308059692
1789214111410406100,9.95240625,-0.8223444819450378,-0.4738674461841583,-0.6759329438209534
1789214111420438000,9.96243798828125,-0.7753028869628906,-0.34192803502082825,-0.5872608423233032
1789214111430470000,9.972469970703125,-0.7324835658073425,-0.23944561183452606,-0.5255149006843567
1789214111440501000,9.9825009765625,-0.6331095695495605,-0.2178013026714325,-0.32015112042427063
1789214111450533000,9.992533203125,-0.4766522943973541,-0.11268047243356705,-0.1224508136510849
1789214111460565000,10.00256494140625,-0.25547438859939575,0.020056266337633133,-0.126083105802536
1789214111470597000,10.01259716796875,-0.0804130807518959,-0.03906138241291046,-0.03473081439733505
1789214111480628000,10.0226279296875,-0.00800226628780365,-0.03212784230709076,0.11734047532081604
1789214111490659800,10.032659912109375,0.09731403738260269,0.08535990118980408,0.20173019170761108
1789214111500692200,10.042692138671875,0.2926712930202484,0.12715715169906616,0.22554869949817657
1789214111510723000,10.05272314453125,0.5285676717758179,0.011007643304765224,0.357974648475647
1789214111520755000,10.0627548828125,0.8076739311218262,-0.014595987275242805,0.4841669499874115
1789214111530787000,10.072787109375,1.0928648710250854,0.06222156435251236,0.5957006812095642
1789214111540818000,10.08281787109375,1.3454899787902832,0.24933312833309174,0.6656789183616638
1789214111550850000,10.09285009765625,1.5211230516433716,0.44148924946784973,0.6935617327690125
1789214111560882200,10.102882080078125,1.6033915281295776,0.6139577031135559,0.7053432464599609
1789214111570913000,10.1129130859375,1.6182516813278198,0.7906246185302734,0.6952307224273682
1789214111580945000,10.12294482421875,1.6306167840957642,0.8341353535652161,0.7622526288032532
1789214111590977000,10.13297705078125,1.6668400764465332,0.7707246541976929,0.8358765244483948
1789214111601009200,10.143009033203125,1.7137593030929565,0.614398717880249,0.8967238664627075
1789214111611040000,10.1530400390625,1.7599542140960693,0.4647365212440491,0.9378817081451416
1789214111621072100,10.163072021484375,1.782618522644043,0.3450034558773041,0.9508089423179626
1789214111631104000,10.17310400390625,1.768108606338501,0.3263602554798126,0.9013194441795349
1789214111641135000,10.183135009765625,1.7215924263000488,0.23088914155960083,0.8830879926681519
1789214111651167000,10.1931669921875,1.664243459701538,0.0799584835767746,0.8481773734092712
1789214111661199000,10.20319921875,1.6216102838516235,-0.1294088512659073,0.8259333372116089
1789214111671230000,10.21322998046875,1.5995464324951172,-0.3421839773654938,0.8536781668663025
1789214111681262000,10.223261962890625,1.6018764972686768,-0.5402725338935852,0.8848560452461243
1789214111691294000,10.2332939453125,1.5901545286178589,-0.6612144112586975,0.8775728344917297
1789214111701326000,10.243326171875,1.5494441986083984,-0.872480571269989,0.8791150450706482
1789214111711357200,10.253357177734374,1.4898796081542969,-1.0451905727386475,0.8980078101158142
1789214111721389000,10.26338916015625,1.4230992794036865,-1.1748974323272705,0.9159532189369202
1789214111731421000,10.2734208984375,1.3684853315353394,-1.2502624988555908,0.9044060111045837
1789214111741452000,10.2834521484375,1.2806744575500488,-1.2639518976211548,0.8849878907203674
1789214111751484000,10.29348388671875,1.1664632558822632,-1.2391102313995361,0.8441397547721863
1789214111761516000,10.30351611328125,1.0030945539474487,-1.1314400434494019,0.787522554397583
1789214111771547100,10.313547119140624,0.8020232319831848,-0.9396545886993408,0.7908267378807068
1789214111781579000,10.3235791015625,0.6156147122383118,-0.698224663734436,0.860815167427063
1789214111791611000,10.33361083984375,0.4691041111946106,-0.5372501611709595,0.948380708694458
1789214111801642000,10.34364208984375,0.3794466555118561,-0.5389702916145325,0.9711073040962219
1789214111811674000,10.353674072265624,0.29921573400497437,-0.5913392305374146,0.874411404132843
1789214111821706000,10.3637060546875,0.20429854094982147,-0.5627975463867188,0.6583896279335022
1789214111831738000,10.373738037109375,0.0900111123919487,-0.34903043508529663,0.4801442325115204
1789214111841769000,10.38376904296875,0.014974688179790974,-0.10796188563108444,0.4168986976146698
1789214111851800800,10.39380078125,-0.08378171920776367,0.03748079761862755,0.37152373790740967
1789214111861833200,10.403833251953126,-0.17500802874565125,0.13716451823711395,0.2771887183189392
1789214111871864000,10.413864013671875,-0.2026604264974594,0.10814697295427322,0.12712199985980988
1789214111881896000,10.42389599609375,-0.20636595785617828,0.03620833903551102,-0.013496899977326393
1789214111891928000,10.433927978515625,-0.18048295378684998,0.05441423878073692,-0.15189658105373383
1789214111901959000,10.443958984375,-0.16286109387874603,0.16149887442588806,-0.35860636830329895
1789214111911991000,10.453990966796875,-0.1977519541978836,0.2124163955450058,-0.5492748618125916
1789214111922023200,10.464023193359376,-0.24449869990348816,0.2523725926876068,-0.6364582180976868
1789214111932054000,10.474053955078125,-0.2728573679924011,0.35283634066581726,-0.5996690392494202
1789214111942086000,10.4840859375,-0.2544535994529724,0.4608733355998993,-0.5169981122016907
1789214111952118000,10.494117919921875,-0.2266523241996765,0.4752757251262665,-0.4762978255748749
1789214111962149000,10.504149169921876,-0.2152998000383377,0.37443751096725464,-0.5459767580032349
1789214111972181000,10.514180908203125,-0.21772752702236176,0.2014300525188446,-0.6954408288002014
1789214111982213000,10.524213134765626,-0.24534158408641815,0.08659880608320236,-0.8437954187393188
1789214111992245000,10.534244873046875,-0.2676237225532532,0.00318966805934906,-0.8632532954216003
1789214112002275800,10.54427587890625,-0.30112043023109436,-0.03175686299800873,-0.8032618165016174
1789214112012308200,10.55430810546875,-0.3884854316711426,-0.017414942383766174,-0.7913942933082581
1789214112022340000,10.564340087890624,-0.4826422929763794,-0.05368746444582939,-0.8886217474937439
1789214112032371000,10.574370849609375,-0.5360251069068909,-0.05817275866866112,-0.893100380897522
1789214112042403000,10.584403076171874,-0.5609562397003174,-0.0639781802892685,-0.7917215824127197
1789214112052435200,10.594435302734375,-0.5756372213363647,0.022041385993361473,-0.6756442189216614
1789214112062466000,10.604466064453124,-0.5840644836425781,0.15061746537685394,-0.49454474449157715
1789214112072498400,10.61449853515625,-0.6298266649246216,0.19968275725841522,-0.2962271273136139
1789214112082530300,10.6245302734375,-0.735284686088562,0.17629007995128632,-0.06562215089797974
1789214112092561200,10.63456103515625,-0.9461215138435364,0.33913013339042664,0.03205593675374985
1789214112102593300,10.64459326171875,-1.2200225591659546,0.5988737940788269,-0.07020838558673859
1789214112112625400,10.65462548828125,-1.4766085147857666,0.7492079138755798,-0.28130942583084106
1789214112122656300,10.66465625,-1.5953764915466309,0.6933473348617554,-0.4356577396392822
1789214112132688400,10.6746884765625,-1.5835222005844116,0.2684735357761383,-0.689943253993988
1789214112142720300,10.68472021484375,-1.4551807641983032,-0.1806856244802475,-1.098131775856018
1789214112152752000,10.694752197265625,-1.3305456638336182,-0.47121891379356384,-1.3779113292694092
1789214112162783200,10.704783203125,-1.1711280345916748,-0.5692046284675598,-1.4607867002487183
1789214112172815400,10.7148154296875,-1.0420390367507935,-0.41495805978775024,-1.4181814193725586
1789214112182847200,10.72484716796875,-0.9716170430183411,-0.10585719347000122,-1.2983884811401367
1789214112192878300,10.73487841796875,-0.9309306144714355,0.1739709973335266,-1.2006545066833496
1789214112202910200,10.74491015625,-0.9624874591827393,0.411842405796051,-1.1421653032302856
1789214112212942000,10.754942138671876,-0.9460054039955139,0.3502251207828522,-1.1739975214004517
1789214112222973400,10.764973388671875,-0.9297683835029602,0.22151081264019012,-1.2238777875900269
1789214112233005300,10.77500537109375,-1.0046948194503784,0.21847374737262726,-1.2134495973587036
1789214112243037200,10.785037109375,-1.104787826538086,0.20378722250461578,-1.1591283082962036
1789214112253068300,10.795068359375,-1.1190887689590454,0.05992512032389641,-1.135632038116455
1789214112263100200,10.80510009765625,-1.0854376554489136,-0.06876787543296814,-1.1456454992294312
1789214112273132300,10.81513232421875,-1.0075401067733765,-0.11995143443346024,-1.1433448791503906
1789214112283164200,10.8251640625,-0.9468275308609009,-0.07318180054426193,-1.0923551321029663
1789214112293195300,10.8351953125,-0.9822582006454468,-0.031376030296087265,-0.9255965352058411
1789214112303227100,10.84522705078125,-1.066078782081604,-0.118622787296772,-0.6352978944778442
1789214112313259000,10.855259033203126,-1.1278263330459595,-0.17257364094257355,-0.3102513551712036
1789214112323290400,10.865290283203125,-1.0827326774597168,0.025795644149184227,-0.15067926049232483
1789214112333322200,10.875322265625,-0.9098817706108093,0.11110202223062515,-0.06211157515645027
1789214112343354000,10.88535400390625,-0.6689943075180054,0.059292882680892944,0.1624898463487625
1789214112353385200,10.89538525390625,-0.5000321865081787,0.06823737919330597,0.44511276483535767
1789214112363417000,10.9054169921875,-0.35008183121681213,0.24522574245929718,0.6261153221130371
1789214112373449200,10.91544921875,-0.16451624035835266,0.44211989641189575,0.7535997629165649
1789214112383480300,10.925480224609375,0.0028535770252346992,0.5387726426124573,0.8459991812705994
1789214112393512200,10.93551220703125,0.15031467378139496,0.5409042835235596,0.9606663584709167
1789214112403544000,10.9455439453125,0.32324835658073425,0.6381543874740601,0.9818310737609863
1789214112413575200,10.9555751953125,0.5187877416610718,0.7659533619880676,0.9150704145431519
1789214112423607300,10.965607177734375,0.6706534624099731,0.7748667001724243,0.8246041536331177
1789214112433639200,10.97563916015625,0.8184950947761536,0.7280584573745728,0.7767082452774048
1789214112443671300,10.98567138671875,0.9805298447608948,0.7056492567062378,0.738879382610321
1789214112453702100,10.9957021484375,1.1291069984436035,0.6580937504768372,0.6776375770568848
1789214112463734300,11.005734375,1.2224713563919067,0.6044254302978516,0.6665761470794678
1789214112473766400,11.015766357421874,1.3158193826675415,0.632266640663147,0.6712383031845093
1789214112483797200,11.02579736328125,1.4161332845687866,0.7043110132217407,0.6577919721603394
1789214112493829400,11.035829345703124,1.491938829421997,0.7334989905357361,0.6647074222564697
1789214112503861200,11.045861328125,1.5633114576339722,0.7584003806114197,0.6939414739608765
1789214112513892000,11.05589208984375,1.6586915254592896,0.748523473739624,0.6859868764877319
1789214112523924200,11.06592431640625,1.7580492496490479,0.6184248924255371,0.6634309887886047
1789214112533956400,11.075956298828125,1.8548046350479126,0.36141785979270935,0.607905924320221
1789214112543987200,11.0859873046875,1.9005802869796753,0.020478909835219383,0.5674647688865662
1789214112554019300,11.096019287109375,1.8876522779464722,-0.27047836780548096,0.5896190404891968
1789214112564051200,11.10605126953125,1.8526405096054077,-0.4721859097480774,0.6309449076652527
1789214112574082000,11.11608203125,1.8073697090148926,-0.5942508578300476,0.6383998990058899
1789214112584114400,11.126114501953126,1.725071907043457,-0.6587443351745605,0.5788905024528503
1789214112594146300,11.136146240234375,1.5620713233947754,-0.7646593451499939,0.5361337661743164
1789214112604178200,11.14617822265625,1.3217768669128418,-0.9263384938240051,0.5486087799072266
1789214112614209300,11.156209228515625,1.1268678903579712,-0.9874204993247986,0.6362512707710266
1789214112624241400,11.166241455078126,0.9983932375907898,-0.9443897008895874,0.7768353223800659
1789214112634273300,11.176273193359375,0.9028440713882446,-1.018553376197815,0.8414039015769958
1789214112644304400,11.186304443359376,0.7885977029800415,-1.1208860874176025,0.8443456292152405
1789214112654336300,11.196336181640625,0.691218376159668,-1.1549961566925049,0.8706789612770081
1789214112664368000,11.2063681640625,0.6115446090698242,-1.0637208223342896,0.909237802028656
1789214112674399200,11.216399169921875,0.5208085775375366,-0.9155361652374268,0.9263773560523987
1789214112684431400,11.226431396484376,0.4703965485095978,-0.787825882434845,0.9298844933509827
1789214112694463200,11.236463134765625,0.43581777811050415,-0.6967337727546692,0.8915624022483826
1789214112704494300,11.246494384765626,0.36661314964294434,-0.5724704265594482,0.8369414806365967
1789214112714526200,11.256526123046875,0.28501150012016296,-0.5096869468688965,0.7692410349845886
1789214112724558300,11.266558349609374,0.22338594496250153,-0.45273712277412415,0.6708468198776245
1789214112734589400,11.27658935546875,0.11949949711561203,-0.39399656653404236,0.5639592409133911
1789214112744621300,11.286621337890624,-0.025174861773848534,-0.29984769225120544,0.4728407859802246
1789214112754653200,11.296653076171875,-0.18357010185718536,-0.2194758951663971,0.4333335757255554
1789214112764684300,11.306684326171874,-0.28617581725120544,-0.19923800230026245,0.4198840856552124
1789214112774716200,11.316716064453125,-0.3185063302516937,-0.17239706218242645,0.36640650033950806
1789214112784748300,11.326748291015624,-0.31020551919937134,-0.19633355736732483,0.2242610603570938
1789214112794779400,11.336779296875,-0.32620421051979065,-0.2669701874256134,0.005528722424060106
1789214112804811300,11.346811279296874,-0.3530888259410858,-0.270330548286438,-0.21362440288066864
1789214112814843100,11.356843017578125,-0.38116520643234253,-0.17323729395866394,-0.3674275577068329
1789214112824874200,11.366874267578124,-0.39604321122169495,0.002831206424161792,-0.41057154536247253
1789214112834906400,11.37690625,-0.4246208071708679,0.22725285589694977,-0.4160938858985901
1789214112844938200,11.386938232421874,-0.45134401321411133,0.41462087631225586,-0.47165992856025696
1789214112854970000,11.39697021484375,-0.5026364922523499,0.5970202684402466,-0.5599783658981323
1789214112865001200,11.407001220703124,-0.583988606929779,0.7833715081214905,-0.6756849884986877
1789214112875033000,11.417033203125,-0.641671359539032,0.8344548940658569,-0.83414626121521
1789214112885065200,11.427065185546875,-0.6376843452453613,0.6262580156326294,-1.0210953950881958
1789214112895096300,11.437096435546875,-0.5403990745544434,0.19194360077381134,-1.122401475906372
1789214112905128200,11.447128173828125,-0.3914545774459839,-0.11235050857067108,-1.0521899461746216
1789214112915160000,11.45716015625,-0.29884421825408936,-0.19023385643959045,-0.8845005035400391
1789214112925191200,11.467191162109375,-0.2991883158683777,-0.049556899815797806,-0.7096738219261169
1789214112935223300,11.477223388671876,-0.37847086787223816,0.14538995921611786,-0.5494325160980225
1789214112945255200,11.487255126953125,-0.4831365644931793,0.28185272216796875,-0.4848631024360657
1789214112955286300,11.497286376953125,-0.592816174030304,0.4355410933494568,-0.5317496657371521
1789214112965318100,11.507318115234375,-0.7049962878227234,0.7073203921318054,-0.46389123797416687
1789214112975350000,11.51735009765625,-0.8380659222602844,0.8925730586051941,-0.34275227785110474
1789214112985381000,11.527381103515625,-0.9932842254638672,0.847744345664978,-0.332114040851593
1789214112995413200,11.537413330078126,-1.1431901454925537,0.7856665849685669,-0.3523987829685211
1789214113005445000,11.547445068359375,-1.244929313659668,0.8127488493919373,-0.38591840863227844
1789214113015476200,11.557476318359376,-1.2860071659088135,0.698600172996521,-0.4834401607513428
1789214113025508000,11.567508056640625,-1.255417823791504,0.30023518204689026,-0.6731182336807251
1789214113035540200,11.577540283203126,-1.1619685888290405,-0.08481688797473907,-0.9490305185317993
1789214113045571300,11.5875712890625,-1.0422619581222534,-0.28143221139907837,-1.161349892616272
1789214113055602400,11.5976025390625,-0.9825999140739441,-0.2727217972278595,-1.249205470085144
1789214113065634300,11.60763427734375,-1.0049185752868652,-0.11305598169565201,-1.263190507888794
1789214113075665200,11.6176650390625,-1.0826071500778198,0.12479972094297409,-1.2606695890426636
1789214113085697300,11.627697265625,-1.150124192237854,0.2705287039279938,-1.258320927619934
1789214113095729400,11.6377294921875,-1.1819769144058228,0.2105817347764969,-1.2208534479141235
1789214113105760300,11.64776025390625,-1.1738783121109009,0.05167730897665024,-1.1854264736175537
1789214113115792400,11.65779248046875,-1.151008129119873,-0.11713248491287231,-1.2055027484893799
1789214113125824300,11.66782421875,-1.1509300470352173,-0.18489502370357513,-1.2420426607131958
1789214113135855000,11.677855224609376,-1.122166633605957,-0.2281958907842636,-1.2679946422576904
1789214113145887500,11.687887451171875,-1.135406255722046,-0.17209719121456146,-1.2408822774887085
1789214113155919400,11.69791943359375,-1.2350361347198486,-0.2087920904159546,-1.016210913658142
1789214113165951200,11.707951171875,-1.2924309968948364,-0.3714750111103058,-0.6886479258537292
1789214113175982300,11.717982421875,-1.222969651222229,-0.24129091203212738,-0.5388331413269043
1789214113186014200,11.72801416015625,-0.9896612763404846,-0.0857897400856018,-0.6011590957641602
1789214113196046300,11.73804638671875,-0.7948973774909973,-0.2624702453613281,-0.4314699172973633
1789214113206077400,11.748077392578125,-0.742763340473175,-0.381807804107666,-0.01221352256834507
1789214113216109300,11.758109375,-0.7186985015869141,-0.12981845438480377,0.17834258079528809
1789214113226141200,11.76814111328125,-0.6048393249511719,0.1629154235124588,0.30041682720184326
1789214113236172300,11.77817236328125,-0.431347131729126,0.2799416482448578,0.434407114982605
1789214113246204400,11.788204345703125,-0.2866504192352295,0.2519078850746155,0.40875154733657837
1789214113256236300,11.798236328125,-0.12208676338195801,0.10442867130041122,0.40853050351142883
1789214113266267400,11.808267333984375,0.07210322469472885,0.04849429801106453,0.5188069343566895
1789214113276299300,11.81829931640625,0.2846357226371765,0.08374869078397751,0.5883617997169495
1789214113286331100,11.8283310546875,0.5058482885360718,0.16759778559207916,0.665513277053833
1789214113296362500,11.838362548828124,0.6795164942741394,0.3343028724193573,0.7153964638710022
1789214113306394400,11.848394287109375,0.8382051587104797,0.5465056896209717,0.7425167560577393
1789214113316426200,11.85842626953125,0.9755843281745911,0.5900395512580872,0.8254252076148987
1789214113326457300,11.868457275390625,1.0837161540985107,0.6344906687736511,0.9034768342971802
1789214113336489200,11.8784892578125,1.1844561100006104,0.7369914650917053,0.969460666179657
1789214113346521300,11.888521240234375,1.3069124221801758,0.8543788194656372,0.9554649591445923
1789214113356552400,11.898552490234374,1.4288495779037476,0.873071014881134,0.9502334594726562
1789214113366584300,11.908584228515625,1.5262027978897095,0.9295268654823303,0.9566982984542847
1789214113376616200,11.9186162109375,1.5994817018508911,0.9856084585189819,0.9535333514213562
1789214113386647300,11.928647216796875,1.634066104888916,0.9116641879081726,0.9138221740722656
1789214113396679400,11.938679443359375,1.6495832204818726,0.7228788733482361,0.9039413332939148
1789214113406711300,11.948711181640626,1.6721165180206299,0.5248842835426331,0.9016309976577759
1789214113416742400,11.958742431640625,1.694745659828186,0.3837980031967163,0.8435954451560974
1789214113426774300,11.968774169921875,1.7029274702072144,0.11766724288463593,0.7643722295761108
1789214113436806100,11.97880615234375,1.692509651184082,-0.13096733391284943,0.7293127775192261
1789214113446837200,11.988837158203125,1.6829686164855957,-0.25998231768608093,0.7230306267738342
1789214113456869400,11.998869384765625,1.6758761405944824,-0.33897194266319275,0.7157844305038452
1789214113466901200,12.0089013671875,1.6684876680374146,-0.43915286660194397,0.7120171785354614
1789214113476932400,12.018932373046875,1.6573150157928467,-0.5809891223907471,0.6544507741928101
1789214113486964200,12.028964111328126,1.6234222650527954,-0.8145555257797241,0.554922878742218
1789214113496996400,12.038996337890625,1.561298131942749,-1.0450634956359863,0.4689302146434784
1789214113507027500,12.04902734375,1.4356871843338013,-1.1219327449798584,0.42238080501556396
1789214113517059300,12.059059326171875,1.2366670370101929,-1.0990370512008667,0.4145044982433319
1789214113527091200,12.06909130859375,1.0540863275527954,-1.0253069400787354,0.4359685182571411
1789214113537122300,12.079122314453125,0.9220641255378723,-0.9179471731185913,0.5002484321594238
1789214113547154200,12.089154296875,0.8404411673545837,-0.8354498744010925,0.5737711191177368
1789214113557186300,12.099186279296875,0.7507861256599426,-0.7526007890701294,0.6275550127029419
1789214113567217400,12.109217529296876,0.5978463888168335,-0.5720158219337463,0.6380729079246521
1789214113577249300,12.119249267578125,0.3820863962173462,-0.41073134541511536,0.6250404119491577
1789214113587281200,12.12928125,0.14750024676322937,-0.29214397072792053,0.6019537448883057
1789214113597312300,12.139312255859375,-0.02696610428392887,-0.08517694473266602,0.6032491326332092
1789214113607344400,12.149344482421874,-0.1462078094482422,0.06624027341604233,0.6148282885551453
1789214113617376300,12.159376220703125,-0.2179001122713089,0.010647851042449474,0.6258260607719421
1789214113627407400,12.169407470703124,-0.19291380047798157,-0.10529632866382599,0.5666213631629944
1789214113637439200,12.179439208984375,-0.09435712546110153,-0.18836937844753265,0.39988774061203003
1789214113647471000,12.18947119140625,-0.025970347225666046,-0.27874666452407837,0.15205638110637665
1789214113657502200,12.199502197265625,0.008954079821705818,-0.28617236018180847,-0.0928119644522667
1789214113667534300,12.209534423828124,0.027819113805890083,-0.16175241768360138,-0.28504106402397156
1789214113677566200,12.219566162109375,-0.02857838198542595,-0.033792316913604736,-0.41398945450782776
1789214113687597300,12.229597412109374,-0.10558874160051346,0.030705980956554413,-0.5078269839286804
1789214113697629200,12.239629150390625,-0.15083691477775574,0.033128127455711365,-0.5871569514274597
1789214113707661300,12.249661376953124,-0.16373886168003082,0.014448448084294796,-0.6497223377227783
1789214113717692400,12.2596923828125,-0.19601957499980927,0.08770614862442017,-0.6912495493888855
1789214113727724300,12.269724365234374,-0.264798104763031,0.317923903465271,-0.7575015425682068
1789214113737756200,12.279756103515625,-0.34916040301322937,0.5779592394828796,-0.8444209694862366
1789214113747787300,12.289787353515624,-0.40905141830444336,0.736482560634613,-0.9571834802627563
1789214113757819100,12.299819091796875,-0.4501937925815582,0.7646140456199646,-1.0796090364456177
1789214113767851300,12.309851318359375,-0.4691784083843231,0.5903255939483643,-1.1856504678726196
1789214113777882400,12.31988232421875,-0.43928682804107666,0.20304685831069946,-1.2380976676940918
1789214113787914200,12.329914306640624,-0.36504533886909485,-0.17372998595237732,-1.1647577285766602
1789214113797946000,12.339946044921875,-0.33677828311920166,-0.36772555112838745,-1.0072959661483765
1789214113807977200,12.349977294921874,-0.4237707257270813,-0.2851361334323883,-0.8314064145088196
1789214113818009300,12.36000927734375,-0.5523515939712524,-0.05386456474661827,-0.7007226943969727
1789214113828041200,12.370041259765625,-0.6751065254211426,0.24275937676429749,-0.573378324508667
1789214113838072300,12.380072265625,-0.7781801819801331,0.4877779185771942,-0.4610224664211273
1789214113848104200,12.390104248046875,-0.8824877142906189,0.6442636847496033,-0.37900644540786743
1789214113858136000,12.400135986328126,-0.9911473393440247,0.6082292199134827,-0.3613438308238983
1789214113868167400,12.41016748046875,-1.1225042343139648,0.40018948912620544,-0.41836369037628174
1789214113878199300,12.42019921875,-1.2170014381408691,0.19658203423023224,-0.4255547523498535
1789214113888231200,12.430231201171875,-1.326819658279419,0.02100248634815216,-0.43033567070961
1789214113898262300,12.44026220703125,-1.3755184412002563,-0.19458892941474915,-0.5557777285575867
1789214113908294100,12.450294189453125,-1.332443118095398,-0.4657045900821686,-0.7549529075622559
1789214113918326300,12.460326171875,-1.2681248188018799,-0.6554100513458252,-0.893098771572113
1789214113928357400,12.470357421875,-1.2219562530517578,-0.6299340128898621,-0.9654698967933655
1789214113938389200,12.48038916015625,-1.2157223224639893,-0.42507538199424744,-1.0039176940917969
1789214113948421000,12.490421142578125,-1.2483274936676025,-0.23183350265026093,-1.0231614112854004
1789214113958452200,12.5004521484375,-1.2886879444122314,-0.1322677582502365,-1.00038743019104
1789214113968484400,12.510484375,-1.3027079105377197,-0.0776607096195221,-0.9510049819946289
1789214113978516200,12.52051611328125,-1.2984817028045654,-0.08496095985174179,-0.9158967733383179
1789214113988547300,12.53054736328125,-1.2401372194290161,-0.18825778365135193,-0.9712892174720764
1789214113998579200,12.5405791015625,-1.2310140132904053,-0.32061371207237244,-1.0341781377792358
