time,seconds_elapsed,z,y,x
1789322963606012400,0.151012451171875,8.72901725769043,3.7851462364196777,-0.5578267574310303
1789322963624864800,0.16986474609375,8.623434066772461,3.8545382022857666,-0.5530411601066589
1789322963643717000,0.188717041015625,8.697610855102539,3.9382870197296143,-0.5721837282180786
1789322963662569500,0.207569580078125,8.819944381713867,4.060320854187012,-0.643968403339386
1789322963681421800,0.226421875,8.901300430297852,4.031607151031494,-0.6320042610168457
1789322963700274200,0.245274169921875,8.999405860900879,4.177569389343262,-0.766002357006073
1789322963747404800,0.29240478515625,9.475876808166504,3.9502511024475098,-0.8018946647644043
1789322963766257200,0.311257080078125,9.449555397033691,3.9861433506011963,-0.701396107673645
1789322963785109500,0.330109619140625,9.339486122131348,4.036392688751221,-0.6415755748748779
1789322963803961900,0.3489619140625,9.169296264648438,3.976572036743164,-0.732502818107605
1789322963822814200,0.367814208984375,9.116654396057129,3.9023945331573486,-0.8353942036628723
1789322963841666600,0.38666650390625,8.906085968017578,3.967000722885132,-0.8452646136283875
1789322963860519000,0.405518798828125,8.692825317382812,4.127319812774658,-0.7588238716125488
1789322963888797400,0.43379736328125,8.997013092041016,4.1991047859191895,-0.8282157182693481
1789322963907649800,0.45264990234375,9.08554744720459,4.007678985595703,-0.7396813035011292
1789322963926502100,0.471502197265625,8.810373306274414,3.7755749225616455,-0.3975076675415039
1789322963945354500,0.4903544921875,8.5731840133667,3.722932815551758,0.14117653667926788
1789322963964206800,0.509206787109375,8.666504859924316,3.7277185916900635,0.31375887989997864
1789322963983059000,0.528058837890625,8.748159408569336,3.7133617401123047,0.10289137065410614
1789322964001911600,0.54691162109375,8.422436714172363,3.5982069969177246,-0.11485548317432404
1789322964020763600,0.565763671875,8.28126049041748,3.6221351623535156,-0.385543555021286
1789322964039616000,0.584615966796875,8.446364402770996,3.691826343536377,-0.7037889361381531
1789322964058468400,0.60346826171875,8.635397911071777,3.576671600341797,-0.9649057388305664
1789322964077320700,0.62232080078125,8.345866203308105,3.624528169631958,-0.893121063709259
1789322964096173000,0.641173095703125,8.216653823852539,3.835395574569702,-0.6774678826332092
1789322964115025400,0.660025390625,8.436793327331543,4.067499160766602,-0.7612167000770569
1789322964133877800,0.678877685546875,8.812766075134277,3.935894250869751,-0.8282157182693481
1789322964152730000,0.697730224609375,9.154939651489258,3.7037904262542725,-0.675075113773346
1789322964171582500,0.71658251953125,9.463912963867188,3.5168511867523193,-0.24885354936122894
1789322964190434800,0.735434814453125,9.617053031921387,3.2823543548583984,0.37836506962776184
1789322964209287200,0.754287109375,9.439984321594238,2.9638099670410156,0.5315057039260864
1789322964228139500,0.773139404296875,8.918049812316895,3.4402806758880615,-0.23210379481315613
1789322964246992000,0.791991943359375,8.707481384277344,3.8162529468536377,-0.3927220106124878
1789322964265844200,0.81084423828125,8.68325424194336,3.8617167472839355,0.007178467698395252
1789322964284696600,0.829696533203125,8.745766639709473,3.770789384841919,0.31375887989997864
1789322964303549000,0.848548828125,8.647361755371094,3.9406797885894775,0.31854450702667236
1789322964322401300,0.8674013671875,8.386544227600098,3.8066816329956055,0.6583253145217896
1789322964350679800,0.8956796875,8.207082748413086,3.699004650115967,0.8739784955978394
1789322964369532200,0.9145322265625,8.381758689880371,3.4713873863220215,0.8739784955978394
1789322964388384500,0.933384521484375,8.515756607055664,3.02123761177063,1.0462616682052612
1789322964407236900,0.95223681640625,8.374580383300781,2.2193429470062256,1.5203397274017334
1789322964426089200,0.971089111328125,8.28126049041748,1.695015788078308,2.135594129562378
1789322964444941600,0.989941650390625,8.341080665588379,1.7548363208770752,2.4610180854797363
1789322964463794000,1.0087939453125,7.716254711151123,1.596909999847412,2.5450658798217773
1789322964482646300,1.027646240234375,7.004988193511963,1.2711870670318604,2.2648067474365234
1789322964501498600,1.04649853515625,7.39771032333374,1.5251253843307495,1.9319051504135132
1789322964520351000,1.06535107421875,8.084749221801758,1.6088740825653076,1.8792630434036255
1789322964539203300,1.084203369140625,8.048856735229492,1.4246268272399902,1.9872392416000366
1789322964558055700,1.1030556640625,7.050751209259033,1.287936806678772,2.1786649227142334
1789322964576908000,1.121907958984375,5.985346794128418,0.9074779748916626,2.276770830154419
1789322964595760400,1.140760498046875,6.222236156463623,0.5075774788856506,2.104487419128418
1789322964614612700,1.15961279296875,6.176772594451904,0.5841478109359741,0.9744769930839539
1789322964633465000,1.178465087890625,4.829015254974365,-0.01196411345154047,-0.26560330390930176
1789322964652317400,1.1973173828125,5.030012130737305,-2.087737798690796,-0.06939185410737991
1789322964671169800,1.216169677734375,7.77607536315918,-4.127319812774658,0.7875377535820007
1789322964690022100,1.235022216796875,10.517353057861328,-5.013262748718262,1.6304094791412354
1789322964708874500,1.25387451171875,10.498209953308105,-6.1002020835876465,1.529910922050476
1789322964727726800,1.272726806640625,9.571589469909668,-6.4905314445495605,-0.2632105052471161
1789322964746579200,1.2915791015625,10.062417030334473,-6.665207386016846,-1.970489501953125
1789322964765431800,1.310431884765625,10.787741661071777,-7.361817836761475,-2.729313373565674
1789322964784284200,1.3292841796875,10.756634712219238,-7.606184959411621,-3.2105698585510254
1789322964803136500,1.348136474609375,10.780563354492188,-7.890930652618408,-4.213760852813721
1789322964821988900,1.36698876953125,10.337592124938965,-8.137690544128418,-5.7409796714782715
1789322964840841200,1.38584130859375,9.353842735290527,-7.8382887840271,-7.610970497131348
1789322964859693600,1.404693603515625,8.264510154724121,-7.728219032287598,-9.131011009216309
1789322964878546000,1.4235458984375,8.142476081848145,-7.771289825439453,-10.234700202941895
1789322964897398300,1.442398193359375,10.143773078918457,-7.182356357574463,-11.10628604888916
1789322964916250600,1.461250732421875,10.871490478515625,-5.669195175170898,-11.726326942443848
1789322964935103000,1.48010302734375,10.936097145080566,-5.341378211975098,-11.331212043762207
1789322964953955300,1.498955322265625,10.593923568725586,-4.247260093688965,-11.566007614135742
1789322964972807700,1.5178076171875,9.844670295715332,-3.73250412940979,-11.597113609313965
1789322964991660000,1.536659912109375,8.724231719970703,-3.311068296432495,-10.919346809387207
1789322965010512400,1.555512451171875,8.070392608642578,-2.8058836460113525,-9.552447319030762
1789322965048217300,1.59321728515625,7.290033340454102,-2.9015965461730957,-8.522934913635254
1789322965067069700,1.612069580078125,6.238986015319824,-3.1794631481170654,-8.692825317382812
1789322965085922000,1.630922119140625,5.343770980834961,-3.248854875564575,-7.754539966583252
1789322965104774400,1.6497744140625,4.939085006713867,-3.835395574569702,-7.40488862991333
1789322965123626800,1.668626708984375,3.890430450439453,-4.658825874328613,-8.796015739440918
1789322965142479000,1.68747900390625,3.1746773719787598,-4.982155799865723,-7.58943510055542
1789322965161331500,1.70633154296875,3.387638568878174,-5.101797103881836,-6.353841304779053
1789322965180183800,1.725183837890625,3.749253988265991,-4.958227634429932,-5.867799282073975
1789322965199036400,1.744036376953125,3.7253258228302,-4.60139799118042,-5.477769374847412
1789322965217888800,1.762888671875,3.5958142280578613,-4.491328239440918,-4.022035598754883
1789322965236741000,1.7817412109375,4.2281174659729,-4.405186653137207,-3.1339993476867676
1789322965255593500,1.800593505859375,5.482554912567139,-3.284747362136841,-4.7473602294921875
1789322965274445800,1.81944580078125,4.963013172149658,-2.9949166774749756,-6.832705020904541
1789322965293298200,1.838298095703125,3.6583266258239746,-3.270390272140503,-8.084749221801758
1789322965312150500,1.857150634765625,3.583850145339966,-3.9789650440216064,-7.864609718322754
1789322965331003000,1.8760029296875,4.721039295196533,-4.524827480316162,-6.353841304779053
1789322965349855200,1.894855224609375,6.408876419067383,-4.122534275054932,-4.711467742919922
1789322965368707800,1.913707763671875,6.914061069488525,-3.804288864135742,-2.2648067474365234
1789322965387560200,1.932560302734375,4.271188259124756,-5.535196781158447,-1.292722463607788
1789322965406412500,1.95141259765625,0.1698904037475586,-9.633803367614746,-4.393222332000732
1789322965425265000,1.970264892578125,-0.4549354016780853,-11.034502029418945,-7.371389389038086
1789322965444117200,1.9891171875,2.149951219558716,-10.641779899597168,-7.742575645446777
1789322965462969600,2.007969482421875,5.312365531921387,-10.852348327636719,-6.538387775421143
1789322965481822000,2.026822021484375,4.467400074005127,-11.64018440246582,-6.638886451721191
1789322965500674300,2.04567431640625,4.328616142272949,-11.709576606750488,-8.00100040435791
1789322965519526700,2.064526611328125,5.386841773986816,-11.290534019470215,-7.163213729858398
1789322965538379300,2.083379150390625,5.358128070831299,-10.5723876953125,-7.110571384429932
1789322965557231600,2.102231689453125,5.410770416259766,-9.868598937988281,-7.898109436035156
1789322965576084000,2.121083984375,5.425127029418945,-8.922835350036621,-8.099106788635254
1789322965594936300,2.139936279296875,4.814658164978027,-7.977072715759277,-7.747361660003662
1789322965613788700,2.15878857421875,3.670290946960449,-7.357032299041748,-7.189534664154053
1789322965632641000,2.17764111328125,3.1076784133911133,-6.942774772644043,-6.121737480163574
1789322965651493400,2.196493408203125,4.261617183685303,-7.938787460327148,-5.250152111053467
1789322965670345700,2.215345703125,4.888835906982422,-9.207581520080566,-5.027619361877441
1789322965689198300,2.2341982421875,5.803193092346191,-9.166903495788574,-4.627718925476074
1789322965708050700,2.25305078125,6.384948253631592,-9.104690551757812,-4.4243292808532715
1789322965726903000,2.271903076171875,6.02602481842041,-8.448758125305176,-4.761716842651367
1789322965745755400,2.29075537109375,5.360520839691162,-7.3043904304504395,-5.104189872741699
1789322965764607700,2.309607666015625,4.457828521728516,-6.231807708740234,-5.2956156730651855
1789322965783460000,2.328460205078125,5.281258583068848,-5.209474086761475,-5.7409796714782715
1789322965802312400,2.3473125,7.000202655792236,-4.677968502044678,-6.160022735595703
1789322965821164800,2.366164794921875,7.431210041046143,-4.9486565589904785,-6.152844429016113
1789322965840017200,2.38501708984375,7.122535705566406,-5.867799282073975,-6.054738521575928
1789322965858869800,2.403869873046875,6.4666032791137695,-5.870192050933838,-5.669195175170898
1789322965877722000,2.42272216796875,5.959025859832764,-4.927121162414551,-4.886443138122559
1789322965896574500,2.441574462890625,5.551946640014648,-3.4881372451782227,-3.91914439201355
1789322965915426800,2.4604267578125,5.84865665435791,-2.149951219558716,-3.9789650440216064
1789322965934279200,2.479279052734375,6.521637916564941,-2.417947292327881,-4.522434711456299
1789322965953131500,2.498131591796875,6.246164321899414,-3.5575289726257324,-4.843372344970703
1789322965971984000,2.51698388671875,5.860620975494385,-4.208974838256836,-4.649254322052002
1789322965990836200,2.535836181640625,5.595017433166504,-4.280759811401367,-4.124927043914795
1789322966009688800,2.554688720703125,5.645267009735107,-3.840181350708008,-3.5742788314819336
1789322966028541200,2.573541259765625,5.824728488922119,-3.3948171138763428,-3.122035264968872
1789322966047393500,2.5923935546875,5.975775241851807,-2.7436702251434326,-2.8130621910095215
1789322966066246000,2.611245849609375,6.121737480163574,-2.365305185317993,-2.7364916801452637
1789322966085098200,2.63009814453125,6.181558132171631,-2.310270309448242,-2.6072793006896973
1789322966103950600,2.64895068359375,6.224628925323486,-2.590529680252075,-2.738884687423706
1789322966122803000,2.667802978515625,6.126523494720459,-2.729313373565674,-3.069094181060791
1789322966141655600,2.686655517578125,5.961418628692627,-2.865704298019409,-3.4881372451782227
1789322966160508000,2.7055078125,6.002096652984619,-2.9303104877471924,-3.828217029571533
1789322966179360300,2.7243603515625,6.210271835327148,-2.997309446334839,-3.928715705871582
1789322966198212600,2.743212646484375,6.337091445922852,-2.9327032566070557,-4.213760852813721
1789322966217065000,2.76206494140625,6.200700759887695,-2.9255247116088867,-4.6372904777526855
1789322966235917300,2.780917236328125,6.423233509063721,-3.684647798538208,-5.044369220733643
1789322966254769700,2.799769775390625,6.540780544281006,-4.4721856117248535,-5.616552829742432
1789322966273622000,2.8186220703125,6.425626277923584,-4.682754039764404,-5.434698581695557
1789322966292474600,2.837474609375,6.705885410308838,-4.139284133911133,-4.302295207977295
1789322966311327000,2.856326904296875,6.097809314727783,-4.369294166564941,-3.5048868656158447
1789322966330179300,2.875179443359375,4.5200419425964355,-7.026822566986084,-4.2209391593933105
1789322966349031700,2.89403173828125,4.429114818572998,-8.137690544128418,-5.274080276489258
1789322966367884000,2.912884033203125,5.542375564575195,-7.773682594299316,-4.570291042327881
1789322966386736400,2.931736328125,4.148855209350586,-8.769695281982422,-5.063511848449707
1789322966405588700,2.950588623046875,3.1890344619750977,-10.965109825134277,-5.640480995178223
1789322966424441300,2.96944140625,4.721039295196533,-12.506686210632324,-4.6061835289001465
1789322966443293700,2.988293701171875,4.6540398597717285,-13.107583045959473,-3.4331023693084717
1789322966462146000,3.00714599609375,4.232903480529785,-13.773386001586914,-2.262413740158081
1789322966480998400,3.025998291015625,4.754538536071777,-13.864313125610352,-1.197009563446045
1789322966499850800,3.044850830078125,4.60857629776001,-13.445270538330078,-1.220937728881836
1789322966528129500,3.073129638671875,4.285545349121094,-12.509078979492188,-2.1930220127105713
1789322966546982000,3.09198193359375,3.7253258228302,-11.551650047302246,-3.246462106704712
1789322966565834200,3.110834228515625,3.497708559036255,-11.115857124328613,-2.6312077045440674
1789322966584686600,3.1296865234375,3.699004650115967,-10.129416465759277,-1.1132607460021973
1789322966603539000,3.1485390625,4.431507587432861,-7.922037601470947,0.10767702013254166
1789322966622391300,3.167391357421875,5.671587944030762,-6.67717170715332,-0.12203395366668701
1789322966641243600,3.18624365234375,5.836692810058594,-6.966702938079834,-0.5386841893196106
1789322966660096300,3.20509619140625,5.932704448699951,-7.907680511474609,-1.0917253494262695
1789322966678948600,3.223948486328125,6.454638957977295,-8.688039779663086,-1.927119493484497
1789322966697801000,3.242801025390625,6.6149582862854,-8.733802795410156,-3.054737091064453
1789322966716653300,3.2616533203125,6.725028038024902,-8.64496898651123,-3.8928234577178955
1789322966735505700,3.280505615234375,7.043572425842285,-8.534899711608887,-4.187140464782715
1789322966754358000,3.29935791015625,7.0097737312316895,-8.709874153137207,-4.122534275054932
1789322966773210400,3.31821044921875,7.0531439781188965,-8.922835350036621,-3.9000017642974854
1789322966792063000,3.33706298828125,7.074679374694824,-8.805587768554688,-3.576671600341797
1789322966810915300,3.355915283203125,6.988238334655762,-8.30997371673584,-3.0810582637786865
1789322966829767700,3.374767578125,7.098607540130615,-7.7114691734313965,-2.489732027053833
1789322966848620000,3.3936201171875,7.203891754150391,-7.041179656982422,-1.7380865812301636
1789322966867472400,3.412472412109375,6.887740135192871,-6.320342063903809,-1.1324033737182617
1789322966886324700,3.43132470703125,6.602993965148926,-5.480162143707275,-1.0390832424163818
1789322966905177300,3.45017724609375,6.686742782592773,-4.771587371826172,-1.0701899528503418
1789322966924029700,3.46902978515625,6.681957244873047,-4.244867324829102,-0.9122636318206787
1789322966942882000,3.487882080078125,6.365805625915527,-3.5982069969177246,-0.6726822853088379
1789322966961734400,3.506734375,5.923133373260498,-3.0714869499206543,-0.4262215197086334
1789322966980586800,3.525586669921875,5.819942951202393,-2.6623141765594482,-0.2273181527853012
1789322966999439000,3.544439208984375,5.831906795501709,-2.427518606185913,-0.09092725813388824
1789322967018291500,3.56329150390625,6.004489421844482,-2.3198416233062744,-0.09810572862625122
1789322967037144000,3.58214404296875,6.439982891082764,-2.2576282024383545,-0.28983065485954285
1789322967055996400,3.600996337890625,6.6484575271606445,-2.403590440750122,-0.5697908997535706
1789322967074848800,3.619848876953125,6.6484575271606445,-2.3222343921661377,-0.6894320249557495
1789322967093701000,3.638701171875,6.665207386016846,-2.23848557472229,-0.6846463680267334
1789322967112553500,3.657553466796875,6.708278179168701,-2.1714866161346436,-0.6631109714508057
1789322967131405800,3.67640576171875,6.698707103729248,-2.094916343688965,-0.8452646136283875
1789322967150258400,3.695258544921875,6.748956203460693,-2.094916343688965,-1.0582258701324463
1789322967169110800,3.71411083984375,6.80159854888916,-2.2193429470062256,-1.2759727239608765
1789322967187963100,3.732963134765625,6.655636310577393,-2.6024937629699707,-1.4868401288986206
1789322967206815500,3.7518154296875,6.646064758300781,-3.4259238243103027,-1.6615161895751953
1789322967225667800,3.770667724609375,6.605386734008789,-4.618147850036621,-1.934298038482666
1789322967244520200,3.789520263671875,6.468996047973633,-6.037988662719727,-2.1403799057006836
1789322967263372500,3.80837255859375,6.222236156463623,-7.294818878173828,-2.231307029724121
1789322967282225000,3.827224853515625,6.047560214996338,-7.960322856903076,-2.066202402114868
1789322967301077500,3.846077392578125,6.116951942443848,-8.219046592712402,-1.831406593322754
1789322967319929900,3.864929931640625,6.2653069496154785,-8.477471351623535,-1.651944875717163
1789322967338782200,3.8837822265625,6.444768905639648,-8.817551612854004,-1.5418751239776611
1789322967357634600,3.902634521484375,6.6939215660095215,-9.245866775512695,-1.678265929222107
1789322967376487000,3.92148681640625,6.8279194831848145,-10.062417030334473,-1.8170497417449951
1789322967395339300,3.94033935546875,6.818347930908203,-11.194820404052734,-1.776371717453003
1789322967414191600,3.959191650390625,6.557530403137207,-11.879467010498047,-1.678265929222107
1789322967433044200,3.978044189453125,6.370591163635254,-11.520544052124023,-1.4964114427566528
1789322967451896600,3.996896484375,6.384948253631592,-10.732707023620605,-1.3764712810516357
1789322967470749000,4.0157490234375,6.27487850189209,-10.057631492614746,-1.4413765668869019
1789322967489601300,4.034601318359375,6.231807708740234,-9.76062297821045,-1.8337994813919067
1789322967508453600,4.05345361328125,6.2653069496154785,-9.801301002502441,-1.934298038482666
1789322967527306000,4.072305908203125,6.320342063903809,-9.918848037719727,-1.7428722381591797
1789322967546158300,4.091158447265625,6.143272876739502,-10.055238723754883,-1.695015788078308
1789322967565010700,4.1100107421875,5.836692810058594,-10.067203521728516,-1.8337994813919067
1789322967583863000,4.128863037109375,5.628517150878906,-9.873384475708008,-2.0614166259765625
1789322967602715600,4.147715576171875,5.492125988006592,-9.444769859313965,-2.2360928058624268
1789322967621568000,4.166568115234375,5.32193660736084,-8.793622970581055,-2.358126640319824
1789322967640420400,4.18542041015625,5.166403293609619,-8.09671401977539,-2.557030200958252
1789322967659272700,4.204272705078125,5.274080276489258,-7.6013994216918945,-2.6503500938415527
1789322967678125000,4.223125,5.84865665435791,-7.630113124847412,-2.5785655975341797
1789322967696977400,4.241977294921875,6.81595516204834,-8.207082748413086,-2.6718854904174805
1789322967715829800,4.260829833984375,7.618149280548096,-9.087940216064453,-3.0332016944885254
1789322967734682000,4.27968212890625,7.888537883758545,-9.698409080505371,-3.4307093620300293
1789322967753534700,4.29853466796875,7.749754428863525,-9.554840087890625,-3.4307093620300293
1789322967772387000,4.317386962890625,6.526423931121826,-6.555137634277344,-2.604886531829834
1789322967791239400,4.336239501953125,6.337091445922852,-5.346164226531982,-2.0231316089630127
1789322967810091800,4.355091796875,6.679564476013184,-5.309972763061523,-1.596909999847412
1789322967828944100,4.373944091796875,7.177570819854736,-5.614160060882568,-1.1132607460021973
1789322967847796500,4.39279638671875,7.450352191925049,-5.494519233703613,-0.49322056770324707
1789322967866648800,4.41164892578125,6.725028038024902,-4.371686935424805,-0.9385846853256226
1789322967885501200,4.430501220703125,6.880561351776123,-3.1722846031188965,-1.9920248985290527
1789322967904353500,4.449353515625,6.885347366333008,-3.294318675994873,-2.465803623199463
1789322967923206100,4.4682060546875,6.799205780029297,-3.6487553119659424,-1.438983678817749
1789322967942058500,4.48705859375,6.045167446136475,-3.2727832794189453,-0.064606212079525
1789322967960910800,4.505910888671875,6.042774677276611,-1.8744773864746094,-0.19621145725250244
1789322967979763200,4.52476318359375,6.021239280700684,-2.0135602951049805,-0.6296114325523376
1789322967998615600,4.543615478515625,6.902096748352051,-1.8696918487548828,-0.24167509377002716
1789322968026894000,4.57189404296875,6.2413787841796875,-1.7069798707962036,-0.7492526173591614
1789322968045746400,4.590746337890625,5.504090309143066,-1.5753746032714844,-0.7540382146835327
1789322968064598800,4.609598876953125,5.913562297821045,-1.474876046180725,-0.15553347766399384
1789322968083451100,4.628451171875,6.3131632804870605,-1.8266209363937378,-0.385543555021286
1789322968102303700,4.6473037109375,6.02602481842041,-1.9414764642715454,-0.9912267923355103
1789322968121156000,4.666156005859375,6.583851337432861,-2.252842426300049,-1.628016710281372
1789322968140008400,4.685008544921875,6.985845565795898,-2.8465616703033447,-1.7596219778060913
1789322968158860800,4.70386083984375,7.409674644470215,-2.9374887943267822,-1.4916257858276367
1789322968177713200,4.722713134765625,7.239784240722656,-3.3302109241485596,-1.776371717453003
1789322968196565500,4.7415654296875,7.45992374420166,-5.298008441925049,-2.293520450592041
1789322968215417900,4.76041796875,6.803991317749023,-7.184749126434326,-2.8896324634552
1789322968234270200,4.779270263671875,6.457031726837158,-8.568398475646973,-3.19860577583313
1789322968253122600,4.79812255859375,6.550352096557617,-9.337093353271484,-3.153141975402832
1789322968271975000,4.816974853515625,6.451947212219238,-10.14616584777832,-3.0403802394866943
1789322968290827300,4.8358271484375,6.521637916564941,-10.737492561340332,-2.8513472080230713
1789322968309679600,4.8546796875,6.160022735595703,-10.25623607635498,-2.564208507537842
1789322968328532000,4.873531982421875,6.200700759887695,-9.066405296325684,-2.6072793006896973
1789322968347384600,4.892384521484375,6.665207386016846,-8.63061237335205,-2.5761725902557373
1789322968366237000,4.91123681640625,6.99541711807251,-9.789336204528809,-2.2719850540161133
1789322968385089300,4.93008935546875,6.073881149291992,-11.520544052124023,-2.7364916801452637
1789322968403941600,4.948941650390625,5.257330417633057,-11.989537239074707,-2.181057929992676
1789322968422794000,4.9677939453125,5.642873764038086,-10.802098274230957,-0.9696913957595825
1789322968441646300,4.986646240234375,5.879763603210449,-10.359127044677734,-0.40229329466819763
1789322968460498700,5.005498779296875,6.162415504455566,-11.015358924865723,-1.709372639656067
1789322968479351000,5.02435107421875,5.937490463256836,-10.93131160736084,-1.8146568536758423
1789322968498203400,5.043203369140625,5.906383514404297,-9.734301567077637,-2.2241287231445312
1789322968526482000,5.07148193359375,4.994120121002197,-8.772088050842285,-2.3030917644500732
1789322968545334300,5.090334228515625,4.905585289001465,-8.671290397644043,-1.7979071140289307
1789322968564186600,5.1091865234375,5.370092391967773,-8.616254806518555,-1.1180464029312134
1789322968583039000,5.1280390625,5.796014785766602,-8.673683166503906,-0.9505487680435181
1789322968601891300,5.146891357421875,6.1695942878723145,-8.918049812316895,-1.6710875034332275
1789322968620743700,5.16574365234375,6.708278179168701,-9.719944953918457,-2.504088878631592
1789322968639596000,5.184595947265625,7.380960464477539,-10.100702285766602,-2.865704298019409
1789322968658448400,5.203448486328125,7.440781116485596,-10.088738441467285,-3.0786654949188232
1789322968677300700,5.22230078125,7.531708240509033,-9.691230773925781,-3.0020952224731445
1789322968696153000,5.241153076171875,7.416852951049805,-8.455936431884766,-3.2105698585510254
1789322968715005400,5.26000537109375,7.526922702789307,-7.270890712738037,-3.5359935760498047
1789322968733857800,5.27885791015625,7.613363265991211,-6.555137634277344,-3.2129626274108887
1789322968752710400,5.29771044921875,7.917252063751221,-6.181558132171631,-2.262413740158081
1789322968771562800,5.316562744140625,7.658827304840088,-6.349055767059326,-1.2687941789627075
1789322968790415000,5.3354150390625,6.425626277923584,-5.731408596038818,-0.6990033388137817
1789322968809267500,5.354267333984375,6.097809314727783,-5.022833824157715,-1.2185449600219727
1789322968828119800,5.373119873046875,6.564708709716797,-4.2831525802612305,-1.3022937774658203
1789322968846972200,5.39197216796875,6.868597507476807,-3.318246841430664,-0.8763712644577026
1789322968865824500,5.410824462890625,7.06271505355835,-2.8920252323150635,-0.5362913608551025
1789322968884676900,5.4296767578125,6.803991317749023,-3.2895328998565674,-0.4860421121120453
1789322968903529200,5.448529296875,5.9662041664123535,-2.8824539184570312,-0.24885354936122894
1789322968922381600,5.467381591796875,5.5830535888671875,-2.262413740158081,0.05503492057323456
1789322968941234000,5.48623388671875,5.571089267730713,-1.812264084815979,-0.038285162299871445
1789322968960086300,5.505086181640625,6.037988662719727,-1.8266209363937378,0.2392822653055191
1789322968978938600,5.523938720703125,6.751348972320557,-1.7548363208770752,-0.1866401731967926
1789322968997791000,5.542791015625,6.6245293617248535,-1.8337994813919067,-0.39990049600601196
1789322969016643300,5.561643310546875,6.315556049346924,-1.695015788078308,-0.5051847100257874
1789322969035495700,5.58049560546875,5.8582282066345215,-1.7524434328079224,-0.5697908997535706
1789322969054348000,5.59934814453125,6.15045166015625,-2.17627215385437,-0.3209373354911804
1789322969073200400,5.618200439453125,6.2653069496154785,-2.6479573249816895,-0.6966105103492737
1789322969092052700,5.637052734375,6.341877460479736,-2.7484560012817383,-1.098903775215149
1789322969110905000,5.655905029296875,6.6006011962890625,-3.090928554534912,-1.350150227546692
1789322969129757400,5.67475732421875,6.353841304779053,-4.225724697113037,-1.86729896068573
1789322969148609800,5.69360986328125,6.890132904052734,-5.539982795715332,-2.1379871368408203
1789322969167462100,5.712462158203125,7.213462829589844,-7.172784805297852,-2.427518606185913
1789322969186314500,5.731314453125,7.156035423278809,-8.884550094604492,-2.410768747329712
1789322969205166800,5.750166748046875,6.500102519989014,-9.870991706848145,-3.004487991333008
1789322969224019200,5.769019287109375,6.488138675689697,-10.708778381347656,-3.2368907928466797
1789322969242871600,5.78787158203125,6.68435001373291,-11.13021469116211,-3.246462106704712
1789322969261724000,5.806723876953125,7.294818878173828,-10.553245544433594,-3.122035264968872
1789322969280576300,5.825576171875,7.773682594299316,-10.033703804016113,-3.02123761177063
1789322969299428400,5.844428466796875,8.15683364868164,-10.268199920654297,-2.9398818016052246
1789322969318280700,5.86328076171875,7.237390995025635,-10.629815101623535,-1.683051586151123
1789322969337133000,5.882133056640625,6.3753767013549805,-10.826026916503906,-1.8218353986740112
1789322969355985400,5.9009853515625,6.203093528747559,-11.08475112915039,-0.9696913957595825
1789322969374837800,5.919837646484375,5.930311679840088,-10.105487823486328,-0.6080760359764099
1789322969393690000,5.938690185546875,5.690730571746826,-9.332307815551758,-1.3860424757003784
1789322969412542500,5.95754248046875,5.800800323486328,-9.104690551757812,-1.86729896068573
1789322969431394800,5.976394775390625,5.961418628692627,-8.664112091064453,-1.9103697538375854
1789322969450247200,5.9952470703125,5.769693374633789,-8.106285095214844,-2.200200319290161
1789322969469099500,6.014099609375,5.283651351928711,-7.63729190826416,-2.542673110961914
1789322969487952000,6.032951904296875,4.366901397705078,-7.800003528594971,-2.3150558471679688
1789322969506804200,6.05180419921875,4.163212299346924,-8.410472869873047,-1.8481563329696655
1789322969525656600,6.070656494140625,4.982155799865723,-9.645767211914062,-1.55623197555542
1789322969544509000,6.089509033203125,6.476174354553223,-9.835099220275879,-1.745265007019043
1789322969563361300,6.108361328125,8.130212783813477,-10.098309516906738,-2.7963123321533203
1789322969582213600,6.127213623046875,9.052047729492188,-10.684850692749023,-4.151247978210449
1789322969601066000,6.14606591796875,8.271688461303711,-10.100702285766602,-5.401198863983154
1789322969619918300,6.16491845703125,7.337889671325684,-8.951549530029297,-5.463412284851074
1789322969638770700,6.183770751953125,7.254140853881836,-7.373782157897949,-3.0499515533447266
1789322969657622800,6.202622802734375,6.949953556060791,-6.112166404724121,-1.3668999671936035
1789322969676475100,6.22147509765625,7.096214771270752,-6.595815658569336,-1.4796617031097412
1789322969695327500,6.240327392578125,7.697112083435059,-7.709076404571533,-2.080559253692627
1789322969714179800,6.259179931640625,8.144868850708008,-7.790432453155518,-2.6862425804138184
1789322969733032200,6.2780322265625,8.01775074005127,-7.139285564422607,-2.9255247116088867
1789322969751884500,6.296884521484375,7.426424026489258,-5.843871116638184,-2.221735715866089
1789322969770737000,6.31573681640625,6.322734832763672,-3.9933218955993652,-1.1850453615188599
1789322969789589200,6.33458935546875,5.494519233703613,-2.310270309448242,-1.1635099649429321
1789322969808441600,6.353441650390625,5.6309099197387695,-2.0829520225524902,-2.0398812294006348
1789322969827294000,6.3722939453125,6.451947212219238,-2.705385208129883,-2.3437697887420654
1789322969846146300,6.391146240234375,7.0531439781188965,-3.4857444763183594,-1.1994023323059082
1789322969864998400,6.409998291015625,6.504888534545898,-3.059522867202759,-0.19381862878799438
1789322969883850800,6.428850830078125,6.143272876739502,-2.441875457763672,-0.38315072655677795
1789322969902703000,6.447703125,5.90159797668457,-2.1068804264068604,-0.7779664397239685
1789322969930981600,6.475981689453125,6.066702842712402,-1.5227324962615967,-0.08614161610603333
1789322969949834000,6.494833984375,5.324329376220703,-1.5131611824035645,0.09092725813388824
1789322969968686300,6.513686279296875,5.523232936859131,-1.3022937774658203,0.2679961323738098
1789322969987538700,6.53253857421875,6.277271270751953,-1.323829174041748,-0.15314064919948578
1789322970006391000,6.55139111328125,6.763313293457031,-1.9968105554580688,-0.6032904386520386
1789322970025243400,6.570243408203125,6.327520370483398,-2.8274190425872803,-0.9457631707191467
1789322970044095500,6.589095458984375,5.769693374633789,-2.6862425804138184,-1.4533406496047974
1789322970062947800,6.60794775390625,6.250949859619141,-2.7125635147094727,-1.4246268272399902
1789322970081800200,6.62680029296875,6.7345991134643555,-4.59421968460083,-2.0063817501068115
1789322970100652500,6.645652587890625,7.160820960998535,-6.930810928344727,-2.580958366394043
1789322970119505000,6.6645048828125,7.476673603057861,-8.460721969604492,-2.6264219284057617
1789322970138357200,6.683357177734375,6.650850772857666,-8.671290397644043,-3.054737091064453
1789322970157209300,6.702209228515625,6.4304118156433105,-8.831908226013184,-3.342175006866455
1789322970176061700,6.721061767578125,6.370591163635254,-9.39452075958252,-3.459423303604126
1789322970194914000,6.7399140625,6.732206344604492,-10.019346237182617,-3.3780672550201416
1789322970213766400,6.758766357421875,6.756134510040283,-9.882955551147461,-2.99013090133667
1789322970232618800,6.77761865234375,6.914061069488525,-10.27777099609375,-2.966202735900879
1789322970251471000,6.79647119140625,7.191927433013916,-11.10628604888916,-2.865704298019409
1789322970270323200,6.8153232421875,7.402495861053467,-11.544471740722656,-2.214557409286499
1789322970289175600,6.834175537109375,6.794419765472412,-11.082358360290527,-2.0614166259765625
1789322970308028000,6.85302783203125,5.616552829742432,-10.304092407226562,-1.7883358001708984
1789322970326880300,6.87188037109375,5.439484119415283,-9.782157897949219,-1.103689432144165
1789322970345732600,6.890732666015625,5.7720866203308105,-9.617053031921387,-0.8620143532752991
1789322970364584700,6.909584716796875,6.090631008148193,-9.698409080505371,-1.3357932567596436
1789322970383437000,6.92843701171875,6.064310073852539,-9.839884757995605,-1.6998014450073242
1789322970402289400,6.947289306640625,5.906383514404297,-9.432806015014648,-2.035095691680908
1789322970421141800,6.966141845703125,5.5591254234313965,-9.042476654052734,-2.513660192489624
1789322970439994000,6.984994140625,5.046761989593506,-8.870193481445312,-2.4323041439056396
1789322970458846500,7.003846435546875,5.235795021057129,-8.570791244506836,-1.958226203918457
1789322970477698600,7.022698486328125,5.7649078369140625,-8.506185531616211,-1.5514464378356934
1789322970496551000,7.041551025390625,6.260521411895752,-8.874979019165039,-1.776371717453003
1789322970515403300,7.0604033203125,6.7657060623168945,-9.698409080505371,-2.643171787261963
1789322970534255600,7.079255615234375,7.194320201873779,-10.363913536071777,-3.2584261894226074
1789322970553108000,7.09810791015625,7.603792190551758,-10.428818702697754,-3.4737801551818848
1789322970571960000,7.1169599609375,7.795217990875244,-10.14616584777832,-3.7851462364196777
1789322970590812400,7.1358125,7.627720355987549,-9.327521324157715,-3.576671600341797
1789322970609664800,7.154664794921875,7.649255752563477,-7.974679470062256,-3.2273194789886475
1789322970628517000,7.17351708984375,7.1488566398620605,-6.428019046783447,-2.7915267944335938
1789322970647369500,7.192369384765625,7.263712406158447,-5.422734260559082,-2.181057929992676
1789322970666221600,7.2112216796875,7.656434059143066,-5.62373161315918,-1.7668004035949707
1789322970685074000,7.230073974609375,7.7114691734313965,-5.872584819793701,-1.4126626253128052
1789322970703926300,7.24892626953125,6.655636310577393,-4.8553361892700195,-0.9337990283966064
1789322970722778600,7.267778564453125,6.136094570159912,-3.562314748764038,-1.9630118608474731
1789322970741630700,7.286630615234375,6.849454879760742,-2.5522444248199463,-2.2097716331481934
1789322970760483000,7.305483154296875,6.6006011962890625,-3.0957143306732178,-1.4820544719696045
1789322970779335400,7.32433544921875,6.476174354553223,-3.4618160724639893,-0.8186444640159607
1789322970798187800,7.343187744140625,6.784848690032959,-2.841775894165039,-0.11246266216039658
1789322970817040000,7.362039794921875,6.428019046783447,-2.887239694595337,0.20338992774486542
1789322970835892200,7.380892333984375,5.810371398925781,-2.683849811553955,-0.3209373354911804
1789322970854744600,7.39974462890625,5.954239845275879,-1.9848463535308838,-0.6343970894813538
1789322970873597000,7.418596923828125,5.7792649269104,-1.5945172309875488,-0.1746760457754135
1789322970892449300,7.43744921875,5.755336761474609,-1.1419745683670044,0.4692923426628113
1789322970911301400,7.45630126953125,5.590231895446777,-1.098903775215149,0.2874378263950348
1789322970930153700,7.47515380859375,5.762515068054199,-1.3573286533355713,0.02632104977965355
1789322970949006000,7.494006103515625,6.262914180755615,-1.6064813137054443,-0.4142574071884155
1789322970967858400,7.5128583984375,6.011667728424072,-2.30069899559021,-0.768395185470581
1789322970986710500,7.53171044921875,5.892026424407959,-2.659921407699585,-1.1395817995071411
1789322971005563000,7.55056298828125,6.524031162261963,-2.927917718887329,-1.3884353637695312
1789322971024415200,7.569415283203125,6.990631580352783,-4.240081787109375,-1.9462621212005615
1789322971043267300,7.588267333984375,7.1799635887146,-6.028417587280273,-2.683849811553955
1789322971062119700,7.60711962890625,7.132106781005859,-8.776873588562012,-2.95184588432312
1789322971080972000,7.625971923828125,6.990631580352783,-10.304092407226562,-3.3373894691467285
1789322971099824400,7.644824462890625,6.662814617156982,-10.916954040527344,-3.4881372451782227
1789322971118676500,7.663676513671875,5.903990745544434,-10.996216773986816,-3.538386583328247
1789322971137528800,7.68252880859375,6.047560214996338,-10.110274314880371,-2.9805595874786377
1789322971156381200,7.701381103515625,6.830312252044678,-8.70508861541748,-2.420340061187744
1789322971175233500,7.720233642578125,7.77607536315918,-8.623434066772461,-2.4299113750457764
1789322971194085600,7.739085693359375,7.969893932342529,-9.870991706848145,-2.9015965461730957
1789322971212938000,7.75793798828125,7.313961505889893,-11.015358924865723,-2.997309446334839
1789322971231790300,7.776790283203125,6.246164321899414,-11.02014446258545,-2.848954439163208
1789322971250642400,7.795642333984375,5.896812438964844,-10.507781982421875,-2.0542383193969727
1789322971269494800,7.814494873046875,5.805585861206055,-10.095916748046875,-1.6064813137054443
1789322971288347100,7.83334716796875,5.889334678649902,-10.088738441467285,-1.5658032894134521
1789322971307199200,7.85219921875,6.322734832763672,-10.476675033569336,-2.410768747329712
1789322971326051600,7.871051513671875,6.315556049346924,-10.12463092803955,-2.458625316619873
1789322971344904000,7.889904052734375,5.78644323348999,-9.186046600341797,-2.2743778228759766
1789322971363756000,7.908756103515625,5.089832782745361,-8.611469268798828,-2.396411895751953
1789322971382608400,7.9276083984375,4.54636287689209,-8.360222816467285,-2.365305185317993
1789322971401460700,7.946460693359375,4.867300510406494,-8.367402076721191,-1.9680966138839722
1789322971420312800,7.965312744140625,5.504090309143066,-8.865407943725586,-1.7189439535140991
1789322971439165200,7.984165283203125,5.937490463256836,-9.135796546936035,-1.6734803915023804
1789322971458017500,8.003017578125,6.514459609985352,-9.308379173278809,-1.812264084815979
1789322971476869600,8.02186962890625,7.299604415893555,-9.703194618225098,-2.3222343921661377
1789322971495722000,8.040721923828125,7.8526458740234375,-9.770194053649902,-2.7819554805755615
1789322971514574300,8.05957421875,7.620542049407959,-9.516554832458496,-3.3373894691467285
1789322971533426400,8.078426513671875,7.2110700607299805,-8.764909744262695,-3.6460635662078857
1789322971552278800,8.09727880859375,7.476673603057861,-7.943572998046875,-3.983750581741333
1789322971571131100,8.116131103515626,7.620542049407959,-6.928418159484863,-3.6053855419158936
1789322971589983200,8.134983154296876,7.984251022338867,-6.28205680847168,-2.5546371936798096
1789322971608835600,8.153835693359374,8.666504859924316,-6.420840263366699,-1.8840487003326416
1789322971627687700,8.172687744140624,7.606184959411621,-6.305984973907471,-1.6663018465042114
1789322971646540000,8.1915400390625,5.939883232116699,-5.266901969909668,-2.0829520225524902
1789322971665392400,8.210392333984375,5.985346794128418,-4.115355968475342,-2.307877540588379
1789322971684244700,8.22924462890625,6.772884368896484,-2.39401912689209,-1.9079769849777222
1789322971703096800,8.248096923828125,6.246164321899414,-2.0207388401031494,-0.8763712644577026
1789322971721949200,8.26694921875,5.609374523162842,-2.4610180854797363,-0.13639089465141296
1789322971740801300,8.28580126953125,6.310770511627197,-2.506481647491455,0.36640095710754395
1789322971759653600,8.304653564453124,6.583851337432861,-2.3270199298858643,0.6224330067634583
1789322971778506000,8.323506103515625,6.3514485359191895,-2.9303104877471924,-0.064606212079525
1789322971797358000,8.342358154296875,6.08823823928833,-2.6001009941101074,-0.5051847100257874
1789322971816210400,8.36121044921875,5.791228771209717,-1.8146568536758423,-0.39990049600601196
1789322971835062500,8.3800625,5.815157413482666,-1.3980066776275635,-0.19142581522464752
1789322971853915000,8.398914794921875,6.253343105316162,-1.2975081205368042,-0.1052841991186142
1789322971872767200,8.417767333984376,6.009274959564209,-1.350150227546692,-0.5673980712890625
1789322971891619300,8.436619384765624,6.279664039611816,-1.9752750396728516,-0.9553344249725342
1789322971910471700,8.4554716796875,6.023632049560547,-2.451446771621704,-1.1563315391540527
1789322971929323800,8.47432373046875,5.776872158050537,-2.683849811553955,-1.1850453615188599
1789322971948176100,8.493176025390625,5.616552829742432,-3.088535785675049,-1.446162223815918
1789322971967028500,8.512028564453125,5.855835437774658,-4.78594446182251,-1.9630118608474731
1789322971985880600,8.530880615234375,6.473781585693359,-6.085845470428467,-2.482553482055664
1789322972004733000,8.54973291015625,6.945167541503906,-7.507780075073242,-2.714956283569336
1789322972023585000,8.5685849609375,6.641279220581055,-9.006584167480469,-2.9542386531829834
1789322972042437400,8.587437255859374,5.791228771209717,-10.589137077331543,-3.2201411724090576
1789322972061289500,8.60628955078125,5.994917869567871,-11.443674087524414,-3.387638568878174
1789322972080141800,8.625141845703125,6.964310169219971,-11.405388832092285,-2.880061149597168
1789322972098994200,8.643994140625,7.46710205078125,-11.041680335998535,-2.9566314220428467
1789322972117846300,8.66284619140625,7.627720355987549,-10.895419120788574,-3.0643084049224854
1789322972136698600,8.68169873046875,7.7593255043029785,-10.904990196228027,-2.674278497695923
1789322972155550700,8.70055078125,7.4479594230651855,-10.306485176086426,-1.592124342918396
1789322972174403000,8.719403076171876,6.521637916564941,-9.51176929473877,-2.0925233364105225
1789322972193255200,8.738255126953124,5.518447399139404,-9.313164710998535,-1.970489501953125
1789322972212107500,8.757107421875,5.094618320465088,-9.38016414642334,-2.2719850540161133
1789322972230959600,8.775959716796875,5.681159019470215,-9.679266929626465,-1.9486548900604248
1789322972249812000,8.79481201171875,6.320342063903809,-10.198808670043945,-2.1714866161346436
1789322972268664000,8.8136640625,6.401698112487793,-10.318449020385742,-2.181057929992676
1789322972287516400,8.832516357421875,5.815157413482666,-9.930811882019043,-2.410768747329712
1789322972306368500,8.851368408203125,5.5136613845825195,-9.516554832458496,-2.841775894165039
1789322972325220900,8.870220947265626,5.228616714477539,-9.282057762145996,-2.9015965461730957
1789322972344073200,8.8890732421875,5.602196216583252,-8.894122123718262,-2.7436702251434326
1789322972362925300,8.90792529296875,6.1002020835876465,-8.760123252868652,-2.372483730316162
1789322972381777700,8.926777587890625,6.567101955413818,-9.19561767578125,-2.17627215385437
1789322972400629800,8.945629638671875,6.854240417480469,-9.303593635559082,-2.3461625576019287
1789322972419482000,8.964482177734375,7.093822002410889,-9.428020477294922,-2.825026273727417
1789322972438334200,8.983334228515625,7.0770721435546875,-9.296415328979492,-3.1794631481170654
1789322972457186600,9.0021865234375,6.535995006561279,-8.71226692199707,-3.3852458000183105
1789322972476038700,9.02103857421875,6.526423931121826,-8.036892890930176,-3.05234432220459
1789322972494891000,9.03989111328125,7.203891754150391,-7.737790107727051,-2.6503500938415527
1789322972513743000,9.0587431640625,7.493422985076904,-7.278069019317627,-2.724527597427368
1789322972532595500,9.077595458984375,8.120641708374023,-6.533602237701416,-2.39401912689209
1789322972551447600,9.096447509765625,8.384151458740234,-6.569494724273682,-2.2480568885803223
1789322972570300000,9.1152998046875,8.262117385864258,-6.384948253631592,-1.776371717453003
1789322972589152000,9.134152099609375,6.902096748352051,-5.288437366485596,-1.3645070791244507
1789322972608004400,9.15300439453125,6.75374174118042,-3.2344980239868164,-2.0231316089630127
1789322972626856400,9.1718564453125,6.959524631500244,-2.7795627117156982,-1.9752750396728516
1789322972645708800,9.190708740234374,5.8749775886535645,-2.700599431991577,-1.6399807929992676
1789322972664561000,9.209560791015624,4.718646049499512,-2.286342144012451,-0.7899305820465088
1789322972683413000,9.2284130859375,4.900799751281738,-1.2137593030929565,-0.15314064919948578
1789322972702265300,9.247265380859375,5.7792649269104,-1.1371889114379883,0.6655037999153137
1789322972721117400,9.266117431640625,5.889334678649902,-1.6567305326461792,0.3568296730518341
1789322972739969800,9.2849697265625,5.688337802886963,-1.8290138244628906,-0.521934449672699
1789322972758822000,9.30382177734375,5.84865665435791,-1.6567305326461792,-0.39511483907699585
1789322972777674200,9.32267431640625,6.1935224533081055,-1.9007984399795532,0.10289137065410614
1789322972796526300,9.3415263671875,6.672386169433594,-2.035095691680908,-0.2584248483181
1789322972815378700,9.360378662109374,6.813562393188477,-2.3294129371643066,-0.7396813035011292
1789322972834230800,9.379230712890624,6.949953556060791,-2.6886353492736816,-1.4198411703109741
1789322972853083100,9.398083251953125,6.9930243492126465,-3.129213809967041,-1.9151554107666016
1789322972871935200,9.416935302734375,6.820741176605225,-3.366103172302246,-2.111665964126587
1789322972890787300,9.435787353515625,6.473781585693359,-3.78753924369812,-2.2600209712982178
1789322972909639700,9.4546396484375,6.476174354553223,-4.896014213562012,-2.231307029724121
1789322972937918000,9.48291796875,6.813562393188477,-6.803991317749023,-2.9231319427490234
1789322972956770000,9.50177001953125,6.2892351150512695,-8.11824893951416,-2.540280342102051
1789322972975622400,9.520622314453124,6.035595893859863,-9.131011009216309,-2.7197420597076416
1789322972994474500,9.539474609375,5.4179487228393555,-10.048060417175293,-3.64127779006958
1789322973013326800,9.558326904296875,5.752943992614746,-10.167701721191406,-3.833002805709839
1789322973032179000,9.577178955078125,6.353841304779053,-9.468698501586914,-3.256033420562744
1789322973051031300,9.59603125,6.909275531768799,-9.837491989135742,-3.311068296432495
1789322973069883400,9.61488330078125,7.017251491546631,-11.154142379760742,-2.7197420597076416
1789322973088735500,9.633735595703126,6.945167541503906,-11.917752265930176,-2.1547367572784424
1789322973107587800,9.652587890625,6.277271270751953,-11.496315956115723,-1.9800606966018677
1789322973126440000,9.67143994140625,6.15045166015625,-10.989038467407227,-2.042274236679077
1789322973145292000,9.6902919921875,5.896812438964844,-10.969895362854004,-2.0518453121185303
1789322973164144400,9.709144287109375,5.954239845275879,-10.361519813537598,-2.358126640319824
1789322973182996500,9.72799658203125,6.401698112487793,-9.40169906616211,-2.2576282024383545
1789322973201848600,9.7468486328125,6.696314334869385,-8.987442016601562,-2.839383125305176
1789322973220701000,9.765700927734375,6.401698112487793,-9.116654396057129,-3.4235310554504395
1789322973239553000,9.784552978515626,5.101797103881836,-8.752944946289062,-2.5785655975341797
1789322973258405000,9.803405029296876,4.342973232269287,-7.603792190551758,-1.80508553981781
1789322973277257500,9.822257568359374,4.627718925476074,-7.019644260406494,-1.3932210206985474
1789322973296109600,9.841109619140624,5.511268615722656,-7.989036560058594,-1.5538392066955566
1789322973314962000,9.8599619140625,6.286842346191406,-9.90688419342041,-1.9968105554580688
1789322973333814000,9.87881396484375,7.33549690246582,-10.97468090057373,-3.1651060581207275
1789322973352666000,9.897666015625,8.254939079284668,-11.022537231445312,-3.545564889907837
1789322973371518200,9.916518310546875,8.542078018188477,-10.495817184448242,-3.5407793521881104
1789322973390370600,9.93537060546875,8.542078018188477,-9.873384475708008,-3.5718860626220703
1789322973409222700,9.95422265625,7.7353973388671875,-9.1716890335083,-3.6197423934936523
1789322973428075000,9.973074951171874,6.617351055145264,-8.099106788635254,-4.165605068206787
1789322973446927000,9.991927001953124,5.602196216583252,-6.610172748565674,-4.098606109619141
1789322973465779200,10.010779296875,5.305186748504639,-5.336592674255371,-2.7029922008514404
1789322973484631300,10.02963134765625,6.097809314727783,-4.73300313949585,-1.134796142578125
1789322973503483600,10.048483642578125,7.079464912414551,-4.429114818572998,-0.08614161610603333
1789322973522335700,10.067335693359375,7.2661051750183105,-4.069892406463623,-0.6822535395622253
1789322973541187800,10.086187744140625,7.237390995025635,-4.675575256347656,-2.1379871368408203
1789322973560040200,10.105040283203126,6.9068827629089355,-4.390829563140869,-1.9127626419067383
1789322973578892300,10.123892333984376,6.547959327697754,-3.5431721210479736,-0.9888339638710022
1789322973597744400,10.142744384765624,6.7896342277526855,-3.3541390895843506,-0.34247273206710815
1789322973616596500,10.161596435546874,7.004988193511963,-2.9159533977508545,0.23449662327766418
1789322973635448800,10.18044873046875,6.626922130584717,-2.863311290740967,-0.0933200865983963
1789322973654301000,10.199301025390625,6.387341022491455,-2.808276414871216,-0.643968403339386
1789322973673153000,10.218153076171875,6.322734832763672,-1.896012783050537,-0.5506483316421509
1789322973692005000,10.237005126953125,6.002096652984619,-1.2233306169509888,-0.4980062246322632
1789322973710857500,10.255857421875,5.4418768882751465,-1.158724308013916,-0.8476574420928955
1789322973729709600,10.27470947265625,5.286044120788574,-1.2424731254577637,-0.6320042610168457
1789322973748561700,10.293561767578124,5.36769962310791,-1.5586248636245728,-0.5075774788856506
1789322973767414000,10.3124140625,5.690730571746826,-1.8242281675338745,-0.44775694608688354
1789322973786266000,10.33126611328125,6.09541654586792,-2.3294129371643066,-0.9936196208000183
1789322973805118200,10.3501181640625,5.504090309143066,-2.841775894165039,-1.292722463607788
1789322973823970300,10.36897021484375,6.7417778968811035,-3.76361083984375,-1.7883358001708984
1789322973842822400,10.387822509765625,7.0292158126831055,-5.152046203613281,-2.506481647491455
1789322973861674800,10.4066748046875,7.050751209259033,-6.722635269165039,-2.999702215194702
1789322973880526800,10.42552685546875,7.017251491546631,-8.673683166503906,-3.3541390895843506
1789322973899379000,10.44437890625,6.7657060623168945,-9.918848037719727,-3.4618160724639893
1789322973918231000,10.46323095703125,6.246164321899414,-10.99860954284668,-3.349353551864624
1789322973937083400,10.48208349609375,5.867799282073975,-11.206785202026367,-3.2991042137145996
1789322973955935500,10.500935546875,6.126523494720459,-10.445568084716797,-2.6479573249816895
1789322973974787600,10.51978759765625,6.945167541503906,-9.499805450439453,-2.4610180854797363
1789322973993639700,10.5386396484375,7.689933776855469,-9.712766647338867,-2.4562325477600098
1789322974012491800,10.55749169921875,7.227819919586182,-10.591530799865723,-2.6647071838378906
1789322974031343900,10.57634375,6.401698112487793,-10.876276016235352,-2.8441689014434814
1789322974050196200,10.5951962890625,6.10259485244751,-10.28016471862793,-2.4131617546081543
1789322974069048300,10.61404833984375,5.683551788330078,-9.51176929473877,-2.0303099155426025
1789322974087900400,10.632900390625,5.372485160827637,-9.652945518493652,-2.221735715866089
1789322974106752500,10.65175244140625,5.9566330909729,-9.993025779724121,-2.784348249435425
1789322974125604600,10.6706044921875,6.305984973907471,-9.8207426071167,-2.856132984161377
1789322974144456700,10.689456787109375,6.543173313140869,-9.27727222442627,-3.0236306190490723
1789322974163309000,10.70830908203125,5.961418628692627,-9.219545364379883,-2.9949166774749756
1789322974182161200,10.7271611328125,5.228616714477539,-9.334700584411621,-3.2416765689849854
1789322974201013200,10.74601318359375,4.817050933837891,-9.190832138061523,-2.7891337871551514
1789322974219865300,10.764865234375,5.391627788543701,-9.001798629760742,-2.1236300468444824
1789322974238717400,10.783717529296876,5.997310638427734,-8.784051895141602,-2.1068804264068604
1789322974257569500,10.802569580078124,6.291627883911133,-8.889336585998535,-2.2241287231445312
1789322974276421600,10.821421630859374,6.722635269165039,-9.317950248718262,-2.614457845687866
1789322974295273700,10.840273681640625,7.191927433013916,-9.459127426147461,-2.817847728729248
1789322974314126000,10.8591259765625,7.330711364746094,-9.305986404418945,-2.7484560012817383
1789322974332978200,10.877978271484375,7.0770721435546875,-8.774480819702148,-2.784348249435425
1789322974351830300,10.896830322265625,7.313961505889893,-8.415258407592773,-2.645564556121826
1789322974370682400,10.915682373046875,7.902894973754883,-8.329116821289062,-2.777169704437256
1789322974389534500,10.934534423828126,8.022536277770996,-7.960322856903076,-3.3948171138763428
1789322974408386600,10.953386474609376,7.800003528594971,-7.000202655792236,-3.5503506660461426
1789322974427238700,10.97223876953125,7.622934818267822,-6.042774677276611,-3.311068296432495
1789322974446090800,10.9910908203125,7.440781116485596,-5.542375564575195,-2.676671266555786
1789322974464942800,11.00994287109375,6.423233509063721,-4.8314080238342285,-1.6974085569381714
1789322974483795000,11.028794921875,5.738586902618408,-3.4474592208862305,-1.7691932916641235
1789322974502647300,11.047647216796875,6.631708145141602,-2.7987051010131836,-1.8601205348968506
1789322974530925300,11.07592529296875,5.453841209411621,-2.080559253692627,-0.16510476171970367
1789322974549777400,11.09477734375,5.238187789916992,-1.9896320104599,0.734895646572113
1789322974568629500,11.11362939453125,5.288437366485596,-1.3932210206985474,1.036690354347229
1789322974587481600,11.132481689453124,5.305186748504639,-1.4557334184646606,0.9625129103660583
1789322974606333700,11.151333740234374,5.911169052124023,-1.7596219778060913,-0.23688943684101105
1789322974625185800,11.170185791015625,5.90877628326416,-1.8649061918258667,-0.6080760359764099
1789322974644038000,11.189037841796875,5.915955066680908,-1.9007984399795532,-0.7420741319656372
1789322974662890000,11.207889892578125,6.27487850189209,-2.417947292327881,-0.8548358678817749
1789322974681742300,11.226742431640625,6.686742782592773,-2.755634307861328,-0.8210372924804688
1789322974700594400,11.245594482421875,6.6245293617248535,-3.0714869499206543,-0.9481559991836548
1789322974719446300,11.2644462890625,6.531209468841553,-3.1483564376831055,-1.0773683786392212
1789322974738298600,11.283298583984376,6.660421848297119,-2.9087750911712646,-1.572981834411621
1789322974757150700,11.302150634765624,6.176772594451904,-3.256033420562744,-2.252842426300049
1789322974776002800,11.3210029296875,6.672386169433594,-4.47697114944458,-2.3509483337402344
1789322974794855000,11.33985498046875,6.708278179168701,-5.504090309143066,-2.3533411026000977
1789322974813707000,11.35870703125,6.303592205047607,-7.378567695617676,-2.348555326461792
1789322974832559000,11.37755908203125,6.200700759887695,-9.09990406036377,-2.4921247959136963
1789322974851411200,11.3964111328125,6.097809314727783,-10.936097145080566,-2.7915267944335938
1789322974870263000,11.415262939453125,6.317949295043945,-12.140583992004395,-3.342175006866455
1789322974889115100,11.434115234375,6.775277137756348,-12.142976760864258,-3.6125640869140625
1789322974907967500,11.452967529296876,7.357032299041748,-11.314461708068848,-3.5359935760498047
1789322974926819600,11.471819580078124,7.922037601470947,-10.325628280639648,-3.445066452026367
1789322974945671400,11.49067138671875,7.488637447357178,-9.435198783874512,-3.090928554534912
1789322974964523500,11.5095234375,6.449554443359375,-8.501399993896484,-2.489732027053833
1789322974983375600,11.528375732421875,5.803193092346191,-8.611469268798828,-2.39401912689209
1789322975002227700,11.547227783203125,5.405984401702881,-8.994620323181152,-2.533101797103882
1789322975021079800,11.566079833984375,5.2477593421936035,-9.854242324829102,-2.4059832096099854
1789322975039932000,11.584931884765625,5.626124382019043,-10.217950820922852,-2.0709879398345947
1789322975058784000,11.603783935546875,5.8821563720703125,-10.179665565490723,-2.149951219558716
1789322975077636000,11.622635986328126,5.997310638427734,-9.684052467346191,-2.33180570602417
1789322975096488200,11.64148828125,5.886941909790039,-9.245866775512695,-2.643171787261963
1789322975115340300,11.66034033203125,5.396413326263428,-9.133403778076172,-2.590529680252075
1789322975134192400,11.6791923828125,5.44426965713501,-9.080761909484863,-2.7029922008514404
1789322975153044500,11.69804443359375,5.8944196701049805,-9.286844253540039,-2.3700907230377197
1789322975171896600,11.716896484375,6.270092487335205,-9.416056632995605,-2.513660192489624
1789322975190748700,11.735748779296875,6.02602481842041,-9.183652877807617,-2.887239694595337
1789322975209600800,11.754600830078125,5.8944196701049805,-9.030512809753418,-3.006880760192871
1789322975228452900,11.773452880859375,6.413661956787109,-9.19561767578125,-3.1722846031188965
1789322975247304700,11.7923046875,6.985845565795898,-9.365806579589844,-2.949453115463257
1789322975266156800,11.81115673828125,7.323532581329346,-9.39452075958252,-3.0403802394866943
1789322975285009000,11.8300087890625,7.290033340454102,-9.164510726928711,-3.2608189582824707
1789322975303861000,11.848861083984374,7.294818878173828,-8.748159408569336,-3.4546377658843994
1789322975322713000,11.867713134765625,7.172784805297852,-7.809575080871582,-3.332603693008423
1789322975341565200,11.886565185546875,7.730611801147461,-6.571887493133545,-3.129213809967041
1789322975360417300,11.905417236328125,7.95553731918335,-6.760920524597168,-2.8226335048675537
1789322975379269400,11.924269287109375,7.519744396209717,-6.533602237701416,-2.4299113750457764
1789322975398121200,11.943121337890625,6.763313293457031,-5.551946640014648,-2.286342144012451
1789322975416973300,11.961973388671876,6.8997039794921875,-4.474578380584717,-2.635993242263794
1789322975435825400,11.980825439453126,7.172784805297852,-3.0188448429107666,-1.9151554107666016
1789322975454677500,11.999677490234374,5.855835437774658,-2.2648067474365234,-0.7396813035011292
1789322975473529600,12.018529541015624,5.456233978271484,-2.0925233364105225,0.22971096634864807
1789322975492381700,12.037381591796875,5.25254487991333,-1.7835501432418823,0.4262215197086334
1789322975511233800,12.05623388671875,5.041976451873779,-2.087737798690796,0.3568296730518341
1789322975530085600,12.075085693359375,5.6069817543029785,-2.535494804382324,0.39032918214797974
1789322975548937700,12.093937744140625,5.978168487548828,-1.2951152324676514,-0.2679961323738098
1789322975567789800,12.112789794921875,5.422734260559082,-1.6615161895751953,-0.6008976101875305
1789322975586642000,12.131641845703125,5.6069817543029785,-1.5801602602005005,-0.6966105103492737
1789322975605494000,12.150493896484376,5.839085578918457,-1.6998014450073242,-0.8066803216934204
1789322975624346000,12.16934619140625,6.258128643035889,-1.8744773864746094,-0.8162516355514526
1789322975643198000,12.188197998046874,6.112166404724121,-2.317448616027832,-1.4653047323226929
1789322975662050000,12.207050048828124,5.911169052124023,-2.3676979541778564,-1.4676976203918457
1789322975680902100,12.225902099609375,6.22702169418335,-2.683849811553955,-1.6471593379974365
1789322975699754200,12.244754150390625,6.547959327697754,-4.4650068283081055,-2.111665964126587
1789322975718606300,12.2636064453125,6.849454879760742,-6.303592205047607,-2.475374937057495
1789322975737458200,12.282458251953125,6.770491600036621,-7.989036560058594,-2.566601276397705
1789322975756310300,12.301310302734375,6.384948253631592,-9.28445053100586,-2.7101707458496094
1789322975775162400,12.320162353515625,5.980561256408691,-10.071989059448242,-3.1866414546966553
1789322975794014500,12.339014404296876,6.236593246459961,-10.38066291809082,-3.6822550296783447
1789322975812866600,12.357866455078126,6.715456962585449,-10.13898754119873,-3.552743434906006
1789322975831718400,12.376718505859374,7.065107822418213,-9.684052467346191,-3.57906436920166
1789322975850570500,12.395570556640624,7.368996620178223,-9.844670295715332,-3.555136203765869
1789322975869422600,12.414422607421875,7.754539966583252,-10.253843307495117,-3.390031576156616
1789322975907126500,12.45212646484375,6.301199436187744,-11.048858642578125,-2.913560628890991
1789322975925978600,12.470978515625,5.317151069641113,-10.818848609924316,-2.9781668186187744
1789322975944830700,12.489830810546875,5.551946640014648,-10.13180923461914,-2.2983062267303467
1789322975963682800,12.508682861328126,5.872584819793701,-9.456734657287598,-1.9800606966018677
1789322975982534700,12.52753466796875,6.061916828155518,-9.233902931213379,-2.2959132194519043
1789322976001386800,12.54638671875,5.978168487548828,-9.186046600341797,-2.5184457302093506
1789322976029664800,12.574664794921874,5.6931233406066895,-8.621041297912598,-2.33180570602417
1789322976048516900,12.593516845703125,5.477769374847412,-8.539685249328613,-2.183450698852539
1789322976067368700,12.61236865234375,5.274080276489258,-8.913264274597168,-2.0685951709747314
1789322976086220800,12.631220703125,5.597410202026367,-9.320343017578125,-1.958226203918457
1789322976105073000,12.650072998046875,6.066702842712402,-9.377771377563477,-2.293520450592041
1789322976123924700,12.6689248046875,6.195915222167969,-9.19561767578125,-2.8609185218811035
1789322976142776800,12.68777685546875,6.480959892272949,-9.399306297302246,-3.3062827587127686
1789322976161629000,12.70662890625,7.074679374694824,-9.456734657287598,-3.5479576587677
1789322976180480800,12.725480712890626,7.419245719909668,-9.547661781311035,-3.722932815551758
1789322976199332900,12.744332763671874,7.045965194702148,-8.975478172302246,-3.9143588542938232
1789322976218185000,12.76318505859375,6.902096748352051,-8.207082748413086,-3.6822550296783447
1789322976237036800,12.782036865234375,7.165606498718262,-8.123034477233887,-3.483351469039917
1789322976255889000,12.800888916015625,7.666005611419678,-8.231010437011719,-3.404388427734375
1789322976274741000,12.819740966796875,7.749754428863525,-7.301997184753418,-3.3828530311584473
1789322976293592800,12.8385927734375,7.658827304840088,-6.198307991027832,-3.524029493331909
1789322976312445000,12.85744482421875,7.558029651641846,-5.477769374847412,-2.762812852859497
1789322976331297000,12.876297119140625,6.847062110900879,-4.967798709869385,-1.3621143102645874
1789322976350148900,12.89514892578125,5.628517150878906,-3.9311084747314453,-1.2640085220336914
1789322976369001000,12.9140009765625,5.7792649269104,-2.903989315032959,-1.5251253843307495
1789322976387853000,12.93285302734375,6.315556049346924,-2.3294129371643066,-1.1611171960830688
1789322976406705000,12.951704833984374,6.983452796936035,-2.504088878631592,-0.45254257321357727
1789322976425557000,12.970556884765625,6.796812534332275,-3.2344980239868164,-0.16271193325519562
1789322976444409000,12.9894091796875,6.207879066467285,-3.1746773719787598,-0.19621145725250244
1789322976463261000,13.008260986328125,6.002096652984619,-2.39401912689209,-0.3927220106124878
1789322976482113000,13.027113037109375,5.5758748054504395,-1.843370795249939,-0.5291129350662231
1789322976500964900,13.04596484375,5.187938690185547,-1.501197099685669,-0.20817556977272034
1789322976529243000,13.074242919921875,4.800301551818848,-1.2855439186096191,0.08374879509210587
1789322976548095000,13.093094970703126,5.78644323348999,-1.1635099649429321,0.41904306411743164
1789322976566947000,13.111947021484376,6.384948253631592,-1.3884353637695312,-0.4501497745513916
1789322976585799000,13.130798828125,6.363412857055664,-2.11405873298645,-1.098903775215149
1789322976604651000,13.149651123046874,6.09541654586792,-2.6264219284057617,-1.4270195960998535
1789322976623502800,13.1685029296875,5.7720866203308105,-2.9542386531829834,-1.654337763786316
1789322976642355000,13.18735498046875,6.404090881347656,-4.584648132324219,-2.2097716331481934
1789322976661206800,13.206206787109375,6.964310169219971,-6.258128643035889,-2.7675983905792236
1789322976680059000,13.225058837890625,7.050751209259033,-7.754539966583252,-3.2679975032806396
1789322976698910700,13.24391064453125,6.672386169433594,-9.447162628173828,-3.545564889907837
1789322976717762800,13.2627626953125,6.286842346191406,-10.368699073791504,-3.7037904262542725
1789322976736614700,13.28161474609375,6.653243541717529,-10.893026351928711,-3.811467409133911
1789322976755466800,13.300466796875,7.321139812469482,-11.249855995178223,-3.3062827587127686
1789322976774318800,13.31931884765625,7.2349982261657715,-10.893026351928711,-3.3517463207244873
1789322976793170700,13.338170654296874,6.957131862640381,-10.213165283203125,-3.593421459197998
1789322976812022800,13.357022705078125,7.089035987854004,-9.7366943359375,-3.3230323791503906
1789322976830874600,13.37587451171875,7.122535705566406,-9.183652877807617,-2.7412774562835693
1789322976849726700,13.394726806640625,6.500102519989014,-9.454340934753418,-2.7652056217193604
1789322976868578600,13.41357861328125,5.446662425994873,-10.048060417175293,-2.887239694595337
1789322976887430700,13.4324306640625,5.3940205574035645,-10.18445110321045,-2.4705893993377686
1789322976906282500,13.451282470703125,6.140880107879639,-10.194023132324219,-1.8170497417449951
1789322976925134600,13.470134521484376,6.457031726837158,-10.969895362854004,-2.379662036895752
1789322976943986400,13.488986328125,6.162415504455566,-10.648958206176758,-2.5618157386779785
1789322976962838500,13.507838623046876,5.673980712890625,-9.38734245300293,-2.588136672973633
1789322976981690400,13.5266904296875,5.370092391967773,-8.53729248046875,-2.7269206047058105
1789322977000542500,13.54554248046875,4.998905658721924,-8.159226417541504,-2.525923490524292
1789322977028820200,13.5738203125,5.173581600189209,-8.3267240524292,-1.8936200141906738
1789322977047672300,13.59267236328125,5.585446357727051,-8.606683731079102,-1.8912272453308105
1789322977066524200,13.611524169921875,6.181558132171631,-9.056833267211914,-2.245664119720459
1789322977085376300,13.630376220703125,6.916453838348389,-9.60508918762207,-3.0116662979125977
1789322977104228000,13.64922802734375,7.7114691734313965,-10.495817184448242,-3.849752426147461
1789322977123080200,13.668080078125,7.833503246307373,-10.632207870483398,-4.079463481903076
1789322977141932000,13.68693212890625,7.606184959411621,-9.796515464782715,-4.254438877105713
1789322977160784000,13.705783935546876,7.316354274749756,-8.518149375915527,-4.098606109619141
1789322977179636000,13.724635986328124,7.206284523010254,-7.728219032287598,-3.7660038471221924
1789322977198487800,13.74348779296875,7.548458099365234,-7.129714012145996,-2.9087750911712646
1789322977217340000,13.76233984375,7.704290866851807,-6.327520370483398,-1.9319051504135132
1789322977236191700,13.781191650390625,6.87099027633667,-5.353342533111572,-1.5418751239776611
1789322977255043800,13.8000439453125,5.666802406311035,-4.759324073791504,-1.3573286533355713
1789322977273895700,13.818895751953125,6.030810356140137,-4.144069671630859,-1.347757339477539
1789322977292747500,13.83774755859375,7.380960464477539,-3.2297122478485107,-1.572981834411621
1789322977311599600,13.856599609375,7.361817836761475,-3.193819999694824,-1.3597214221954346
1789322977330451500,13.875451416015625,5.937490463256836,-2.1858434677124023,-1.1132607460021973
1789322977349303300,13.89430322265625,6.121737480163574,-2.7412774562835693,-0.7803592681884766
1789322977368155400,13.9131552734375,6.435197353363037,-2.612065076828003,-0.5841478109359741
1789322977387007200,13.93200732421875,6.078666687011719,-2.166700839996338,-0.7731808423995972
1789322977405859300,13.950859375,6.215057849884033,-1.9462621212005615,-0.7468597888946533
1789322977424711200,13.969711181640625,6.224628925323486,-1.501197099685669,-0.4573282301425934
1789322977443563000,13.98856298828125,6.114559173583984,-1.5490535497665405,-0.5291129350662231
1789322977462415000,14.0074150390625,6.224628925323486,-1.7620147466659546,-0.5123631358146667
1789322977481267000,14.026266845703125,5.920740604400635,-2.0398812294006348,-0.646361231803894
1789322977500119000,14.045119140625,5.762515068054199,-2.255235433578491,-0.7277171611785889
1789322977528396800,14.073396728515625,5.886941909790039,-2.36291241645813,-0.8715856671333313
1789322977547248600,14.09224853515625,5.810371398925781,-2.2911276817321777,-0.6990033388137817
1789322977566100700,14.111100830078126,5.7792649269104,-2.693420886993408,-0.924227774143219
1789322977584952600,14.12995263671875,6.451947212219238,-4.16799783706665,-1.3357932567596436
1789322977603804400,14.148804443359374,6.75374174118042,-5.738586902618408,-2.008774518966675
1789322977622656500,14.167656494140624,6.413661956787109,-7.682755470275879,-2.6718854904174805
1789322977641508400,14.18650830078125,6.15762996673584,-9.662516593933105,-3.3134610652923584
1789322977660360200,14.205360107421875,5.992525100708008,-11.010573387145996,-3.7205400466918945
1789322977679212300,14.22421240234375,5.915955066680908,-11.802896499633789,-3.9622151851654053
1789322977698064100,14.243064208984375,6.564708709716797,-11.848360061645508,-3.81864595413208
1789322977716916000,14.261916015625,7.407281398773193,-11.24746322631836,-3.7181472778320312
1789322977735768000,14.28076806640625,8.19272518157959,-10.663314819335938,-3.7037904262542725
1789322977754620000,14.299619873046876,8.01775074005127,-10.179665565490723,-3.6655051708221436
1789322977773471700,14.3184716796875,6.799205780029297,-9.428020477294922,-3.4307093620300293
1789322977792323600,14.337323486328126,6.191129684448242,-9.016156196594238,-2.6001009941101074
1789322977811175700,14.35617578125,5.736194133758545,-10.048060417175293,-1.9968105554580688
1789322977830027500,14.375027587890624,5.784050464630127,-11.015358924865723,-1.8266209363937378
1789322977848879400,14.39387939453125,6.224628925323486,-10.400104522705078,-2.0159530639648438
1789322977867731500,14.4127314453125,6.183950901031494,-9.432806015014648,-2.614457845687866
1789322977886583300,14.431583251953125,6.317949295043945,-8.664112091064453,-2.652743101119995
1789322977905435100,14.45043505859375,5.96381139755249,-8.719446182250977,-2.714956283569336
1789322977924287000,14.469286865234375,5.449055194854736,-8.896514892578125,-2.8369903564453125
1789322977943139000,14.48813916015625,5.099404335021973,-9.013762474060059,-2.755634307861328
1789322977961991000,14.506990966796875,5.44426965713501,-9.38734245300293,-2.4562325477600098
1789322977980842800,14.5258427734375,5.9422760009765625,-9.523733139038086,-2.166700839996338
1789322977999694600,14.544694580078126,6.672386169433594,-9.49501895904541,-2.645564556121826
1789322978027972600,14.57297265625,7.201498985290527,-9.301200866699219,-3.6487553119659424
1789322978046824400,14.591824462890624,7.019644260406494,-8.949156761169434,-3.9813578128814697
1789322978065676300,14.61067626953125,6.62213659286499,-7.998608112335205,-3.9167516231536865
1789322978084528000,14.629528076171875,6.775277137756348,-7.524529933929443,-3.497708559036255
1789322978103380000,14.6483798828125,7.139285564422607,-7.902894973754883,-3.531208038330078
1789322978122232000,14.667232177734375,7.421638488769531,-8.388936996459961,-3.6870405673980713
1789322978141084000,14.686083984375,8.022536277770996,-7.6636128425598145,-2.9877381324768066
1789322978159935700,14.704935791015625,8.55882740020752,-7.287640571594238,-2.417947292327881
1789322978178787600,14.72378759765625,7.426424026489258,-6.387341022491455,-2.0614166259765625
1789322978197639400,14.742639404296876,5.980561256408691,-5.077868938446045,-2.3700907230377197
1789322978216491500,14.761491455078126,5.973382472991943,-3.397209882736206,-2.33180570602417
1789322978235343400,14.78034326171875,6.945167541503906,-2.683849811553955,-1.9127626419067383
1789322978254195200,14.7991953125,6.411269187927246,-2.3270199298858643,-0.6343970894813538
1789322978273047000,14.818047119140624,6.346662998199463,-2.7675983905792236,0.08853443711996078
1789322978291899000,14.83689892578125,6.2174506187438965,-3.248854875564575,0.07417750358581543
1789322978310751000,14.8557509765625,6.250949859619141,-2.98295259475708,-0.12203395366668701
1789322978329602800,14.874602783203125,6.322734832763672,-2.5016961097717285,-0.768395185470581
1789322978348454700,14.89345458984375,6.09541654586792,-1.8768702745437622,-1.1228320598602295
1789322978367306500,14.912306396484375,5.063511848449707,-1.0510473251342773,-0.8114659786224365
1789322978386158300,14.931158447265625,5.733801364898682,-0.7396813035011292,0.18424734473228455
1789322978405010200,14.95001025390625,6.325127601623535,-0.9768698215484619,-0.1986042857170105
1789322978423862000,14.968862060546876,5.968596935272217,-1.896012783050537,-1.0630114078521729
1789322978442714000,14.987714111328126,4.984548568725586,-2.4849462509155273,-1.501197099685669
1789322978461566000,15.00656591796875,6.09541654586792,-2.324627161026001,-1.0151549577713013
1789322978480417800,15.025417724609374,7.419245719909668,-2.4945175647735596,-0.9481559991836548
1789322978499269600,15.04426953125,6.250949859619141,-3.349353551864624,-1.9824535846710205
1789322978527547400,15.07254736328125,5.992525100708008,-5.278865814208984,-3.0427730083465576
1789322978546399200,15.091399169921875,6.073881149291992,-6.372983932495117,-3.2368907928466797
1789322978565251000,15.1102509765625,6.512066841125488,-7.785646915435791,-3.1722846031188965
1789322978584103000,15.12910302734375,6.574280261993408,-9.339486122131348,-3.0475587844848633
1789322978602955000,15.147955078125,6.224628925323486,-10.965109825134277,-3.545564889907837
1789322978621806600,15.166806640625,5.978168487548828,-11.233105659484863,-3.897608995437622
1789322978640658700,15.18565869140625,6.509674072265625,-10.826026916503906,-3.4570305347442627
1789322978659510500,15.204510498046876,7.457530975341797,-10.849955558776855,-3.5192439556121826
1789322978678362400,15.2233623046875,7.847859859466553,-11.166107177734375,-3.248854875564575
1789322978697214200,15.242214111328124,7.139285564422607,-11.096714973449707,-3.07627272605896
1789322978716066000,15.261066162109374,6.365805625915527,-10.46231746673584,-2.8944180011749268
1789322978734918000,15.27991796875,5.760122299194336,-10.213165283203125,-2.6024937629699707
1789322978753769700,15.298769775390625,5.642873764038086,-10.002596855163574,-1.9103697538375854
1789322978772621600,15.31762158203125,5.949454307556152,-9.461520195007324,-1.9366908073425293
1789322978791473400,15.336473388671875,6.327520370483398,-8.589934349060059,-2.2408783435821533
1789322978810325200,15.3553251953125,6.064310073852539,-8.649754524230957,-2.6647071838378906
1789322978829177000,15.374177001953125,6.148058891296387,-9.17886734008789,-2.635993242263794
1789322978848029000,15.39302880859375,5.422734260559082,-9.59073257446289,-2.5857439041137695
1789322978866880800,15.411880859375,4.795515537261963,-9.114261627197266,-2.7891337871551514
1789322978885732600,15.430732666015626,4.596612453460693,-8.360222816467285,-2.841775894165039
1789322978904584400,15.44958447265625,5.037190914154053,-8.219046592712402,-2.5184457302093506
1789322978923436300,15.468436279296874,6.035595893859863,-8.748159408569336,-2.355733871459961
1789322978942288100,15.4872880859375,6.99541711807251,-9.640981674194336,-2.255235433578491
1789322978961140000,15.506139892578124,7.780860900878906,-10.625029563903809,-2.839383125305176
1789322978979991800,15.52499169921875,8.027321815490723,-10.71834945678711,-3.5048868656158447
1789322978998843600,15.54384375,7.6636128425598145,-10.282557487487793,-4.055535316467285
1789322979027121400,15.572121337890625,7.402495861053467,-8.664112091064453,-3.5886356830596924
1789322979045973200,15.59097314453125,7.1799635887146,-7.606184959411621,-3.0714869499206543
1789322979064825000,15.6098251953125,7.043572425842285,-6.416054725646973,-2.6647071838378906
1789322979083677000,15.628677001953125,7.017251491546631,-5.673980712890625,-2.2671995162963867
1789322979102528800,15.64752880859375,7.385746002197266,-5.482554912567139,-2.214557409286499
1789322979121380600,15.666380615234376,8.039285659790039,-5.815157413482666,-2.1379871368408203
1789322979140232400,15.685232421875,7.036394119262695,-5.769693374633789,-1.5849459171295166
1789322979159084300,15.704084228515624,6.488138675689697,-4.4243292808532715,-2.008774518966675
1789322979177936100,15.72293603515625,7.153642177581787,-4.007678985595703,-2.762812852859497
1789322979196788000,15.7417880859375,6.488138675689697,-1.6471593379974365,-1.8625133037567139
1789322979215639800,15.760639892578125,5.563910961151123,-1.9872392416000366,-0.6942176818847656
1789322979234491600,15.77949169921875,5.714658737182617,-2.2025933265686035,0.1866401731967926
1789322979253343500,15.798343505859375,5.784050464630127,-1.4988043308258057,0.2727817893028259
1789322979272195000,15.817195068359375,5.621338367462158,-1.3692927360534668,-0.35922250151634216
1789322979291047000,15.836046875,5.877370834350586,-1.678265929222107,-0.7707880139350891
1789322979309898800,15.854898681640625,5.616552829742432,-1.750050663948059,-0.9170492887496948
1789322979328750600,15.87375048828125,5.796014785766602,-1.8218353986740112,-0.5458626747131348
1789322979347602400,15.8926025390625,6.380162239074707,-2.1786649227142334,-0.6846463680267334
1789322979366454300,15.911454345703126,6.181558132171631,-2.338984251022339,-0.7277171611785889
1789322979385306000,15.93030615234375,6.286842346191406,-2.475374937057495,-0.8787640929222107
1789322979404158000,15.949157958984374,5.903990745544434,-2.8058836460113525,-1.2735798358917236
1789322979423009800,15.968009765625,6.210271835327148,-2.865704298019409,-1.2616157531738281
1789322979441861400,15.986861328125,6.550352096557617,-2.9327032566070557,-1.9680966138839722
1789322979460713200,16.005713134765625,6.272485256195068,-4.764110088348389,-2.3748764991760254
1789322979479565000,16.02456494140625,6.722635269165039,-6.636493682861328,-2.3844478130340576
1789322979507842800,16.0528427734375,7.000202655792236,-9.013762474060059,-2.8130621910095215
1789322979526694700,16.071694580078123,6.586244106292725,-10.203594207763672,-3.7348971366882324
1789322979545546500,16.09054638671875,6.016453266143799,-10.92891788482666,-3.9382870197296143
1789322979564398300,16.1093984375,6.148058891296387,-10.802098274230957,-4.0196428298950195
1789322979583250000,16.12825,6.8518476486206055,-10.335199356079102,-4.189533233642578
1789322979602101800,16.147101806640624,7.474280834197998,-9.866206169128418,-3.921537160873413
1789322979630379500,16.175379638671874,7.778468132019043,-9.416056632995605,-3.3948171138763428
1789322979649231400,16.1942314453125,6.653243541717529,-9.377771377563477,-2.999702215194702
1789322979668083200,16.213083251953126,6.1935224533081055,-9.624231338500977,-2.4083759784698486
1789322979686934800,16.231934814453126,5.769693374633789,-10.347163200378418,-1.9558334350585938
1789322979705786600,16.25078662109375,5.709873199462891,-10.866704940795898,-2.2743778228759766
1789322979724638500,16.269638427734375,5.951847076416016,-10.098309516906738,-2.7723841667175293
1789322979743490300,16.288490234375,6.341877460479736,-9.384949684143066,-3.19860577583313
1789322979762342100,16.307342041015627,6.543173313140869,-9.236295700073242,-3.045166015625
1789322979781193700,16.32619384765625,5.798407554626465,-8.975478172302246,-2.9470601081848145
1789322979800045600,16.345045654296875,5.343770980834961,-8.477471351623535,-2.9087750911712646
1789322979818897400,16.3638974609375,5.353342533111572,-8.374580383300781,-2.9159533977508545
1789322979837749200,16.382749267578124,5.427519798278809,-8.920442581176758,-2.489732027053833
1789322979856600800,16.401600830078124,5.997310638427734,-9.317950248718262,-2.403590440750122
1789322979875452700,16.42045263671875,6.811169624328613,-9.655338287353516,-2.621636390686035
1789322979894304500,16.439304443359376,7.325925827026367,-9.707980155944824,-2.9614171981811523
1789322979913156400,16.45815625,7.373782157897949,-9.59073257446289,-3.8784663677215576
1789322979932008000,16.477008056640624,6.81595516204834,-8.769695281982422,-4.191926002502441
1789322979950859800,16.49585986328125,6.806384086608887,-7.502994537353516,-4.297509670257568
1789322979969711600,16.514711669921876,7.091429233551025,-7.1010003089904785,-3.8784663677215576
1789322979988563500,16.5335634765625,7.450352191925049,-7.270890712738037,-3.5431721210479736
1789322980007415000,16.5524150390625,7.670791149139404,-7.292426109313965,-3.1148569583892822
1789322980026267000,16.571266845703125,8.077570915222168,-7.141678333282471,-2.8776683807373047
1789322980045118700,16.59011865234375,8.19272518157959,-7.316354274749756,-2.513660192489624
1789322980063970300,16.60897021484375,6.770491600036621,-6.68435001373291,-2.181057929992676
1789322980082822100,16.627822265625,5.968596935272217,-5.242973327636719,-2.9853453636169434
1789322980101674000,16.646674072265625,6.512066841125488,-3.7971103191375732,-3.0475587844848633
1789322980120525800,16.66552587890625,6.763313293457031,-2.6001009941101074,-1.6064813137054443
1789322980139377400,16.68437744140625,5.973382472991943,-1.8505492210388184,-0.02153540402650833
1789322980158229200,16.703229248046874,5.805585861206055,-2.42512583732605,0.45254257321357727
1789322980177081000,16.7220810546875,5.463412284851074,-2.255235433578491,0.275174617767334
1789322980195932700,16.7409326171875,6.018846035003662,-1.8337994813919067,0.11006984114646912
1789322980214784500,16.759784423828126,5.425127029418945,-2.420340061187744,-0.6678966283798218
1789322980233636400,16.77863623046875,6.258128643035889,-1.8146568536758423,-0.47647079825401306
1789322980261913900,16.806913818359376,5.504090309143066,-1.6734803915023804,-0.7731808423995972
1789322980280765700,16.825765625,5.544768333435059,-1.3549357652664185,-0.35922250151634216
1789322980299617300,16.8446171875,5.283651351928711,-1.292722463607788,-1.1563315391540527
1789322980318469000,16.86346923828125,5.7170515060424805,-1.922333836555481,-1.1443674564361572
1789322980337321000,16.882321044921873,6.713063716888428,-1.9558334350585938,-1.2759727239608765
1789322980356172500,16.901172607421874,6.327520370483398,-2.5474588871002197,-1.2783654928207397
1789322980375024400,16.9200244140625,6.547959327697754,-4.359723091125488,-1.9824535846710205
1789322980393876200,16.938876220703126,6.598208427429199,-6.887740135192871,-2.590529680252075
1789322980412727800,16.957727783203126,6.665207386016846,-8.52054214477539,-3.16749906539917
1789322980431579600,16.97657958984375,6.234200477600098,-9.198010444641113,-3.8377883434295654
1789322980450431200,16.99543115234375,6.064310073852539,-9.317950248718262,-3.1339993476867676
1789322980469283000,17.014282958984374,6.610172748565674,-9.770194053649902,-2.8704898357391357
1789322980488135000,17.033135009765626,7.380960464477539,-10.24905776977539,-3.500101327896118
1789322980506986500,17.051986572265626,7.491030216217041,-10.44796085357666,-3.5575289726257324
1789322980525838300,17.07083837890625,7.151249408721924,-10.881061553955078,-4.213760852813721
1789322980544690000,17.08968994140625,6.703492641448975,-10.996216773986816,-3.684647798538208
1789322980563541800,17.108541748046875,6.454638957977295,-10.217950820922852,-2.2743778228759766
1789322980582393600,17.1273935546875,6.353841304779053,-9.375378608703613,-2.286342144012451
1789322980601245200,17.1462451171875,6.270092487335205,-8.96829891204834,-2.839383125305176
1789322980620097000,17.165096923828123,5.892026424407959,-9.344271659851074,-3.4713873863220215
1789322980638948600,17.183948486328124,5.836692810058594,-9.267701148986816,-3.5671002864837646
1789322980657800400,17.202800537109376,6.049952983856201,-9.38734245300293,-2.7125635147094727
1789322980676652000,17.221652099609376,6.605386734008789,-9.528518676757812,-2.3772692680358887
1789322980695504000,17.24050390625,6.961917400360107,-10.033703804016113,-2.5857439041137695
1789322980714355500,17.25935546875,6.0140604972839355,-10.400104522705078,-2.4921247959136963
1789322980733207300,17.278207275390624,4.60139799118042,-9.274879455566406,-2.4011974334716797
1789322980752059000,17.297058837890624,4.211368083953857,-7.77607536315918,-2.549851655960083
1789322980770910700,17.31591064453125,5.041976451873779,-7.488637447357178,-2.525923490524292
1789322980789762300,17.33476220703125,6.018846035003662,-8.66171932220459,-2.2648067474365234
1789322980808614100,17.3536142578125,6.696314334869385,-9.878170013427734,-2.674278497695923
1789322980827465700,17.3724658203125,7.132106781005859,-10.103095054626465,-3.287140130996704
1789322980846317600,17.391317626953125,7.366603374481201,-9.681659698486328,-3.73250412940979
1789322980865169200,17.410169189453125,7.151249408721924,-9.571589469909668,-3.8377883434295654
1789322980884021000,17.42902099609375,6.9236321449279785,-8.94676399230957,-3.311068296432495
1789322980902872600,17.44787255859375,7.1799635887146,-8.242975234985352,-3.421138286590576
1789322980921724400,17.466724365234374,7.438388347625732,-7.974679470062256,-3.5336008071899414
1789322980940576000,17.485575927734374,7.996214866638184,-7.70668363571167,-3.5958142280578613
1789322980959427800,17.504427734375,8.262117385864258,-7.086643218994141,-3.2344980239868164
1789322980978279400,17.523279541015626,7.682755470275879,-6.365805625915527,-2.676671266555786
1789322980997131300,17.54213134765625,6.538387775421143,-5.8821563720703125,-2.3222343921661377
1789322981015982800,17.56098291015625,6.3514485359191895,-4.884049892425537,-2.3437697887420654
1789322981034834700,17.579834716796874,6.87816858291626,-3.3924243450164795,-2.135594129562378
1789322981053686300,17.598686279296874,7.134500026702881,-3.5479576587677,-1.683051586151123
1789322981072537900,17.617537841796874,6.1935224533081055,-1.9055840969085693,-0.26560330390930176
1789322981091389700,17.6363896484375,5.8343000411987305,-2.667099952697754,-0.2512463629245758
1789322981110241300,17.6552412109375,5.31475830078125,-2.6264219284057617,-0.6080760359764099
1789322981129093000,17.674093017578127,5.688337802886963,-2.2025933265686035,-0.39032918214797974
1789322981147944700,17.69294482421875,5.204688549041748,-1.7428722381591797,-0.22013968229293823
1789322981166796500,17.711796630859375,5.353342533111572,-0.9984052777290344,-0.3329014480113983
1789322981185648000,17.730648193359375,5.475376605987549,-1.4222339391708374,-0.34725838899612427
1789322981204499700,17.749499755859375,5.750551223754883,-1.6328023672103882,-0.27038896083831787
1789322981232777200,17.777777099609374,6.069095611572266,-2.166700839996338,-0.6966105103492737
1789322981251629000,17.796629150390626,6.10259485244751,-2.540280342102051,-0.9409775137901306
1789322981270480600,17.815480712890626,6.447161674499512,-2.6264219284057617,-1.2664014101028442
1789322981289332500,17.83433251953125,6.8279194831848145,-3.0020952224731445,-1.532303810119629
1789322981308184000,17.85318408203125,6.916453838348389,-3.904787540435791,-2.348555326461792
1789322981327035600,17.87203564453125,6.303592205047607,-5.401198863983154,-2.9949166774749756
1789322981345887500,17.890887451171874,6.524031162261963,-6.681957244873047,-3.2033913135528564
1789322981364739000,17.909739013671874,6.658029079437256,-7.948358535766602,-3.1746773719787598
1789322981383590700,17.928590576171874,6.904489517211914,-8.918049812316895,-3.248854875564575
1789322981402442500,17.9474423828125,6.485745906829834,-9.844670295715332,-3.5431721210479736
1789322981421294000,17.966294189453127,6.0523457527160645,-10.409675598144531,-4.000500202178955
1789322981440145700,17.985145751953127,6.229414463043213,-10.119845390319824,-3.935894250869751
1789322981458997500,18.00399755859375,7.416852951049805,-9.763015747070312,-4.158426761627197
1789322981477849000,18.02284912109375,8.4200439453125,-9.782157897949219,-4.273581027984619
1789322981496700700,18.04170068359375,7.764111042022705,-10.222736358642578,-3.8712878227233887
1789322981515552500,18.060552490234375,6.483353137969971,-10.730314254760742,-3.0499515533447266
1789322981534404000,18.079404052734375,5.836692810058594,-10.694421768188477,-2.20737886428833
1789322981553255700,18.098255615234375,5.798407554626465,-10.79013442993164,-1.5418751239776611
1789322981572107300,18.117107177734376,5.925526142120361,-10.136594772338867,-1.8170497417449951
1789322981590959000,18.135958984375,6.229414463043213,-9.540482521057129,-2.6407787799835205
1789322981609810700,18.154810791015624,6.2413787841796875,-9.305986404418945,-3.0427730083465576
1789322981628662300,18.173662353515624,6.1695942878723145,-8.594719886779785,-3.0236306190490723
1789322981647514000,18.19251416015625,5.870192050933838,-8.28126049041748,-2.9925239086151123
1789322981666365700,18.21136572265625,5.324329376220703,-8.286046028137207,-3.07627272605896
1789322981685217300,18.23021728515625,4.991727352142334,-8.39611530303955,-3.05234432220459
1789322981704068900,18.24906884765625,5.350949764251709,-8.556434631347656,-2.6886353492736816
1789322981722920700,18.267920654296876,5.997310638427734,-8.874979019165039,-2.698206663131714
1789322981741772300,18.286772216796876,6.658029079437256,-9.471091270446777,-2.810669183731079
1789322981760623900,18.305623779296877,7.093822002410889,-10.02173900604248,-2.9566314220428467
1789322981779475500,18.324475341796877,7.574779033660889,-10.354341506958008,-3.287140130996704
1789322981798327300,18.343327392578125,7.572386264801025,-9.89970588684082,-3.7277185916900635
1789322981817179000,18.362178955078125,7.057929515838623,-8.788837432861328,-3.490530014038086
1789322981836030500,18.381030517578125,7.110571384429932,-7.881359577178955,-3.356531858444214
1789322981854882000,18.399882080078125,7.112964630126953,-7.435995578765869,-3.7181472778320312
1789322981873733600,18.418733642578125,7.086643218994141,-6.918846607208252,-3.7755749225616455
1789322981892585500,18.43758544921875,7.445566654205322,-6.1241302490234375,-3.0714869499206543
1789322981911437000,18.45643701171875,7.392924785614014,-6.322734832763672,-1.9319051504135132
1789322981930288600,18.47528857421875,7.004988193511963,-6.085845470428467,-1.599302887916565
1789322981949140200,18.49414013671875,7.014858722686768,-5.006083965301514,-2.5689942836761475
1789322981967991800,18.51299169921875,7.33549690246582,-3.967000722885132,-3.085843801498413
1789322981986843600,18.53184375,6.22702169418335,-3.08345103263855,-2.30069899559021
1789322982005695200,18.5506953125,5.504090309143066,-1.532303810119629,-0.1986042857170105
1789322982024546800,18.569546875,6.488138675689697,-2.1403799057006836,0.4046861231327057
1789322982043398400,18.5883984375,6.4304118156433105,-3.030808925628662,0.062213387340307236
1789322982062250000,18.60725,6.16480827331543,-3.2057840824127197,-0.064606212079525
1789322982081101600,18.6261015625,6.112166404724121,-2.777169704437256,-0.16510476171970367
1789322982099953200,18.644953125,5.5830535888671875,-2.36291241645813,-0.6607181429862976
1789322982118805000,18.663804931640627,5.477769374847412,-1.7548363208770752,-0.5410770177841187
1789322982137656600,18.682656494140623,5.669195175170898,-1.4365909099578857,-0.45254257321357727
1789322982156508200,18.701508056640623,6.071488380432129,-1.2065808773040771,-0.3927220106124878
1789322982175359700,18.72035986328125,6.368198394775391,-1.434198021888733,-0.6343970894813538
1789322982194211300,18.73921142578125,6.16480827331543,-2.1020946502685547,-1.1778669357299805
1789322982213063000,18.75806298828125,5.511268615722656,-2.2671995162963867,-1.8529419898986816
1789322982231914500,18.77691455078125,5.439484119415283,-2.8441689014434814,-1.7644076347351074
1789322982250766000,18.79576611328125,6.069095611572266,-4.292723655700684,-1.7548363208770752
1789322982269618000,18.814617919921876,6.823133945465088,-6.16480827331543,-2.166700839996338
1789322982288469500,18.833469482421876,7.285247802734375,-7.725826263427734,-2.6072793006896973
1789322982307321000,18.852321044921876,7.110571384429932,-9.63619613647461,-3.483351469039917
1789322982326172700,18.871172607421876,6.763313293457031,-10.488638877868652,-4.134498596191406
1789322982345024300,18.890024169921876,6.7657060623168945,-11.142178535461426,-4.033999919891357
1789322982363875800,18.908875732421876,7.120142936706543,-11.127821922302246,-3.749253988265991
1789322982382727400,18.9277275390625,7.615756034851074,-10.239486694335938,-3.325425386428833
1789322982401579000,18.9465791015625,7.886145114898682,-9.006584167480469,-3.5647075176239014
1789322982420430600,18.9654306640625,7.464709281921387,-8.54447078704834,-3.75643253326416
1789322982439282200,18.9842822265625,6.387341022491455,-8.913264274597168,-3.521636724472046
1789322982458133800,19.0031337890625,5.8343000411987305,-9.959526062011719,-3.0427730083465576
1789322982476985300,19.0219853515625,5.7170515060424805,-10.639387130737305,-2.1020946502685547
1789322982495837000,19.0408369140625,6.418447494506836,-9.93559741973877,-1.5801602602005005
1789322982514688500,19.0596884765625,6.914061069488525,-9.267701148986816,-2.181057929992676
1789322982533540000,19.0785400390625,6.976274490356445,-9.815657615661621,-3.0116662979125977
1789322982552391700,19.0973916015625,7.067500591278076,-9.973882675170898,-2.944667339324951
1789322982571243300,19.1162431640625,7.0025954246521,-10.004989624023438,-2.8202404975891113
1789322982590094800,19.1350947265625,6.641279220581055,-10.05284595489502,-3.030808925628662
1789322982608946400,19.153946533203126,6.2174506187438965,-9.59791088104248,-3.2177481651306152
1789322982627798000,19.172798095703126,5.403591632843018,-9.047262191772461,-3.308675527572632
1789322982646649600,19.191649658203126,4.963013172149658,-8.489435195922852,-3.1100711822509766
1789322982665501200,19.210501220703126,4.632504463195801,-7.764111042022705,-3.19860577583313
1789322982684352800,19.229352783203126,4.462614059448242,-7.215855598449707,-3.4259238243103027
1789322982703204400,19.248204345703126,4.951049327850342,-6.6149582862854,-2.9877381324768066
1789322982722056000,19.267055908203126,5.935097694396973,-6.650850772857666,-2.389233350753784
1789322982740907500,19.285907470703126,7.543672561645508,-7.215855598449707,-2.7340989112854004
1789322982759759000,19.304759033203126,9.183652877807617,-8.28843879699707,-3.6487553119659424
1789322982778610700,19.323610595703126,9.39452075958252,-9.121439933776855,-4.979763031005859
1789322982797462300,19.342462158203126,8.863015174865723,-8.949156761169434,-5.721837043762207
1789322982816313900,19.36131396484375,8.058428764343262,-8.027321815490723,-4.491328239440918
1789322982835165400,19.38016552734375,7.045965194702148,-6.703492641448975,-3.088535785675049
1789322982854017000,19.39901708984375,6.7178497314453125,-5.638088226318359,-2.3437697887420654
1789322982872868400,19.417868408203127,6.9690961837768555,-5.0587263107299805,-1.5346965789794922
1789322982891720000,19.436719970703123,6.6915283203125,-4.644468784332275,-0.8620143532752991
1789322982910571500,19.455571533203123,6.636493682861328,-3.7133617401123047,-1.7261223793029785
1789322982938849000,19.48384912109375,7.297211647033691,-3.5910286903381348,-2.358126640319824
1789322982957700400,19.502700439453125,6.839883327484131,-2.801098108291626,-0.8883354067802429
1789322982976552000,19.521552001953125,6.8518476486206055,-2.9374887943267822,-0.12681959569454193
1789322982995403500,19.540403564453126,6.320342063903809,-2.465803623199463,-0.35443684458732605
1789322983014255000,19.559255126953126,5.877370834350586,-1.9007984399795532,-0.8210372924804688
1789322983033106700,19.578106689453126,5.697908878326416,-1.4270195960998535,-0.6655037999153137
1789322983051958300,19.596958251953126,6.315556049346924,-1.4844473600387573,-0.6080760359764099
1789322983070809900,19.615809814453126,6.234200477600098,-1.7668004035949707,-0.9577272534370422
1789322983089661400,19.634661376953126,6.116951942443848,-1.843370795249939,-1.0055837631225586
1789322983108513000,19.653512939453126,5.968596935272217,-1.8840487003326416,-0.8883354067802429
1789322983127364400,19.6723642578125,6.272485256195068,-2.056631088256836,-1.017547845840454
1789322983146216000,19.6912158203125,6.097809314727783,-2.386840581893921,-1.1180464029312134
1789322983165067500,19.710067626953126,5.760122299194336,-2.2337000370025635,-0.9314061999320984
1789322983183919000,19.728919189453126,5.5758748054504395,-2.334198474884033,-1.048654556274414
1789322983202770700,19.747770751953126,6.291627883911133,-3.531208038330078,-1.7428722381591797
1789322983221622000,19.7666220703125,6.813562393188477,-5.638088226318359,-2.506481647491455
1789322983240473600,19.7854736328125,7.163213729858398,-7.163213729858398,-3.1435706615448
1789322983259325200,19.8043251953125,6.772884368896484,-8.812766075134277,-3.61017107963562
1789322983278176800,19.8231767578125,6.6149582862854,-9.784550666809082,-3.8449668884277344
1789322983297028400,19.8420283203125,6.176772594451904,-10.26341438293457,-3.746861219406128
1789322983315879700,19.860879638671875,6.408876419067383,-10.083952903747559,-3.6894333362579346
1789322983334731300,19.879731201171875,6.942774772644043,-9.933204650878906,-3.7516467571258545
1789322983353582800,19.898582763671875,7.491030216217041,-10.167701721191406,-4.151247978210449
1789322983372434400,19.917434326171875,7.70668363571167,-10.412068367004395,-4.163212299346924
1789322983391285800,19.93628564453125,7.127321243286133,-10.431211471557617,-3.5024940967559814
1789322983410137300,19.955137451171876,6.243771553039551,-10.165308952331543,-2.6862425804138184
1789322983428989000,19.973989013671876,5.812764644622803,-9.851848602294922,-2.3988046646118164
1789322983447840500,19.992840576171876,5.796014785766602,-10.026525497436523,-2.262413740158081
1789322983466691800,20.01169189453125,5.829514026641846,-9.554840087890625,-2.691028118133545
1789322983494969300,20.03996923828125,6.0762739181518555,-9.4088773727417,-3.1746773719787598
1789322983513820700,20.058820556640626,5.879763603210449,-9.253045082092285,-2.604886531829834
1789322983532672300,20.07767236328125,5.877370834350586,-8.913264274597168,-2.4466612339019775
1789322983551523800,20.09652392578125,5.5758748054504395,-8.688039779663086,-3.1890344619750977
1789322983570375400,20.11537548828125,5.018048286437988,-8.755337715148926,-3.256033420562744
1789322983589226800,20.134226806640626,5.492125988006592,-8.906085968017578,-3.0164520740509033
1789322983608078300,20.153078369140626,5.9662041664123535,-9.492626190185547,-2.5474588871002197
1789322983626929700,20.1719296875,6.3131632804870605,-9.686445236206055,-2.4131617546081543
1789322983645781200,20.19078125,6.610172748565674,-9.59073257446289,-2.7436702251434326
1789322983664632800,20.2096328125,7.103393077850342,-9.389735221862793,-3.4809587001800537
1789322983683484400,20.228484375,7.270890712738037,-9.358628273010254,-4.266402721405029
1789322983702335700,20.247335693359375,7.285247802734375,-8.7505521774292,-4.584648132324219
1789322983721187300,20.266187255859375,6.983452796936035,-8.774480819702148,-4.417150497436523
1789322983740039000,20.285038818359375,7.0770721435546875,-8.331509590148926,-4.026821613311768
1789322983758890200,20.30389013671875,7.086643218994141,-7.089035987854004,-3.5264222621917725
1789322983787167500,20.33216748046875,7.666005611419678,-5.49930477142334,-2.669492721557617
1789322983806019000,20.35101904296875,7.395317554473877,-5.664409637451172,-1.953440546989441
1789322983824870400,20.369870361328125,6.787241458892822,-5.580660820007324,-1.5466607809066772
1789322983843722000,20.388721923828125,6.772884368896484,-3.9789650440216064,-2.128415822982788
1789322983862573600,20.407573486328126,7.716254711151123,-4.610969066619873,-3.0643084049224854
1789322983881425000,20.4264248046875,6.87816858291626,-3.928715705871582,-2.8154549598693848
1789322983900276500,20.4452763671875,5.4418768882751465,-3.0188448429107666,-1.287936806678772
1789322983919128000,20.464128173828126,5.482554912567139,-2.317448616027832,-0.0526420995593071
1789322983937979400,20.4829794921875,6.564708709716797,-2.3150558471679688,0.5554339289665222
1789322983956831000,20.5018310546875,6.253343105316162,-2.358126640319824,0.04546362906694412
1789322983975682600,20.5206826171875,5.707480430603027,-1.9414764642715454,-0.41904306411743164
1789322983994534000,20.539533935546874,5.927918910980225,-1.8290138244628906,-0.18424734473228455
1789322984013385500,20.558385498046874,6.500102519989014,-1.7524434328079224,-0.30658039450645447
1789322984032236800,20.57723681640625,6.179165363311768,-1.628016710281372,-0.07657032459974289
1789322984051088400,20.59608837890625,5.803193092346191,-1.3668999671936035,-0.5195416212081909
1789322984069939700,20.614939697265626,6.09541654586792,-1.3142578601837158,-1.0271191596984863
1789322984088791300,20.633791259765626,6.75374174118042,-1.7404793500900269,-1.2041879892349243
1789322984107642600,20.652642578125,6.581458568572998,-2.2600209712982178,-1.843370795249939
1789322984126494200,20.671494140625,5.923133373260498,-2.26959228515625,-2.152343988418579
1789322984145345500,20.690345458984375,6.839883327484131,-3.006880760192871,-2.6647071838378906
1789322984164197000,20.709197021484375,7.012166976928711,-5.199902534484863,-2.9853453636169434
1789322984183048700,20.728048583984375,6.794419765472412,-7.6013994216918945,-3.303889751434326
1789322984201900000,20.746900146484375,6.5527448654174805,-9.20279598236084,-3.4163525104522705
1789322984220751600,20.765751708984375,6.21984338760376,-9.243474006652832,-3.294318675994873
1789322984239603000,20.78460302734375,6.018846035003662,-9.28445053100586,-3.085843801498413
1789322984258454500,20.80345458984375,6.1002020835876465,-9.573982238769531,-3.279961585998535
1789322984277305900,20.822305908203123,6.519245147705078,-9.588339805603027,-3.483351469039917
1789322984296157400,20.841157470703124,7.357032299041748,-9.748658180236816,-3.5431721210479736
1789322984315008800,20.8600087890625,7.697112083435059,-10.424033164978027,-3.677469253540039
1789322984333860400,20.8788603515625,7.2349982261657715,-11.228320121765137,-3.555136203765869
1789322984352711700,20.897711669921875,6.396912097930908,-11.1373929977417,-3.02123761177063
1789322984371563300,20.916563232421876,6.246164321899414,-10.56520938873291,-2.628814697265625
1789322984390414600,20.93541455078125,5.930311679840088,-10.244272232055664,-2.4011974334716797
1789322984409266200,20.95426611328125,6.183950901031494,-9.808479309082031,-2.777169704437256
1789322984428117500,20.973117431640624,6.914061069488525,-9.533304214477539,-3.2105698585510254
1789322984446969000,20.991968994140624,6.849454879760742,-9.420842170715332,-3.145963668823242
1789322984465820400,21.0108203125,6.595815658569336,-8.865407943725586,-3.1387851238250732
1789322984484671700,21.029671630859376,5.6931233406066895,-8.405686378479004,-3.2584261894226074
1789322984503523300,21.0485234375,4.898406982421875,-8.15683364868164,-3.2297122478485107
1789322984531800600,21.076800537109374,5.089832782745361,-8.448758125305176,-2.480160713195801
1789322984550652000,21.09565185546875,5.839085578918457,-9.190832138061523,-1.8696918487548828
1789322984569503500,21.11450341796875,6.538387775421143,-9.696016311645508,-2.200200319290161
1789322984588354800,21.133354736328126,7.093822002410889,-9.468698501586914,-3.334996461868286
1789322984607206100,21.1522060546875,7.368996620178223,-9.282057762145996,-4.179962158203125
1789322984626057700,21.1710576171875,7.45274543762207,-8.803194046020508,-4.613361835479736
1789322984644909000,21.189908935546875,7.752147197723389,-7.804789066314697,-4.711467742919922
1789322984663760600,21.2087607421875,7.728219032287598,-7.756932735443115,-4.3070807456970215
1789322984682612000,21.227612060546875,7.471887588500977,-7.7593255043029785,-4.2281174659729
1789322984701463600,21.246463623046875,7.194320201873779,-7.5412797927856445,-3.9574296474456787
1789322984720315000,21.26531494140625,7.414460182189941,-7.203891754150391,-3.445066452026367
1789322984739166200,21.284166259765627,7.936394691467285,-6.9690961837768555,-2.9470601081848145
1789322984758017800,21.303017822265623,6.997809886932373,-6.370591163635254,-2.276770830154419
1789322984776869000,21.321869140625,6.200700759887695,-4.814658164978027,-2.36291241645813
1789322984795720400,21.340720458984375,6.447161674499512,-4.041178226470947,-2.6623141765594482
1789322984814572000,21.359572021484375,6.7178497314453125,-2.355733871459961,-2.20737886428833
1789322984833423400,21.37842333984375,6.104988098144531,-2.513660192489624,-0.8644071817398071
1789322984852275000,21.39727490234375,5.819942951202393,-2.9398818016052246,-0.31854450702667236
1789322984871126300,21.416126220703124,6.796812534332275,-2.525923490524292,0.42382872104644775
1789322984889977600,21.4349775390625,6.540780544281006,-2.7580273151397705,-0.3400799036026001
1789322984908829200,21.4538291015625,5.721837043762207,-2.6264219284057617,-1.0510473251342773
1789322984927680500,21.472680419921875,5.219045162200928,-2.1619153022766113,-1.2065808773040771
1789322984946531800,21.49153173828125,5.508875846862793,-1.2113664150238037,-0.16510476171970367
1789322984965383400,21.510383544921876,5.286044120788574,-1.2783654928207397,-0.07896314561367035
1789322984984234800,21.52923486328125,5.769693374633789,-1.4054841995239258,-0.3089732229709625
1789322985003086000,21.548086181640624,5.731408596038818,-1.6304094791412354,-0.8859425783157349
1789322985031363300,21.57636328125,6.0523457527160645,-2.245664119720459,-1.252044439315796
1789322985050214700,21.595214599609374,6.451947212219238,-2.738884687423706,-1.532303810119629
1789322985069066200,21.614066162109374,6.55992317199707,-2.8513472080230713,-1.5634105205535889
1789322985087917600,21.63291748046875,6.806384086608887,-3.468994617462158,-2.0542383193969727
1789322985106769000,21.651768798828126,6.55992317199707,-5.027619361877441,-3.0092735290527344
1789322985125620200,21.6706201171875,7.455138206481934,-7.120142936706543,-3.5048868656158447
1789322985144471800,21.689471923828126,6.911668300628662,-7.991429328918457,-3.61017107963562
1789322985163323100,21.7083232421875,6.408876419067383,-8.889336585998535,-3.8784663677215576
1789322985182174500,21.727174560546874,6.334698677062988,-9.93559741973877,-4.086641788482666
1789322985201026000,21.746026123046875,6.047560214996338,-10.519745826721191,-4.0818562507629395
1789322985219877400,21.76487744140625,6.358626842498779,-10.68963623046875,-3.8210387229919434
1789322985238728700,21.783728759765626,6.9068827629089355,-10.438389778137207,-3.586242914199829
1789322985257580000,21.802580078125,7.167999267578125,-10.213165283203125,-3.3996028900146484
1789322985276431600,21.821431640625,7.256533622741699,-10.653743743896484,-3.2656047344207764
1789322985295283000,21.840282958984375,6.454638957977295,-10.524531364440918,-2.975774049758911
1789322985314134300,21.85913427734375,6.258128643035889,-9.981060981750488,-2.2241287231445312
1789322985332985600,21.877985595703127,6.215057849884033,-9.609874725341797,-2.449054002761841
1789322985351837200,21.896837158203127,5.853442192077637,-10.083952903747559,-2.3150558471679688
1789322985370688500,21.9156884765625,6.243771553039551,-10.141380310058594,-2.6336004734039307
1789322985389539800,21.934539794921875,6.15762996673584,-9.777372360229492,-2.542673110961914
1789322985408391200,21.95339111328125,6.116951942443848,-8.937192916870117,-2.4849462509155273
1789322985427242800,21.97224267578125,5.819942951202393,-8.436793327331543,-2.9327032566070557
1789322985446094000,21.991093994140623,5.3318071365356445,-8.329116821289062,-3.246462106704712
1789322985464945400,22.0099453125,5.274080276489258,-8.654540061950684,-3.19860577583313
1789322985483796700,22.028796630859375,5.915955066680908,-9.157332420349121,-2.942274570465088
1789322985502648300,22.0476484375,6.231807708740234,-9.62901782989502,-3.0427730083465576
1789322985530925300,22.07592529296875,6.894918441772461,-9.36341381072998,-3.5982069969177246
1789322985549776600,22.094776611328125,7.170392036437988,-9.633803367614746,-3.722932815551758
1789322985568628000,22.1136279296875,6.849454879760742,-9.583553314208984,-3.75643253326416
1789322985587479300,22.132479248046874,7.031608581542969,-8.889336585998535,-3.445066452026367
1789322985606331000,22.151330810546874,7.474280834197998,-8.55882740020752,-3.387638568878174
1789322985625182200,22.17018212890625,7.83111047744751,-8.314759254455566,-4.261617183685303
1789322985644033500,22.189033447265626,7.675576686859131,-7.122535705566406,-4.244867324829102
1789322985662884900,22.207884765625,7.6013994216918945,-5.5998029708862305,-3.0499515533447266
1789322985681736200,22.226736083984374,7.680362701416016,-5.187938690185547,-2.2815563678741455
1789322985700587500,22.24558740234375,6.653243541717529,-5.346164226531982,-1.695015788078308
1789322985719438800,22.26443896484375,5.537590026855469,-4.2592244148254395,-1.7333009243011475
1789322985738290400,22.28329052734375,6.183950901031494,-4.268795490264893,-2.746062994003296
1789322985757141800,22.302141845703126,7.024429798126221,-3.2895328998565674,-2.26959228515625
1789322985775993000,22.3209931640625,6.825526714324951,-3.3613176345825195,-0.7540382146835327
1789322985794844400,22.339844482421874,6.315556049346924,-3.722932815551758,-0.02392822690308094
1789322985813695700,22.35869580078125,5.609374523162842,-2.6623141765594482,0.08135596662759781
1789322985832547000,22.377547119140626,5.757729530334473,-1.690230131149292,0.035892341285943985
1789322985851398400,22.3963984375,5.5136613845825195,-1.407876968383789,-0.2679961323738098
1789322985870250000,22.41525,5.219045162200928,-1.323829174041748,-0.38793638348579407
1789322985889101300,22.434101318359374,5.911169052124023,-1.0390832424163818,-0.4286143481731415
1789322985907952600,22.45295263671875,5.999703884124756,-1.5777673721313477,-0.8883354067802429
1789322985926804000,22.471803955078126,5.2645087242126465,-2.1308085918426514,-0.9002995491027832
1789322985945655300,22.4906552734375,5.752943992614746,-2.3222343921661377,-0.9290133714675903
1789322985964506600,22.509506591796875,6.10259485244751,-2.5112674236297607,-0.9098708033561707
1789322985983358000,22.52835791015625,6.581458568572998,-2.5785655975341797,-1.4246268272399902
1789322986002209300,22.547209228515626,5.911169052124023,-3.191427230834961,-2.2169501781463623
1789322986021060600,22.566060546875,5.743372440338135,-4.486542224884033,-2.8154549598693848
1789322986039912000,22.584911865234375,6.6484575271606445,-6.064310073852539,-3.10528564453125
1789322986058763300,22.60376318359375,7.239784240722656,-7.498208999633789,-3.1244282722473145
1789322986077614600,22.622614501953127,6.854240417480469,-9.1716890335083,-3.445066452026367
1789322986096466000,22.6414658203125,6.08823823928833,-10.457531929016113,-3.6894333362579346
1789322986115317500,22.6603173828125,5.573482036590576,-10.979466438293457,-3.9861433506011963
1789322986134168600,22.67916845703125,6.236593246459961,-10.965109825134277,-4.223331928253174
1789322986153020200,22.698020263671875,7.40488862991333,-10.517353057861328,-4.031607151031494
1789322986171871200,22.716871337890623,7.9005022048950195,-10.416853904724121,-4.275974273681641
1789322986190722800,22.735722900390623,7.981858253479004,-10.634601593017578,-4.278367042541504
1789322986209574000,22.754573974609375,7.072286605834961,-9.976275444030762,-3.576671600341797
1789322986228425500,22.773425537109375,6.15045166015625,-9.298808097839355,-3.0714869499206543
1789322986247276500,22.792276611328123,5.913562297821045,-9.22433090209961,-2.5112674236297607
1789322986266128100,22.811128173828124,5.592624664306641,-9.645767211914062,-2.903989315032959
1789322986284979200,22.829979248046875,6.023632049560547,-10.009775161743164,-2.997309446334839
1789322986303830800,22.848830810546875,6.502495765686035,-9.839884757995605,-3.1316065788269043
1789322986322681900,22.867681884765624,6.533602237701416,-9.190832138061523,-2.9853453636169434
1789322986341533400,22.886533447265624,6.126523494720459,-8.891729354858398,-3.0092735290527344
1789322986360384500,22.905384521484375,5.3940205574035645,-8.846264839172363,-3.1244282722473145
1789322986379235800,22.92423583984375,4.991727352142334,-8.755337715148926,-3.1722846031188965
1789322986398087200,22.943087158203124,5.32193660736084,-8.774480819702148,-2.918346405029297
1789322986416938500,22.9619384765625,5.729015827178955,-9.09990406036377,-2.7101707458496094
1789322986435789800,22.980789794921876,6.370591163635254,-9.432806015014648,-2.8034908771514893
1789322986454641200,22.99964111328125,6.777669906616211,-9.547661781311035,-3.224926710128784
1789322986473492500,23.018492431640624,7.1010003089904785,-9.686445236206055,-3.859323740005493
1789322986492343800,23.03734375,7.199106216430664,-9.28445053100586,-4.072285175323486
1789322986511195100,23.056195068359376,7.089035987854004,-8.549256324768066,-4.326223373413086
1789322986530046500,23.07504638671875,7.022037029266357,-8.42722225189209,-4.34536600112915
1789322986548897800,23.093897705078124,7.313961505889893,-7.996214866638184,-4.376472473144531
1789322986567749000,23.1127490234375,7.213462829589844,-7.177570819854736,-3.873680830001831
1789322986586600400,23.131600341796876,7.7832536697387695,-6.133701801300049,-3.1818559169769287
1789322986605451800,23.15045166015625,8.10389232635498,-5.899205207824707,-2.8154549598693848
1789322986624302800,23.169302734375,7.464709281921387,-5.846263885498047,-2.0829520225524902
1789322986643154200,23.188154296875,6.2413787841796875,-4.673182487487793,-2.4370899200439453
1789322986662005500,23.207005615234376,6.2413787841796875,-4.1297125816345215,-2.863311290740967
1789322986680856800,23.22585693359375,6.7345991134643555,-2.9805595874786377,-2.520838737487793
1789322986699708200,23.244708251953124,5.810371398925781,-2.5283162593841553,-1.0630114078521729
1789322986718559500,23.2635595703125,5.4514479637146,-2.8058836460113525,-0.19381862878799438
1789322986737410800,23.282410888671876,5.8343000411987305,-3.1746773719787598,0.2153540402650833
1789322986756262100,23.30126220703125,5.2477593421936035,-2.4394826889038086,0.16271193325519562
1789322986775113500,23.320113525390624,5.889334678649902,-1.5490535497665405,0.2994019389152527
1789322986793964800,23.33896484375,5.980561256408691,-1.474876046180725,-0.5961119532585144
1789322986812816000,23.35781591796875,5.690730571746826,-1.4605190753936768,-0.6032904386520386
1789322986831667200,23.376667236328124,5.628517150878906,-1.2161520719528198,-0.7253243923187256
1789322986850518500,23.3955185546875,5.614160060882568,-1.347757339477539,-0.8282157182693481
1789322986869369900,23.414369873046876,5.827121257781982,-1.7117655277252197,-1.2999008893966675
1789322986888221200,23.43322119140625,5.935097694396973,-2.17627215385437,-1.592124342918396
1789322986907072300,23.452072265625,6.4064836502075195,-2.379662036895752,-1.7404793500900269
1789322986925923600,23.470923583984376,6.231807708740234,-2.808276414871216,-1.6447664499282837
1789322986944775000,23.48977490234375,6.581458568572998,-3.9550366401672363,-1.9872392416000366
1789322986963626200,23.508626220703125,6.6484575271606445,-6.346662998199463,-3.10528564453125
1789322986982477600,23.5274775390625,6.681957244873047,-7.972286701202393,-3.5671002864837646
1789322987001329000,23.546328857421877,6.705885410308838,-8.772088050842285,-3.739682674407959
1789322987020180000,23.565179931640625,6.674778938293457,-9.863813400268555,-3.9382870197296143
1789322987039031300,23.58403125,6.109773635864258,-10.852348327636719,-4.191926002502441
1789322987057882600,23.602882568359377,6.329913139343262,-10.890633583068848,-4.108177185058594
1789322987076734000,23.62173388671875,7.045965194702148,-10.208379745483398,-3.5671002864837646
1789322987095585000,23.6405849609375,7.797610759735107,-9.595518112182617,-3.514458179473877
1789322987114436400,23.659436279296877,8.079963684082031,-9.868598937988281,-3.6436707973480225
1789322987133287700,23.67828759765625,7.299604415893555,-10.627422332763672,-3.593421459197998
1789322987152139000,23.697138916015625,6.617351055145264,-10.46231746673584,-3.428316593170166
1789322987170990300,23.715990234375,6.1073808670043945,-9.562018394470215,-3.0810582637786865
1789322987189841400,23.73484130859375,5.647659778594971,-9.243474006652832,-2.825026273727417
1789322987208692700,23.753692626953125,5.681159019470215,-9.282057762145996,-2.7029922008514404
1789322987227544000,23.7725439453125,6.047560214996338,-8.934800148010254,-2.652743101119995
1789322987246395400,23.7913955078125,6.485745906829834,-8.86780071258545,-2.8537402153015137
1789322987265246500,23.81024658203125,6.0523457527160645,-8.913264274597168,-2.839383125305176
1789322987284097800,23.829097900390625,5.528018474578857,-9.332307815551758,-3.1818559169769287
1789322987302949000,23.84794921875,5.370092391967773,-9.691230773925781,-3.325425386428833
1789322987321800200,23.86680029296875,5.4418768882751465,-9.329915046691895,-3.061915636062622
1789322987340651500,23.885651611328125,5.769693374633789,-8.697610855102539,-2.7580273151397705
1789322987359502800,23.9045029296875,6.339484691619873,-8.55164909362793,-2.714956283569336
1789322987378354200,23.923354248046873,6.701099872589111,-8.930013656616211,-2.7747769355773926
1789322987397205200,23.942205322265625,7.3761749267578125,-9.51176929473877,-3.5024940967559814
1789322987416056600,23.961056640625,7.656434059143066,-9.581160545349121,-4.0818562507629395
1789322987434908000,23.979907958984374,7.354639530181885,-8.989834785461426,-4.390829563140869
1789322987453759000,23.998759033203125,7.290033340454102,-8.448758125305176,-4.216153621673584
1789322987472610300,24.0176103515625,7.378567695617676,-8.041678428649902,-3.976572036743164
1789322987491461600,24.036461669921874,7.158428192138672,-6.971488952636719,-3.7181472778320312
1789322987510312700,24.055312744140625,7.151249408721924,-6.198307991027832,-3.4139597415924072
1789322987529164000,24.0741640625,7.0292158126831055,-5.865406513214111,-3.0260233879089355
1789322987548015400,24.093015380859374,6.55992317199707,-5.50648307800293,-2.094916343688965
1789322987566866400,24.111866455078125,5.78644323348999,-3.849752426147461,-1.596909999847412
1789322987585717800,24.1307177734375,6.485745906829834,-4.1368913650512695,-1.7404793500900269
1789322987604569000,24.149569091796874,8.120641708374023,-2.9374887943267822,-1.5753746032714844
1789322987623420400,24.16842041015625,7.495816230773926,-3.334996461868286,-0.5386841893196106
1789322987642271500,24.187271484375,6.126523494720459,-2.8992037773132324,-0.12921242415905
1789322987661122800,24.206122802734374,5.19033145904541,-2.722134828567505,-0.3975076675415039
1789322987679974000,24.224973876953126,5.286044120788574,-2.121237277984619,-0.1866401731967926
1789322987698825200,24.2438251953125,5.611767292022705,-1.410269856452942,-0.33768710494041443
1789322987717676500,24.262676513671874,5.185545921325684,-1.3286148309707642,-0.5171487927436829
1789322987736528000,24.28152783203125,5.458626747131348,-1.1778669357299805,-0.035892341285943985
1789322987755379000,24.30037890625,5.501697540283203,-1.3405789136886597,0.12681959569454193
1789322987774230300,24.319230224609374,5.43709135055542,-1.5658032894134521,-0.6032904386520386
1789322987793081300,24.338081298828126,6.114559173583984,-2.1236300468444824,-0.8114659786224365
1789322987811932700,24.3569326171875,6.222236156463623,-2.4777679443359375,-1.446162223815918
1789322987830784000,24.375783935546874,6.061916828155518,-2.4059832096099854,-1.7045869827270508
