time,seconds_elapsed,z,y,x
1788880991292721700,0.1357216796875,-0.33797464827001095,0.29463936441242694,0.3234810992216691
1788880991302751700,0.145751708984375,-0.9312152664631604,0.4928919459983706,0.2654867004904896
1788880991312781800,0.15578173828125,-1.2676935386955737,0.39745296541601416,-0.024827932590618728
1788880991322812000,0.16581201171875,-1.099797809189558,0.3887783683121204,-0.10953772162683308
1788880991332841700,0.175841796875,-1.279852763044834,0.38388971948772665,-0.07767996346466242
1788880991342871600,0.18587158203125,-1.6798954526931047,0.3418319082200527,0.3070688570704311
1788880991352902700,0.195902587890625,-1.9550632239162922,0.2769292279377579,0.8565800775218755
1788880991362932700,0.2059326171875,-2.742319516777992,0.000013736264407634734,1.8654320528298616
1788880991372962800,0.215962890625,-2.928932221713662,-0.07297112818658351,0.38892654461115594
1788880991382992600,0.22599267578125,-2.685108267781138,0.010863631580770016,-1.0276389472339302
1788880991393022700,0.236022705078125,-2.5288515381425616,0.07197334932088852,-1.4526242818936705
1788880991403052800,0.246052734375,-2.217674880427122,0.30984745493829247,-1.109368039958924
1788880991413083000,0.256082763671875,-1.6240473087429999,0.33631460610330105,-1.0518598538421093
1788880991423112700,0.26611279296875,-1.0198176790237425,0.3516863627582788,-1.0354279936749486
1788880991433142800,0.276142822265625,-1.0041332031577825,0.3403992450684309,-0.8401762744054198
1788880991443173600,0.286173583984375,-0.9171545924067497,0.061166708624362943,-0.8624100257843732
1788880991453203700,0.29620361328125,-1.0991899064242838,0.002113631153106689,-0.47660829866286364
1788880991463233800,0.30623388671875,-1.5273440073132514,-0.24067513451278208,0.18358626978658138
1788880991473263600,0.316263671875,-1.103945576518774,-0.8043722628355026,0.831491302037984
1788880991483293700,0.326293701171875,-0.2702846753567457,-1.1169926896184683,0.6644671677347272
1788880991493323800,0.33632373046875,-0.23587445623278616,-0.8820879552006721,-0.01572261591926217
1788880991503353900,0.346353759765625,-1.0265151308357714,-0.3518710716754198,-0.3334815746344626
1788880991513383700,0.3563837890625,-1.1194155328512192,0.1066688151270151,-0.4904573027299717
1788880991523413800,0.366413818359375,-1.349260645791888,0.15583119770288467,-0.6100329091705381
1788880991533443600,0.376443603515625,-1.4904741200774907,-0.0336146848320961,-0.6457299532346427
1788880991543473700,0.3864736328125,-0.6007417876034975,0.27737667944431305,-0.9287962226226926
1788880991553503700,0.396503662109375,0.4081774807870388,0.36553719345629215,-1.0791425591737032
1788880991563533800,0.406533935546875,0.9866443082183599,0.2737748555600643,-0.9955959686979651
1788880991573564000,0.41656396484375,1.3778332448035477,0.5890016654491425,-0.06206690886709839
1788880991583594800,0.4265947265625,0.9534013793081044,-0.25224808340668675,0.20223617132939398
1788880991593624800,0.436624755859375,0.8250082236289977,-0.8135708838135004,0.18864172654524444
1788880991603654700,0.446654541015625,1.39873574757874,-0.7989251033455133,0.37656628126446157
1788880991613684700,0.456684814453125,1.1262947709709406,-1.1500094085574148,-0.06047627867478877
1788880991623714600,0.466714599609375,0.1429495042979717,-0.4791226561039686,-0.9307310631427913
1788880991633744600,0.47674462890625,-0.06449030008912086,0.7744646158277988,-2.238917282681167
1788880991643774700,0.486774658203125,0.8537976802617311,1.9749597645193337,-2.5166180795133113
1788880991653804800,0.4968046875,0.9908756621778011,1.1679454627424477,-1.3107314470417797
1788880991663835000,0.5068349609375,0.9610288054466247,-0.2489309216827154,-0.26303042991217224
1788880991673865000,0.516864990234375,1.1612748989373445,-0.43619946017861366,-0.18933365433216093
1788880991683894500,0.52689453125,0.6168699155837297,-0.4431868348479271,-0.34434436596501616
1788880991693924600,0.536924560546875,0.1504009893476963,-0.37649288723468777,-0.8493354401558637
1788880991703954700,0.54695458984375,0.1859451809376478,0.06096738665997982,-1.6198996875442564
1788880991713985800,0.55698583984375,0.6260603532552719,0.46530514315366744,-1.5700819097995757
1788880991724015600,0.567015625,0.8275392034113407,0.566312863779068,-0.854795459127426
1788880991734045700,0.577045654296875,0.9592816695183515,0.11954758592247962,-0.6982749639861285
1788880991744075800,0.58707568359375,0.8832067300975323,0.007360884156823158,-0.7564945863079279
1788880991754105900,0.59710595703125,0.8198375429928302,0.16084698003828524,-0.6856570360839367
1788880991764136000,0.607135986328125,0.7618442037075758,-0.004049567651748657,-0.21926983331460503
1788880991774165500,0.61716552734375,0.3964923036903143,-0.12616320466995237,-0.0869383335395716
1788880991784195600,0.627195556640625,0.07368482941389083,-0.17579145119190215,0.14266560018952004
1788880991794225700,0.6372255859375,-0.32687048593163487,-0.3893570449829101,0.3228346545442939
1788880991804255700,0.647255859375,-0.3542278639346361,-0.5152028542667627,0.4119093242591247
1788880991814285800,0.657285888671875,-0.27731998082101345,-0.5885702882945537,0.7566471465211361
1788880991824316000,0.66731591796875,-0.424734647834301,-0.6937275298148393,0.6277289440546184
1788880991834346800,0.6773466796875,-0.5433721331745386,-0.6912135011672973,-0.028228005091380327
1788880991844376800,0.687376953125,-0.4779109422266483,-0.45832127561569214,-0.8150713515043259
1788880991854407000,0.697406982421875,-0.32442426182329653,-0.08753098393678664,-0.7477071764793246
1788880991864436700,0.707436767578125,-0.39642859080433845,1.7562170603513716,-1.0661913076639176
1788880991874466600,0.717466552734375,-0.5570680655717849,2.9621482626169917,-0.9361829718731344
1788880991884496600,0.72749658203125,-0.2609387548625469,0.7244500003367662,-0.7010238973680883
1788880991894526700,0.737526611328125,0.7435393162101507,-0.9824971254110336,0.13774419073984026
1788880991904556800,0.747556884765625,0.537839633488655,-0.3113970224678516,1.1437506404235958
1788880991914587000,0.7575869140625,0.7790519436180591,-0.5868780974239111,1.1948833001591264
1788880991924616700,0.76761669921875,0.7423235106796026,-0.37725335021317,0.7418040168501436
1788880991934646800,0.777646728515625,-0.059957917356491086,0.02355155597925186,0.09123564714100212
1788880991944676600,0.787676513671875,-0.5300707530528307,0.3191021900177002,-0.6538960162945091
1788880991954706700,0.797706787109375,-0.7499860081315041,0.32679625165164466,-0.5079199307169765
1788880991964737500,0.807737548828125,-0.8180670261889695,0.2970399958133697,-0.21629173081927
1788880991974767600,0.817767578125,-0.615813684529066,0.26905016512572766,-0.3246500699358061
1788880991984797700,0.827797607421875,-0.27885727339088917,0.2563788996011019,-0.1829051921872422
1788880991994827800,0.837827880859375,0.22400515474081037,-0.008320084577798844,0.31134467122610654
1788880992004857900,0.84785791015625,-0.48729719473123545,-0.024897125369310377,-0.4385735688988119
1788880992014888000,0.857887939453125,-0.24815643017888067,0.17427578593194484,-0.652270899310708
1788880992024917800,0.867917724609375,0.40162674396932124,0.04436287333965301,0.4151674127396196
1788880992034947600,0.877947509765625,0.7143389406889676,-0.2944762828052044,0.6229878870073705
1788880992044977700,0.887977783203125,0.7941513130724429,-0.285131531354785,0.44116164916325357
1788880992055007700,0.8980078125,0.9370745138853788,-0.016850597035884856,0.2612546889439225
1788880992065037800,0.908037841796875,1.0610638816475868,0.02165069079399109,0.14814714600630105
1788880992075067600,0.918067626953125,0.9399538687139749,-0.11366963379979132,0.06550470129605382
1788880992085098800,0.9280986328125,0.505252538138628,0.07434241653978824,-0.1519524565733969
1788880992095128800,0.93812890625,0.4281020784407854,0.39661037711203095,-0.3522230634508654
1788880992105159000,0.948158935546875,0.4937736972689628,0.14438041388392447,0.059305883188545704
1788880992115188700,0.958188720703125,0.8930641072452068,-0.0038128362864255903,0.46647257949784393
1788880992125218600,0.968218505859375,0.7937228585273027,-0.09018588235974312,0.5675344049306587
1788880992135248600,0.97824853515625,0.29329321050047874,0.1600830099284649,0.26317283405754716
1788880992145278700,0.98827880859375,-0.13293547528386115,0.6028115796148776,-0.06884308847114444
1788880992155308800,0.998308837890625,-0.4212836305975914,0.9822703309178352,-0.23812822650894522
1788880992165339000,1.0083388671875,-0.37957331759333607,1.0019108509331942,-0.10088274253886192
1788880992175368700,1.01836865234375,-0.08080956672728061,0.39447570317089553,0.5677131590310484
1788880992185398800,1.028398681640625,-0.43312195242941376,0.3788859198510647,0.43961336027532816
1788880992195430000,1.038429931640625,-0.42394612780511376,0.4534773427158594,0.15025288611389695
1788880992205459700,1.048459716796875,-0.7638596351832151,0.31916941003501414,0.11780245928820222
1788880992215489500,1.058489501953125,-0.9515186343014239,0.47327276103198523,0.10887677350006997
1788880992225519600,1.06851953125,-1.0602981579720974,0.6008756431162356,0.011005853063054382
1788880992235549700,1.0785498046875,-1.2531821982622147,0.1856318772047758,0.18896566126998512
1788880992245579800,1.088579833984375,-1.1241741255551576,0.07422901929318905,-0.031025837382674216
1788880992255609900,1.09860986328125,-1.0256137980818747,-0.0038742110848426817,-0.3453478073865175
1788880992265639700,1.1086396484375,-1.0139432340323924,-0.18137421976029872,-0.41506976105142385
1788880992275669800,1.118669677734375,-1.0066437246739863,-0.3524509173899889,-0.3598985299821943
1788880992285699800,1.128699951171875,-0.9252017052620649,-0.4304267219960689,-0.4361171521900222
1788880992295729700,1.138729736328125,-0.77888243227005,-0.42191549876034257,-0.4650255590273067
1788880992305760500,1.148760498046875,-0.6352724182367324,-0.4883411508262157,-0.41108017995860424
1788880992315790600,1.15879052734375,-0.45009705262780186,-0.39564766955971714,-0.5035563652126118
1788880992325820700,1.168820556640625,-0.15050678780972956,-0.42401802399754523,-0.49407297247648235
1788880992335850800,1.178850830078125,0.06546703616678715,-0.5254723193466663,-0.3332080914553255
1788880992345880800,1.188880859375,0.2425830139607191,-0.5451584320694208,-0.19424287102054805
1788880992355910400,1.198910400390625,0.10824117901027203,-0.7256529463857412,0.08334598986972123
1788880992365940200,1.208940185546875,-0.1285971538186073,-0.8268307628810405,0.13589618825297803
1788880992375970300,1.21897021484375,-0.48384734653830525,-0.7132710191965103,-0.08156451328042894
1788880992386000400,1.22900048828125,-0.8984949001222848,-0.7095382624089718,-0.15044610713105647
1788880992396030500,1.239030517578125,-1.2696738988578318,-0.6575234130114317,-0.2634478516066447
1788880992406060500,1.249060546875,-1.5988801342606545,-0.5261357516914605,-0.5596434324851259
1788880992416091400,1.25909130859375,-1.6770669512689114,-0.5316103837102651,-0.6444802454344928
1788880992426121200,1.269121337890625,-1.60263685644567,-0.420088867855072,-0.6449753354750574
1788880992436151300,1.2791513671875,-1.4416156888842582,-0.32299978197813034,-0.6589388327673077
1788880992446181400,1.289181396484375,-1.322622814235091,-0.18508125758469104,-0.6487408985536545
1788880992456211500,1.29921142578125,-1.2419085245758295,-0.28008418483734127,-0.6767218152824789
1788880992466241300,1.3092412109375,-1.123501925382018,-0.45798225291967387,-0.5602404119975865
1788880992476271400,1.319271240234375,-0.9471779747486114,-0.5347106878131628,-0.4475507656784728
1788880992486301400,1.329301513671875,-0.7775631663650274,-0.4493593860030174,-0.31837369308006014
1788880992496331500,1.33933154296875,-0.6713017629951238,-0.33939854359328747,-0.1545616526911035
1788880992506361300,1.349361328125,-0.5466992317706346,-0.2931114241927862,-0.1393396797703579
1788880992516392400,1.359392333984375,-0.33211890797913074,-0.1868126114219427,-0.22770981794502584
1788880992526422300,1.36942236328125,-0.10789864918291568,-0.41001346404254435,-0.10361618609074502
1788880992536452400,1.379452392578125,0.20978432168662547,-0.23102409359216688,0.007936163294129073
1788880992546482400,1.389482421875,0.3611912732064724,-0.033877135160565376,-0.05019483089614659
1788880992556512300,1.39951220703125,0.3214677501052618,-0.3431079195052385,0.021236191708967088
1788880992566542300,1.409542236328125,0.476915501448512,-0.07427987269759177,-0.21217994811888782
1788880992576572400,1.419572509765625,0.625015812638402,0.10845569854378699,-0.021999358101189134
1788880992586602500,1.4296025390625,0.5734639045774936,0.2897340567141771,-0.12123696378152816
1788880992596632300,1.43963232421875,0.39371407114863394,1.2104022101998329,-0.5355081948664039
1788880992606662400,1.449662353515625,0.18320552684068678,0.8694412395954132,-0.346475386644341
1788880992616693200,1.459693359375,0.16957915254831313,0.8629168062627315,-0.2254243008237332
1788880992626723300,1.469723388671875,0.4432546393871307,0.8463561320841312,0.04796224953848868
1788880992636753400,1.47975341796875,0.6766916393399238,0.9569973579734563,0.1792225581517443
1788880992646783200,1.489783203125,0.7279635614156723,0.8060773131877184,0.5041248492829501
1788880992656813300,1.499813232421875,0.7154793428957462,0.5880711066007613,0.4110251983683556
1788880992666843400,1.509843505859375,0.5706453400254249,0.47033553853631016,0.35081348891388625
1788880992676873500,1.51987353515625,0.018464461973309514,0.5230179119318723,0.2132775340972468
1788880992686903300,1.5299033203125,-0.8329688272446394,0.5959679973304272,-0.22042287580724804
1788880992696933400,1.539933349609375,-0.9336445394366979,0.678586074784398,-0.2067006033923477
1788880992706964200,1.549964111328125,-0.9615385085344313,0.3625152152866125,-0.0002671630362048745
1788880992716994300,1.559994384765625,-0.8251298041820526,0.35141046842634677,0.052874133107997476
1788880992727024400,1.5700244140625,-0.8426876727044582,0.25279402685165403,0.058131651777401566
1788880992737054500,1.580054443359375,-0.9121376410275697,-0.07822481093108653,-0.029910642682388425
1788880992747084300,1.590084228515625,-0.7551677946835755,-0.05405541531443596,-0.13972981159910558
1788880992757114400,1.6001142578125,-0.7795511253118514,0.00428688353896141,0.020475947926193474
1788880992767144400,1.61014453125,-0.7254448565930127,-0.009520692539215087,0.2596613553378731
1788880992777174300,1.62017431640625,-0.5296434675514697,0.29294015927910805,0.49244573660083113
1788880992787204400,1.630204345703125,-0.30082185243964193,-0.04687339485585689,0.5777605057928711
1788880992797235200,1.640235107421875,0.1586889252215624,-0.5427472792744636,0.7951417854145169
1788880992807265300,1.650265380859375,0.37000586330294605,-0.5250269136667252,0.5219147729955613
1788880992817295400,1.66029541015625,0.4353694390952587,-0.6184779353022575,0.33247941185459495
1788880992827325400,1.670325439453125,0.5861217260986566,-0.9961883816331625,0.45705096341893076
1788880992837355300,1.680355224609375,0.7391337747275829,-1.0923387253552674,0.673043345965445
1788880992847385300,1.69038525390625,0.9967249727278947,-1.0934200908511877,1.1604287304367868
1788880992857415400,1.70041552734375,1.3362801681876182,-0.7104027702838182,1.3623247100263833
1788880992867445500,1.710445556640625,1.668568587514758,-0.6540659660339355,1.7618083044871686
1788880992877475300,1.720475341796875,1.6465853037655354,-1.0023246924310922,1.8180401870578526
1788880992887506200,1.730506103515625,1.3117933771848678,-0.2730792745113373,1.5569671382911503
1788880992897536300,1.740536376953125,1.478392052617669,-5.569204153424501,3.2978231095120307
1788880992907566300,1.75056640625,0.6491548131167888,-2.0044927329957485,2.805998792745173
1788880992917596400,1.760596435546875,0.44834231791496276,1.5740373694270848,1.4865493478491902
1788880992927626500,1.77062646484375,3.3956793803691863,2.4168898773044347,1.356767660421133
1788880992937656300,1.78065625,0.8780389720708132,2.8414386471778155,1.111020483341068
1788880992947686400,1.790686279296875,-0.5631576146185397,2.2970535375684498,1.1534369718533009
1788880992957716500,1.800716552734375,0.3823457049161196,0.7894836135223507,1.4417356620021164
1788880992967746300,1.810746337890625,0.5571539902895689,0.05283084195554256,1.9990908739522097
1788880992977777200,1.820777099609375,-0.17295418193936346,-0.0810451290488243,3.167992029984295
1788880992987807200,1.83080712890625,-0.8212386419624089,-0.2096858297482133,4.141196718654037
1788880992997837300,1.84083740234375,-0.5835813939660788,-0.33390140748173,4.2436432399109005
1788880993007867400,1.850867431640625,0.32319501228928565,-0.2957528786122799,3.6450060233712196
1788880993017897500,1.8608974609375,1.1074942089110613,-0.45145928089171644,2.668051626779139
1788880993027927300,1.87092724609375,1.5486948383778332,-1.1880506776601076,2.394394844640791
1788880993037957400,1.880957275390625,0.6782230866909027,-1.97137635307461,2.583917884065211
1788880993047987500,1.890987548828125,-0.16548282314538953,-2.680250306355953,3.403471641680598
1788880993058017300,1.901017333984375,-0.6885948431015014,-2.960070287299156,3.0358520889922973
1788880993068048100,1.911048095703125,-0.9800222597301006,-2.9408351332142946,1.8131442317098379
1788880993078078200,1.921078125,-0.7725076365411281,-2.687486687350273,0.01914192284345627
1788880993088108300,1.9311083984375,-0.6153022278755903,-1.8769199537888168,-1.7490560826808212
1788880993098138400,1.941138427734375,-1.5368641153305769,-1.2465977053053676,-0.8210983567088842
1788880993108168400,1.95116845703125,-2.8992215585827825,-0.980789006318897,0.8591904792159796
1788880993118198300,1.9611982421875,-2.945405802130699,-0.9792448456168175,1.4962620558291673
1788880993128228400,1.971228271484375,-1.9057611406087873,-0.8389730360954999,0.6225812789678573
1788880993138258400,1.981258544921875,-0.6896341230213642,-0.6571531183943152,-0.6801257054418325
1788880993148289500,1.99128955078125,-0.1510679288238287,-0.7527750543281435,-1.1982359715878963
1788880993158319400,2.0013193359375,-0.39014907214343547,-1.037946625432372,-1.552633931392431
1788880993168349200,2.01134912109375,-0.8969488397240638,-1.2776216429919003,-2.224917106640339
1788880993178379300,2.021379150390625,-1.7150170349568128,-1.3283913146339357,-2.893543512946367
1788880993188409300,2.031409423828125,-2.8166151715666055,-1.090709662848711,-3.1747236763268707
1788880993198439400,2.041439453125,-3.8762481436282394,-0.7691130256667733,-2.878230208480358
1788880993208469500,2.051469482421875,-3.934686888593435,-1.5374265715189277,-1.118802369388938
1788880993218499300,2.061499267578125,-3.9020015935659407,-2.172345207881927,-0.7955868988335132
1788880993228529400,2.071529296875,-3.1583360206276176,-1.5477204403877258,-1.9260224228709935
1788880993238560500,2.081560546875,-1.9531267028957604,-1.5746704066336155,-2.417745032829046
1788880993248590600,2.091590576171875,-0.36794688494652505,-2.1930501422584054,-2.784697938302159
1788880993258620200,2.1016201171875,0.29282559298872946,-2.498819387972355,-3.0762948662787672
1788880993268650200,2.111650146484375,0.0963736310839653,-2.94378141579926,-2.7111130621314046
1788880993278680300,2.121680419921875,-0.2533513684734702,-3.6515129210472104,-2.525700965157151
1788880993288710400,2.13171044921875,-0.4462079362347722,-3.4574025538325306,-2.2445634718745944
1788880993298740500,2.141740478515625,0.08366904781162739,-2.8868919461026787,-1.9717355417758224
1788880993308770300,2.151770263671875,0.26239596793353553,-3.3447178394168615,-2.843520714148879
1788880993318801400,2.161801513671875,0.576885403458774,-4.125175558179617,-3.3963673626333475
1788880993328831500,2.17183154296875,1.1216690108664333,-3.532384729580581,-2.4899364088147875
1788880993338861600,2.181861572265625,1.2579437135756015,-2.884325310485065,-1.145395192760229
1788880993348891100,2.19189111328125,1.6603465564839541,-2.6469989018782973,-0.8458703943938016
1788880993358925000,2.201925048828125,1.5790853004664183,-3.107954617650807,0.2980962268680334
1788880993368955100,2.211955078125,2.002145877608657,-4.8696840116828675,2.4581641369789837
1788880993378985200,2.221985107421875,1.8645055856347084,-6.673413933837414,2.8047774342566725
1788880993389015000,2.23201513671875,2.4424621254563332,-7.706417257648706,3.2084675404965877
1788880993399046000,2.2420458984375,2.21969264999032,-8.996717180427908,5.022527133485674
1788880993409076000,2.252075927734375,0.6880699424445629,-9.45179494407773,7.366751003029942
1788880993419106000,2.26210595703125,-0.11947167114205658,-8.360458673763274,10.511503903985023
1788880993429136100,2.27213623046875,-0.545946952098608,-6.8052060843050475,13.542066362136602
1788880993439166000,2.282166015625,-0.8627882114470005,-5.468947543427348,15.25043562964201
1788880993449196000,2.292196044921875,-0.5258206943929196,-4.448887872341275,16.024947007220984
1788880993459226000,2.30222607421875,-0.173566760879755,-3.648800154957175,16.254380032229424
1788880993469256200,2.312256103515625,-1.7327713028341531,-2.314194641983509,16.560101347148418
1788880993479287000,2.322287109375,-3.180307029417157,-0.29120997448563574,17.090232305955887
1788880993489317000,2.332317138671875,-3.285522723126411,1.907263361865282,16.62998093906045
1788880993499347000,2.342346923828125,-2.4694030316129325,3.508625960591435,15.996930873048305
1788880993509377000,2.352376953125,-3.5472689949795604,4.137578528156876,14.339683890014886
1788880993519407000,2.362406982421875,-4.323471394385397,3.9201293709307907,12.207170341783762
1788880993529437200,2.372437255859375,-4.358112791916728,2.633957341736555,10.152596942323445
1788880993539467000,2.382467041015625,-3.4226652947112917,1.6924959910690784,8.097013489037751
1788880993549498000,2.392498046875,-5.779477135410905,1.3113240061074494,5.304034044602513
1788880993559528200,2.402528076171875,-6.1705181879580016,2.374662262427807,3.285651902464032
1788880993569558000,2.41255810546875,-5.248994878947735,4.0422377472519875,1.5707603935830294
1788880993579588000,2.422588134765625,-4.384478236272931,5.197158308726549,-0.18129969321936368
1788880993589618000,2.432617919921875,-4.641586034670472,6.758782186782359,-2.3129420115739108
1788880993599648000,2.44264794921875,-4.477534121111035,8.182154947489499,-3.7437797013342378
1788880993609678000,2.452677978515625,-4.773897240576148,7.929462627446651,-4.312380676050484
1788880993619708200,2.462708251953125,-5.118274157103896,6.983965737652778,-4.204552754016221
1788880993629739000,2.472739013671875,-4.733062249101698,4.779362520244717,-4.481375891231
1788880993639769000,2.48276904296875,-3.536224746134877,1.7986831601589917,-4.66628266903162
1788880993649799200,2.492799072265625,-3.2245310788080093,0.7294605219751596,-5.343165447029471
1788880993659829200,2.502829345703125,-2.9581992327302693,0.309510770329833,-5.431963089901209
1788880993669859000,2.512859130859375,-1.8673270727962255,-0.3206383135437965,-4.555672422802448
1788880993679889000,2.522888916015625,-1.759030656467378,0.21381693820357323,-2.7179654122442005
1788880993689919000,2.5329189453125,-1.3236813833773136,-0.023037176716327667,-1.3155968611210584
1788880993699950000,2.5429501953125,-0.9260334799110889,-1.5503940435111523,-0.9766033911973238
1788880993709980000,2.55297998046875,-0.4966764329731464,-3.5408605892419813,-0.714094026017189
1788880993720010000,2.563010009765625,0.7079753970064222,-5.24223429877162,0.23147008379399775
1788880993730040000,2.5730400390625,1.4115489057920871,-6.1218351133316755,1.3874217418819665
1788880993740070100,2.583070068359375,1.1732346551917492,-5.444484133300185,2.4915818379342554
1788880993750100200,2.593100341796875,0.6781860426161438,-4.161234713554382,3.8355011226981874
1788880993760130000,2.603130126953125,0.5020819452784955,-2.2308763073056936,4.517502558884025
1788880993770159900,2.613159912109375,-0.7360593357183038,-1.1517331636101007,4.556816332140564
1788880993780191000,2.62319091796875,-1.155242633035779,0.2746422860443592,4.142702447041869
1788880993790221000,2.633220947265625,-2.4624498514741657,1.0181821867763996,2.351731468695402
1788880993800251000,2.6432509765625,-3.3753085002526637,-0.3010919015526771,1.1866712060004472
1788880993810281000,2.653281005859375,-3.6315111665040254,-0.9443553185433149,0.4023462904155254
1788880993820311000,2.66331103515625,-3.9210231049001214,-0.5478226828426123,-0.37104689678847785
1788880993830341000,2.673341064453125,-3.8395720253989096,-0.2503717681407928,-1.031098366972804
1788880993840371200,2.68337109375,-4.254820175224542,-0.6225280874758958,-0.9214806389123201
1788880993850402000,2.693402099609375,-4.649253792819381,-0.984301544484496,-0.9959662633150815
1788880993860432100,2.70343212890625,-5.86081978610158,-0.3732002754300833,-0.5965542727857828
1788880993870462000,2.7134619140625,-4.660215331816673,1.2556363134160637,-1.4276859477311372
1788880993880492000,2.723491943359375,-4.336378806753457,-0.9380801837965845,-0.7547574603170156
1788880993890522000,2.733522216796875,-4.0361902837812895,-4.565341583901644,-0.8723194253802299
1788880993900552000,2.743552001953125,-1.1033774212419987,-2.547550977915525,-2.053224322938919
1788880993910582000,2.75358203125,-1.3938158268332481,3.747324826595187,-0.9936176543623209
1788880993920613000,2.763613037109375,-2.3817025363281368,-0.17892448852062223,1.2161170807152986
1788880993930643200,2.773643310546875,-0.44954409492015834,-0.1534612537011504,3.313386297085881
1788880993940673000,2.783673095703125,2.025169318060577,-3.224813695141673,2.575416305440664
1788880993950703000,2.793703125,2.62633868342638,-5.21593665895462,0.21487901447713373
1788880993960733200,2.803733154296875,3.8870167904019355,-2.4577654930502173,-2.1727216399788856
1788880993970763000,2.813762939453125,4.9294279940277335,-1.3901350924938916,-3.314738296216726
1788880993980793000,2.82379296875,4.838220951926708,-1.369139942999184,-3.073932228800654
1788880993990824000,2.833823974609375,5.185043508040905,0.5354200051262974,-2.455662967813015
1788880994000854000,2.84385400390625,3.265315801399946,0.9945286317273974,-1.4571779996752738
1788880994010884000,2.853884033203125,3.052270432090759,2.1752140413165093,-1.1257073264718056
1788880994020914200,2.8639140625,2.2393138807833193,1.1128846697777508,-2.169533073070645
1788880994030944000,2.873944091796875,2.9329502251833675,4.652010690312087,-1.3387690623939037
1788880994040974000,2.88397412109375,-1.4747732775986193,1.4954744125828145,-1.0181623130321502
1788880994051004200,2.894004150390625,-2.925792754644155,-0.1342968267649412,-1.7485130618453024
1788880994061035300,2.90403515625,-2.549306589411199,-0.2457762570440769,-3.5768636305153367
1788880994071064800,2.91406494140625,-0.5142933382064104,-0.7208952304646372,-6.081136607718467
1788880994081095000,2.924094970703125,-0.47023207816183565,0.44195758531391616,-4.371680714020132
1788880994091125000,2.934125,-0.7591793684124946,0.7635001542210579,-2.3271686898469923
1788880994101155000,2.944155029296875,-1.1924041966944932,-0.22940496795773505,-1.4909066662758588
1788880994111185200,2.95418505859375,-1.053653605391085,-0.41396892367005345,-2.248758585476875
1788880994121215200,2.96421533203125,0.655905748681724,-0.1465139187812805,-2.5740602146565914
1788880994131246000,2.97424609375,1.129724599289149,-0.5380547375440597,-2.0283219368726013
1788880994141276200,2.984276123046875,1.1394406682699918,-0.02805237452983856,0.013089783197641373
1788880994151306200,2.99430615234375,1.3378449332863092,-0.12205576935112476,-1.5033908847957849
1788880994161336000,3.004336181640625,2.8206273298174143,-1.5702391461879015,-2.253976027864218
1788880994171366000,3.014365966796875,5.861279804828762,-3.9278666871845718,1.8422639432102441
1788880994181396000,3.02439599609375,-0.345018721562624,-5.024676420474052,2.0641279942691324
1788880994191426000,3.034426025390625,-5.131852016079425,-2.69733938832283,-2.2508453286230563
1788880994201457000,3.044456787109375,-3.291395999073982,-1.0292173755317926,-4.604683414208889
1788880994211487000,3.054487060546875,2.6982746233463284,1.748425968083739,-3.725282506135106
1788880994221517000,3.06451708984375,1.0072389140881597,1.6977718856453894,-0.35410686790347096
1788880994231547100,3.074547119140625,-5.683066679447889,-0.47876726679503917,1.5584955169022083
1788880994241577200,3.0845771484375,-5.360085602170229,-0.21980536496341227,2.485744802343845
1788880994251607000,3.09460693359375,-4.379027569651603,0.26716858916282654,3.8204268876850604
1788880994261638100,3.10463818359375,-5.572798963046074,-0.8148778747588395,3.97578228456974
1788880994271668000,3.11466796875,-4.976853762069344,-1.6022610088706015,3.2427690385490653
1788880994281698000,3.124697998046875,-5.2651650925040245,-1.3935130444943904,2.2537270215392113
1788880994291728100,3.13472802734375,-5.335941340994834,-1.2009528293311595,1.878943276309967
1788880994301758000,3.144758056640625,-5.249971030503511,-0.27357027289867397,1.9551088166236876
1788880994311788000,3.1547880859375,-5.965185000461339,-0.08755261124670505,2.674088276594877
1788880994321818000,3.164818115234375,-4.415834913045168,-0.5629442641288042,4.344467128401995
1788880994331849200,3.17484912109375,-1.7422200991809367,-0.741170248991251,5.253446597659588
1788880994341879000,3.184879150390625,-0.043072175941988824,-0.18832126241922378,3.9475896247863766
1788880994351909000,3.1949091796875,0.6486391186796129,0.4437123200267553,2.361770632150769
1788880994361939200,3.204939208984375,2.533756261318922,1.9944348648399113,0.3179068427532911
1788880994371969300,3.21496923828125,4.167302050769329,3.9961347522467374,-2.9270886396735905
1788880994381999400,3.224999267578125,4.893176530951261,4.4103252097129815,-5.01211095341146
1788880994392030200,3.2350302734375,4.888883802193403,4.154458935809135,-5.240117745009065
1788880994402060300,3.245060302734375,5.066050048869848,4.179831277474761,-4.699285943967103
1788880994412090400,3.25509033203125,3.8276775894656776,4.140596999195218,-4.077875462344289
1788880994422120200,3.2651201171875,1.9630293804898857,3.9697587864965196,-2.929060816529393
1788880994432150000,3.27514990234375,-0.5110317060619592,3.9726638602882622,-0.745582804736495
1788880994442180000,3.28518017578125,-3.7508559233307834,3.2191502625524997,3.7766429832771418
1788880994452210200,3.295210205078125,-5.224375401476025,1.873068246796727,6.442721848678588
1788880994462241300,3.3052412109375,-5.353193504568934,0.8952350215435028,5.92389378965199
1788880994472271000,3.31527099609375,-3.994398722234368,0.4075836065471172,3.7196822019100186
1788880994482301200,3.32530126953125,-2.6444427876546976,0.05651859055757522,2.623358206310868
1788880994492331300,3.335331298828125,-1.084459954804182,-0.37967911605536936,2.3569682003051042
1788880994502361300,3.345361328125,1.277635379256308,-1.7851906413793563,2.819457993777096
1788880994512391200,3.35539111328125,0.7599480146974325,-3.165626177635789,3.3067125184103845
1788880994522422000,3.365422119140625,-0.06161883630603551,-3.8709097052097317,3.0338080159440635
1788880994532452000,3.3754521484375,-0.5000158065289259,-4.140131719771027,1.4723545260190962
1788880994542482200,3.385482177734375,-0.5898796173274516,-3.9595600485652684,-1.2998434116721151
1788880994552512300,3.39551220703125,-1.1186930637955665,-3.312711174303293,-3.8758509610041973
1788880994562542000,3.4055419921875,-1.8423460685357451,-1.2184043148696422,-6.206662683528662
1788880994572572200,3.415572265625,-2.824152289073169,0.3632265784263611,-6.411109735840559
1788880994582602200,3.425602294921875,-2.548547003215551,1.0390402658879756,-6.239943606361747
1788880994592633300,3.43563330078125,-1.2970897290498018,1.6901573189884422,-8.319116609549521
1788880994602663200,3.4456630859375,0.12179302676171064,2.3631179551064965,-9.619554479983448
1788880994612693000,3.45569287109375,1.1714195685938,2.1558324644982814,-7.494814488363265
1788880994622723000,3.46572314453125,5.728997240495682,1.7826093927145004,-2.0937983253896237
1788880994632753200,3.475753173828125,9.280480930560827,2.9618051482677457,4.639154423609376
1788880994642783200,3.485783203125,3.951921224249899,2.97074950222373,7.841397390502691
1788880994652814000,3.49581396484375,1.2196633750200272,1.7166922746926545,9.613587096011639
1788880994662844200,3.50584423828125,-1.1891153842821716,0.031688100683689116,7.665272761833667
1788880994672874200,3.515874267578125,-2.4674729403331876,-0.5242021532803773,5.387954436826706
1788880994682904300,3.525904296875,-2.4251582316949962,0.11078794088363647,5.112743995505571
1788880994692934400,3.535934326171875,-2.157405705164373,-0.2425087796807289,4.359877171240747
1788880994702964000,3.5459638671875,-0.031045418865978718,-0.9228829069256782,2.259065167696774
1788880994712994000,3.555994140625,3.5463138862118124,-2.071334564647078,0.832257171843946
1788880994723025200,3.566025146484375,-2.3636034005358812,1.412249893668294,2.468609835408628
1788880994733055200,3.57605517578125,-1.0006710800051688,2.8395062178105115,-0.6752975546330213
1788880994743085000,3.5860849609375,-0.4963832952454686,3.9150288329213856,-1.8063700613997875
1788880994753115100,3.596115234375,0.01712181519269943,5.283372949367761,-1.260794426831603
1788880994763145200,3.606145263671875,0.6277005216777324,5.889543776282668,-0.9319365664750338
1788880994773175300,3.61617529296875,0.9034998688027263,5.438851680371165,-0.8947656504660845
1788880994783206100,3.6262060546875,1.1036790345370768,3.533213873881101,-0.6472040443751961
1788880994793236200,3.636236328125,2.419617548702657,-1.5083862088650464,0.15893391295857726
1788880994803266300,3.646266357421875,6.549130551564693,-13.582626336061955,-2.87767637398988
1788880994813296000,3.656296142578125,7.391542329937219,-24.72095047175884,-6.212815360939502
1788880994823326200,3.666326171875,1.6948247262775897,-18.755329417967797,-4.209005349510908
1788880994833356000,3.67635595703125,0.4480997413307428,-10.440465789687632,-1.792948854290694
1788880994843387100,3.68638720703125,1.2761813810557125,-4.7101568820714945,-0.9662173140004277
1788880994853417200,3.696417236328125,1.1559797151386737,0.03946984060108662,-1.3609148432284592
1788880994863447300,3.706447265625,0.11596680482625961,5.810331123358011,-2.0514330556079745
1788880994873477000,3.71647705078125,-1.0432277807056902,9.30389804650545,-2.2316990218654276
1788880994883507200,3.726507080078125,-0.9874719912141561,7.477662862554192,-1.2245596226289868
1788880994893537300,3.736537353515625,1.1101795024722814,5.525820354250073,2.293967700382322
1788880994903568400,3.746568359375,5.765247534528374,6.431485584393143,10.9259135571599
1788880994913598200,3.75659814453125,2.299929385265708,-3.3204052359372374,1.3468614756956696
1788880994923628000,3.7666279296875,-2.4849773251026868,-0.36556525050699706,-3.6434669772356747
1788880994933658000,3.776658203125,-4.118130900365114,2.277387298589945,-0.8088973390445112
1788880994943688200,3.786688232421875,-1.1177730263411998,-0.16389643073678015,0.7111791614837945
1788880994953718300,3.79671826171875,-0.08901391597092151,-1.7182365815252065,-0.8070515650473534
1788880994963749000,3.8067490234375,-0.23696400503516196,-0.4111129497170448,-1.5611580141097305
1788880994973779200,3.816779296875,-0.6749193689703941,2.4465309823304415,-2.759960387408733
1788880994983809300,3.826809326171875,-0.7028782199978828,4.191814560735225,-3.099571112447977
1788880994993839400,3.83683935546875,-0.4837871407836675,5.08909774698019,-3.443669796556234
1788880995003869200,3.846869140625,-0.9758896899700165,5.239345591592788,-3.8257586041018365
1788880995013899000,3.85689892578125,-2.0454934364259243,4.400624484431743,-3.5006261940091847
1788880995023929000,3.86692919921875,-2.9773025771290063,4.149111729562282,-2.254665471433103
1788880995033960200,3.876960205078125,-2.640346165990829,4.107634640792012,-0.8261582704469561
1788880995043990000,3.886989990234375,-2.2216969755500555,3.482033137220144,-0.6901663302019239
1788880995054020000,3.89702001953125,-2.0526170046955348,3.4582027642995117,-0.7388876910120248
1788880995064050200,3.90705029296875,-1.0041390483766794,4.058031528711319,-0.17191227167099712
1788880995074080300,3.917080322265625,0.676616820538044,4.282808252346515,-0.8831649367824196
1788880995084110300,3.9271103515625,1.3029869703948498,2.420059739512205,-2.817932683905959
1788880995094141200,3.93714111328125,3.7483015626728533,0.5180903924018144,-4.216990210784972
1788880995104171300,3.947171142578125,3.8379128600150345,-0.6910398981660604,-4.496495718951523
1788880995114201000,3.957201171875,4.554300549927354,-0.8322147940069436,-3.497359885689616
1788880995124231200,3.967231201171875,4.34768316783905,-0.35545828251242634,-1.7130431045353411
1788880995134261200,3.97726123046875,2.5950451350182293,0.29140929645001884,-0.0762850750401616
1788880995144291000,3.987291015625,2.2034745056390763,-0.7162941664099692,1.1578504774466156
1788880995154322200,3.997322265625,0.8559551505565642,-2.0890204434633253,1.2209274036064743
1788880995164352300,4.007352294921875,0.4581614088788628,-1.7976000410974025,2.2292633191511033
1788880995174382300,4.01738232421875,0.3717494920998812,-1.2198504220247268,2.1755583247095345
1788880995184412200,4.027412109375,0.4049126337721944,-1.9944179137051103,0.9981059056922793
1788880995194442200,4.037442138671875,1.330306646735966,-3.3448744912832975,-0.047559623554348944
1788880995204472300,4.047472412109375,1.8557041472807525,-4.6315661604374645,-1.007559232083708
1788880995214503200,4.057503173828125,1.828029958413541,-4.77191571137011,-0.9776274735480547
1788880995224533000,4.067532958984375,1.7236416554391383,-3.828068342348933,0.8473030575454235
1788880995234563000,4.07756298828125,1.8404720913574097,-2.027390208980441,4.391404528404772
1788880995244593200,4.08759326171875,0.5865709311708808,-0.7572153748631477,-0.2628216459996998
1788880995254623200,4.097623291015625,-3.4146552989959713,1.9394062205791471,-2.079887435067445
1788880995264653300,4.1076533203125,-5.733178910094499,2.9722306806921956,0.5812409683197737
1788880995274684200,4.11768408203125,-3.411080363118648,0.4217120851427316,0.4059848661135882
1788880995284714200,4.12771435546875,-1.9868411948405205,-0.9192173701554536,-0.13099332824014126
1788880995294744300,4.137744384765625,-3.3923604650795456,1.041204750445485,1.2812635066255926
1788880995304774400,4.1477744140625,-3.656918579483032,4.439308143091202,2.558510178825259
1788880995314804000,4.157803955078125,-2.4963351699411866,3.618790801140666,1.6714420971244572
1788880995324834000,4.167833984375,-0.9187563285149634,0.9968535675436258,1.296485041154921
1788880995334865200,4.177865234375,0.48823126071095463,0.2433060675382614,1.9804761898532508
1788880995344895200,4.187895263671875,2.026567786681652,0.07666822913885116,1.1568242031387983
1788880995354924800,4.1979248046875,3.002600099992752,-0.21686931151151656,-0.07035429675169289
1788880995364954600,4.20795458984375,3.3000843324422835,-0.568319527426362,-1.3086616550303996
1788880995374984700,4.217984619140625,3.374980291211605,-0.9618640872269868,-2.6046087899163366
1788880995385014800,4.228014892578125,1.3755647153496742,-0.9850146611899137,-2.136551863836497
1788880995395045600,4.238045654296875,-0.1244809506714344,-0.8751865052491425,-1.3347462366186083
1788880995405075700,4.24807568359375,-0.37113515959382054,-1.6583172426134347,-1.5983049647212026
1788880995415105800,4.258105712890625,-0.7259697572499513,-2.183953812611103,-1.8993245316900311
1788880995425135600,4.268135498046875,-0.7920411890506744,-1.251952364206314,-0.7367493638090788
1788880995435165700,4.278165771484375,-0.103427641248703,-0.4065466647148132,0.7182248422116041
1788880995445195800,4.28819580078125,3.256289614379406,-2.9664234557181595,-1.377057730386406
1788880995455226600,4.2982265625,7.72194566617012,-6.591615356072783,-8.280759114104509
1788880995465256700,4.308256591796875,2.4371932451426983,-10.853806936848162,-14.97508139593601
1788880995475286800,4.318286865234375,-3.7549604360401627,-9.589389643344283,-9.911045609498023
1788880995485316900,4.32831689453125,-3.9474411562263962,2.663522458916902,0.6541496987946331
1788880995495346700,4.3383466796875,-1.9173847967766224,7.119496490126847,3.342284182529151
1788880995505376800,4.348376708984375,0.44608357920274133,6.166284495911002,2.797247331012785
1788880995515408000,4.358407958984375,2.919646799235046,3.726448042783141,2.308565403924882
1788880995525438000,4.36843798828125,4.641708492006361,1.554472837257385,2.3221022002376617
1788880995535467500,4.378467529296875,-0.6937339595556259,0.41226211975216864,5.750187912562489
1788880995545497600,4.38849755859375,1.9559309466615318,-0.002701660174131393,4.3787689187154175
1788880995555527700,4.398527587890625,5.756186860716342,1.071346790730953,4.567469243580103
1788880995565557800,4.408557861328125,4.929783967858553,-1.9527514398425816,4.344355192460119
1788880995575588600,4.418588623046875,0.5060846050485969,-5.641431185245514,0.05916121402084827
1788880995585618700,4.42861865234375,-5.682979585686326,-8.522327982586622,-5.825165704396367
1788880995595648800,4.438648681640625,-9.169043585857748,-10.083581273764372,-9.270932180970906
1788880995605678800,4.448678955078125,-8.194633320790528,-6.779578306573629,-6.954535060507059
1788880995615709000,4.458708984375,-4.522715325096249,-1.5689263100236652,-1.7931383855134249
1788880995625738500,4.468738525390625,-3.8502556242376564,0.6442933445602655,0.8335859362296759
1788880995635769900,4.478769775390625,-3.648950961604714,1.7311480855464934,1.8049661859512327
1788880995645799700,4.488799560546875,-3.080753599253297,2.6406068627536294,2.4534166501909493
1788880995655829800,4.498829833984375,-2.8675656066030264,2.5538240668356416,1.9918724670059977
1788880995665859600,4.508859619140625,-1.9757921236902474,2.0148434466183183,1.5753722712926566
1788880995675889700,4.5188896484375,-0.4968763394594192,1.8828513896644115,1.9972401315189896
1788880995685919700,4.528919677734375,1.9098925413250922,2.4478660303264856,3.257905817404389
1788880995695950800,4.538950927734375,1.55347505839169,1.5188257698148488,3.0629730278909206
1788880995705980700,4.548980712890625,0.3080208240330219,-0.1210036299496889,1.5072800011888146
1788880995716010800,4.5590107421875,-0.02814531351029873,-1.549516091632843,0.5376319820873439
1788880995726040800,4.569040771484375,-1.3478835122197865,-3.227631675171852,-0.8023086083039641
1788880995736070700,4.579070556640625,-0.02058569191098213,-2.775388258165121,-0.6517452680014073
1788880995746100700,4.589100830078125,1.0764210252553224,-2.1058207716166972,-0.14412124235793017
1788880995756131600,4.599131591796875,2.0453250941216945,-1.9300719905227421,0.5799229810563847
1788880995766161700,4.60916162109375,2.3447855950802565,-2.3233698820859194,0.9546768791366368
1788880995776191700,4.619191650390625,1.6626292605936526,-2.65185189486742,0.7249815499301999
1788880995786221800,4.629221923828125,0.3449596848517656,-1.3936784641891717,-0.8229948379799723
1788880995796251600,4.639251708984375,0.35092180812656876,1.7280495350092648,-2.3256264288410544
1788880995806281700,4.64928173828125,1.064351232755184,4.80968225518465,-3.2521780874073505
1788880995816312800,4.659312744140625,1.5779636029601096,6.327081791588664,-3.2251047870427367
1788880995826343000,4.669343017578125,1.9101187512964009,5.183474066767096,-1.968146285112202
1788880995836372700,4.679372802734375,2.1819348740041256,2.2631840011924504,-0.9744865451738238
1788880995846402600,4.689402587890625,2.3645804288744925,1.1394219635695217,-0.6304322847291827
1788880995856432600,4.6994326171875,2.334515545478463,2.155635480621457,-1.009174996717274
1788880995866463700,4.709463623046875,2.1886521995604036,4.175407615813612,-1.5592865211494267
1788880995876493600,4.71949365234375,2.0834961270838974,5.601221924453974,-1.5624270111322403
1788880995886523600,4.729523681640625,1.5788929927647113,5.116501302212477,-0.9723059862643479
1788880995896553700,4.7395537109375,0.602165682926774,3.7372242883414026,-0.43394539764150974
1788880995906583800,4.749583740234375,-0.30230770708322524,3.1274037067472933,-0.5158532079342752
1788880995916614000,4.75961376953125,-0.6794640266627073,3.568301553875208,-0.8844378793276846
1788880995926644700,4.769644775390625,-0.6023831250697373,4.139257275024057,-1.4356716857880354
1788880995936674800,4.7796748046875,-0.12597849575281142,4.574655940213799,-1.8959813587419687
1788880995946704600,4.78970458984375,0.43484863009154795,4.534947030159831,-1.9937636875800788
1788880995956734700,4.799734619140625,1.0066688591152428,3.8201241053462027,-1.673939759159088
1788880995966764800,4.809764892578125,1.108238889798522,2.813501423460245,-1.237046325366944
1788880995976794600,4.819794677734375,0.7258095982521772,2.0136364089161156,-1.0228471098475158
1788880995986825700,4.82982568359375,0.6249754806280136,1.5511176816105843,-1.0615503499902785
1788880995996855800,4.839855712890625,0.43153672906458374,1.467267432013154,-1.333215373789519
1788880996006886000,4.849885986328125,0.7967004130333661,1.8919950655847786,-1.3353814657822252
1788880996016915700,4.859915771484375,0.8844766039028763,2.0131068320840595,-1.2766576202653348
1788880996026945800,4.86994580078125,0.9663970544815063,2.0217811369270087,-1.0814620150972156
1788880996036975600,4.8799755859375,0.82638418815732,1.8991496135145425,-0.9424660707306116
1788880996047006700,4.8900068359375,0.5361918662816286,1.1969523615181445,-1.0134479978613555
1788880996057036500,4.90003662109375,0.2699456526607275,-0.014127894073724745,-1.0447215263947844
1788880996067066600,4.910066650390625,-0.016693945169448852,-1.4011960002124308,-0.6459175116959959
1788880996077096700,4.9200966796875,0.08909341094791888,-2.631953600698709,0.021675715637393296
1788880996087126800,4.930126708984375,0.07227788522541523,-3.177344087958336,0.6354431716937572
1788880996097156900,4.940156982421875,-0.04408727126866579,-3.483051958873868,1.1728211790200322
1788880996107187700,4.950187744140625,0.016326573161780832,-5.2142982440978285,1.9323713535062967
1788880996117217800,4.9602177734375,-0.38783261189460755,-7.79911833769977,1.9661279310271143
1788880996127248000,4.970247802734375,-0.8782970384851098,-9.904569106960295,2.477272449813783
1788880996137278000,4.98027783203125,-1.5801763105735183,-8.1519977096349,2.84183056910485
1788880996147307500,4.9903076171875,-2.1562200025111435,-4.9493940927356475,2.9149218165397643
1788880996157338600,5.000338623046875,-1.7985615796059369,-2.7763147253602742,2.6032003844231366
1788880996167368700,5.01036865234375,-1.11778208643049,-1.6774036358773707,2.155204395727813
1788880996177398800,5.020398681640625,-0.6400441626831889,-1.2726263189226388,1.8381842726811766
1788880996187428600,5.0304287109375,-0.7490671397209167,-0.8795096291452645,1.413448748064041
1788880996197458700,5.040458740234375,-1.1576730750530957,-0.722078010508418,0.9379723395079373
1788880996207488800,5.05048876953125,-1.356189568272233,-0.5228565838903189,0.6115760469593108
1788880996217519900,5.060519775390625,-1.352436937740445,0.3895072671085596,0.40672932780534027
1788880996227549700,5.0705498046875,-1.1735399217486382,0.8465361648261547,-0.20465558049604296
1788880996237579800,5.080579833984375,-0.7496610139608383,1.0848106679379939,-0.6462282581456005
1788880996247609600,5.090609619140625,-0.6941244201779365,1.3837193802326917,-0.8826911817908286
1788880996257639700,5.1006396484375,-0.49516427484452724,1.138506017768383,-1.1338979394510387
1788880996267670500,5.11067041015625,0.14332652091681958,0.14659166019260883,-1.181228576555103
1788880996277700600,5.12070068359375,0.7610562682002783,-0.7578045729279518,-1.0842822601497173
1788880996287730700,5.130730712890625,1.3137000875890255,-1.3602017265230417,-0.7364552031680941
1788880996297760800,5.1407607421875,1.7007739900708199,-1.2970382911235094,-0.3867382407866418
1788880996307790800,5.150790771484375,1.7941583762109279,-0.28846096803843974,-0.09585355273261666
1788880996317820700,5.160820556640625,1.8200059341728687,0.7792845833301544,0.3677304657168686
1788880996327851800,5.170851806640625,1.747463845053315,1.4892331801056862,0.9018319355905056
1788880996337881900,5.1808818359375,1.5293898339271546,1.9458646029382942,1.378086635042727
1788880996347912000,5.190911865234375,1.1065560512781143,2.2066104655772447,1.4886865060083567
1788880996357938200,5.200938232421875,0.6027133799374104,2.1487556579798457,1.4015319541685283
1788880996367968000,5.210968017578125,-0.4407850344032049,2.2898861301571127,1.0873317108482121
1788880996377997800,5.220997802734375,-1.526626798954606,2.2681916002213955,0.9003995646998286
1788880996388029000,5.23102880859375,-1.6054858161360024,2.0699340501993895,0.536780479824543
1788880996398059000,5.24105908203125,-1.4343740471929312,1.20160457123816,0.6122469319581985
1788880996408088800,5.2510888671875,-1.1844500228196382,0.367656085306406,1.2296239202812314
1788880996418119000,5.261118896484375,-0.7163011806726455,-0.3206307147592306,1.7077373993426561
1788880996428149000,5.27114892578125,-0.49077159284353256,-0.8169926749557256,1.7460913876563309
1788880996438180000,5.28118017578125,0.48330140309333797,-1.6992735223799942,2.0474898709401486
1788880996448210000,5.2912099609375,1.243011517381668,-3.2397698567330835,2.6661756037741897
1788880996458240000,5.301239990234375,0.5073462955474853,-4.013994234064221,2.567829211312532
1788880996468270000,5.31127001953125,-1.1342582971960304,-3.8542426480472085,1.6140420475572346
1788880996478300200,5.321300048828125,-2.591387197032571,-2.669892578470707,0.43906727069988843
1788880996488330000,5.331330078125,-3.86048767991662,-1.7898586331903934,-0.926105595299229
1788880996498360800,5.34136083984375,-3.729758190244436,-1.2277373758822678,-1.3793389731913803
1788880996508391000,5.351390869140625,-2.51740367693305,-0.7016875489085912,-1.47506597693488
1788880996518421000,5.3614208984375,-1.7133499785274267,-0.20713000778555868,-1.1962836684763432
1788880996528451000,5.371451171875,-1.2120458857536316,0.173341135430336,-0.5892592934720218
1788880996538481000,5.38148095703125,-0.5496738636672497,-0.2960264348566532,-0.04416735076755285
1788880996548512000,5.391511962890625,0.5001560917824507,-1.3143681961089373,0.5147627092838287
1788880996558542000,5.4015419921875,1.2733429427593945,-2.303814117744565,0.8374071019530296
1788880996568572200,5.411572265625,1.5755454359024763,-2.252391973543167,0.6780743258699774
1788880996578602000,5.42160205078125,1.9056997658103703,-1.6720067452698946,0.4631926810443401
1788880996588631800,5.4316318359375,1.8025573712438343,-0.9398936629593372,0.40400194866806266
1788880996598662000,5.441661865234375,1.4692109672963618,-0.41054070278704163,0.23384178136140107
1788880996608693000,5.45169287109375,1.190884439781308,-0.5444575903236866,0.30272710153907534
1788880996618722800,5.461722900390625,0.7295756727874279,-0.8501543553233146,0.46105566901564593
1788880996628753000,5.4717529296875,-0.5355535683780909,-1.0434306098014117,0.5309525043234229
1788880996638783000,5.481782958984375,-1.8170482534110546,-1.0466355433225631,0.519659833675623
1788880996648813000,5.49181298828125,-1.9012305114418266,-0.7066776122808456,0.256990309497714
1788880996658844000,5.501843994140625,-1.3020295235395432,0.653874827376008,-0.7231526540026069
1788880996668874000,5.5118740234375,0.6276631122767925,1.960128690612316,-1.2176245626688003
1788880996678904000,5.521904052734375,1.9829951869368552,2.398429214723408,-0.6809943049699068
1788880996688934100,5.53193408203125,2.604437817263603,2.5024825866550207,0.010372048671543597
1788880996698964000,5.5419638671875,3.1569524573147296,2.011541190202534,0.20098522142022848
1788880996708993800,5.551993896484375,3.499842934677005,1.0316036861464382,-0.416023225851357
1788880996719025000,5.56202490234375,3.5767478951811786,0.7368707982316612,-0.6196829271778463
1788880996729055000,5.572054931640625,3.7667870674341914,0.8978937193587422,-0.6655997519612312
1788880996739085000,5.5820849609375,3.752245331862569,0.7695598926514386,-0.37928982447683807
1788880996749115000,5.592114990234375,3.8640602777063844,0.3885883986979723,0.3024269495487213
1788880996759145000,5.60214501953125,3.479712000796199,0.425264224666357,0.6139981595396995
1788880996769176000,5.612176025390625,2.8366455676823854,1.1373837357401848,0.3963108096435666
1788880996779206100,5.6222060546875,1.9934780025064944,1.7734724387958645,-0.004012450511753559
1788880996789236000,5.632236083984375,1.378653329014778,1.7031944952160119,-0.5626522954449057
1788880996799265800,5.642265869140625,0.9360141911774873,1.5614470601841806,-0.9345287749253213
1788880996809296000,5.6522958984375,0.970584569299221,1.2869374606087802,-1.1490407096557318
1788880996819327000,5.662326904296875,1.0155167669594287,0.741382722698152,-1.1978500410102306
1788880996829356800,5.672356689453125,0.5459416914016008,0.139925772562623,-1.2850140913307666
1788880996839387000,5.682386962890625,0.026186580657958983,-0.29556173995435236,-1.3167628361605106
1788880996849417000,5.6924169921875,0.08181319081187248,-0.5289484710246324,-1.1002174228411168
1788880996859447000,5.702447021484375,0.24110300453603267,-0.5876543424934149,-0.804608775005117
1788880996869477000,5.71247705078125,0.35925299862027166,-0.43697453620433807,-0.7756235035393386
1788880996879508000,5.722508056640625,0.33795185191631316,-0.4019377096146345,-0.7073456477355211
1788880996889538000,5.7325380859375,-0.12241700387895106,-0.06600947248041629,-0.5129259223107249
1788880996899568000,5.742568115234375,-1.1022200679004193,-0.0189835174113512,-0.40140009560659523
1788880996909598000,5.752597900390625,-1.6527373966544865,-0.4506716376453638,-0.1130071147704497
1788880996919628000,5.7626279296875,-2.061687615379691,-1.0074322447031736,0.021442601001262662
1788880996929659000,5.772658935546875,-2.46104290728569,-1.8622908321946858,0.2095964892306365
1788880996939689000,5.78268896484375,-3.0050545074075456,-2.1304817501425743,0.3732745462426916
1788880996949719000,5.792718994140625,-3.210540839639306,-1.8104536774516105,0.44043216584492473
1788880996959748900,5.802748779296875,-3.122032535102963,-1.5270190131425856,0.4484967778243124
1788880996969779000,5.812779052734375,-3.0144828454881907,-0.9471125082969665,0.21338667529383673
1788880996979810000,5.82281005859375,-2.6744623706042767,-0.0340022228449583,0.25714988397359845
1788880996989840100,5.832840087890625,-1.977637459295988,0.6235375567793846,0.586632013708353
1788880996999870000,5.842869873046875,-1.472209564590454,0.9982593426883221,0.6109877622099593
1788880997009900000,5.852900146484375,-1.5586585985094308,1.1997779403328894,0.1439431915104389
1788880997019929900,5.862929931640625,-1.6779191841840744,0.7274298929303884,-0.23618359524719415
1788880997029961000,5.8729609375,-1.4119710767269134,-0.30773499282896516,-0.45195999695546923
1788880997039990800,5.88299072265625,-1.2935288216978311,-1.2915537222325801,-0.42131329508349297
1788880997050020900,5.893020751953125,-1.3866045802801847,-1.8307360025018453,-0.4260858432475477
1788880997060051000,5.903051025390625,-1.5932640479445457,-2.102275061833858,-0.5542893215734511
1788880997070081000,5.9130810546875,-1.3256108901351689,-1.79020057849586,-0.7790984131082892
1788880997080111000,5.923111083984375,-0.4149398145288229,-1.192768353831768,-0.8654613761790096
1788880997090142000,5.933141845703125,0.47181379439532756,-1.2614461687386036,-1.0405388338826596
1788880997100172000,5.943172119140625,1.1491413935512305,-1.345195296049118,-1.263116440038383
1788880997110202000,5.9532021484375,1.6605886946767567,-0.9268056333273649,-1.4759595647737382
1788880997120232000,5.96323193359375,1.9781021541982888,-0.5114075536370277,-1.6540790205217897
1788880997130262000,5.973261962890625,2.133309082522988,-0.36325463547706605,-1.5722032858677208
1788880997140292900,5.98329296875,1.8416046025186776,0.13594751658141613,-1.438492296166718
1788880997150323000,5.993322998046875,1.553413683593273,0.2729115167289972,-1.2208935013368725
1788880997160353000,6.00335302734375,1.097373212391138,0.5729232218295336,-0.9654121350973844
1788880997170383000,6.013383056640625,0.549322566011548,0.37290976805090903,-0.5616957253724336
1788880997180413000,6.023412841796875,0.05647942759096622,0.2328624149352312,-0.042961043717712165
1788880997190444000,6.033444091796875,-0.3496645015418529,0.7625117277055978,0.09914061157926916
1788880997200474000,6.04347412109375,-0.36691900320351123,1.3751812689900398,0.12585121611133218
1788880997210504000,6.05350390625,-0.28775486559569835,2.1114824506402012,0.15158070065155624
1788880997220534000,6.063533935546875,0.27172610633671285,2.690381239748001,0.0058611471183598034
1788880997230563800,6.073563720703125,1.026267878076434,2.4813117883324622,-0.054836774950474496
1788880997240595000,6.083594970703125,0.8408686405837535,1.8274585882663725,0.21778934896588326
1788880997250624800,6.093624755859375,0.1372562610924244,1.3043617658793925,0.57292965157032
1788880997260654800,6.10365478515625,-0.06490004993379116,0.5415542700976133,0.9501372629456222
1788880997270685000,6.113684814453125,-0.21765783154070376,-0.4991349320411682,0.880219238719344
1788880997280715000,6.123715087890625,-0.4853980831116438,-1.0812415772795676,0.353407487462461
1788880997290745900,6.133745849609375,-0.7703735471218824,-0.9058002546995878,-0.05718377646803856
1788880997300776000,6.14377587890625,-1.1778303124189375,-0.4679898521929979,-0.49973669732660053
1788880997310806000,6.153805908203125,-1.4723165320962666,0.10850070672929286,-0.7093100066110491
1788880997320836000,6.163836181640625,-1.2353308997511863,0.2711976985484362,-0.6740205204345285
1788880997330866000,6.173865966796875,-1.0193833792597056,-0.2311158635288477,-0.48918191249929366
1788880997340896000,6.18389599609375,-0.804354727178812,-1.4202519983381032,-0.058518239942193025
1788880997350926800,6.1939267578125,-0.3742261113464832,-2.8407150090783833,0.7460705151882022
1788880997360957400,6.20395751953125,-1.7799539097696542,-2.2252701578617096,0.5146159212242811
1788880997370987500,6.213987548828125,-3.1393858209639784,-1.0372855311751366,-0.22837694008424878
1788880997381017300,6.224017333984375,-3.7076848901242014,-0.11948095042705535,-0.5473938629712909
1788880997391047400,6.23404736328125,-3.557922198680043,0.32898528612852096,-0.6364714918281883
1788880997401078500,6.24407861328125,-2.5368267548054457,0.30606676735579963,-0.5636695096634328
1788880997411108600,6.254108642578125,-1.1433218936175107,-0.09838789351582526,-0.1380035723283887
1788880997421138400,6.264138427734375,0.08109130627810955,-0.4694236843883991,0.3305491744443774
1788880997431168500,6.27416845703125,1.1579384479910135,-0.6883259630322456,0.7153494329057634
1788880997441198600,6.284198486328125,1.3297861299932001,-0.9914473245859146,0.7284966453790664
1788880997451229700,6.294229736328125,0.706042821508646,-1.706922575828433,0.650663171853125
1788880997461259300,6.30425927734375,0.23723054701685903,-2.47283037571311,-0.15321385481134056
1788880997471289300,6.314289306640625,0.13268062373995781,-2.317857840666175,-1.0302131085708737
1788880997481319400,6.3243193359375,0.3475006015062332,-1.9554291346192358,-1.0753294306263328
1788880997491349500,6.334349609375,1.0130945082485676,-1.9276549925088882,-1.005273605364561
1788880997501380400,6.34438037109375,0.6261199744880199,-1.9834066903471945,-0.9295981866553426
1788880997511410400,6.354410400390625,-0.03077858462333679,-1.9331594351440666,-0.9573638531982898
1788880997521440500,6.3644404296875,-0.2290355501234531,-2.185382091848552,-1.114070664691925
1788880997531470600,6.374470703125,-0.033173955327272416,-1.4033409032866357,-1.4779273577153682
1788880997541500700,6.384500732421875,0.3220762373924255,-0.3371656699746847,-1.7915454172335563
1788880997551531500,6.394531494140625,1.2358709979772566,0.5249132241591811,-1.4404700259804726
1788880997561561600,6.4045615234375,2.8524884489804503,1.5760361420288682,-0.9886227686844765
1788880997571591400,6.41459130859375,4.138465247863531,1.9541990083023904,-0.32291020399853587
1788880997581621500,6.42462158203125,4.7972120651900765,1.0724740411952138,0.7151394434168934
1788880997591651300,6.4346513671875,3.9260114147067067,0.46444852632433176,1.4401251580655574
1788880997601682400,6.444682373046875,2.6393331895560026,0.6085965927571058,1.280649174119532
1788880997611712500,6.45471240234375,2.1280080535054204,0.4096230034202337,0.6292199863299727
1788880997621742600,6.46474267578125,2.248126132792234,0.06713233903050422,0.031855127813667054
1788880997631772400,6.4747724609375,2.666114228975773,0.14531681795120238,-0.25381620950624345
1788880997641802500,6.484802490234375,2.672880654370785,1.339329618886113,-0.9784544258914888
1788880997651833600,6.49483349609375,2.5219851595044136,1.8556132541269064,-1.2140297530472277
1788880997661863700,6.50486376953125,1.915377694737911,1.939731214749813,-1.2939881097726522
1788880997671893200,6.514893310546875,1.6198241380900145,1.5793138485252856,-1.5143192521758377
1788880997681923300,6.52492333984375,1.511260887518525,1.070591588449478,-1.7342298310793935
1788880997691953400,6.534953369140625,1.2031085460603237,0.7570774276971817,-1.757012156251818
1788880997701984500,6.544984619140625,1.05619013813138,0.6145300744593143,-1.5891332317501305
1788880997712014300,6.555014404296875,0.5184416900575161,0.608807020637393,-1.3285232704505323
1788880997722044400,6.56504443359375,-0.21987609211206435,0.8934615821301937,-1.118689775859937
1788880997732074500,6.575074462890625,-0.5262275216281413,0.9625777884542942,-0.7682938182383775
1788880997742104600,6.5851044921875,-0.6106213765829801,0.7637249028876424,-0.7916620535399764
1788880997752135400,6.595135498046875,0.2651286077678203,0.3941267436027527,-0.8212108041074127
1788880997762165500,6.60516552734375,0.4514426220178604,-0.04705810377299785,-0.406303649739176
1788880997772195600,6.615195556640625,0.19610767851173877,-0.8303747190982103,0.1987299898393452
1788880997782225400,6.625225341796875,-0.33269232395291326,-1.710820167788863,0.4309245885156095
1788880997792255500,6.63525537109375,-0.7974497700959443,-2.1419389637023207,0.5723371655698866
1788880997802286300,6.645286376953125,-1.138500172549486,-2.8488153134256597,0.9245340351335704
1788880997812316400,6.65531640625,-1.5162643948942423,-3.2514281458228824,0.7777149959258735
1788880997822346500,6.665346435546875,-2.5556203026026485,-2.590873986813426,0.8031305922113359
1788880997832376600,6.67537646484375,-3.2403052787840365,-0.8479238197922706,0.6530980708498507
1788880997842406400,6.685406494140625,-3.508378707832098,0.39598260060250756,0.48728236248828466
1788880997852437500,6.6954375,-3.6060341954201456,0.777187318789959,0.48461548136658966
1788880997862467600,6.705467529296875,-3.4067332738250493,0.8460328914791345,0.4628007591173052
1788880997872497700,6.71549755859375,-2.9336832156330344,0.623245880356431,0.5728279082288965
1788880997882527500,6.725527587890625,-2.353374559727311,0.11243103191554546,0.6803153097297996
1788880997892557300,6.735557373046875,-2.2116735941857097,-0.3600046937704086,0.6866612446904182
1788880997902588400,6.74558837890625,-2.3425568131148813,-0.30801088716089725,0.4155423104666173
1788880997912618500,6.755618408203125,-2.33416658591032,-0.14510580554902552,-0.010595445631258188
1788880997922648300,6.7656484375,-2.1874755569964646,-0.16144728401899336,-0.42418030188716943
1788880997932678400,6.775678466796875,-1.4710972194343805,-0.1462964766383171,-0.6134886756476015
1788880997942708500,6.78570849609375,-0.7355144151866435,-0.15438509054780006,-1.0249813453972338
1788880997952739600,6.795739501953125,-0.2138040787220001,-0.21701602650582788,-1.6027873708322644
1788880997962769400,6.805769287109375,0.680042703333497,-0.0990969185680151,-2.129792744965106
1788880997972799500,6.815799560546875,0.976455507159233,-0.18553835370242594,-2.6673805956497785
1788880997982829600,6.82582958984375,1.4989116935551166,-0.29421558604240416,-3.0382378150850533
1788880997992859400,6.835859375,1.9291268186271189,0.06195756674110889,-2.751323784227669
1788880998002890500,6.845890380859375,1.8229069163113831,0.14588438870608805,-2.1773004922017454
1788880998012920300,6.85592041015625,1.6533739409923554,-0.015601473757624626,-1.5139263073354958
1788880998022950400,6.865950439453125,1.4801532170712948,-0.21358955918848513,-1.131960687778145
1788880998032980500,6.87598046875,1.4102058206200598,-0.7746130843877792,-0.7184786708422005
1788880998043010600,6.886010498046875,1.4588690215021372,-1.1009101543456314,-0.3563125612542033
1788880998053041400,6.89604150390625,1.2530869211941957,-1.166041090425849,0.4083804560132324
1788880998063071500,6.906071533203125,0.8927835367381572,-1.1708780090630053,0.9267682239264249
1788880998073101600,6.9161015625,0.5724211175262928,-0.6373463019013405,1.27325818708539
1788880998083131600,6.926131591796875,0.527781765332818,-0.1714934617370367,1.352971629139036
1788880998093162500,6.93616259765625,0.34118016631305215,0.2486304774314165,1.4788335127748549
1788880998103192600,6.946192626953125,0.11352058071792125,0.8921142591744661,1.0751949905917049
1788880998113222400,6.956222412109375,-0.17638006473481654,1.3955869281589983,0.10112798600420356
1788880998123252500,6.96625244140625,-0.4591764311403036,2.0624001475632188,-0.17838292898982763
1788880998133282300,6.9762822265625,-0.5031739782989025,2.487069328945875,0.25106515723243356
1788880998143313400,6.9863134765625,-0.19792144993543623,2.4731366651833055,0.7528457814767956
1788880998153343500,6.996343505859375,-0.13211597559452057,1.9082061956733465,1.1332592031560837
1788880998163373600,7.00637353515625,-0.5082657484799623,1.0386509743094443,1.208926876950264
1788880998173403400,7.0164033203125,-0.9827490543454885,0.30989772382080555,1.0759523848302661
1788880998183433500,7.02643359375,-1.3651000199586152,-0.3455494674384594,0.8065928614944219
1788880998193464600,7.036464599609375,-1.4275351410835981,-0.6446294446468352,0.4172825782626867
1788880998203494700,7.04649462890625,-1.904074210435152,-0.8057745308488607,-0.06105692810695618
1788880998213524500,7.0565244140625,-1.4805372479528187,-1.9553882180869577,0.1070657785553485
1788880998223554300,7.06655419921875,-0.6605810470163822,-3.5877088496565817,1.6059074025489388
1788880998233584400,7.07658447265625,-2.4413959575295445,-3.662586688247323,1.9089022151134907
1788880998243615500,7.086615478515625,-3.1103964578449723,-2.45956991212368,1.0095580046854913
1788880998253645300,7.096645263671875,-2.778651643875241,-1.6977642868608236,0.6333757908351719
1788880998263675400,7.10667529296875,-2.871933154162764,-1.290196462404728,-0.2826279510360211
1788880998273705500,7.11670556640625,-1.5562982991188763,-1.0670341882288454,-1.1689250483643263
1788880998283735600,7.126735595703125,0.10974223122298717,-1.307272100368142,-1.4947943213641643
1788880998293766400,7.136766357421875,0.9457897352606057,-1.1771686336398124,-1.0761638356238603
1788880998303796500,7.14679638671875,0.7376888366162776,-1.0499082813829184,-0.1792474368646741
1788880998313826600,7.15682666015625,0.7873352033168077,-1.1567127055883406,0.556212033264339
1788880998323856600,7.166856689453125,0.8618915548682212,-1.43083242906332,1.2349750720508397
1788880998333886500,7.176886474609375,1.4492209031909704,-0.9938719213843346,1.627838809980452
1788880998343917300,7.186917236328125,2.018880739310384,-0.18236498436331747,1.838270343529433
1788880998353947400,7.196947509765625,1.649661057949066,-0.3260404648482799,1.989004364223778
1788880998363977000,7.20697705078125,0.5290840801030398,-1.0701204638063908,1.5347566216573119
1788880998374007000,7.217007080078125,-1.3905980338305235,-1.3729945726007222,0.889617181661725
1788880998384037000,7.227037109375,-3.604618483403325,-0.5403624299645423,-0.960629284735024
1788880998394068000,7.23706787109375,-2.843143697530031,0.12037994509339332,-1.3524606108769774
1788880998404098000,7.24709814453125,-1.618715300065279,-0.5940396596163511,-0.7006383321166038
1788880998414127900,7.2571279296875,-0.47735856904089446,-0.7397504453212023,-0.6244511644929647
1788880998424158000,7.267157958984375,1.3198960196197032,0.34383331117033955,-1.1555384011119603
1788880998434188800,7.277188720703125,2.9512217949330806,1.167515839153528,-1.5435130518257616
1788880998444219000,7.287218994140625,3.9278602574437853,1.7606845611542463,-0.6312649361610412
1788880998454249000,7.2972490234375,3.117792413315177,0.5509890379190444,-0.3277171658888459
1788880998464279000,7.307279052734375,2.7176334038108587,-1.1514236592695117,-0.234500245270133
1788880998474308900,7.317308837890625,2.497169867199659,-1.8512199876040218,0.13314999481737613
1788880998484340000,7.327340087890625,2.5737258681356905,-1.407447461822629,0.339488852225244
1788880998494370000,7.3373701171875,2.704920637232065,-0.06797901898771525,-0.250142051038146
1788880998504400100,7.347400146484375,2.7047277450084684,1.067598251852393,-0.6697887280836701
1788880998514430000,7.357429931640625,3.3413270279347893,1.700952561508119,-0.43537265396565195
1788880998524459800,7.367459716796875,3.0773598651617764,2.4559046676144,0.17246347581297158
1788880998534491000,7.377490966796875,2.0679659649968145,2.528282213822007,0.2963099279731512
1788880998544521000,7.38752099609375,1.6611387297749518,1.9557523752242325,-0.13590192387402056
1788880998554550800,7.39755078125,2.02349437058568,1.3980965728923678,-0.363541927985847
1788880998564580900,7.407580810546875,2.6219781501293182,0.6694020668536425,-0.14631722716540096
1788880998574611000,7.41761083984375,3.094723672416806,0.2951002599224448,-0.07344488317817449
1788880998584642000,7.42764208984375,2.7089760501027107,0.14077332930266856,-0.5161904039993882
1788880998594671900,7.437671875,2.076365544551611,0.14563888951241968,-0.9787672912329435
1788880998604702000,7.447701904296875,1.9390958394557236,0.42032501469850536,-1.122526358348131
1788880998614732000,7.45773193359375,1.6637725854098795,0.6110977619230746,-1.0302379507511854
1788880998624761900,7.467761962890625,0.676519789904356,0.6705693570673465,-1.1258335831999777
1788880998634793000,7.47779296875,-0.5616098006546497,0.5180360318660736,-1.5521955399751661
1788880998644822800,7.48782275390625,-1.1617302414894104,0.7191571546256542,-1.7614061534270644
1788880998654852900,7.497852783203125,-0.9329863677889109,1.1282143408566712,-1.4913237226441503
1788880998664883000,7.507883056640625,-0.6343897901833057,1.2882669556468724,-1.2287065131753683
1788880998674913800,7.517913818359375,-0.9660036712497472,1.074832879281044,-0.8417011458851397
1788880998684944000,7.52794384765625,-1.2807745540648698,0.634165333777666,-0.6717198422767221
1788880998694974000,7.537973876953125,-1.7218302221029995,0.6778378867655992,-0.78195511771366
1788880998705004000,7.548004150390625,-1.9839245767414568,0.16062895337343214,-0.5703980872660875
1788880998715034000,7.5580341796875,-1.8713444917440414,-0.5464069708257914,-0.14056469152066856
1788880998725065000,7.56806494140625,-2.2949673789441585,-1.533678471031785,0.3644944794703275
1788880998735095000,7.578094970703125,-2.6515450208753344,-2.021436853533983,0.8034284061141311
1788880998745124900,7.588124755859375,-2.7933383408755064,-2.431436289051175,1.1693607363678513
1788880998755155000,7.598155029296875,-2.8605039976537228,-2.718559286484122,1.7853724276870488
1788880998765184800,7.608184814453125,-2.9864965219318864,-2.8633523728221655,2.3243629847764966
1788880998775215900,7.6182158203125,-3.575433305451274,-2.6450328625023363,2.3913489010736346
1788880998785246000,7.628245849609375,-4.259588120278716,-1.6407254718214273,1.3376669463708997
1788880998795276000,7.638276123046875,-3.8084529567748304,-0.5782908863425255,0.10459058408085256
1788880998805305900,7.648305908203125,-2.6387194415718316,0.4850818567693233,-0.9637538464963435
1788880998815336000,7.6583359375,-0.6745236476510763,0.9034580754876136,-1.1091731749739497
1788880998825367000,7.668366943359375,0.06269231075644492,0.6407505573868751,-3.897655381055176
1788880998835397000,7.678397216796875,0.06924889279305935,0.038892917495965955,-2.9739339774787426
1788880998845427000,7.688427001953125,0.017221183913946152,-0.9084878863483666,-2.076006794241816
1788880998855456800,7.698456787109375,-0.3947703022032976,-2.0611253053218124,-0.667062225729227
1788880998865488100,7.708488037109375,-0.17788813121020794,-2.329275306737423,0.13911913235485554
1788880998875518000,7.71851806640625,-0.8205366311728954,-1.3214923489004373,0.3983835973296314
1788880998885547800,7.7285478515625,-1.3827315382391214,-0.020568156254291533,4.177867868447303
1788880998895577900,7.738577880859375,1.7438859865665435,1.1847025362759829,8.699621655035019
1788880998905608000,7.74860791015625,2.4450299301177263,-0.2556149294912815,5.51491609839797
1788880998915639000,7.75863916015625,2.6266005492329594,-2.3140409127265213,3.152997289948165
1788880998925668900,7.7686689453125,1.0303104314655065,-3.044674570134282,2.169321330016106
1788880998935699000,7.778698974609375,-0.23129998792409895,-3.5074896500378845,0.1260478346619755
1788880998945729000,7.78872900390625,-2.1684283266991375,-3.201546216800809,-1.9887216017596423
1788880998955759000,7.798759033203125,-2.0258692830234764,-0.05208265393674373,-4.420485661460459
1788880998965790000,7.8087900390625,0.17287994765937328,3.314048560386896,-4.669675526340305
1788880998975819800,7.81881982421875,2.3702310019820927,4.218907734844088,-2.5871117116704583
1788880998985849900,7.828849853515625,3.6045460026890037,4.9558489679634565,-1.21612862502262
1788880998995880000,7.8388798828125,3.538296876233816,4.560694634878635,0.03173354726061225
1788880999005910800,7.848910888671875,3.095689887100458,3.435790441483259,1.129164188927412
1788880999015940900,7.85894091796875,2.2712971650213003,2.0883657789468764,1.864862728509307
1788880999025971000,7.868970947265625,1.5430273141354323,1.2117343355864285,1.9718805032044648
1788880999036001000,7.8790009765625,0.9966863942831754,1.1366788023412226,1.2760085087068378
1788880999046031000,7.889031005859375,0.6565408317148685,1.4817951390594244,0.485306313174963
1788880999056062000,7.89906201171875,0.4604746542572975,1.5499305176526308,0.03800400583222508
1788880999066092000,7.909092041015625,0.4881324765115976,1.4589695592671632,-0.3464050613544881
1788880999076122000,7.9191220703125,1.0384767867863178,1.7601894711136816,-0.6014755087055266
1788880999086152000,7.92915185546875,1.2095096452742815,2.46488555418849,-0.8357312776952981
1788880999096181800,7.939181640625,1.403527073508501,2.8748464112609624,-0.8498140174530446
1788880999106212900,7.949212890625,1.5931395447820424,2.682863703724742,-0.8556282566897571
1788880999116243000,7.959242919921875,1.4990946489065884,2.5939088244646786,-0.6829724731750786
1788880999126273000,7.96927294921875,0.49581718579530715,2.264249584597349,-0.4581941421046853
1788880999136302800,7.979302734375,-2.30400934805572,1.3488444662064314,-0.07942775698006152
1788880999146334000,7.989333984375,3.582850303709507,-5.325773582723737,3.827473299065232
1788880999156364000,7.999364013671875,-4.8333314263194795,-11.910835279369353,5.547968473172188
1788880999166394000,8.00939404296875,-16.196858402109147,-8.62802356876731,1.9948263483755289
1788880999176424000,8.019423828125,-12.51441492074728,-5.782434231650829,1.1645698488295078
1788880999186453800,8.029453857421874,-5.952682661762833,-2.95579158706665,1.7040746390514074
1788880999196485000,8.039485107421875,-1.8447282874971627,-0.9743605807065964,1.4874398669481277
1788880999206515000,8.049514892578125,0.7115507712751626,-0.12277823840677737,0.6899909736350178
1788880999216544800,8.059544677734374,2.8675393031179905,-0.8306687336087226,-0.013529635919630526
1788880999226574800,8.069574951171875,4.354752960094809,-1.6555495314657687,0.02279869178533554
1788880999236605000,8.07960498046875,4.74455657980144,-1.9438450798094271,0.10328764825612306
1788880999246636000,8.089635986328124,3.534684530955553,-1.9818185443729162,0.31046675588041545
1788880999256665900,8.099665771484375,1.5881716932415961,-1.5067945557594298,0.5799781087771058
1788880999266696000,8.109696044921876,-0.7045552132993936,-0.342094358548522,0.9313248643174767
1788880999276726000,8.11972607421875,-3.039960985615849,1.377864808985591,0.9590376316294074
1788880999286756000,8.129756103515625,-3.0429934851795433,1.5295111222192643,0.2351315289109945
1788880999296787000,8.139786865234376,-2.034882026040554,0.7984066324293613,-0.17848112866729496
1788880999306816800,8.149816650390624,-0.910229177057743,0.12337795786559581,-0.1496083776652813
1788880999316846800,8.159846923828125,0.3202373315274715,-0.22895897775590418,0.15004355421215296
1788880999326877000,8.169876953125,1.7414800944685935,-0.19821838705539702,0.6292424904227256
1788880999336907800,8.17990771484375,2.8802696053534746,-0.33485037876963614,1.1278189117982982
1788880999346937900,8.189937744140625,3.331276758563518,-0.46085868513882156,1.0747104219451546
1788880999356969000,8.199968994140624,2.6916946604341265,-0.6352344243139029,1.1289812335759402
1788880999366998800,8.209998779296875,2.3397604603946207,-0.8371887830272317,1.1063584828794002
1788880999377028900,8.22002880859375,2.4494722964793443,-1.1480898386716842,1.1190437769293784
1788880999387060000,8.23006005859375,2.997029021862149,-1.6247960812836884,1.0937222886681557
1788880999397090000,8.240090087890625,3.0956103921234606,-2.009005241984129,1.1499153005331755
1788880999407120000,8.250119873046875,2.3659879575848577,-1.2118988784983753,0.8769958927586674
1788880999417150000,8.26014990234375,2.0766145508766174,0.6724582395538687,0.20958704554885624
1788880999427180000,8.270179931640625,2.086255654925108,1.6767498481437564,-0.2472971830010414
1788880999437211100,8.280211181640626,1.8119956461966036,1.9115745030626654,-0.2790188936933875
1788880999447240700,8.29024072265625,2.002044755321741,1.7866884787216781,-0.2589984344497323
1788880999457270800,8.300270751953125,1.8091981244325637,1.608390305405855,-0.3384700305715203
1788880999467300900,8.31030078125,2.126249811661243,1.5258391557082533,-0.688162881425023
1788880999477331000,8.3203310546875,2.1720207982331514,1.4423890113443136,-0.9352323931500315
1788880999487361800,8.33036181640625,1.5936895798802375,1.200429389978945,-1.0183148732453584
1788880999497391900,8.340391845703126,0.911920783406496,1.2162576582297682,-0.7664806313365697
1788880999507422000,8.350421875,0.8658236336201429,1.5133467538818717,-0.38340368953645226
1788880999517452000,8.3604521484375,1.109816514378786,2.0737606227502225,0.08069178556650876
1788880999527483000,8.37048291015625,0.8271990116715431,2.3299372777774927,0.2974156972579658
1788880999537513000,8.380512939453125,0.2535936527967453,2.25196614934653,0.022680326102674005
1788880999547543000,8.39054296875,-0.5469879855841397,2.04316996191442,-0.5722321708254515
1788880999557572900,8.40057275390625,-0.9921358913719653,1.5319278279721735,-1.198203969014436
1788880999567603000,8.41060302734375,-1.216871698474884,1.0042173743098974,-1.4650333893507719
1788880999577633800,8.4206337890625,-1.8404899192750452,0.3264198195546865,-1.671799678390473
1788880999587664000,8.430663818359376,-1.8835130684435366,-0.11059154152870178,-1.3848421006523073
1788880999597694000,8.44069384765625,-1.2296902635157108,0.08799743240475653,-0.8063681128278374
1788880999607724000,8.45072412109375,-0.6045289049267768,0.34852819098830223,-0.3731539886029437
1788880999617755000,8.4607548828125,-0.13155366553664208,0.19967676917016505,-0.023268647384643553
1788880999627785000,8.470784912109375,-0.15550094283521174,-0.4220195436567068,0.41871768909972157
1788880999637815000,8.48081494140625,-0.5154577058106661,-1.3991700473427773,0.9586714286655187
1788880999647845000,8.49084521484375,-1.2642565499842167,-2.4452070402503012,1.4185152376733718
1788880999657875000,8.500875,-1.9187281742095945,-3.020447891372442,1.6239172526225447
1788880999667906000,8.510906005859376,-2.361106615284085,-3.4479309611320494,1.6540823815226553
1788880999677935900,8.520935791015624,-2.1656886726021765,-3.8854257218182084,1.657716061849892
1788880999687966000,8.530966064453125,-1.8737877932429312,-3.3077398156315088,1.6621074286766349
1788880999697995800,8.540995849609375,-1.53089030161798,-2.511822077408433,1.646434497117996
1788880999708025900,8.55102587890625,-1.7089654798328875,-1.8650708183020352,1.4321744913220404
1788880999718057000,8.561056884765625,-2.637562088230252,-1.7407020958334207,0.8096598478496074
1788880999728087000,8.571087158203126,-3.4934926888674496,-1.778044276756048,-0.1589841087758541
1788880999738116900,8.581116943359374,-3.7610540767401455,-2.1507313419669867,-1.1869064760610462
1788880999748147000,8.59114697265625,-3.811430511280894,-2.2296488113373516,-1.619662810048461
1788880999758177000,8.601177001953126,-3.2567607390224933,-2.256127068418264,-1.8241002177491783
1788880999768208100,8.6112080078125,-2.337584869921207,-1.9062591532588005,-1.7617925223961473
1788880999778237700,8.62123779296875,-1.1107780528873203,-1.1632131735235451,-1.6566899336725471
1788880999788267800,8.631267822265626,0.13663374527990818,-0.880128053304553,-1.5366849593713878
1788880999798297900,8.6412978515625,1.1682517522126437,-0.21763211257755755,-1.3354825880691408
1788880999808329000,8.651328857421875,1.9093664716243743,0.7720961331307887,-0.9115092799961566
1788880999818358800,8.66135888671875,2.4435955134004352,1.410062028235197,-0.5662850989893079
1788880999828388900,8.671388916015625,2.9049492885798216,1.9314409407883881,-0.3599456570595503
1788880999838419000,8.6814189453125,2.8079104715853926,2.264780914995074,-0.07810176907330751
1788880999848449000,8.691448974609376,2.4682091456532476,1.7335446252942084,-0.08715922801494598
1788880999858479900,8.70147998046875,1.9509820920825003,0.8908090217947959,0.27915421051084993
1788880999868510000,8.711510009765625,1.2783482037007807,0.4328367057472467,0.6597413813218475
1788880999878540000,8.7215400390625,0.738098586460948,0.21075930419862268,0.5403101152554154
1788880999888569900,8.73156982421875,0.7167179447799921,-0.028987609553337096,-0.17523089469969272
1788880999898600000,8.741599853515625,0.3505804473429918,0.40273675103783607,-0.6344853595122695
1788880999908630800,8.751630859375,0.38850715015530585,1.1209984181284904,-0.5545560827508569
1788880999918660900,8.761660888671875,0.6413146210104227,1.8813924230277537,-0.16404665286242961
1788880999928691000,8.77169091796875,0.5481763185858726,2.470300564974546,0.2968862665563822
1788880999938721000,8.781720947265624,0.19081892445385454,2.4821669438570737,0.7206076456949114
1788880999948752000,8.791751953125,-0.141725515460968,1.8634172058761118,0.854601690120995
1788880999958782000,8.801781982421875,-0.5391220745146275,1.2689981915533541,1.1637944805428384
1788880999968812000,8.81181201171875,-0.829399736586213,0.5181809932947159,1.5070849170081317
1788880999978842000,8.821842041015625,-0.7690630490452051,0.0214104522973299,1.692789421057701
1788880999988872000,8.831871826171875,-0.6616852088660001,-0.35291853490173813,2.062738439606875
1788880999998903000,8.841903076171874,-0.3658300389230251,-0.8865724071383476,2.7629122229516505
1788881000008932900,8.851932861328125,0.23999007485806942,-2.220634314754605,4.2806452290937305
1788881000018963000,8.861962890625,-2.3612960003763437,-2.766564900240302,4.809941782903671
1788881000028992800,8.87199267578125,-5.9820092940121885,-2.1411884375959636,3.254817203739285
1788881000039022800,8.88202294921875,-7.010228890678286,-1.9833412238955497,1.1188142790224402
1788881000049054000,8.892053955078126,-5.960225916749239,-1.811152181109786,-0.5779156598219648
1788881000059084000,8.902083984375,-3.57792103061378,-1.5504700313568114,-1.0133805586483329
1788881000069113900,8.91211376953125,-1.4020523247808216,-1.3707692977666854,-0.9262777369957417
1788881000079144000,8.92214404296875,-0.14682079277336596,-1.0662596967250109,-1.212851795309037
1788881000089175000,8.932175048828125,0.8012234434157609,-0.6479805086404085,-1.49670453889966
1788881000099205000,8.942205078125,1.5795751298099756,-0.5260550876706839,-1.3822835022106765
1788881000109235000,8.95223486328125,1.9800223086059092,-0.7775912234157324,-1.0023840214028954
1788881000119264800,8.9622646484375,2.4409423685431477,-1.1035311504989862,-0.8789601785689591
1788881000129294800,8.972294921875,2.3510136758148668,-1.7340122428059577,-0.38298575638532634
1788881000139326000,8.982325927734376,1.8123387605458496,-2.6069477542579174,0.19243381230458617
1788881000149355800,8.992355712890625,0.9341641793966293,-2.82311505497992,0.4443924112454056
1788881000159385900,9.0023857421875,-0.07703180175423621,-3.131984604796767,0.7383351716957985
1788881000169416000,9.012416015625,-0.4850906245976686,-2.5644793163627386,0.983466993356496
1788881000179447000,9.022447021484375,-0.26610125219225883,-1.1855012854382394,1.150732316004485
1788881000189476900,9.032476806640625,-0.5271913982242346,-0.2610837162911892,1.0493091464459896
1788881000199507000,9.0425068359375,-1.5241940188497305,0.7180132452875375,0.3685052494816482
1788881000209537000,9.052537109375,-1.572259838360548,1.499673910099268,-0.21808818578198552
1788881000219566800,9.06256689453125,-0.1569791986942291,0.9631620180830359,0.08033990338891744
1788881000229598000,9.072597900390624,0.6081611239492893,0.853831582531333,0.06460545090138912
1788881000239627800,9.082627685546875,2.062258693265915,0.26828327240645883,-0.8315750347986817
1788881000249657900,9.092657958984375,3.1269968795120713,-0.5002794259011745,-1.4626730899602174
1788881000259688000,9.10268798828125,3.2791514345288273,-0.960718716584146,-1.662494236037135
1788881000269718000,9.112718017578125,2.7178666280448436,-0.5659843624770641,-1.5473568677723406
1788881000279748900,9.122748779296876,2.531810972470045,-0.22624679618775842,-1.2513976529330015
1788881000289779000,9.132779052734374,2.671746097382903,0.6032467561617493,-1.1570359461933373
1788881000299809000,9.14280908203125,2.873196305966377,1.364603322482854,-0.8135358125001192
1788881000309839000,9.152839111328126,3.139915982317924,1.724775481774658,-0.04123685027360916
1788881000319870000,9.162869873046875,3.137445792812109,2.0631309460557996,0.32332740649729963
1788881000329900000,9.172900146484375,3.414199371922016,2.0833862369686362,0.24322277316898105
1788881000339929900,9.182929931640626,3.352589011183381,1.9027640046194194,-0.11786343222782016
1788881000349960000,9.1929599609375,3.2538883984565734,1.8569991555273533,-0.37363048354089257
1788881000359989000,9.202989013671875,3.207881265041232,2.1163456727623937,-0.3327912542827427
1788881000370019800,9.213019775390626,3.000404635775089,2.341167989104986,-0.11895517298728227
1788881000380050000,9.2230498046875,2.582003867137432,2.300411908085644,0.15169439015910027
1788881000390080000,9.233080078125,1.7918331481337546,1.9938810303494332,0.3551196982078254
1788881000400110000,9.243110107421876,1.0727315230876207,1.5728335465952754,0.42208603302165865
1788881000410140200,9.25314013671875,0.7810399025648832,1.2072940150514244,0.5545841398015618
1788881000420171000,9.2631708984375,0.5336123711824416,0.8144698784798383,0.7221605742253363
1788881000430201000,9.273201171875,0.20433950028419492,0.4836518239662051,0.5902399750724434
1788881000440231200,9.283231201171875,-0.11129881301522254,0.488335013346374,0.3700578857511282
1788881000450261000,9.293260986328125,-0.44085693059563635,0.4212129034489393,0.2466140230424702
1788881000460291800,9.303291748046876,-0.8073609232574701,0.14108780207931995,-0.047223961859196424
1788881000470322000,9.313322021484375,-1.0513888753294944,-0.17745500048995017,-0.21175869049951432
1788881000480352000,9.32335205078125,-1.2187637958317994,-0.7356015089482069,-0.07180478782095015
1788881000490382000,9.333382080078126,-1.3143056522667407,-1.437559691491723,0.3904883505677804
1788881000500412000,9.343411865234375,-1.3792413580358027,-1.9713228693217038,0.6845427181664854
1788881000510443000,9.353443115234375,-1.4395096565157175,-2.5368904676914212,0.6880950038205832
1788881000520473000,9.36347314453125,-1.6035533867686986,-2.90027077537477,0.3165627346679568
1788881000530503000,9.3735029296875,-1.6448621332347393,-3.2026188144683836,-0.09729710260443389
1788881000540533000,9.383532958984375,-1.9694822098910807,-3.2305747428864238,-0.2661153537828475
1788881000550564000,9.393564208984374,-2.041554343411326,-2.8157348816007373,-0.13353037243708968
1788881000560594200,9.40359423828125,-2.186467841258645,-2.0737346115261315,-0.013140052080154419
1788881000570624000,9.4136240234375,-2.4729338360875843,-1.8030185590147971,-0.05426671997755766
1788881000580653800,9.42365380859375,-2.7420336855739356,-1.3113368655890225,-0.12188567348122596
1788881000590684000,9.433683837890625,-2.6601141117781397,-0.6064642569035291,-0.13272329383790493
1788881000600715000,9.443715087890626,-2.579289932003617,-0.07973112384080887,-0.21451135020852088
1788881000610744800,9.453744873046874,-2.609719557058811,-0.14441197806596756,-0.41049511007964606
1788881000620775000,9.46377490234375,-2.439989597862959,-0.0819604903280735,-0.6346613006010651
1788881000630805000,9.473804931640625,-2.354113395395875,-0.06870353386998176,-1.161520398131013
1788881000640836000,9.483836181640624,-2.1101450645565984,-0.33532442602217194,-1.812783581703901
1788881000650866000,9.493865966796875,-1.4578449391514061,-0.5001999309241771,-2.233626190535724
1788881000660896000,9.50389599609375,-0.7862164284199475,-0.7634247508972882,-2.494826518943906
1788881000670926000,9.513926025390624,-0.09267068491280078,-0.8714718686401843,-2.18924695058316
1788881000680956000,9.523955810546875,0.2624719557791948,-0.7247808397263288,-1.1919973694592714
1788881000690986800,9.53398681640625,0.8165764953702688,-0.5730535702109336,-0.2724447760000825
1788881000701016800,9.544016845703124,1.4913181696861981,-0.13691723839640615,0.18050562023222447
1788881000711047000,9.554046875,1.9132061959177256,0.20123159739673135,0.3823170633435249
1788881000721077000,9.564076904296876,1.9332213944643735,1.0090443560749291,0.6494812685921788
1788881000731107000,9.574107177734374,2.095703866750002,1.39416653996706,0.5688078954651952
1788881000741138000,9.584137939453125,2.144600876387954,1.6727964343428612,0.4627265248373151
1788881000751168000,9.59416796875,1.8941326621353625,1.4865133997529745,0.37964959769994017
1788881000761198000,9.604197998046875,1.6524153250932692,1.0709487313240766,-0.29313422054648397
1788881000771228200,9.614228271484375,1.035814874100685,0.8885779017418622,-0.9634878890365361
1788881000781259000,9.624259033203124,0.5494511608272791,0.6420072794497013,-1.1988958968013523
1788881000791289000,9.6342890625,0.40207565678060053,0.45174072818160055,-0.8253352636262774
1788881000801319000,9.64431884765625,0.3229804927557707,0.5294634348094464,-0.0621595190539956
1788881000811349000,9.654348876953126,0.14588848035931587,0.883943812200427,0.4008098746284842
1788881000821379800,9.6643798828125,-0.09109598294198512,1.2538386163443327,0.6029895665302872
1788881000831410000,9.674409912109375,-0.4088356524348259,1.3716916733086109,0.6649506404027342
1788881000841440000,9.68443994140625,-0.8563251529127359,1.039563412979245,0.7792235007926821
1788881000851470000,9.694469970703125,-1.2119745740830898,0.38997196201086043,1.1842504085943102
1788881000861500000,9.7045,-1.3945803814649582,-0.2351929037094116,1.648556457708031
1788881000871531000,9.714531005859374,-1.4088736952334642,-0.6031850891023874,1.9588614471554755
1788881000881561000,9.72456103515625,-0.797262138569355,-1.230823651459813,2.3574852099165318
1788881000891591200,9.734591064453125,-0.5660153421372175,-2.1306120985239745,3.212047152549028
1788881000901621000,9.74462109375,-3.540636717358231,-1.669566366380453,2.6206565461367366
1788881000911652000,9.754652099609375,-5.730225320985913,-0.7749263881206512,0.503137080354616
1788881000921682000,9.764681884765626,-5.142683791217207,-0.2541378426760435,-0.928151056586951
1788881000931712000,9.7747119140625,-3.360736661803722,-0.35150165384113785,-1.3875471218273043
1788881000941741800,9.784741943359375,-1.4691834947675466,-0.9675368721663952,-1.1240403431076555
1788881000951772000,9.79477197265625,0.16057693092525005,-1.5953285792589187,-0.7465830678202211
1788881000961803000,9.804802978515625,0.6216840378671884,-1.9135282674789427,-0.7525008404966443
1788881000971833000,9.8148330078125,0.39071021315753457,-2.000231568419933,-0.9390241135831922
1788881000981863000,9.82486279296875,-0.004102174621820449,-2.0088135188043115,-1.0125694614611565
1788881000991893000,9.83489306640625,-0.20100597194731235,-2.097999868732691,-0.8141029448635876
1788881001001924000,9.844924072265625,-0.05322013353407383,-2.2159803514689207,-0.37463118501603604
1788881001011954200,9.8549541015625,0.10265957948565482,-2.144277635782957,-0.10726020514890551
1788881001021983700,9.864983642578125,0.1959983729183674,-1.781927255669236,0.2854996340148151
1788881001032013800,9.875013916015625,0.019373393511772155,-1.7951102701082824,0.7487639189906418
1788881001042044000,9.8850439453125,-0.2539408587992191,-2.0787559468194843,1.1210856580205262
1788881001052075000,9.895074951171875,-0.03531564353108406,-2.1727850606039163,1.421851688619703
1788881001062104800,9.905104736328125,-0.029005145210027693,-1.8381001015290617,1.591013200277835
1788881001072135000,9.915135009765624,-0.50472646843791,-1.7142057185739277,1.523903073079139
1788881001082165000,9.9251650390625,-0.5000912098526954,-0.9061801939278841,0.9560004558905959
1788881001092196000,9.935196044921875,0.07876900081038475,1.1997168577954171,-0.6623122547231615
1788881001102226000,9.945225830078124,1.5362345852553843,2.896301579482853,-1.5597119069546461
1788881001112256000,9.955256103515625,2.4170389303863047,2.7540479484945535,-0.23250030362457036
1788881001122286000,9.9652861328125,3.04633870395422,0.8805888026840984,0.20761019251793622
1788881001132316000,9.97531591796875,3.5025019247531888,-0.37398543445840476,0.019556933385133743
1788881001142346800,9.9853466796875,3.514523201936483,-1.1790297513365744,0.21253537396043537
1788881001152376800,9.995376953125,3.083481562912464,-1.0955531573571264,-0.04475596431046724
1788881001162407000,10.005406982421874,2.647510066270828,-0.3557143031001091,-0.4543745838165283
1788881001172437000,10.01543701171875,2.699002937620878,0.31377529590651393,-0.9228075036019087
1788881001182467800,10.0254677734375,2.1576643561005593,0.9533569556444883,-0.9827437936484813
1788881001192498000,10.035497802734374,1.280013506564498,1.1780237891644239,-0.6689996235325932
1788881001202528000,10.045528076171875,0.9102069652259349,1.4869782407857477,-0.4079305202886462
1788881001212558000,10.05555810546875,1.1180085886627436,1.935958125951886,-0.3315376009598374
1788881001222588200,10.065588134765624,1.2486042228221892,1.967518946994096,-0.5011000946342945
1788881001232619000,10.075618896484375,1.7217372831225395,2.131672567362338,-0.2940529428265989
1788881001242649000,10.085649169921876,2.315934179127216,2.161441244290769,-0.0196457807123661
1788881001252679000,10.095678955078125,2.6900410480082035,2.0041899506568908,0.14225026998743415
1788881001262709000,10.105708984375,2.78960149243474,1.8629238694012165,0.19016425993740557
1788881001272739800,10.11573974609375,2.7218261793255802,1.651091675274074,0.14154869758933783
1788881001282770000,10.12577001953125,2.263447620564699,1.509129136186838,0.054104953544586894
1788881001292800000,10.135800048828125,1.6568559378892183,1.3683335950523614,-0.16228680358305572
1788881001302830000,10.145830078125,1.0889280401289463,1.5390361986726522,-0.3247958716146648
1788881001312861000,10.15586083984375,0.8118179026663302,1.6205959992453456,-0.21178134072273969
1788881001322891000,10.16589111328125,0.6088134503781795,1.4497320675835013,0.2167892320126295
1788881001332921000,10.175921142578124,0.3140601041972637,1.1785656409561633,0.5757262965515255
1788881001342951200,10.185951171875,-0.39137306098043917,0.6873503959983587,0.7735009584274143
1788881001352981000,10.19598095703125,-1.0814859074294567,0.091092475810647,0.9010200346857309
1788881001363015700,10.206015625,-1.121989767253399,-0.379170582011342,0.9607377135455608
1788881001373045500,10.21604541015625,-0.7673001310259103,-0.8706991307020187,0.9312742301087826
1788881001383075600,10.22607568359375,-0.9144763131082058,-1.443563315820694,0.9758328452162444
1788881001393105400,10.23610546875,-1.5915291869759558,-2.4225410349339245,0.7886149409290403
1788881001403136500,10.246136474609376,-2.0523282508820295,-3.7377024272471666,0.3986062636369839
1788881001413166600,10.25616650390625,-2.909793806001544,-4.703543016889691,-0.0034434869508026167
1788881001423196700,10.26619677734375,-3.100020609781146,-4.601456853377819,-0.09646677099382504
1788881001433226500,10.2762265625,-2.9313053805857896,-4.02451504355669,0.43362358180861915
1788881001443257600,10.286257568359375,-2.9782191074520346,-3.3010762660890816,0.8596671568170189
1788881001453287700,10.29628759765625,-2.7628350660622116,-2.572195589828491,1.0635600823774933
1788881001463317800,10.30631787109375,-2.6367823360294103,-1.785558890169859,0.9342169324971735
1788881001473347600,10.31634765625,-2.6640426833987236,-0.8239040617793798,0.5836494907662272
1788881001483377400,10.32637744140625,-3.1114439210712908,-0.12393266913890838,0.22091420298814773
1788881001493408500,10.336408447265624,-3.188580352243781,0.3857172271758318,-0.28945407072901724
1788881001503438600,10.3464384765625,-2.7795050458341835,0.37322307178378106,-1.0201499797180293
1788881001513468400,10.356468505859375,-2.280627887946367,0.024377485409379004,-1.6113786735668778
1788881001523498500,10.36649853515625,-1.5015689300656319,-0.590731265720725,-2.0918717412412167
1788881001533529600,10.376529541015625,-0.6245481951266527,-0.8749088573515414,-2.2037094834387303
1788881001543559400,10.386559326171875,0.19166765023767948,-0.900622559800744,-1.6969667067423462
1788881001553589500,10.396589599609374,0.8654138837754726,-0.7039169153958559,-0.897724208010733
1788881001563619600,10.40661962890625,1.517215996530652,-0.5479460169613362,-0.11535685623437165
1788881001573650700,10.416650634765626,2.0104975263684985,-0.27421266245543957,0.36083792972415685
1788881001583680500,10.426680419921874,2.3224685493320227,-0.17050737330913543,0.43930911663174627
1788881001593710600,10.436710693359375,2.3646996713399884,0.45088206552565097,0.6321189226418733
1788881001603740400,10.446740478515625,2.392198503640294,1.004835213947296,0.6523468871563672
1788881001613771800,10.456771728515625,2.26922678848803,1.2788000391215084,0.5311261073246598
1788881001623801300,10.46680126953125,1.930245593523979,1.6927414902627467,0.4558353040188551
1788881001633831400,10.47683154296875,1.6088450634360312,1.8757927033245563,-0.014951485416293143
1788881001643861500,10.486861572265624,1.3326321670740842,1.9912626645445823,-0.5997618366554379
1788881001653891600,10.4968916015625,0.8878922575652599,2.065875130197406,-0.38493922854065893
1788881001663922400,10.50692236328125,0.6987620168507098,2.046458482065797,0.2429056700438261
1788881001673952500,10.516952392578125,0.8037439018040895,1.998424811258912,0.6081757369965315
1788881001683982600,10.526982666015625,0.9262000686496495,1.9114549683362245,0.8080570888280868
1788881001694012700,10.5370126953125,0.8615735749602317,1.6922417240470646,0.8029454449027776
1788881001704043500,10.54704345703125,0.7847937021404504,1.4381453824251889,0.9584048866838216
1788881001714073600,10.557073486328125,0.689002254858613,0.9150731099575757,1.2974001101732253
1788881001724103400,10.567103515625,0.4941881232887506,0.4262070584744215,1.4397034255221486
1788881001734133500,10.577133544921875,0.29085166256725786,-0.024298574954271315,1.5863915318265556
1788881001744164400,10.587164306640625,0.2053776111602783,-0.5489817897498608,1.6836783322326838
1788881001754194400,10.5971943359375,0.13697978223860263,-0.8854244061470031,1.8052303898453712
1788881001764224500,10.607224609375,0.2251233451157808,-1.7206518259733914,2.3741521209485827
1788881001774254600,10.617254638671875,-1.593192736274004,-2.029214501798153,2.5537697062999007
1788881001784285400,10.627285400390624,-4.983678639653324,-1.3485568814367055,1.0976557556595652
1788881001794315500,10.6373154296875,-6.2380059162974355,-1.4494149644583463,-0.6511756514199077
1788881001804345600,10.647345703125,-5.205190224012732,-2.1651316232413054,-1.6017565664798021
1788881001814375700,10.657375732421874,-3.5963007369130846,-2.6543799520403146,-1.930016460943222
1788881001824405800,10.66740576171875,-2.2835873222738505,-2.679794963803887,-2.0035016761317848
1788881001834436600,10.6774365234375,-0.8858458464294672,-2.6007500686615703,-1.7594526812717317
1788881001844466400,10.687466552734374,0.07135141803026199,-2.4777193167984484,-1.229046120393276
1788881001854496500,10.69749658203125,0.6185854873299599,-2.4515794978916645,-0.9900888957142829
1788881001864526600,10.707526611328126,1.116855326974392,-2.2934651576876637,-0.7200488427683711
1788881001874557400,10.717557373046875,1.3032377302855251,-2.2075860326111316,-0.3281681245267391
1788881001884587500,10.72758740234375,1.002927334499359,-1.9806781421661377,-0.21431875024586916
1788881001894617600,10.73761767578125,0.438988798636198,-1.54588504165411,-0.2925213493451476
1788881001904647700,10.747647705078125,0.15934475878179072,-1.1592159205809236,-0.20003025878295302
1788881001914678500,10.757678466796875,-0.1261626201480627,-0.8485121410742401,-0.07952756409272552
1788881001924708600,10.76770849609375,-0.20376783787608146,-0.5267246574953198,0.17222455249056218
1788881001934738700,10.77773876953125,0.11079261705875396,-0.40659634907543657,0.46006052049845453
1788881001944768800,10.787768798828125,-0.04066051169037819,-0.42609132314026354,0.5461828066810965
1788881001954799600,10.797799560546874,-0.2522381465345621,-0.5506888859286904,0.5623648568056524
1788881001964829400,10.807829345703125,-0.6107096393883228,-0.1483151229843497,-0.09876724822223186
1788881001974859500,10.817859619140625,-0.43662849924564356,0.8335925121009349,-1.5443964105315506
1788881001984889600,10.8278896484375,1.7694816155940294,2.408499065577984,-2.5037641508981583
1788881001994919400,10.83791943359375,4.081664917755127,2.6311533902317286,-1.221368133111298
1788881002004950500,10.847950439453125,4.1679654831141235,0.6656570351064205,-0.5674908215172588
1788881002014980600,10.857980712890624,3.6327041756808756,-0.7206121757395565,-0.567989272558689
1788881002025010700,10.8680107421875,2.8611119004189964,-1.008993648800999,-0.2545119366854429
1788881002035040500,10.87804052734375,2.2293454444766043,-0.829078103416413,-0.11279694261848926
1788881002045071600,10.888071533203124,1.8590636868417263,-0.03959419763311744,-0.43140448098704215
1788881002055101700,10.898101806640625,1.9826234310150146,0.6485378502622247,-0.22886560038402676
1788881002065131800,10.9081318359375,1.8506126693606375,1.4162461236976087,-0.07438304081112146
1788881002075161300,10.918161376953124,1.7247826421678065,1.8986685519993305,-0.3803833188019693
1788881002085192400,10.9281923828125,1.804240209764242,2.0161174120768903,-0.6286018544316292
1788881002095222500,10.938222412109376,2.365198853033781,2.179787048320472,-0.7356357034787535
1788881002105252600,10.948252685546874,3.0089620362401006,2.1398133498504754,-0.8903500259809195
1788881002115282400,10.958282470703125,3.5436651252686975,2.153809726499021,-0.9298317031502723
1788881002125313500,10.9683134765625,3.217304926946759,2.004489518125355,-0.8867838579319417
1788881002135343600,10.978343505859375,2.125546047306061,1.6670125902444124,-0.8921788488432765
1788881002145373700,10.988373779296875,1.4148235435485839,1.3791647856682538,-0.7393604230903089
1788881002155403500,10.998403564453126,1.258248834002018,1.179341886025667,-0.6151375388331711
1788881002165434600,11.0084345703125,1.362748488396406,1.2430404512152076,-0.5645100521408021
1788881002175464700,11.018464599609375,1.2950444869577884,1.009216497771442,-0.4069611637998372
1788881002185494800,11.028494873046874,1.204092880922556,0.9424299034386873,-0.26788462847769257
1788881002195524400,11.0385244140625,0.9444237076044082,0.739592332150042,-0.12533800589218735
1788881002205554400,11.048554443359375,0.5452747519254684,0.0634165333777666,0.12557817132361232
1788881002215585500,11.05858544921875,-0.14946575432419776,-0.6299170286834239,0.31366230051871385
1788881002225615600,11.06861572265625,-0.6591057137668133,-1.1403601212024688,0.44001306365001946
1788881002235645400,11.0786455078125,-0.973823989611864,-1.3880606243073939,0.578447392078489
1788881002245675500,11.088675537109374,-1.2819406752347946,-2.073263486883044,0.6647437927190214
1788881002255706600,11.09870654296875,-1.9103449612677097,-3.0015199035406113,0.6595009966947137
1788881002265736700,11.10873681640625,-2.3433102618306876,-3.0535329993724822,0.4291320060104131
1788881002275766500,11.1187666015625,-2.241335741999745,-2.5167484278947114,0.26593356747515495
1788881002285796600,11.128796630859375,-2.405337386676669,-2.2617899164855477,0.2885845213528722
1788881002295827700,11.13882763671875,-2.677415959712863,-2.618409059470892,0.5866366898834705
1788881002305857500,11.148857421875,-2.8044086009442806,-2.549286423406005,0.9529263091422617
1788881002315887400,11.158887451171875,-2.9099785149186848,-2.1424656179249286,0.9570224924147128
1788881002325917400,11.16891748046875,-3.3287849417477844,-1.7269588171631096,0.5562329299218952
1788881002335948500,11.178948486328125,-3.564972117191553,-1.0213134705394507,0.14735563030242918
1788881002345978600,11.188978515625,-3.2418162678688764,-0.46606794421970843,-0.22012597521990537
1788881002356008400,11.199008544921876,-2.5841946551799775,-0.0033037177205085754,-0.6552721269533037
1788881002366035500,11.209035400390626,-1.898273999723792,0.29124095414578915,-1.164739360177517
1788881002376066600,11.219066650390625,-1.1746861691743136,0.28304829533994197,-1.6695765955135224
1788881002386096400,11.229096435546875,-0.7241226680785418,0.2336900979310274,-2.003568019366264
1788881002396126500,11.23912646484375,-0.49579088231027124,-0.2764455360740423,-2.292392267759144
1788881002406156500,11.249156494140625,-0.2463783145904541,-1.045114032843709,-2.6126208314582704
1788881002416187600,11.259187744140625,0.17001812848746775,-1.5254869812697172,-2.4697692345768214
1788881002426217200,11.26921728515625,0.6997270624905825,-1.208602467301488,-1.7587126765593886
1788881002436247300,11.279247314453125,0.9360814111948013,-0.3609311609655618,-0.9161562290191649
1788881002446277400,11.28927734375,1.1181745928794145,0.31352526666820046,-0.3039151422798633
1788881002456308500,11.29930859375,1.5834434956759214,0.7790192103922366,0.06890402487814426
1788881002466338300,11.30933837890625,2.0498282507598398,1.202656710639596,0.36969665122330186
1788881002476368400,11.319368408203125,2.244314465549588,1.4890122308313847,0.8351619533747434
1788881002486398500,11.3293984375,2.0775117919772863,1.5721838505148886,1.2892676571220159
1788881002496429600,11.3394296875,1.6347656866341829,1.891969931143522,1.5323133201584218
1788881002506459400,11.34945947265625,0.739527157959342,1.6957751588702201,1.0239426499992608
1788881002516489500,11.359489501953124,0.14938859743475913,0.8127110521137714,-0.552595596332848
1788881002526519600,11.36951953125,-0.3078735245168209,0.35693010863065716,-1.1683122502282262
1788881002536549400,11.37954931640625,-0.6696797147512435,0.047288405397534365,-0.9808025964528322
1788881002546580500,11.38958056640625,-0.6678337946236134,0.05551905812621116,-0.37755116411596534
1788881002556610300,11.3996103515625,-0.3398708372801542,0.18929566040933132,0.1962064627110958
1788881002566640400,11.409640380859376,-0.16977905903458596,0.29849837792813777,0.6611768209524452
1788881002576670500,11.41967041015625,-0.16120236934721469,0.3067489044010639,0.8757511533945799
1788881002586701300,11.429701416015625,-0.11455343089699745,0.3460018873810768,0.9046848408035933
1788881002596731400,11.4397314453125,-0.12256254982948303,0.40593350125253197,0.7906598176948726
1788881002606761500,11.449761474609375,-0.1352250475257635,0.07919336370229721,0.891992240229994
1788881002616791600,11.45979150390625,-0.190959794229269,-0.318569106054306,1.3785948768258094
1788881002626822400,11.469822509765624,0.850537801682949,-1.6317203275889158,2.6572294962525365
1788881002636852500,11.4798525390625,-0.5564946495980024,-2.0843705718308687,3.5568007934346793
1788881002646882600,11.489882568359375,-5.090599968236685,-0.4534820188909769,2.0378075580984354
1788881002656912400,11.499912353515626,-6.088502168050408,-0.06290507672429084,0.4047037037292495
1788881002666943500,11.509943603515625,-4.58989150326848,-0.3740823189616203,-0.16873716703252867
1788881002676973300,11.519973388671875,-2.082005596265197,-0.9347545465052127,-0.13240728669129312
1788881002687003400,11.53000341796875,-0.5163794968307018,-1.4944015226542948,-0.2204611254584044
1788881002697033500,11.540033447265625,-0.0290004690349102,-1.9183610944628715,-0.2934400716252625
1788881002707064300,11.550064208984375,-0.009485036703944206,-2.0866087061464786,-0.46511714630089696
1788881002717094400,11.560094482421874,0.028577275186777114,-2.1090093385249373,-0.5451752370737493
1788881002727124500,11.57012451171875,0.35719255895912644,-2.3034283332973717,-0.5185561102174222
1788881002737154600,11.580154541015625,0.4374082514464855,-2.3968337622255085,-0.44262598609477277
1788881002747185400,11.590185302734374,0.044482115805149075,-2.2885820618212223,-0.319537074303627
1788881002757215500,11.600215576171875,-0.8277285885035991,-1.9793916094869375,-0.19180662031695245
1788881002767245600,11.61024560546875,-1.4849299299538135,-1.7823516185611485,-0.04536503611952066
1788881002777275400,11.620275390625,-1.3429010476320982,-1.1039759716570376,-0.01737564382329583
1788881002787305500,11.630305419921875,-1.1755495080053806,-0.1278644556298852,-0.25059870876446366
1788881002797336300,11.64033642578125,-0.23994798928201197,0.8284308915540576,-0.5273242308236659
1788881002807366400,11.650366455078125,1.2211398773133755,1.3508210269764065,-0.46006446602120993
1788881002817396500,11.660396484375,2.011850694543123,1.1429586132630705,-0.1269337506510317
1788881002827427300,11.67042724609375,2.0088228711545466,0.7158122281119227,0.6431552804410458
1788881002837457400,11.68045751953125,1.4418261167645454,-0.14189678037464618,0.5989068272612988
1788881002847487500,11.690487548828125,1.1916302897125481,-0.44502427940815686,0.08220745082646608
1788881002857517600,11.700517578125,1.919443629002571,-0.059582508172839874,-0.3995614820025861
1788881002867547400,11.71054736328125,3.045868163833022,0.17740502386838197,-0.6258072552770376
1788881002877578500,11.72057861328125,3.707540513217449,0.29849443240538237,-0.4648331417277455
1788881002887608600,11.730608642578124,3.886470846956968,-0.3804813723489642,-0.3860252702116966
1788881002897638400,11.740638427734375,3.316079189431667,-1.0328216836340725,0.1223869010016322
1788881002907668500,11.75066845703125,2.5775579936444757,-0.8510045424118637,0.18700345781892536
1788881002917699300,11.76069921875,2.2411960412681102,-0.13958587308377027,0.002791676545143127
1788881002927729400,11.7707294921875,2.3157681749105454,0.7964322636164725,0.019386837515234946
1788881002937759500,11.780759521484375,2.4789438901573417,1.251384647320956,0.28099223959296943
1788881002947789300,11.790789306640624,2.554110482561588,1.7094572088725863,0.21819792976677416
1788881002957820400,11.8008203125,2.6536171509742736,2.088846548201144,0.12808905816599725
1788881002967850500,11.8108505859375,2.3982798693805933,2.2308540954738856,-0.04349105894118547
1788881002977880600,11.820880615234374,2.0886942802488804,2.312855210073292,-0.03743395085930824
1788881002987910400,11.830910400390625,1.9843664752900598,2.136354441568255,0.11799378060922026
1788881002997941500,11.84094140625,1.7566040138423442,1.7456740390270948,0.21132731334492563
1788881003007971600,11.8509716796875,1.5922569167286156,1.4756415848657487,0.38353593761399385
1788881003018001400,11.86100146484375,1.3777683628737927,1.0671814877450465,0.46166532534658905
1788881003028031200,11.87103125,1.020354270118475,0.8355529985189437,0.5528165456071495
1788881003038062300,11.881062255859375,0.4888555300891399,0.6369397669270634,0.486185580227524
1788881003048092400,11.891092529296875,-0.0897638575553894,0.1901961163803935,0.18884850116372107
1788881003058122500,11.90112255859375,-0.2687508899182081,-0.17285539774000644,0.061590633124858137
1788881003068152300,11.91115234375,-0.36071079621315,-0.2734738267868757,0.1644791990607977
1788881003078183400,11.921183349609375,-0.562547373765707,-0.7464905672311782,0.3072388798750937
1788881003088213500,11.931213623046874,-0.9064631025224924,-0.952851928731799,0.4120532262418419
1788881003098243600,11.94124365234375,-1.225264263767004,-1.5257856719553469,0.3110911713890731
1788881003108273400,11.9512734375,-1.3687041819304226,-2.318138411173224,0.4041157112408429
1788881003118304500,11.961304443359374,-2.078565684944391,-3.2174604097694157,0.4310239937694743
1788881003128334600,11.97133447265625,-3.038868514204025,-3.5645629518687723,0.42591735481284554
1788881003138364700,11.98136474609375,-3.104611444702744,-2.9932103403568266,0.4565928078552708
1788881003148394200,11.991394287109374,-2.9953216334223747,-2.234042077860236,0.44359958036728203
1788881003158425300,12.00142529296875,-2.8202590810269115,-1.7467787853986023,0.7485244842115789
1788881003168455400,12.011455322265626,-2.326878182467818,-1.3229314417928457,1.300101185825467
1788881003178485500,12.021485595703124,-2.3213515280008314,-0.9874655614733695,1.4778180521219968
1788881003188515300,12.031515380859375,-2.729178880175948,-0.7226631169199943,1.1627015707395971
1788881003198546400,12.04154638671875,-2.784541286435723,-0.5386813450098037,0.9277809081003069
1788881003208576500,12.051576416015624,-2.6461908003658055,-0.3985860610991716,0.6749710991576313
1788881003218606600,12.061606689453125,-2.610020585832,-0.3195318136066198,0.25052242865785956
1788881003228636400,12.071636474609376,-2.510457218796015,-0.7147808392375707,-0.5073940802119672
1788881003238667500,12.08166748046875,-2.3558768979370592,-0.80959905757308,-1.2658164927773177
1788881003248697600,12.091697509765625,-2.076625656792521,-0.7138175471633672,-2.115043942514062
1788881003258727400,12.1017275390625,-1.7822113333076237,-1.4218231931775807,-2.9062720616161823
1788881003268757200,12.11175732421875,-0.9484960716098546,-1.7994886313229799,-2.976448298387229
1788881003278788400,12.121788330078125,0.12325403922498225,-1.824089404094219,-2.4902552655056116
1788881003288818400,12.131818359375,1.0233739102005959,-1.5718302147716283,-1.66310038523674
1788881003298848500,12.1418486328125,1.81886553196609,-0.765508571434021,-0.8049459710702299
1788881003308878300,12.15187841796875,2.607813431176543,0.10872867026627063,-0.335462373188138
1788881003318909400,12.161909423828124,3.15118907148242,0.883102685201168,-0.166356683370471
1788881003328939500,12.171939453125,3.3960458755940195,1.4515297646552323,0.010041793803870677
1788881003338969300,12.18196923828125,3.255960528555512,1.9943992090046405,0.22216858696341513
1788881003348999400,12.19199951171875,3.0436493187397717,2.577249950608611,0.6762137926951051
1788881003359030500,12.202030517578125,2.3951222821325064,2.565879246288538,0.913571180962026
1788881003369060000,12.21206005859375,1.5009686260849238,1.8811632904469966,0.631767040464282
1788881003379090200,12.222090087890624,1.1641302883684634,0.8950532352358103,-0.3721159873247146
1788881003389120000,12.2321201171875,0.994805402842164,0.7218143911361694,-0.9694567343130707
1788881003399151000,12.242151123046876,0.9166793761104345,0.6314011297613382,-0.9387330947473644
1788881003409181200,12.25218115234375,0.7778349690437316,0.4740519287109375,-0.5012444715410471
1788881003419211300,12.262211181640625,0.44593291868567464,0.4742646946787834,-0.034520401500165464
1788881003429240800,12.27224072265625,-0.0523585482686758,0.5390168605744838,0.3156748459175229
1788881003439271000,12.28227099609375,-0.5680512318789959,0.5527314976722002,0.6164451143003999
1788881003449302000,12.292302001953125,-1.229501462945342,0.339502003967762,0.8925557193316519
1788881003459332000,12.30233203125,-1.9628063853889703,0.011407529199123382,1.2018057928986847
1788881003469362000,12.31236181640625,-2.189002328172326,-0.5762023896306753,1.4394753158546982
1788881003479392000,12.32239208984375,-1.9750304916679857,-1.139696104335785,1.5790246563203632
1788881003489423000,12.332423095703126,-0.7127303364485502,-2.439868017309904,2.414769378019124
1788881003499453200,12.342453125,-3.6244314373761415,-2.2538421723514794,2.5058769052684307
1788881003509483000,12.35248291015625,-6.785891727504134,-1.1452917323857545,1.0238930387038736
1788881003519513000,12.36251318359375,-5.506303168353438,-1.1207131714463234,0.018837533069401977
1788881003529544200,12.372544189453125,-3.0990269225686786,-1.2220008780568838,-0.19016453393204136
1788881003539574300,12.38257421875,-1.4827140074700116,-1.1009423030495642,-0.235043667964451
1788881003549604000,12.39260400390625,-0.6405722782105207,-1.274627137351036,-0.3099581487711519
1788881003559634000,12.402634033203125,0.053099137502908705,-1.4902420648872852,-0.43998526232764124
1788881003569665000,12.4126650390625,0.7130676055788994,-1.7336124298334121,-0.6777187173653394
1788881003579695000,12.422695068359374,1.2357155151546,-1.8411328933537006,-0.7672593606241047
1788881003589725000,12.432724853515625,1.5214146172642706,-1.8107108670830725,-0.5653158155657351
1788881003599755000,12.442755126953125,1.784447129535675,-1.8451403754293918,-0.48665699713155625
1788881003609786000,12.4527861328125,1.6045535037219523,-1.9771967297911643,-0.267860516949743
1788881003619816200,12.462816162109375,0.9320189840614795,-2.0488877550393343,0.26798443559035656
1788881003629846000,12.472845947265625,-0.17528525523543356,-2.0591674492523073,0.5555190825641155
1788881003639876000,12.4828759765625,-1.2242331671535969,-1.7370947189912198,0.5098673384577036
1788881003649907200,12.4929072265625,-2.1993501191854476,-1.1954758592247963,0.12837108997777102
1788881003659937000,12.50293701171875,-2.0255431198090315,-0.18055296650528907,0.26045842399969693
1788881003669967000,12.512967041015624,-0.9155962570488453,0.37603900598734613,0.23722046401426194
1788881003679997000,12.522996826171875,0.12326280705332755,0.2977390839934349,-0.07114990410879254
1788881003690028000,12.533028076171876,1.0174211392760277,0.1014557566538453,-0.40070203033983703
1788881003700057900,12.543057861328125,1.7566852623850107,0.253907541051507,-0.7152084169998765
1788881003710088000,12.553087890625,1.4482254624128341,1.183051846459508,-1.2635983783364295
1788881003720118000,12.563117919921876,1.9436872588992118,1.3299280226819217,-1.3973974847123025
1788881003730149000,12.573149169921875,3.3627655372828245,0.03534063184186816,-1.1582587659865617
1788881003740179000,12.583178955078125,3.4989275733977556,-1.0552265537962318,-0.39961175088509915
1788881003750209000,12.593208984375,2.6468086400032043,-1.4846495055772364,-0.1141648699708283
1788881003760239000,12.603239013671875,2.119645883351564,-0.4367480339720845,-0.42055224758312104
1788881003770270200,12.613270263671875,2.6674200508773325,0.6439505224719643,-0.552569585108757
1788881003780300000,12.623300048828124,3.136208944493532,0.8921580983161925,-0.6643117579773068
1788881003790330000,12.633330078125,2.974149081534147,1.1146924498520792,-0.8325297051750123
1788881003800360000,12.64335986328125,2.858563384979963,1.6845969083823262,-0.8281460832633077
1788881003810391000,12.65339111328125,2.598285139852762,2.160689549140632,-0.7942908676736057
1788881003820420900,12.6634208984375,2.2592647819221017,2.2024083377122876,-0.7007074518300592
1788881003830451000,12.673450927734375,2.368096912562847,1.8628293229855597,-0.7043310491546988
1788881003840481000,12.68348095703125,2.602470316582918,1.5772586695611477,-0.9415089892014861
1788881003850512100,12.69351220703125,2.6754543042510748,1.4547840902760625,-1.071717962130904
1788881003860542000,12.7035419921875,2.5992127760916945,1.267998951382935,-1.0872082305990158
