time,seconds_elapsed,z,y,x
1788880991233794800,0.076794921875,9.667487028503418,4.43076944732666,1.180341418457031
1788880991243824600,0.08682470703125,9.232191239166259,4.486135360717773,0.7704840217590332
1788880991253854700,0.096854736328125,8.910620028686523,4.5881882064819335,0.5942109245300292
1788880991263884800,0.106884765625,9.089436965179443,4.979041627502441,1.4443021514892578
1788880991273915000,0.116914794921875,8.668057472991944,4.939686937713622,1.3253402565002441
1788880991283945000,0.126945068359375,8.50450357208252,4.737975447845459,-0.07422025146484375
1788880991293974500,0.136974609375,8.210465680694579,4.996399589538574,-0.21039047088623045
1788880991304004600,0.147004638671875,7.580940281677246,5.185092607879638,-0.34745851593017574
1788880991314034700,0.15703466796875,7.321169401550293,5.109974530792236,-0.6673837127685547
1788880991324064800,0.167064697265625,7.452551217651367,5.147832844543457,-0.7646481552124023
1788880991334095600,0.177095703125,7.207444822692871,5.1596542152404785,-0.7498340324401855
1788880991344125700,0.187125732421875,6.8034232925415035,5.130624520111084,-0.3651157531738281
1788880991354156800,0.19715673828125,6.514622717285156,5.059247383117675,0.254084651184082
1788880991364187000,0.207186767578125,5.654805046081543,4.798129764556885,1.0817302375793456
1788880991374216700,0.217216796875,5.604975724029541,4.793042086029052,-0.5114613296508789
1788880991384246800,0.227246826171875,5.810278516387939,4.908263040924072,-1.7420809829711914
1788880991394276600,0.237276611328125,5.964554885864257,5.01779776687622,-1.9611504348754882
1788880991404306700,0.247306640625,6.291064137268066,5.288342554473877,-1.4975731384277342
1788880991414336800,0.257336669921875,6.9150529449462885,5.289838930511475,-1.4082394889831542
1788880991424366600,0.26736669921875,7.464222950744628,5.337722963714599,-1.2493243537902832
1788880991434396700,0.277396728515625,7.448062089538574,5.265148725891113,-1.0250175857543944
1788880991444426800,0.2874267578125,7.562684494018554,4.990713360595703,-0.9745897132873534
1788880991454456800,0.297456787109375,7.300519412231445,4.947019180297851,-0.5161000953674316
1788880991464487000,0.30748681640625,6.925677214813232,4.6636055587768555,0.14170681076049804
1788880991474517800,0.317517822265625,7.4417773101806635,4.123713084411621,0.6766612442016601
1788880991484547600,0.327547607421875,8.220790675354003,3.90075305480957,0.3112462158203125
1788880991494577700,0.33757763671875,8.097040377044678,4.202123188781738,-0.43724107818603514
1788880991504607700,0.347607666015625,7.302763976287841,4.7584757995605464,-0.7960720520019531
1788880991514637800,0.357637939453125,7.285854927062988,5.192125575256347,-1.0136451278686522
1788880991524667600,0.367667724609375,6.957550024414062,5.1973628913879395,-1.1581950531005858
1788880991534697700,0.37769775390625,6.937498585510253,5.098602072906494,-1.2249334243774412
1788880991544727800,0.387727783203125,7.867346655273437,5.457133771514893,-1.5020622665405272
1788880991554758000,0.3977578125,8.806621894073485,5.513547148132324,-1.580771646118164
1788880991564787700,0.40778759765625,9.377190077209471,5.483320352172851,-1.3741221153259278
1788880991574817500,0.417817626953125,9.663446813201904,5.779004257202148,-0.3485059791564941
1788880991584847600,0.42784765625,9.19313582458496,4.796783026123046,-0.21517887420654297
1788880991594877700,0.437877685546875,9.167248519134521,4.444386469268799,-0.148739778137207
1788880991604907800,0.44790771484375,9.737068514251709,4.362085787200927,-0.030526071166992186
1788880991614938600,0.457938720703125,9.285162950897217,4.116979392242431,-0.5087678527832031
1788880991624968700,0.46796875,8.346486262512206,4.857386255645752,-1.4692916313171387
1788880991634998800,0.477998779296875,8.336759818267822,6.16072978439331,-2.7635072662353513
1788880991645028900,0.48802880859375,9.252541953277587,7.158513326263427,-2.863315547943115
1788880991655058700,0.49805859375,9.304316564178466,6.108955173492431,-1.5764321556091307
1788880991665088800,0.5080888671875,9.33379517211914,4.810400048065185,-0.6860884132385253
1788880991675118600,0.51811865234375,9.454403080749511,4.75009609375,-0.6672340751647949
1788880991685148700,0.528148681640625,8.822184204864502,4.750245731353759,-0.8524854286193847
1788880991695178800,0.5381787109375,8.41412245941162,4.922927526092529,-1.3967173934936523
1788880991705208800,0.548208740234375,8.481010468292236,5.36884758529663,-2.1555296821594236
1788880991715239000,0.558239013671875,8.908674739837647,5.824045175933837,-1.956062756347656
1788880991725268700,0.568268798828125,9.072827191162109,5.82239916229248,-1.2777554985046387
1788880991735298600,0.578298583984375,9.21932240524292,5.374982727050781,-1.1397896278381348
1788880991745329700,0.58832958984375,9.101856886291504,5.316773699188232,-1.1870751106262207
1788880991755359700,0.59835986328125,9.082852910614013,5.435735594177245,-0.9796773918151855
1788880991765389600,0.6083896484375,9.008931934356688,5.229834251403808,-0.45878889312744137
1788880991775419600,0.618419677734375,8.626458219146729,5.121047713470459,-0.2856581855773926
1788880991785449700,0.62844970703125,8.320449319458007,5.03695138015747,0.04878185882568359
1788880991795479800,0.638479736328125,7.940519443511962,4.803666355895996,0.2380734275817871
1788880991805510000,0.648510009765625,7.98645818786621,4.696226556396484,0.4396352798461914
1788880991815539700,0.658539794921875,7.990049490356445,4.618564640045165,0.799962629699707
1788880991825569500,0.668569580078125,7.862558251953125,4.538209246826171,0.6874351516723632
1788880991835599600,0.678599609375,7.715614125061035,4.5863925552368165,0.008080430603027343
1788880991845629700,0.688629638671875,7.8158713195800775,4.85843371887207,-0.6407482192993164
1788880991855659800,0.69865966796875,7.914183225250244,5.327996519470214,-0.5023334358215332
1788880991865689900,0.70868994140625,7.8636057151794425,7.340173377227782,-0.826149210357666
1788880991875720700,0.718720703125,7.6361565574645995,8.145522960662841,-0.5633855781555176
1788880991885750800,0.728750732421875,8.178742508697509,5.6298155662536615,-0.2813186950683594
1788880991895780900,0.73878076171875,9.00174932937622,4.288464086151123,0.7223007133483886
1788880991905811000,0.74881103515625,8.832509199523924,4.994155025482177,1.6762404373168944
1788880991915840500,0.758840576171875,9.03332286376953,4.626645070648193,1.6738462356567383
1788880991925870600,0.76887060546875,8.948478342437744,4.9832314804077145,1.2189479202270508
1788880991935900700,0.778900634765625,8.048258518218994,5.374084901428223,0.5159504577636719
1788880991945930800,0.7889306640625,7.6659344406127925,5.67575431060791,-0.16594810256958006
1788880991955960800,0.7989609375,7.42486826095581,5.663184751892089,0.035763387298583985
1788880991965990700,0.80899072265625,7.409754862976074,5.645677152252197,0.24016835403442383
1788880991976020700,0.819020751953125,7.624335186767578,5.607669200897217,0.07870937957763671
1788880991986050800,0.82905078125,8.048707431030273,5.568314511108398,0.2825157958984375
1788880991996082000,0.83908203125,8.392425006866455,5.270685317230225,0.6587047317504883
1788880992006111700,0.84911181640625,7.731774986267089,5.285948352813721,-0.18734627990722655
1788880992016141600,0.8591416015625,8.117091815948486,5.443516749572754,-0.19348142166137694
1788880992026171600,0.869171630859375,8.731054904174805,5.233126278686523,0.8447042732238769
1788880992036201700,0.87920166015625,9.05980871963501,4.87145219039917,0.9371803123474121
1788880992046231800,0.889231689453125,9.127295278930664,4.902277536773681,0.7619546783447265
1788880992056262000,0.899261962890625,9.324816915893555,5.121646263885498,0.6102221481323242
1788880992066291700,0.909291748046875,9.441384609222412,5.071368029022216,0.5327098693847656
1788880992076321800,0.91932177734375,9.310750981140137,4.921880062866211,0.4725555526733398
1788880992086351600,0.9293515625,8.881141420745848,5.125836116790771,0.22101474075317382
1788880992096381700,0.939381591796875,8.874707003784179,5.371989974975586,0.10519523544311522
1788880992106412500,0.94941259765625,8.974515285491943,5.066729263305664,0.5659294174194336
1788880992116442600,0.959442626953125,9.377489352416992,4.938789112091064,0.9762357269287109
1788880992126472700,0.96947265625,9.187898508453369,4.866963062286377,1.0583867713928221
1788880992136502800,0.979502685546875,8.677335004425048,5.162198054504394,0.7538742477416992
1788880992146532900,0.989532958984375,8.277054414367676,5.6097641273498535,0.4572925170898437
1788880992156562700,0.999562744140625,7.981669784545898,5.9774237197875975,0.28969840087890625
1788880992166592800,1.0095927734375,8.135197966003417,5.908590422058105,0.5104138664245605
1788880992176622600,1.01962255859375,8.304587733459472,5.33068999633789,1.1206360145568848
1788880992186652700,1.029652587890625,7.979275582885742,5.410446839141845,0.9063549659729003
1788880992196682800,1.039682861328125,7.95473501586914,5.476885935211182,0.6552630668640136
1788880992206712800,1.049712890625,7.565078695678711,5.388599748992919,0.6465840858459472
1788880992216742700,1.05974267578125,7.388356685638428,5.634603969573974,0.6263830093383789
1788880992226773800,1.069773681640625,7.2450038612365715,5.714809725189209,0.5532102210998535
1788880992236803800,1.079803955078125,7.049726788330077,5.325153404998779,0.7167641220092773
1788880992246834000,1.089833984375,7.204003157806396,5.269188941192627,0.41105449752807616
1788880992256863700,1.09986376953125,7.274781744384765,5.181202030181884,0.10953472595214843
1788880992266893600,1.1098935546875,7.279570147705078,5.011363349914551,0.033518823242187495
1788880992276923600,1.119923583984375,7.286154202270508,4.859630819702148,0.0752677146911621
1788880992286953700,1.12995361328125,7.362918292999267,4.8117467864990235,-0.03681085052490234
1788880992296983800,1.13998388671875,7.5156982864379875,4.825812721252441,-0.05626373901367187
1788880992307013600,1.150013671875,7.651868505859374,4.763713115692139,-0.03247136001586914
1788880992317043700,1.160043701171875,7.854477821350097,4.883123923492431,-0.13901333389282225
1788880992327073800,1.17007373046875,8.141782020568847,4.812494974517822,-0.09068038787841796
1788880992337105000,1.18010498046875,8.364143499755858,4.741866025543213,0.0805050308227539
1788880992347134700,1.190134765625,8.494627490234375,4.716577270507813,0.2510918991088867
1788880992357164300,1.200164306640625,8.327631924438476,4.540902723693847,0.5379471855163573
1788880992367194400,1.2101943359375,8.067412131500244,4.4960114425659174,0.5419874008178711
1788880992377224400,1.220224365234375,7.678055086517333,4.6353240516662595,0.3173813575744629
1788880992387254300,1.230254150390625,7.250690090179443,4.6538791145324705,0.24959552307128904
1788880992397284400,1.240284423828125,6.862829421234131,4.765209491729736,0.09202712631225586
1788880992407314200,1.250314208984375,6.536918720245361,4.892551092529296,-0.2102408332824707
1788880992417344300,1.26034423828125,6.476914041137695,4.923077163696289,-0.2651578338623047
1788880992427374300,1.270374267578125,6.554426319885254,5.050718039703368,-0.26979659957885743
1788880992437405400,1.280405517578125,6.707954501342773,5.162796604919433,-0.2702455123901367
1788880992447435300,1.290435302734375,6.8110548103332516,5.3001639251708985,-0.26874913635253905
1788880992457465300,1.30046533203125,6.88871672668457,5.181650942993164,-0.2902969512939453
1788880992467495400,1.310495361328125,7.014113038635253,5.018396317291259,-0.1596633232116699
1788880992477525200,1.320525146484375,7.191882511901855,4.953004684448242,-0.06808510971069336
1788880992487555300,1.330555419921875,7.361721192169189,5.0580502822875975,0.07227496261596679
1788880992497585400,1.34058544921875,7.467814253234863,5.13930350112915,0.20979192047119138
1788880992507615200,1.350615234375,7.601739908599853,5.2073886108398435,0.20335750350952148
1788880992517645300,1.360645263671875,7.8164698699951165,5.2742766197204585,0.13631985702514648
1788880992527675400,1.37067529296875,8.042721926879882,5.071517666625977,0.30840310134887694
1788880992537706500,1.38070654296875,8.3502272026062,5.326500143432617,0.4182371025085449
1788880992547736300,1.390736328125,8.443750704956054,5.4698529678344725,0.4059668190002441
1788880992557766400,1.400766357421875,8.399009061431885,5.206041872406005,0.4725555526733398
1788880992567796500,1.41079638671875,8.560019123077392,5.542277568054199,0.2597708801269531
1788880992577826300,1.420826416015625,8.681674494934082,5.678747062683105,0.49245735397338863
1788880992587856400,1.4308564453125,8.595483235168457,5.999270809936523,0.28431144714355466
1788880992597886200,1.44088623046875,8.405593115997315,6.821828717803955,-0.018704700469970702
1788880992607916300,1.450916259765625,8.19131206741333,6.443844130706787,0.19797054977416992
1788880992617946400,1.4609462890625,8.239196100616455,6.442946305084228,0.38531682968139647
1788880992627976400,1.4709765625,8.525752111816406,6.437110438537597,0.6648398735046386
1788880992638007300,1.48100732421875,8.756044384002685,6.496516567230224,0.824802471923828
1788880992648037400,1.491037353515625,8.797045087432862,6.319944194793701,1.1302128211975098
1788880992658067500,1.5010673828125,8.78477480392456,6.0799254783630365,0.9952397026062011
1788880992668097300,1.51109716796875,8.621669815826415,6.019771161651611,0.9009680122375487
1788880992678127400,1.52112744140625,7.965060010528564,6.050596508026123,0.745045629119873
1788880992688157400,1.531157470703125,7.189787585449218,6.1836243377685545,0.26695348510742184
1788880992698187300,1.541187255859375,7.110180380249023,6.22477467880249,0.40402153015136716
1788880992708217300,1.55121728515625,7.0649898239135736,5.945550910186768,0.5874772323608398
1788880992718247400,1.561247314453125,7.199065116882323,5.992686755371094,0.6866869636535644
1788880992728278300,1.5712783203125,7.088782202911377,5.910386073303222,0.6874351516723632
1788880992738308400,1.581308349609375,7.010821011352538,5.657348885345459,0.6072293960571289
1788880992748338400,1.59133837890625,7.113921320343017,5.792022728729248,0.553509496307373
1788880992758368300,1.6013681640625,7.031022087860107,5.872378121948242,0.773776049041748
1788880992768398300,1.6113984375,7.070526415252685,5.941660332489013,1.0224737464904785
1788880992778428400,1.621428466796875,7.254879943084716,6.253056185913086,1.2547113075256346
1788880992788458200,1.631458251953125,7.492205182647704,5.8369140098571775,1.3775637802124023
1788880992798488300,1.64148828125,7.959523419189453,5.389347937011719,1.535431452178955
1788880992808518400,1.651518310546875,8.14058491973877,5.435286681365967,1.239897184753418
1788880992818549500,1.661549560546875,8.221538863372801,5.268291115570068,1.0829273384094238
1788880992828579300,1.671579345703125,8.38943225479126,4.892551092529296,1.2544120323181152
1788880992838609400,1.681609375,8.55463216934204,4.806359832763672,1.5221137054443359
1788880992848639200,1.69163916015625,8.838345066070556,4.804264906311035,2.0519804603576657
1788880992858669300,1.70166943359375,9.201216255187989,5.195567240142822,2.29828395614624
1788880992868699400,1.711699462890625,9.542988542175292,5.0757075195312495,2.737619960784912
1788880992878729200,1.721729248046875,9.485976615142821,4.839130467987061,2.772186247253418
1788880992888759300,1.73175927734375,9.224559721374511,5.080346285247803,2.5974095260620116
1788880992898789400,1.741789306640625,9.484629876708984,-0.1361702194213867,4.513070129394531
1788880992908820500,1.751820556640625,8.475324239349364,4.200028262329101,3.4831145027160644
1788880992918850300,1.761850341796875,8.891466415405272,7.200711130523681,2.3651719650268554
1788880992928880400,1.77188037109375,11.690886706542969,7.674613421630859,2.2846669342041013
1788880992938910200,1.78191015625,8.78507407913208,7.9183730781555175,2.1167735427856442
1788880992948940300,1.791940185546875,7.998279558563232,6.93345837020874,2.3546973327636715
1788880992958970400,1.801970458984375,9.011026860809325,5.251082791137695,2.8405706321716306
1788880992969000400,1.81200048828125,9.139415924835205,4.3926118583679195,3.7012861289978027
1788880992979030300,1.8220302734375,8.412476445770263,4.065653694152831,5.156062912750244
1788880992989060400,1.832060302734375,7.9013143913269035,3.69006330871582,6.234800398254394
1788880992999091500,1.842091552734375,8.314014902496337,3.3858500602722166,6.439654277801513
1788880993009121500,1.85212158203125,9.271246653747559,3.2043396469116208,5.943455983734131
1788880993019151400,1.8621513671875,10.053851321411132,2.7672482063293455,5.201403106689453
1788880993029181200,1.87218115234375,10.38155767364502,1.7664719123840331,5.296273347473144
1788880993039211300,1.882211181640625,9.3339448097229,0.7800608283996582,5.876567974853515
1788880993049241300,1.892241455078125,8.518719144439697,-0.1370680450439453,7.061248883819579
1788880993059271400,1.902271484375,7.891737584686279,-0.5904699844360352,6.870760214233398
1788880993069301200,1.91230126953125,7.511209158325195,-0.7863456077575683,6.036530573272705
1788880993079331300,1.922331298828125,7.649623941802978,-0.6489782875061034,4.464886820983886
1788880993089362400,1.932362548828125,7.555501889038085,0.04399345550537109,3.2486323776245114
1788880993099392500,1.942392578125,6.369025328826904,0.5363011718749999,4.666149398040771
1788880993109422300,1.95242236328125,4.994753575897216,0.6982090591430664,6.456862602233886
1788880993119452200,1.9624521484375,5.032013339233398,0.6702268272399902,7.058705044555664
1788880993129482200,1.972482177734375,6.006303777313232,0.8011597305297851,6.236296774291992
1788880993139512300,1.98251220703125,7.033416289520264,0.9350853858947753,5.204395858764648
1788880993149542400,1.99254248046875,7.236175242614745,0.7633014167785644,5.026327110290527
1788880993159572500,2.002572509765625,6.701370446777343,0.426467170715332,4.930559043884277
1788880993169603300,2.012603271484375,5.86669189300537,0.14125789794921875,4.567388579559326
1788880993179633400,2.02263330078125,4.679018231964111,0.08020575561523437,4.251054685211181
1788880993189663500,2.03266357421875,3.201047619628906,0.2920926025390625,4.295646691131592
1788880993199693600,2.042693603515625,1.9189526306152342,0.496048656463623,5.043984347534179
1788880993209723100,2.05272314453125,1.5876549758911132,-0.48467619857788086,7.078756483459472
1788880993219753200,2.062753173828125,1.2596493484497069,-0.9943418769836425,7.379079154205322
1788880993229783300,2.072783203125,1.6615759521484375,-0.4634276588439941,6.507739387512206
1788880993239813400,2.0828134765625,2.5354595581054684,-0.7371148361206055,6.328922451019286
1788880993249844200,2.09284423828125,3.7140053253173826,-1.5306430488586424,6.091597211456299
1788880993259874300,2.102874267578125,3.896263926696777,-2.0178630867004395,6.086060620117187
1788880993269904400,2.112904296875,3.3310826972961425,-2.777722838592529,6.5397618347167965
1788880993279934500,2.1229345703125,2.645143921661377,-3.7976527458190916,6.8596870315551755
1788880993289964500,2.132964599609375,2.223764429473877,-3.8968624771118163,7.242310384368896
1788880993299994400,2.142994384765625,2.4699182876586914,-3.877409588623047,7.463774037933349
1788880993310024200,2.153024169921875,2.319532495880127,-5.01809704208374,6.479308242797851
1788880993320054300,2.16305419921875,2.4756045166015626,-6.20517215270996,6.060921502685546
1788880993330084400,2.17308447265625,2.736871772766113,-6.061819328308105,6.9910688476562495
1788880993340115200,2.183115234375,2.6768670936584473,-6.079326927947998,8.112752325439452
1788880993350145300,2.193145263671875,2.7733833480834957,-6.486939760589599,8.141931658172608
1788880993360179000,2.203178955078125,2.404526654815674,-7.75721337890625,9.254487242126464
1788880993370209000,2.213208984375,2.4320599739074704,-10.273668961334227,10.965144328308105
1788880993380239000,2.223239013671875,1.936909143066406,-12.614300359344481,10.697293017578124
1788880993390269000,2.23326904296875,2.206556105041504,-14.256872335815428,10.798896950531006
1788880993400299000,2.243299072265625,1.4897919830322264,-16.151284399414063,12.114510762786864
1788880993410329000,2.2533291015625,-0.19018939437866209,-16.947506089019775,13.912256934356689
1788880993420360200,2.263360107421875,-0.8556278182983398,-16.243910076141358,16.46507445449829
1788880993430390000,2.27339013671875,-1.2300211029052734,-15.171607007598876,18.607136752319335
1788880993440420000,2.283420166015625,-1.241692835998535,-14.23667125930786,19.44660370941162
1788880993450450000,2.293449951171875,-0.5361515342712402,-13.551630309295653,19.441815306091307
1788880993460480000,2.30347998046875,0.022744915771484374,-12.938864321899413,19.058443765258787
1788880993470510000,2.313510009765625,-1.319055477142334,-11.604545809173583,18.851494959259032
1788880993480540200,2.3235400390625,-2.1152771667480468,-9.597606267547606,18.924069197082517
1788880993490571000,2.333571044921875,-1.5161282012939452,-7.370100897979736,18.076671446990964
1788880993500601000,2.34360107421875,-0.2980781066894531,-5.830629230499267,17.23855122833252
1788880993510631200,2.353631103515625,-1.0327987411499022,-5.169829572296142,15.383044941711425
1788880993520661000,2.363660888671875,-1.2409446479797364,-5.398475830841064,13.310414492034912
1788880993530691000,2.373691162109375,-0.6832452987670898,-6.555922695922852,11.439345894622802
1788880993540721200,2.38372119140625,0.15472528228759766,-7.304709265136719,9.366565807342528
1788880993550754000,2.393754150390625,-1.9794062225341795,-7.400926244354247,6.873154415893555
1788880993560784100,2.4037841796875,-1.933916390991211,-6.047454118347168,5.083937587738037
1788880993570814200,2.413814208984375,-0.7305307815551757,-4.272602500152588,3.6764462867736816
1788880993580844300,2.42384423828125,0.05970540390014648,-3.015347353363037,2.1015105072021485
1788880993590873900,2.433873779296875,-0.12853870162963865,-1.2080243751525879,0.33758243408203126
1788880993600904000,2.443904052734375,0.037409400939941405,0.13587094421386717,-0.6491279251098633
1788880993610934000,2.45393408203125,-0.41150341033935545,-0.1571194839477539,-0.6898293533325195
1788880993620965000,2.463965087890625,-0.8641571617126464,-1.0694599540710448,-0.2539350135803223
1788880993630995000,2.473994873046875,-0.5749076736450195,-3.403507297515869,-0.12419921112060546
1788880993641025000,2.48402490234375,0.3678092300415039,-6.2021794006347655,-0.024390929412841794
1788880993651055000,2.49405517578125,0.21353286056518553,-6.9250786643981925,-0.32441432495117184
1788880993661085200,2.504085205078125,0.33967736053466796,-7.324910341644287,0.051774610900878905
1788880993671115300,2.514115234375,1.020229182434082,-7.714566661834716,1.4053963745117186
1788880993681144800,2.524144775390625,0.7636006919860839,-7.026682597351074,3.576638005065918
1788880993691175000,2.5341748046875,0.9651625442504882,-7.3174284614562985,5.083638312530518
1788880993701206000,2.5442060546875,1.0407295341491698,-8.828468984222411,5.586869573974609
1788880993711236000,2.554236083984375,1.3479355346679687,-10.654047750091552,6.151302615356445
1788880993721266000,2.564265869140625,2.3843255783081054,-12.106879244995117,7.381772631072997
1788880993731296000,2.5742958984375,2.780565953063965,-12.60262862625122,8.744372650909423
1788880993741326000,2.584326171875,2.3389853843688964,-11.665747589111328,10.015544094848632
1788880993751356200,2.594356201171875,1.9048866958618162,-10.066271242523193,11.524040778350829
1788880993761386200,2.60438623046875,1.6364368347167968,-8.186224388885497,12.11121873550415
1788880993771417000,2.6144169921875,0.5041290870666504,-6.979097839355468,12.208333540344238
1788880993781447200,2.624447265625,0.3389291725158691,-5.390844313049316,11.686397578430174
1788880993791477000,2.63447705078125,-0.9235632904052734,-4.776282674407959,9.870994169616699
1788880993801507000,2.644507080078125,-1.406443837738037,-6.1544450050354,8.890418952178955
1788880993811537200,2.654537109375,-1.457470260620117,-6.345083312225341,8.118887467193604
1788880993821567000,2.66456689453125,-1.5131354492187499,-5.827935753631592,7.432200503540039
1788880993831597000,2.67459716796875,-1.25770405960083,-5.504718529510498,6.780528739166259
1788880993841627100,2.684627197265625,-1.476025323486328,-5.683984378814697,7.048529687499999
1788880993851658000,2.694657958984375,-1.890970398712158,-6.1942486076354975,6.884526873779296
1788880993861688000,2.70468798828125,-2.7323826446533204,-4.95450106048584,7.233930678558349
1788880993871718100,2.71471826171875,-1.13006318359375,-3.72193611831665,6.376956121826171
1788880993881748000,2.724748046875,-0.9525929855346679,-6.132298639678955,7.180061141204834
1788880993891778000,2.734778076171875,-0.00613514175415039,-9.686191728973387,6.696282768249511
1788880993901808000,2.74480810546875,2.8342858528137205,-5.918616141510009,5.754014777374267
1788880993911838000,2.754837890625,2.424278818511963,-0.9690531219482421,6.974907986450195
1788880993921869000,2.764869140625,1.6925509361267088,-4.668693237304687,9.468917928314209
1788880993931899100,2.774899169921875,4.15648371963501,-4.345775288391113,11.215338401794433
1788880993941929200,2.78492919921875,6.335356867980956,-7.773823152923583,10.209624066925048
1788880993951959000,2.794958984375,7.056909393310547,-8.95610986022949,7.798662995147705
1788880993961989000,2.804989013671875,8.272415648651123,-6.171354054260253,5.521477941131591
1788880993972019000,2.81501904296875,9.315539384460449,-5.096207871246338,4.595819724273682
1788880993982049000,2.825049072265625,9.191639448547363,-5.014805014801025,4.949563019561768
1788880993992080000,2.835079833984375,9.350255308532715,-2.9231705894470212,5.737853916168213
1788880994002110000,2.84510986328125,7.472901931762695,-2.3924060089111325,6.608744770050048
1788880994012140000,2.85514013671875,7.3669585083007805,-1.4139257179260254,6.937049672698974
1788880994022170000,2.865170166015625,6.695684217834472,-2.042254016113281,5.721244142150878
1788880994032200200,2.8752001953125,7.188291209411621,1.2006921325683593,6.929717430114746
1788880994042230000,2.88522998046875,2.6349685646057126,-2.486677699279785,6.7559881721496575
1788880994052260000,2.895260009765625,1.6693571075439453,-3.7804444213867185,6.03937368774414
1788880994062291200,2.905291259765625,2.2789807052612305,-4.218882600402832,3.727323072052002
1788880994072321300,2.9153212890625,4.064905506134033,-4.714482344055176,1.6922516609191893
1788880994082350800,2.925350830078125,3.648613692474365,-3.69021294631958,3.695899175262451
1788880994092381000,2.935380859375,2.991554974365234,-3.847182792663574,5.715707550811767
1788880994102411000,2.945410888671875,2.0801123298645017,-5.073014042663574,6.337152519226074
1788880994112441000,2.955441162109375,2.019509100341797,-5.298517911529541,5.67530539779663
1788880994122472000,2.965471923828125,3.058592620849609,-5.390993950653076,5.389198299407958
1788880994132502000,2.975501953125,2.9893104103088377,-5.812523080444335,6.251260534667968
1788880994142532000,2.985531982421875,2.54084651184082,-5.532401486206054,8.046313229370117
1788880994152562200,2.995562255859375,2.301575983428955,-5.995829145050048,6.070348671722412
1788880994162592300,3.00559228515625,3.8892309593200682,-7.727585133361816,5.862950952911377
1788880994172622000,3.0156220703125,5.802646998596191,-10.303446844482421,9.917082551574707
1788880994182652000,3.02565185546875,-1.4974235008239745,-11.141417425537108,9.281422010803222
1788880994192683000,3.03568310546875,-5.7966614944458,-8.684218334197997,4.694281267547607
1788880994202713000,3.045713134765625,-3.2884359802246093,-7.23348176574707,2.6925790420532225
1788880994212743200,3.0557431640625,2.355146245574951,-4.525041137695312,3.8807016159057617
1788880994222773000,3.06577294921875,-0.9739911628723144,-5.303306314849853,7.1023992248535155
1788880994232803000,3.075802978515625,-7.3097969436645505,-7.4040686340332025,8.59353794631958
1788880994242833200,3.085833251953125,-6.5385647338867185,-7.048529687499999,9.444227723693848
1788880994252863200,3.09586328125,-6.150255152130127,-6.795941412353515,10.542717372894286
1788880994262894000,3.10589404296875,-7.31682991104126,-8.118438554382324,10.443956554412841
1788880994272924000,3.115923828125,-6.721721160888672,-8.74048207321167,9.553912087249754
1788880994282954000,3.1259541015625,-7.1674915824890135,-8.651896611785888,8.511686177062987
1788880994292984000,3.135984130859375,-7.098807922363281,-8.425046004486083,8.125920434570313
1788880994303014100,3.14601416015625,-7.134571309661865,-7.582586295318603,8.200439961242676
1788880994313044000,3.1560439453125,-7.549067472076415,-7.612663453674316,8.935310233306884
1788880994323075000,3.166074951171875,-5.596596018218994,-8.22258632659912,10.602572414398193
1788880994333105200,3.176105224609375,-2.739415612030029,-8.36339531173706,11.152640245819091
1788880994343135200,3.18613525390625,-1.1786954048156737,-7.84609811553955,9.654618194580078
1788880994353165000,3.1961650390625,-0.4116530479431152,-7.230937926483154,7.957877405548095
1788880994363195100,3.206195068359375,1.6424223388671875,-5.655253958892822,5.693411547851563
1788880994373225200,3.21622509765625,2.7736826232910157,-3.7270237968444824,2.2851158470153807
1788880994383255300,3.22625537109375,3.2308255027770993,-3.605218787384033,0.3495534423828125
1788880994393286100,3.2362861328125,2.782810517120361,-3.771915077972412,0.18989011917114257
1788880994403316200,3.246316162109375,2.546682378387451,-3.7199908294677733,0.596305850982666
1788880994413346300,3.25634619140625,0.5998971534729004,-3.7174469902038574,1.1311106468200682
1788880994423376100,3.266376220703125,-1.8359037605285644,-3.757250592803955,2.184709014892578
1788880994433406200,3.27640625,-4.787804769897461,-3.6872201942443845,4.400692288970947
1788880994443436000,3.28643603515625,-8.441655778503417,-4.4689270362854,8.883685260009765
1788880994453467100,3.296467041015625,-9.880122063446045,-5.831377418518066,10.875661041259765
1788880994463497200,3.306497314453125,-9.815029705810547,-6.713042179870605,9.933243412780762
1788880994473527300,3.31652734375,-8.37521668243408,-7.29737702255249,7.632116342163085
1788880994483557000,3.32655712890625,-6.854150440216064,-7.7395561416625975,6.594379560089111
1788880994493587200,3.336587158203125,-5.221454545593262,-8.378508709716796,6.337002881622314
1788880994503617300,3.3466171875,-2.5694272941589356,-10.057442623901366,6.711994716644287
1788880994513647000,3.356647216796875,-3.4759318977355953,-11.421987932586669,6.986430081939697
1788880994523678200,3.36667822265625,-4.051438121795654,-12.172719790649413,6.521655684661865
1788880994533708000,3.3767080078125,-4.396951348876953,-12.40465807647705,4.695029455566406
1788880994543738000,3.386738037109375,-4.501697671508789,-12.198158183288573,2.0150199722290036
1788880994553768200,3.396768310546875,-5.0185459548950195,-11.253944903564452,-0.42497079467773435
1788880994563798300,3.40679833984375,-5.868936457061767,-9.048585899353027,-2.331054591369629
1788880994573828000,3.416828125,-6.705111386871337,-7.414692903900146,-1.992574331665039
1788880994583859200,3.426859130859375,-6.221781926727295,-6.678326255798339,-1.7559972801208494
1788880994593889300,3.43688916015625,-4.84541524734497,-5.795464393615722,-3.660285425567627
1788880994603919400,3.44691943359375,-3.3241993675231933,-5.067327813720703,-4.293551764678955
1788880994613949200,3.45694921875,-2.127098537445068,-5.2265422241210935,-1.4362217208862305
1788880994623979000,3.46697900390625,3.930082025146484,-5.360168604278564,4.717475096130371
1788880994634009000,3.477009033203125,5.434538493347167,-4.144512711334229,10.976067873382569
1788880994644039200,3.4870390625,0.438587816619873,-4.478503842926025,13.95011524810791
1788880994654070000,3.497070068359375,-2.2501006477355956,-6.020070436859131,15.024064330291747
1788880994664100000,3.50710009765625,-4.635623326873779,-7.920168729400634,12.307842546844482
1788880994674130200,3.517130126953125,-5.780799908447265,-8.486995972442626,9.931896674346923
1788880994684160300,3.52716015625,-5.537189889526367,-8.120533480834961,9.304017288970947
1788880994694190300,3.5371904296875,-5.284302339172363,-8.75290199432373,8.053944747161864
1788880994704220400,3.547220458984375,-2.2967875801086426,-9.842263749694824,5.3101896446228025
1788880994714251300,3.557251220703125,-0.24361001892089842,-10.459967778015136,4.339939421844482
1788880994724281000,3.567281005859375,-5.7453357963562,-7.116165884399414,5.050418764495849
1788880994734311200,3.577311279296875,-4.0222587890625,-5.950937863922118,1.5186720405578613
1788880994744341200,3.58734130859375,-3.7407904563903807,-4.924723177337646,0.40357261734008787
1788880994754371000,3.59737109375,-3.12832374420166,-3.6118028419494626,0.6898293533325195
1788880994764401200,3.607401123046875,-2.542193250274658,-3.2591070098876953,0.712424631500244
1788880994774432300,3.617432373046875,-2.248454634094238,-3.886238207244873,0.3886088569641113
1788880994784462300,3.62746240234375,-1.8900725730895995,-6.083367143249512,0.4538508522033691
1788880994794492200,3.6374921875,-0.2976291938781738,-11.89379529724121,0.7984662536621093
1788880994804522200,3.647522216796875,4.031386682891846,-24.84074004974365,-3.05814370803833
1788880994814552000,3.657552001953125,3.4485482162475583,-34.04539796981811,-5.932831713867187
1788880994824582100,3.66758203125,-2.457348728942871,-26.59733588027954,-3.5998318336486816
1788880994834612200,3.6776123046875,-3.4489971290588377,-18.59935559692383,-1.5129858116149901
1788880994844643000,3.68764306640625,-3.1376012756347653,-12.81960315170288,-0.8470984748840331
1788880994854673200,3.697673095703125,-3.723881407165527,-7.873631434631347,-1.4446014266967773
1788880994864703200,3.707703125,-5.256918657684325,-1.8050784141540526,-2.065447844696045
1788880994874733300,3.7177333984375,-6.421398490142822,1.103876602935791,-2.1625626495361328
1788880994884763100,3.72776318359375,-6.40329234008789,-1.1522095489501953,-1.0761936462402344
1788880994894793200,3.737793212890625,-3.9152679023742674,-1.9654899253845213,3.6074633514404293
1788880994904824300,3.74782421875,-0.16879121704101563,-2.500145083618164,10.565013375854491
1788880994914854400,3.7578544921875,-4.753986671447754,-11.136479384613036,-0.036062662506103516
1788880994924884000,3.767884033203125,-9.628730889129638,-6.867168911743164,-3.568407936859131
1788880994934914000,3.7779140625,-10.772860007476806,-4.8421232200622555,-0.29388825378417965
1788880994944944000,3.787944091796875,-7.914781775665283,-7.2614639976501465,0.8756792572021483
1788880994954974200,3.79797412109375,-7.359476628112793,-8.289773610687256,-0.4343979637145996
1788880994965005000,3.808005126953125,-7.688230443572998,-6.4272343566894525,-0.9151835845947265
1788880994975035100,3.81803515625,-8.275707675933837,-3.4289456901550293,-1.8228852890014646
1788880994985065200,3.828065185546875,-8.309376136779784,-1.6579846496582031,-1.7389385932922363
1788880994995095300,3.83809521484375,-8.177096495056151,-0.6786065330505371,-1.8130092071533201
1788880995005125400,3.84812548828125,-8.825625869750976,-0.5226841499328613,-1.7366940292358397
1788880995015155200,3.8581552734375,-9.830891291809081,-1.2966098365783691,-0.9017162002563476
1788880995025186300,3.868186279296875,-10.59763437347412,-1.3217489540100096,0.8297405128479003
1788880995035216100,3.878216064453125,-9.917830739593505,-1.555782166290283,2.558653386688232
1788880995045246200,3.88824609375,-9.337985025024414,-2.1218612213134764,2.897283283996582
1788880995055276000,3.898276123046875,-9.021651130676268,-2.3413795860290527,3.1766566902160642
1788880995065306000,3.90830615234375,-7.268496965026855,-1.746719748687744,3.9941269195556637
1788880995075336200,3.918336181640625,-5.613205792236328,-2.074426100921631,3.1700726356506346
1788880995085366300,3.9283662109375,-4.339191233825684,-4.23279889755249,1.3504793739318848
1788880995095397000,3.938397216796875,-1.9011457557678222,-6.407332555389404,-0.008379705810546874
1788880995105427200,3.94842724609375,-1.5777788940429687,-7.605331211090087,-0.061949967956542965
1788880995115457300,3.958457275390625,-0.6280290229797363,-7.904905693817138,0.9578303016662597
1788880995125487000,3.968487060546875,-0.9401730644226074,-7.513603359985352,2.7169699714660642
1788880995135517200,3.97851708984375,-2.3644237770080565,-7.199813304901123,4.181323561859131
1788880995145547300,3.98854736328125,-2.6650457229614255,-8.609399532318115,5.025878197479248
1788880995155578000,3.998578125,-3.8124668685913083,-10.071059645843505,4.8692076263427735
1788880995165608200,4.008608154296875,-3.9088334854125972,-9.837624983978271,5.622932236480713
1788880995175638300,4.01863818359375,-3.7939118057250973,-9.619154082489013,4.988169521331787
1788880995185668400,4.02866845703125,-3.3827076705932617,-10.773907470703124,3.472490232849121
1788880995195698200,4.0386982421875,-2.092831526184082,-12.386103013610839,2.1441572242736817
1788880995205728300,4.048728271484375,-1.3697826248168945,-13.755137450408935,0.9626187049865722
1788880995215759400,4.05875927734375,-1.079635311126709,-13.884424340057372,0.9593266777038574
1788880995225789200,4.0687890625,-0.9261071296691894,-12.921955272674559,3.0324060401916504
1788880995235819000,4.078819091796875,-0.5680243438720702,-11.250652876281737,5.647921716308593
1788880995245849000,4.08884912109375,-1.9557634811401365,-10.01060605392456,0.3033154228210449
1788880995255879200,4.098879150390625,-5.870283195495605,-7.260416534423828,-0.6272808349609375
1788880995265909200,4.1089091796875,-7.257872695159912,-6.83769030380249,1.7580922065734863
1788880995275940000,4.118940185546875,-4.364629626464843,-9.585485621643066,1.1544541130065917
1788880995285970200,4.12897021484375,-3.2423475982666012,-10.551695629119873,0.8102876243591308
1788880995296000300,4.139000244140625,-4.388721280670166,-8.26837543334961,2.145503962707519
1788880995306030300,4.1490302734375,-4.357895934295654,-5.101445187377929,3.140444390106201
1788880995316060200,4.15906005859375,-2.899677485656738,-6.5482911781311035,1.970876879119873
1788880995326090000,4.169090087890625,-1.2544120323181152,-8.963891015625,1.7980454467773437
1788880995336121000,4.17912109375,0.20006547622680662,-9.580697218322753,2.2991817817687985
1788880995346151200,4.189151123046875,1.8155530464172362,-9.738265615081787,1.2363058822631836
1788880995356180700,4.1991806640625,2.6910826660156246,-10.076596237182617,-0.08798691101074219
1788880995366210800,4.2092109375,3.0865748527526855,-10.415076496887206,-1.454327870941162
1788880995376240600,4.21924072265625,3.011456775665283,-10.794108547210692,-2.7769746505737305
1788880995386270700,4.229270751953125,0.9952397026062011,-10.742034661102295,-2.1689970664978024
1788880995396301800,4.2393017578125,-0.18555062866210936,-10.762834288024901,-1.6069582267761229
1788880995406332000,4.249331787109375,-0.3344400444030762,-11.532719759368895,-1.978508396911621
1788880995416361700,4.25936181640625,-0.5930138236999511,-11.978639818572997,-2.3027730842590333
1788880995426391800,4.269391845703125,-0.5494692810058593,-10.858452716827392,-1.0350433052062988
1788880995436421600,4.279421630859375,0.20605098037719724,-10.277260263824463,0.1696890426635742
1788880995446451700,4.28945166015625,4.133439528656005,-13.262680096435545,-2.8577789566040037
1788880995456482600,4.299482666015625,7.472153743743896,-16.78455073852539,-10.086921231842041
1788880995466512600,4.3095126953125,1.2080243751525879,-21.135862618255615,-16.097265224456788
1788880995476542700,4.319542724609375,-4.760271450805663,-18.01187836456299,-9.407865785980224
1788880995486572800,4.32957275390625,-4.69233597869873,-5.9111342613220215,0.5134066184997559
1788880995496603000,4.339602783203125,-3.053654579925537,-2.5125650047302246,2.4001871643066406
1788880995506632700,4.3496328125,-1.0598831474304198,-3.6942531616210936,2.0094833808898924
1788880995516663800,4.359663818359375,0.9418190780639648,-6.1194298057556145,1.5306430488586424
1788880995526694000,4.36969384765625,1.8382979621887205,-8.0314991065979,2.0617069046020506
1788880995536723700,4.3797236328125,-4.131494239807129,-9.09811594619751,5.303755227661132
1788880995546753500,4.38975341796875,-0.24929624786376953,-9.11083514251709,3.460968137359619
1788880995556783600,4.39978369140625,2.6529250770568846,-8.298751866912841,3.815908533477783
1788880995566813700,4.409813720703125,1.1303624588012695,-11.613972978210448,2.8775311203002927
1788880995576844800,4.4198447265625,-3.915567177581787,-14.986056378936766,-2.06200617980957
1788880995586874600,4.42987451171875,-10.450091696166991,-17.64571514816284,-7.8553756469726554
1788880995596904700,4.43990478515625,-13.760075491333007,-18.653973322296142,-10.607809730529784
1788880995606934800,4.449934814453125,-12.546065612030029,-14.54387725982666,-7.318326287078857
1788880995616964900,4.45996484375,-9.390208548736572,-9.446771562957764,-2.037764888000488
1788880995626994700,4.46999462890625,-9.355642262268066,-7.344961780548095,0.47375265350341794
1788880995637025800,4.48002587890625,-9.266607888031006,-6.076483813476562,1.638232485961914
1788880995647055600,4.4900556640625,-9.02733735961914,-5.127631768035888,2.309207501220703
1788880995657085700,4.500085693359375,-8.822483480072021,-5.19032992401123,1.8767548263549803
1788880995667115800,4.51011572265625,-8.055740398406982,-5.699995602416992,1.5702970138549803
1788880995677145600,4.5201455078125,-6.367379315185547,-5.597044931030273,2.20909994430542
1788880995687176700,4.5301767578125,-4.260182579040527,-5.129277781677246,3.321206615447998
1788880995697206800,4.540206787109375,-4.917690209960937,-6.180781223297119,2.8622680847167965
1788880995707236900,4.55023681640625,-6.073191786193847,-7.829189066314697,1.2150573425292968
1788880995717266700,4.5602666015625,-6.4448915939331055,-9.279476721954346,0.24824878463745115
1788880995727296800,4.570296875,-7.602637734222411,-10.892121177673339,-1.0818798751831054
1788880995737326600,4.58032666015625,-5.996726970672607,-10.22099652481079,-0.7245452774047851
1788880995747358000,4.59035791015625,-4.994903213500976,-9.714473236083984,-0.24390929412841794
1788880995757387500,4.600387451171875,-3.9954736579895016,-9.592817864227294,0.546476528930664
1788880995767417600,4.61041748046875,-3.8009447731018065,-10.065074141693115,0.8716390419006347
1788880995777447700,4.62044775390625,-4.625148694610595,-10.210222617340087,0.5473743545532226
1788880995787477800,4.630477783203125,-5.970989302825927,-8.732401642608641,-1.0332476539611817
1788880995797507800,4.6405078125,-5.706878932189941,-5.4524950057983395,-2.3511060302734372
1788880995807538700,4.65053857421875,-5.043236159515381,-2.522441086578369,-3.0737060188293457
1788880995817568800,4.66056884765625,-4.504989698791504,-1.2805986129760742,-2.7964275390625
1788880995827598800,4.670598876953125,-4.150947128295898,-2.837877155303955,-1.4279916526794432
1788880995837629000,4.68062890625,-3.799897309875488,-5.753565864562988,-0.5321113189697265
1788880995847658800,4.69065869140625,-3.612102117156982,-6.607846944427489,-0.2647089210510254
1788880995857688600,4.7006884765625,-3.577086917877197,-5.418377632141113,-0.6694786392211913
1788880995867719700,4.7107197265625,-3.7071219955444334,-3.421164534759521,-1.1709142494201659
1788880995877749800,4.720749755859375,-3.782240072631836,-2.2131401596069336,-1.0440215614318846
1788880995887779800,4.73077978515625,-4.3342531929016115,-2.936189060974121,-0.39653964996337887
1788880995897809700,4.7408095703125,-5.27322915649414,-4.340986885070801,0.07691372833251953
1788880995907839700,4.75083984375,-6.0799254783630365,-4.815487726593017,-0.057610477447509766
1788880995917870800,4.760870849609375,-6.318896731567382,-4.377498460388184,-0.43993455505371093
1788880995927900700,4.770900634765625,-6.113444301605225,-3.862894741058349,-0.9730933372497558
1788880995937930800,4.7809306640625,-5.500079763793945,-3.5262101325988766,-1.364994221496582
1788880995947960600,4.790960693359375,-4.830601124572754,-3.7274727096557614,-1.3789105186462403
1788880995957990700,4.80099072265625,-4.170699291992188,-4.569184230804443,-0.9980828170776367
1788880995968020700,4.811020751953125,-4.051288484191894,-5.651961931610107,-0.5738602104187012
1788880995978050800,4.82105078125,-4.2974423423767085,-6.461800643157958,-0.4085106582641601
1788880995988081700,4.83108154296875,-4.3065702362060545,-6.977002912902831,-0.5137058937072754
1788880995998111700,4.84111181640625,-4.330362615203857,-7.031022087860107,-0.8013093681335449
1788880996008141800,4.851141845703125,-3.8105215797424314,-6.68431175994873,-0.795473501586914
1788880996018172000,4.861171875,-3.670460782623291,-6.6708443756103515,-0.7767688011169434
1788880996028201700,4.87120166015625,-3.4270004013061524,-6.721421885681152,-0.6049848320007324
1788880996038232800,4.88123291015625,-3.503764492034912,-6.967575743865966,-0.5488707305908203
1788880996048263000,4.891262939453125,-3.6432267387390134,-7.809586540222168,-0.70868369140625
1788880996058292700,4.901292724609375,-3.8070799148559566,-9.119663761138915,-0.7404068634033203
1788880996068322600,4.911322509765625,-3.93277550201416,-10.56591120147705,-0.3315969299316406
1788880996078352600,4.9213525390625,-3.665223466491699,-11.79159281387329,0.347308878326416
1788880996088382700,4.9313828125,-3.6385879730224606,-12.266542568206786,0.9383774131774901
1788880996098413800,4.941413818359375,-3.612999942779541,-12.764237238311766,1.564760422515869
1788880996108443600,4.951443603515625,-3.5091514457702635,-14.633959097290038,2.2432173179626465
1788880996118473700,4.9614736328125,-3.8703766212463377,-17.35885986175537,2.31758720703125
1788880996128503800,4.97150390625,-4.30327820892334,-19.116802430725098,2.9179332733154295
1788880996138534000,4.981533935546875,-5.001636905670166,-16.951546304321287,3.3452982696533202
1788880996148563700,4.991563720703125,-5.483918902587891,-13.832949004364012,3.5022681159973144
1788880996158594600,5.001594482421875,-5.071966579437255,-11.750442472839355,3.324349005126953
1788880996168624600,5.011624755859375,-4.462342981719971,-10.75116255493164,3.088819416809082
1788880996178654700,5.02165478515625,-4.154688068389892,-10.293421125030516,2.982127805328369
1788880996188684800,5.031684814453125,-4.457853853607178,-9.830143103790283,2.7328315574645994
1788880996198714600,5.041714599609375,-5.003133281707763,-9.629329439544676,2.450914311981201
1788880996208745700,5.051745849609375,-5.31797080001831,-9.23757819290161,2.3129484413146972
1788880996218775800,5.06177587890625,-5.438129795837402,-8.227674005126953,2.203264077758789
1788880996228806000,5.071805908203125,-5.331438184356689,-7.7781626434326165,1.650353131866455
1788880996238835700,5.081835693359375,-5.022286894989014,-7.453000130462646,1.3205518531799316
1788880996248865800,5.09186572265625,-5.059696295928955,-7.151929271697997,1.0963947227478026
1788880996258895600,5.1018955078125,-4.826860184478759,-7.476343596649169,0.9115922821044922
1788880996268926700,5.1119267578125,-4.157680820465088,-8.501810095214843,0.9332897346496581
1788880996278956500,5.12195654296875,-3.540276067352295,-9.351452409362793,1.124227317047119
1788880996288986600,5.131986572265625,-2.9487586196899414,-9.917980377197265,1.5459060844421386
1788880996299016700,5.1420166015625,-2.578555187988281,-9.72285294189453,1.9415479087829588
1788880996309046800,5.152046875,-2.5086744270324703,-8.633940099334716,2.2876596862792966
1788880996319077600,5.16207763671875,-2.5194483345031737,-7.584830859375,2.8067525337219235
1788880996329107700,5.172107666015625,-2.682553322601318,-6.872406227874755,3.3372178390502927
1788880996339137800,5.1821376953125,-3.031208939361572,-6.396109735107421,3.745728497314453
1788880996349167900,5.19216796875,-3.584868073272705,-6.134393566131592,3.7152024261474605
1788880996359194000,5.202194091796875,-4.268562284851074,-6.152200440979003,3.432088079833984
1788880996369224200,5.21222412109375,-5.539135178375243,-5.98206248550415,2.93065246963501
1788880996379255000,5.222255126953125,-6.600365064239502,-5.991489654541016,2.512864279937744
1788880996389285000,5.23228515625,-6.669347999572754,-6.270264510345458,1.9647417373657226
1788880996399315000,5.24231494140625,-6.522852785491943,-7.184400631713867,1.9758149200439452
1788880996409345000,5.252344970703125,-6.225672504425049,-8.026860340881347,2.4684219116210935
1788880996419374800,5.262374755859375,-5.734561888885498,-8.726416138458251,2.756175023651123
1788880996429405000,5.272405029296875,-5.468805504608154,-9.26331586074829,2.6307787117004393
1788880996439436000,5.28243603515625,-4.359841223144531,-10.270975484466552,2.797026089477539
1788880996449466000,5.292466064453125,-3.8385038116455075,-11.802965271759032,3.1166520111083984
1788880996459496000,5.302495849609375,-4.816385552215576,-12.38011750946045,2.570325119781494
1788880996469526000,5.312526123046875,-6.613533173370361,-12.018892333984374,1.2123638656616211
1788880996479556000,5.32255615234375,-8.174851930999756,-10.667215859222411,-0.33369185638427734
1788880996489587000,5.3325869140625,-9.462633148956298,-9.779715231323241,-1.9551649307250976
1788880996499616800,5.34261669921875,-9.247304637145996,-9.097367758178711,-2.587982357025146
1788880996509646800,5.352646728515625,-8.114996889495849,-8.45302823638916,-2.9129952323913573
1788880996519677000,5.362677001953125,-7.495048297119141,-7.837868047332763,-2.7819126914978027
1788880996529707000,5.37270703125,-7.101950312042236,-7.403320446014404,-2.3642741394042965
1788880996539737000,5.382737060546875,-6.4740709266662595,-7.856872023010253,-1.997662010192871
1788880996549768000,5.392767822265625,-5.519981565093993,-8.789563207244873,-1.5994763465881348
1788880996559798000,5.402798095703125,-4.90975941696167,-9.552266073608397,-1.4761749610900878
1788880996569828000,5.412828125,-4.742614213562011,-9.259724558258057,-1.7935563186645507
1788880996579858200,5.422858154296875,-4.565443290710449,-8.493729664611816,-2.088940948486328
1788880996589887700,5.4328876953125,-4.829553661346435,-7.599794619750976,-2.218527113342285
1788880996599919000,5.442919189453125,-5.353135636901855,-6.972962697601318,-2.4549545272827147
1788880996609949000,5.452948974609375,-5.755960066223144,-6.987028632354736,-2.3714567443847656
1788880996619979000,5.46297900390625,-6.484246283721923,-7.070676052856445,-2.2753894027709958
1788880996630008800,5.4730087890625,-8.011148392486572,-7.020846730804443,-2.2164321868896484
1788880996640039000,5.483038818359375,-9.364321243286133,-6.760028387451172,-2.2418705795288085
1788880996650069000,5.493069091796875,-9.527875144195557,-6.093392862701416,-2.5459341903686523
1788880996660100000,5.50310009765625,-8.936357696533202,-4.415955324554443,-3.4907460205078125
1788880996670130000,5.5131298828125,-7.121403200531005,-3.027916912078857,-3.7969045578002927
1788880996680160000,5.523159912109375,-6.041618251800537,-2.428618309020996,-3.1172505615234374
1788880996690190000,5.533190185546875,-5.559036979675293,-2.224961530303955,-2.4404396797180175
1788880996700220000,5.543219970703125,-5.112368732452392,-2.6439468208312986,-2.345569438934326
1788880996710251000,5.5532509765625,-4.856638067626953,-3.472340595245361,-3.036745530700683
1788880996720280800,5.56328076171875,-4.815338088989257,-3.5941456047058105,-3.202543995666504
1788880996730311000,5.573310791015625,-4.630984561157226,-3.3904888259887693,-3.283497939300537
1788880996740341000,5.583341064453125,-4.646097959136963,-3.591601765441894,-2.929904281616211
1788880996750371000,5.59337109375,-4.5313259170532225,-3.9918823554992673,-2.243516593170166
1788880996760402000,5.60340185546875,-4.980388365936279,-3.928735286712646,-1.9755156448364257
1788880996770432000,5.613431884765625,-5.601683696746826,-3.2193034072875975,-2.1850082901000976
1788880996780462000,5.623462158203125,-6.456563327026367,-2.722207287597656,-2.526331664276123
1788880996790492200,5.6334921875,-7.030573175048827,-2.9134441452026367,-2.964769843292236
1788880996800522000,5.64352197265625,-7.421576233673095,-3.1329625099182126,-3.1585505401611327
1788880996810551800,5.6535517578125,-7.339724464416504,-3.539677516937256,-3.169623722839355
1788880996820583000,5.6635830078125,-7.3271549057006835,-4.218882600402832,-3.0144495277404784
1788880996830613000,5.673613037109375,-7.8258970390319815,-4.926668466186523,-2.896984008789062
1788880996840642800,5.683642822265625,-8.220641037750244,-5.477484485626221,-2.67492180480957
1788880996850673000,5.6936728515625,-8.063820829010009,-5.863549503326416,-2.231246309661865
1788880996860703000,5.703702880859375,-7.798962270355224,-6.066458094024658,-1.7444751846313475
1788880996870734000,5.713734130859375,-7.580940281677246,-6.129455525207519,-1.5824176597595214
1788880996880764000,5.723763916015625,-7.480832724761963,-6.285078633117675,-1.3289315589904784
1788880996890794000,5.7337939453125,-7.878719113159179,-6.14801058807373,-1.0363900436401368
1788880996900824000,5.743823974609375,-8.67015239944458,-6.399701037597656,-0.7956231391906737
1788880996910854000,5.75385400390625,-9.007136283111572,-7.052120989990234,-0.4212298545837402
1788880996920885000,5.763885009765625,-9.242815509033203,-7.819163346862792,-0.2075473564147949
1788880996930914800,5.773914794921875,-9.515006310272216,-8.824877681732177,0.08514379653930663
1788880996940945000,5.78394482421875,-9.918578927612304,-9.113678256988525,0.35090018081665036
1788880996950975000,5.79397509765625,-9.955389778137206,-8.883236347198485,0.5116109672546386
1788880996961005000,5.804005126953125,-9.748740247344971,-8.697835356140136,0.6151601890563965
1788880996971035000,5.814034912109375,-9.566481645965576,-8.112153775024414,0.4670189613342285
1788880996981066000,5.82406591796875,-9.056217417144774,-7.302165425872802,0.6917746421813964
1788880996991096000,5.834095947265625,-8.301146068572997,-6.721571523284911,1.1136030471801757
1788880997001126100,5.844126220703125,-7.77621735458374,-6.434267324066162,1.1692682357788085
1788880997011156000,5.854156005859375,-7.870040132141113,-6.3138090530395505,0.764199242401123
1788880997021185800,5.864185791015625,-7.91672706451416,-6.894103680419922,0.503680174255371
1788880997031217000,5.874216796875,-7.633014167785644,-7.950694800567627,0.4198831161499023
1788880997041247000,5.8842470703125,-7.583484120941161,-8.849567886352538,0.5581482620239258
1788880997051276800,5.89427685546875,-7.736413751983642,-9.286808964538574,0.654365241241455
1788880997061307000,5.904306884765625,-8.01204621810913,-9.426271211242675,0.623090982055664
1788880997071337000,5.9143369140625,-7.689726819610596,-8.97002615737915,0.54902036819458
1788880997081368000,5.9243681640625,-6.8128504615783685,-8.331971414947509,0.5954080253601074
1788880997091398000,5.93439794921875,-5.979518646240234,-8.411578620147704,0.5354033462524413
1788880997101428000,5.944427978515625,-5.338321514129638,-8.423848903656005,0.4082113830566406
1788880997111458000,5.9544580078125,-4.865915599060059,-7.8918872222900385,0.2807201446533203
1788880997121488100,5.964488037109375,-4.5404538108825685,-7.573009488677978,0.19782091217041015
1788880997131519000,5.97451904296875,-4.427178144836425,-7.350049459075927,0.36496611557006836
1788880997141548800,5.984548828125,-4.714033431243896,-6.883329772949218,0.5626373901367188
1788880997151579000,5.994578857421875,-4.972457572937011,-6.776787799072265,0.8511386901855468
1788880997161609000,6.00460888671875,-5.415235242462158,-6.49277562713623,1.1628338188171385
1788880997171639000,6.01463916015625,-5.913079550170898,-6.791751559448242,1.6698060203552245
1788880997181669000,6.024669189453125,-6.36528438873291,-6.855048265838622,2.201169151306152
1788880997191700000,6.034699951171875,-6.693140378570556,-6.308721374511719,2.360233924102783
1788880997201730000,6.04472998046875,-6.658125179290771,-5.71361262435913,2.3952491233825683
1788880997211760000,6.054760009765625,-6.530484303283691,-4.972158297729492,2.411260346984863
1788880997221790000,6.0647900390625,-5.882553479003906,-4.503792597961426,2.212242333984375
1788880997231819800,6.07481982421875,-5.178358915710449,-4.83284568862915,2.1239561477661133
1788880997241851100,6.08485107421875,-5.48376926498413,-5.536441701507568,2.3223756103515623
1788880997251881000,6.094880859375,-6.119878718566894,-6.106411334228516,2.562693601989746
1788880997261911000,6.1049111328125,-6.2593409652709955,-6.974907986450195,2.8003181167602538
1788880997271940900,6.11494091796875,-6.396558647918701,-8.069955970764159,2.4823382087707517
1788880997281971000,6.124970947265625,-6.65273822555542,-8.59278975830078,1.817049422454834
1788880997292002000,6.135001953125,-6.8976949829101555,-8.422202890014647,1.2606968116760253
1788880997302032000,6.145031982421875,-7.301417237854004,-8.004863613128661,0.6859387756347656
1788880997312062000,6.15506201171875,-7.480533449554443,-7.499238150024413,0.3821744400024414
1788880997322092000,6.165092041015625,-7.17632020111084,-7.478438523101806,0.2792237686157226
1788880997332122000,6.1751220703125,-6.980893490600586,-8.077138575744629,0.2985270195007324
1788880997342153000,6.185153076171875,-6.681767920684814,-9.396493328094483,0.5707178207397461
1788880997352183600,6.19518359375,-6.516568006134033,-10.594342346191405,1.0375871444702147
1788880997362213400,6.20521337890625,-8.175001568603514,-9.672724344635009,0.33473931961059566
1788880997372243500,6.215243408203125,-9.549722234344483,-8.412326808166503,-0.679953271484375
1788880997382273500,6.2252734375,-10.171466477966309,-7.400178056335449,-1.2725181823730467
1788880997392304400,6.235304443359375,-10.016142645263672,-6.880486658477783,-1.626710390472412
1788880997402334500,6.24533447265625,-8.99591346282959,-6.844124720764159,-1.763928073120117
1788880997412364500,6.255364501953125,-7.710376808929443,-7.1416042770385735,-1.5453075340270994
1788880997422394600,6.26539453125,-6.582857464599609,-7.347954532623291,-1.27042325592041
1788880997432424400,6.275424560546875,-5.673659384155273,-7.419182032012939,-1.1170447120666502
1788880997442455600,6.28545556640625,-5.767931074523926,-7.568819635772704,-1.3088801200866698
1788880997452485600,6.295485595703125,-6.539013646697998,-8.144325859832763,-1.5924433792114256
1788880997462515700,6.305515625,-7.101202124023437,-8.615085761260985,-2.63676421585083
1788880997472545300,6.315545166015625,-7.330746208190917,-8.143727309417724,-3.4994250015258785
1788880997482575400,6.325575439453125,-7.178564765167236,-7.607575775146484,-3.541473168182373
1788880997492606500,6.3356064453125,-6.7353381828308105,-7.371148361206054,-3.4980782630920406
1788880997502636500,6.345636474609375,-7.429207751464843,-7.148637244415283,-3.4102409896850583
1788880997512666400,6.355666259765625,-8.213907345581054,-6.8499605873107905,-3.421164534759521
1788880997522696400,6.365696533203125,-8.56794991607666,-6.770951932525635,-3.519177165222168
1788880997532726500,6.3757265625,-8.493879302215575,-5.540481916809082,-3.830124105834961
1788880997542757600,6.385757568359375,-8.303839545440674,-4.224119916534423,-3.972429467010498
1788880997552787500,6.395787353515625,-7.407061386108398,-3.074005294036865,-3.4668040039062498
1788880997562817500,6.405817626953125,-5.928192948150635,-1.7714099533081054,-2.8948890823364257
1788880997572847400,6.415847412109375,-4.769548982238769,-1.3842974723815917,-2.1167735427856442
1788880997582877400,6.42587744140625,-4.329315151977539,-2.1772271347045895,-1.027262149810791
1788880997592907500,6.435907470703125,-5.408950463104247,-2.5281273155212403,-0.385616104888916
1788880997602938400,6.4459384765625,-6.631639323425293,-2.3217770599365233,-0.6495768379211425
1788880997612968400,6.455968505859375,-7.085190900421142,-2.5158570320129394,-1.3437456817626952
1788880997622998500,6.46599853515625,-6.87584789276123,-2.859424970245361,-1.8700211341857909
1788880997633028600,6.476028564453125,-6.48664048538208,-2.666242823791504,-2.1603180854797364
1788880997643059500,6.4860595703125,-6.510432864379882,-1.5093945091247558,-2.849997801208496
1788880997653089500,6.496089599609375,-6.685508860778808,-1.172859538269043,-2.948908257293701
1788880997663119600,6.50611962890625,-7.29692810974121,-1.2265794380187987,-2.9691093338012693
1788880997673149700,6.516149658203125,-7.489960618591308,-1.7651251739501952,-3.1000422370910643
1788880997683179300,6.52617919921875,-7.5999442573547356,-2.4211364288330075,-3.1950621154785153
1788880997693210400,6.53621044921875,-7.83981333618164,-2.869001776885986,-3.0666730514526366
1788880997703240400,6.546240478515625,-7.94171654434204,-3.1919197257995604,-2.7820623291015623
1788880997713270500,6.5562705078125,-8.46559779510498,-3.3541268882751463,-2.45809691696167
1788880997723300400,6.56630029296875,-9.068487700653076,-3.2905309066772457,-2.1817162628173827
1788880997733330400,6.576330322265625,-9.235782541656494,-3.4962826118469237,-1.7835305992126465
1788880997743360500,6.586360595703125,-9.092728992462158,-3.9833530120849607,-1.8013374740600585
1788880997753391600,6.5963916015625,-8.044816853332518,-4.629338547515869,-1.728314323425293
1788880997763421400,6.60642138671875,-7.804648499298096,-5.3670519340515135,-1.2159551681518554
1788880997773451500,6.616451416015625,-7.909694097137451,-6.495169828796386,-0.6338648895263671
1788880997783481300,6.6264814453125,-8.261492103576659,-7.573608039093017,-0.3817255271911621
1788880997793511400,6.636511474609375,-8.493131114196776,-8.31296743927002,-0.15158289260864258
1788880997803542300,6.646542236328125,-8.617629600524902,-9.267206438446044,0.2232593048095703
1788880997813572400,6.656572265625,-8.88039323272705,-9.813982242584228,0.15427636947631834
1788880997823602400,6.6666025390625,-9.759364517211914,-9.15437968521118,0.30316578521728516
1788880997833632500,6.676632568359375,-10.190769728851318,-7.613710916900635,0.25348610076904293
1788880997843663400,6.686663330078125,-10.263792879486083,-6.631639323425293,0.2533364631652832
1788880997853693400,6.696693359375,-10.150367575836182,-6.515670180511474,0.40970775909423823
1788880997863723500,6.7067236328125,-9.761010530853271,-6.573879208374023,0.529268204498291
1788880997873753600,6.716753662109375,-9.110086954498291,-6.992864498901366,0.7775169891357422
1788880997883783700,6.72678369140625,-8.448838383483887,-7.601739908599853,0.9796773918151855
1788880997893814500,6.736814453125,-8.26762724533081,-8.092251973724364,1.0582371337890624
1788880997903844600,6.7468447265625,-8.337208731079102,-8.032097657012939,0.8475473876953125
1788880997913874400,6.75687451171875,-8.283788106536864,-7.914033587646484,0.5280711036682129
1788880997923904500,6.766904541015625,-8.041674463653564,-7.952340814208984,0.27563246612548825
1788880997933934300,6.776934326171875,-7.263259648895263,-7.919121266174316,0.2284966209411621
1788880997943965400,6.78696533203125,-6.56924044265747,-7.938873429870605,-0.08993219985961913
1788880997953995500,6.79699560546875,-5.992686755371094,-7.9767317436218255,-0.5104138664245605
1788880997964025600,6.807025634765625,-5.15202269744873,-7.809287265014648,-0.9165303230285644
1788880997974055400,6.817055419921875,-4.887912326812744,-7.927351334381103,-1.3329717742919922
1788880997984085500,6.82708544921875,-4.370016580200195,-7.915380326080322,-1.530942324066162
1788880997994116600,6.83711669921875,-4.021211325836181,-7.518391763305663,-1.0817302375793456
1788880998004146700,6.847146728515625,-4.205864128875732,-7.444620424652099,-0.3924994346618652
1788880998014176300,6.85717626953125,-4.383035051727295,-7.566874346923828,0.32501287536621093
1788880998024206300,6.867206298828125,-4.564246189880371,-7.774870616149902,0.7761702507019043
1788880998034236400,6.877236328125,-4.620061016082763,-8.324489534759522,1.262791738128662
1788880998044267500,6.887267578125,-4.5696331436157225,-8.583811502075195,1.7553987297058105
1788880998054297300,6.89729736328125,-4.796783026123046,-8.621669815826415,2.6364649406433105
1788880998064327400,6.907327392578125,-5.135861836242675,-8.597428524017333,3.202394358062744
1788880998074357500,6.917357421875,-5.4041620597839355,-7.98002377090454,3.6112042915344236
1788880998084387600,6.9273876953125,-5.40116930770874,-7.592612014770507,3.7301661865234372
1788880998094418400,6.93741845703125,-5.576544579315185,-7.131877832794189,3.877409588623047
1788880998104448500,6.947448486328125,-5.788730701446533,-6.527641188812256,3.343053705596924
1788880998114478600,6.957478515625,-6.0616696907043455,-6.05239215927124,2.3367408203125
1788880998124508400,6.96750830078125,-6.328772813415527,-5.411943215179443,2.0994155807495116
1788880998134538500,6.97753857421875,-6.310217750549316,-5.080645560455322,2.4358009140014647
1788880998144569300,6.9875693359375,-6.003759938049316,-5.196016152954101,2.773981898498535
1788880998154599400,6.997599365234375,-6.019771161651611,-5.856965448760986,2.9248166030883787
1788880998164629500,7.00762939453125,-6.44818362121582,-6.76107585067749,2.742258726501465
1788880998174659600,7.01765966796875,-6.936900035095214,-7.500734526062011,2.358587910461426
1788880998184689400,7.027689453125,-7.311891870117187,-8.154052304077148,1.8152537712097168
1788880998194720500,7.037720458984375,-7.389703424072265,-8.422053252410889,1.1752537399291991
1788880998204750600,7.04775048828125,-7.896525988006592,-8.647706758880615,0.46417584686279295
1788880998214780700,7.05778076171875,-7.321767951965332,-9.917381826782226,0.581641365814209
1788880998224810200,7.067810302734375,-6.81180299835205,-11.424082859039306,1.8315642700195311
1788880998234840300,7.07784033203125,-8.849717523956299,-11.163414153289795,1.6259622024536131
1788880998244871400,7.087871337890625,-9.344419441986084,-9.821164847564697,0.49679684448242184
1788880998254901500,7.097901611328125,-9.18759923324585,-9.055768504333496,-0.041748891448974604
1788880998264931300,7.107931396484375,-9.348609294891357,-8.493131114196776,-1.267280866241455
1788880998274961400,7.11796142578125,-7.987655288696288,-8.209118942260742,-2.2233155166625975
1788880998284992500,7.127992431640625,-6.533626692962646,-8.279298978424071,-2.689586289978027
1788880998295022600,7.138022705078125,-5.968744738769531,-7.9384245170593255,-2.358438272857666
1788880998305052400,7.148052490234375,-6.3797992362976075,-7.652616693878174,-1.6689081947326658
1788880998315082500,7.15808251953125,-6.36558366394043,-7.630171053314209,-1.1477204208374023
1788880998325112600,7.168112548828125,-6.34613077545166,-7.7401546920776365,-0.6699275520324707
1788880998335143700,7.178143798828125,-5.7713727394104,-7.040149981689453,-0.4951508308410644
1788880998345173200,7.18817333984375,-5.332784922790527,-6.203975051879882,-0.4282628219604492
1788880998355202800,7.198202880859375,-5.844994440460205,-6.3423898353576655,-0.5415384880065918
1788880998365233000,7.20823291015625,-7.079504671478271,-6.987926457977294,-1.1872247482299805
1788880998375263000,7.218262939453125,-9.13612389755249,-7.04838004989624,-2.18336227645874
1788880998385294000,7.228294189453125,-11.122413449859618,-6.010044717407226,-4.201524638366699
1788880998395324000,7.238323974609375,-10.096348400878906,-5.412691403198242,-4.4942157913208005
1788880998405354000,7.24835400390625,-8.999804040527343,-6.073491061401366,-3.9845501129150387
1788880998415383800,7.2583837890625,-7.8444521018981925,-5.857713636779785,-4.109347874450683
1788880998425414000,7.268413818359375,-6.0722939605712885,-4.581304876708984,-4.714482344055176
1788880998435444700,7.27844482421875,-4.62859035949707,-3.612850305175781,-4.994603938293457
1788880998445474800,7.288474853515625,-3.9356186164855953,-2.992303162384033,-4.059817827606201
1788880998455505000,7.2985048828125,-4.970811559295654,-4.2137949218749995,-3.7892730400085446
1788880998465535000,7.308534912109375,-5.348347233581543,-5.681440539550781,-3.6728549842834473
1788880998475565000,7.31856494140625,-5.662137288665771,-6.136638130187988,-3.2495302032470703
1788880998485596000,7.328595947265625,-5.522226129150391,-5.456684858703613,-3.205387110137939
1788880998495626000,7.3386259765625,-5.4792801368713375,-4.042609503173828,-3.8367081604003905
1788880998505656000,7.348656005859375,-5.395183803558349,-3.004423808288574,-4.208856880950927
1788880998515686100,7.35868603515625,-4.765209491729736,-2.367416529083252,-3.8652889427185055
1788880998525715700,7.3687158203125,-5.1794063789367675,-1.6780360885620116,-3.273921132659912
1788880998535747000,7.3787470703125,-6.1738978935241695,-1.7797896591186522,-3.1871313224792477
1788880998545777000,7.38877685546875,-6.451176373291015,-2.4102128837585446,-3.5927988662719725
1788880998555807000,7.398806884765625,-6.034286009216308,-3.063231386566162,-3.676595924377441
1788880998565836800,7.4088369140625,-5.409399375915527,-3.847332430267334,-3.351134136199951
1788880998575868000,7.418867919921875,-5.0179474044799806,-4.285471334075927,-3.2139164535522458
1788880998585898000,7.42889794921875,-5.47778376083374,-4.533271205902099,-3.5537434516906736
1788880998595928000,7.438927978515625,-6.059425126647949,-4.619761740875244,-3.789572315216064
1788880998605958000,7.4489580078125,-6.147561675262451,-4.482843333435058,-3.6851252677917476
1788880998615988000,7.458988037109375,-6.494272003173828,-4.434360749816895,-3.343652256011963
1788880998626019000,7.46901904296875,-7.534402986907959,-4.545840764617919,-3.2213983337402343
1788880998636049200,7.479049072265625,-8.718036432647704,-4.835239890289307,-3.3424551551818844
1788880998646078700,7.48907861328125,-9.17368293609619,-4.7248073387146,-3.1661820579528808
1788880998656108800,7.49910888671875,-8.786420817565917,-4.505288973999023,-2.555810272216797
1788880998666139000,7.509138916015625,-8.496572779083252,-4.5504795303344725,-2.0145710594177246
1788880998676170000,7.519169921875,-8.707561800384521,-5.024980371856689,-1.3998597831726074
1788880998686199800,7.52919970703125,-8.902689235687255,-5.597493843841552,-1.0944494338989257
1788880998696230000,7.53922998046875,-9.166799606323242,-5.785438674163818,-1.038784245300293
1788880998706260000,7.549260009765625,-9.227552473449707,-6.536469807434082,-0.6168062026977539
1788880998716290000,7.5592900390625,-8.940397911834717,-7.4594345474243156,-0.036361937713623046
1788880998726321000,7.56932080078125,-9.290699542236327,-8.585906428527831,0.5991489654541016
1788880998736351000,7.57935107421875,-9.432256715393066,-9.14869345626831,1.1291653579711913
1788880998746381000,7.589381103515625,-9.452457791900635,-9.702651865386962,1.6259622024536131
1788880998756411000,7.599410888671875,-9.405920497131348,-10.022577062225341,2.2731448387145994
1788880998766441700,7.609441650390625,-9.493308857727051,-10.230872606658934,2.813486225891113
1788880998776471800,7.619471923828125,-10.071059645843505,-9.981127445983887,2.7729344352722167
1788880998786502000,7.629501953125,-10.624269866943358,-8.965836304473877,1.6689081947326658
1788880998796532000,7.639531982421875,-9.976787955474853,-7.926902421569824,0.5006874221801757
1788880998806562000,7.64956201171875,-8.670750949859618,-6.955455097961425,-0.304512523651123
1788880998816593000,7.659593017578125,-6.7559881721496575,-6.623708530426025,-0.7043442008972167
1788880998826623000,7.669623046875,-6.168510939788818,-6.93315909500122,-3.2077813117980956
1788880998836653000,7.679653076171875,-6.270563785552978,-7.484124752044678,-1.9838953506469725
1788880998846683100,7.68968310546875,-6.430676021575928,-8.455422438049316,-1.0859200904846191
1788880998856712700,7.699712646484375,-6.8587892059326165,-9.46158568572998,0.3711012573242187
1788880998866744000,7.709744140625,-6.800879453277587,-9.476699083709716,0.9834183319091796
1788880998876774000,7.71977392578125,-7.625233012390137,-8.340500758361816,1.3103764961242674
1788880998886804000,7.729803955078125,-7.82065972290039,-6.912359468078613,5.6766521362304685
1788880998896833800,7.739833740234375,-4.920234049224853,-5.934777002716064,9.173982211303711
1788880998906863900,7.74986376953125,-4.229207595062255,-7.523928354644775,5.340715715789795
1788880998916895000,7.75989501953125,-4.515763606262206,-9.439588957977294,3.1974563171386716
1788880998926925000,7.769925048828125,-6.087556996154785,-9.940874930572509,1.7197849800109861
1788880998936955000,7.779954833984375,-7.4764932342529296,-10.429740982055664,-0.6266822845458984
1788880998946985000,7.78998486328125,-9.306561128234863,-9.77447791519165,-3.1112650573730467
1788880998957016000,7.80001611328125,-8.782979152679443,-6.375459745788574,-5.66288547668457
1788880998967046100,7.810046142578125,-6.45446840057373,-3.285443228149414,-5.672761558532715
1788880998977076000,7.820075927734375,-4.325574211883545,-2.511517541503906,-3.693953886413574
1788880998987105800,7.830105712890625,-3.273023307037353,-1.7968483459472655,-2.5418939750671385
1788880998997136000,7.840135986328125,-3.4281975021362303,-2.321477784729004,-1.3986626823425292
1788880999007167000,7.8501669921875,-3.934870428466797,-3.4338837310791015,-0.5068225639343261
1788880999017196800,7.86019677734375,-4.737975447845459,-4.771494271087646,0.06733692169189452
1788880999027227000,7.870226806640625,-5.408651187896728,-5.532850399017334,-0.08783727340698241
1788880999037257000,7.880257080078125,-5.903353105926513,-5.5467666961669915,-0.9373299499511718
1788880999047287000,7.890287109375,-6.1456163864135736,-5.219958169555664,-1.7634791603088378
1788880999057318000,7.90031787109375,-6.316801805114745,-5.233425553894043,-2.2267571815490723
1788880999067348000,7.910347900390625,-6.16072978439331,-5.323357753753662,-2.604143218231201
1788880999077378000,7.9203779296875,-5.580734432220459,-5.0203416061401365,-2.8420670082092285
1788880999087407900,7.930407958984375,-5.398475830841064,-4.337994132995605,-3.0187890182495116
1788880999097439000,7.94043896484375,-5.142445890808105,-4.115931929016113,-2.924517327880859
1788880999107468800,7.95046875,-4.901529348754883,-4.4005426513671875,-2.816778253173828
1788880999117499000,7.960498779296875,-4.977245976257324,-4.605396530914306,-2.4322096115112304
1788880999127529000,7.970529052734375,-6.184821438598632,-5.140949514770507,-2.0265420677185055
1788880999137559000,7.98055908203125,-8.403647827148436,-6.380996337127685,-1.243638124847412
1788880999147590000,7.99058984375,-2.219724214172363,-14.159158980560301,3.112761433410644
1788880999157620000,8.000619873046874,-13.303381524658203,-19.109619825744627,3.5303999855041504
1788880999167650000,8.010650146484375,-22.858939625549315,-15.324237363433838,-0.13766659545898435
1788880999177680100,8.02068017578125,-18.192341314697263,-12.39762510910034,-0.8104372619628906
1788880999187710000,8.0307099609375,-12.125284670257567,-9.361178853607177,-0.531812043762207
1788880999197741000,8.040740966796875,-8.387187690734862,-7.283760000610351,-0.9988310050964355
1788880999207771000,8.05077099609375,-6.059275489044189,-6.441300291442871,-2.05572140045166
1788880999217801000,8.060801025390624,-4.057722901153564,-7.06065033340454,-2.795679351043701
1788880999227830800,8.070830810546875,-2.747645680236816,-7.677456536102294,-2.8924948806762694
1788880999237862000,8.08086181640625,-2.610727272796631,-7.750928599548339,-2.958485063934326
1788880999247892000,8.09089208984375,-4.037072911834716,-7.593659477996826,-2.8782793083190916
1788880999257922000,8.100922119140625,-6.101323655700683,-6.8499605873107905,-2.7474960426330566
1788880999267951900,8.110951904296876,-8.541164785003662,-5.409848288726806,-2.4766519798278805
1788880999277982000,8.12098193359375,-10.831069035339354,-3.5416228057861328,-2.62389538192749
1788880999288013000,8.131012939453125,-10.665420207977295,-3.4006641830444333,-3.407996425628662
1788880999298043100,8.141043212890626,-9.785401460266113,-3.878457051849365,-3.792864342498779
1788880999308073000,8.151072998046875,-8.771008144378662,-4.301781832885742,-3.7574002304077148
1788880999318102800,8.161102783203125,-7.607725412750244,-4.314052116394043,-3.491494208526611
1788880999328132900,8.1711328125,-6.3138090530395505,-4.086902233886718,-3.0033763450622555
1788880999338164000,8.1811640625,-5.295375521850586,-4.036175086212158,-2.574963885498047
1788880999348193800,8.19119384765625,-5.0854339637756345,-3.9963714836120605,-2.6286837852478024
1788880999358225000,8.201224853515624,-5.810128878784179,-3.9873932273864745,-2.5917232971191404
1788880999368255000,8.2112548828125,-6.16731383895874,-4.09842432937622,-2.583942141723633
1788880999378285000,8.22128515625,-6.034734922027588,-4.310610451507568,-2.5884312698364256
1788880999388316000,8.23131591796875,-5.513846423339843,-4.7487493553161615,-2.5546131713867184
1788880999398346000,8.241345947265625,-5.542876118469238,-5.016899941253662,-2.510918991088867
1788880999408376000,8.2513759765625,-6.329670639038086,-4.017769660949707,-2.7946318878173826
1788880999418406000,8.261406005859374,-6.533177780151367,-2.1628619247436522,-3.4364275703430174
1788880999428437000,8.27143701171875,-6.575225946807861,-1.3437456817626952,-3.7796962333679196
1788880999438467000,8.281467041015626,-6.798934164428711,-1.229572190093994,-3.7388451675415038
1788880999448497000,8.291496826171874,-6.641066492462158,-1.4595651870727537,-3.6186861717224117
1788880999458527000,8.30152685546875,-6.801478003692626,-1.7612345962524414,-3.63260246887207
1788880999468556800,8.311556884765626,-6.462548831176758,-1.9614497100830077,-3.8263831657409666
1788880999478588000,8.321587890625,-6.471826362609863,-2.227655007171631,-3.913023338317871
1788880999488618000,8.331617919921875,-7.110928568267822,-2.622099730682373,-3.803189337158203
1788880999498647800,8.341647705078126,-7.681197476196289,-2.7678467567443845,-3.349338484954834
1788880999508678000,8.351677978515625,-7.631817066955566,-2.6198551666259764,-2.7706898712158203
1788880999518708000,8.3617080078125,-7.321169401550293,-2.30471837310791,-2.146401788330078
1788880999528739000,8.371739013671874,-7.611915265655517,-2.3368904579162595,-1.8171990600585937
1788880999538769000,8.381768798828125,-8.085368643951416,-2.683451148223877,-1.979705497741699
1788880999548799000,8.391799072265625,-8.782530239868164,-3.1769559654235837,-2.4341549003601073
1788880999558828800,8.401828857421876,-9.02150149307251,-3.948038537597656,-2.861968809509277
1788880999568860000,8.41185986328125,-9.172336197662354,-4.716577270507813,-2.950254995727539
1788880999578889700,8.4218896484375,-9.615562779998779,-5.663633664703369,-2.9441198539733886
1788880999588919800,8.431919921875,-9.400234268188475,-6.2493152458190915,-2.385373041534424
1788880999598950000,8.441949951171875,-8.52889450149536,-6.270563785552978,-1.5587749183654784
1788880999608980000,8.45197998046875,-7.735067013549804,-6.274155088043212,-0.898274535369873
1788880999619010800,8.4620107421875,-7.082347785949707,-6.740425861358642,-0.27787703018188475
1788880999629041000,8.472041015625,-6.969820307922363,-7.612962728881835,0.43185412445068355
1788880999639071000,8.482071044921875,-7.143399928283691,-8.814702324676514,1.2355576942443847
1788880999649101000,8.49210107421875,-7.74449418258667,-9.999532871246338,1.8984522789001463
1788880999659131100,8.502131103515625,-8.176049031829834,-10.622025302886962,2.340481760406494
1788880999669162000,8.512161865234376,-8.419359775543212,-11.206509783172606,2.597110250854492
1788880999679191800,8.52219189453125,-8.020575561523437,-11.60679037322998,2.8592753326416016
1788880999689222000,8.532221923828125,-7.620444609069824,-10.990582720947264,3.1016882507324217
1788880999699252000,8.542251953125,-7.211335400390625,-10.207678778076172,3.319261326599121
1788880999709282800,8.55228271484375,-7.441029122161865,-9.613018940734863,3.2734722198486326
1788880999719313000,8.56231298828125,-8.39571703414917,-9.498546173858642,2.81558115234375
1788880999729343000,8.572343017578126,-9.155576786041259,-9.513958847045897,2.0000562118530274
1788880999739373000,8.582373046875,-9.398887529754639,-9.840168823242188,1.2176011817932129
1788880999749403000,8.59240283203125,-9.428515775299072,-9.781361244964598,1.0149918663024902
1788880999759434000,8.60243408203125,-8.789563207244873,-9.753528650665283,0.9897031112670898
1788880999769464000,8.612464111328125,-7.893233960723877,-9.230694863128662,1.2355576942443847
1788880999779494100,8.622494140625,-6.634931350708007,-8.454674250030518,1.4636054023742675
1788880999789523700,8.632523681640626,-5.4607250740051265,-8.10152950515747,1.7184382415771484
1788880999799553800,8.6425537109375,-4.4856864479064935,-7.287351303100586,2.051681185150146
1788880999809585000,8.6525849609375,-3.8283284545898435,-6.252756910705566,2.562693601989746
1788880999819615000,8.662614990234376,-3.315520386505127,-5.606771375274658,2.9222727638244628
1788880999829644800,8.672644775390625,-2.961477816009521,-5.034108265686035,3.1549592376708984
1788880999839675000,8.6826748046875,-3.1133599838256836,-4.802319617462158,3.3720834007263183
1788880999849706000,8.6927060546875,-3.5007717399597165,-5.38815083618164,3.3839047714233397
1788880999859736000,8.702736083984375,-4.013280532836914,-6.250661984252929,3.768623050689697
1788880999869766000,8.712765869140625,-4.681412433624267,-6.660070468139648,4.114734828186035
1788880999879796000,8.7227958984375,-5.112069457244873,-6.927173590850829,3.9074867469787598
1788880999889825800,8.73282568359375,-5.1131169204711915,-7.136666236114501,3.158849815368652
1788880999899857200,8.742857177734376,-5.48421817779541,-6.660220105743408,2.740762350463867
1788880999909886700,8.75288671875,-5.374084901428223,-5.958120468902588,2.8037597816467286
1788880999919916800,8.762916748046875,-5.172971961975097,-5.223699109649658,3.1290719322204588
1788880999929947000,8.77294677734375,-5.344755931091308,-4.716577270507813,3.4581250228881832
1788880999939977000,8.78297705078125,-5.741594856262207,-4.836885903930664,3.7089176467895504
1788880999950007800,8.7930078125,-6.0984805412292475,-5.5349453254699705,3.641131812286377
1788880999960038000,8.803037841796876,-6.523451335906982,-6.197690272521973,3.7638346473693844
1788880999970068000,8.81306787109375,-6.781426564788818,-7.0175547035217285,3.839700912475586
1788880999980098000,8.82309814453125,-6.691943277740478,-7.5534069625854485,3.755155666351318
1788880999990129000,8.83312890625,-6.610241146087646,-8.000823397827148,3.8666356811523435
1788881000000159000,8.843158935546874,-6.2769982025146485,-8.627655319976807,4.284423870849609
1788881000010188800,8.853188720703125,-5.941211419677734,-10.015693732452393,5.462371087646484
1788881000020219000,8.863218994140626,-9.10380217514038,-10.263792879486083,5.25437481842041
1788881000030249000,8.8732490234375,-12.64692135696411,-9.542539629364013,3.1693244476318356
1788881000040279800,8.88327978515625,-13.459303907775878,-9.313594095611572,0.6980594215393066
1788881000050310000,8.893309814453126,-12.36620121231079,-8.98259571609497,-1.1379939765930176
1788881000060340000,8.903340087890625,-10.024223075866699,-8.588899180603027,-1.6733973228454588
1788881000070370000,8.9133701171875,-8.119934930419921,-8.234557334899902,-1.8222867385864256
1788881000080400000,8.92339990234375,-7.09282241821289,-7.735964839172363,-2.3466169021606444
1788881000090431000,8.933430908203125,-6.302586232757568,-7.110030742645264,-2.759167775726318
1788881000100461000,8.9434609375,-5.75221912612915,-6.843226895141601,-2.740014162445068
1788881000110491100,8.9534912109375,-5.533448949432373,-6.859238118743896,-2.5074773262023924
1788881000120520700,8.963520751953125,-5.280711036682129,-6.925976490020751,-2.5034371109008786
1788881000130552000,8.973552001953125,-5.625924988555908,-7.357381701660156,-2.051232272338867
1788881000140582000,8.983581787109374,-6.376806484222412,-7.862558251953125,-1.6332944450378417
1788881000150612000,8.993612060546875,-7.462277661895752,-7.776666267395019,-1.4630068519592285
1788881000160641800,9.003641845703125,-8.584260414886474,-7.7389575912475586,-1.2388497215270995
1788881000170671900,9.013671875,-9.032425038146972,-6.7559881721496575,-1.031003089904785
1788881000180703000,9.023702880859375,-8.933364944458008,-5.102043737792968,-0.9406219772338866
1788881000190733000,9.033733154296876,-9.369708197021485,-3.988141415405273,-1.1749544647216796
1788881000200763000,9.043762939453124,-10.508899274444579,-2.7295395301818846,-1.9843442634582518
1788881000210793000,9.05379296875,-10.318260967254638,-1.883937431335449,-2.5481787544250487
1788881000220823000,9.063822998046875,-8.97705912475586,-2.273593751525879,-2.3246201744079587
1788881000230854100,9.073854248046874,-8.24188957748413,-2.159270622253418,-2.5885809074401855
1788881000240883700,9.0838837890625,-6.740126586151122,-2.6785131072998047,-3.6200329101562496
1788881000250913800,9.093913818359376,-5.838410385894775,-3.296217135620117,-4.22621484298706
1788881000260944000,9.10394384765625,-5.8174611213684075,-3.5022681159973144,-4.425232855987549
1788881000270975000,9.11397509765625,-6.424091967010497,-2.9918542495727536,-4.264073156738281
1788881000281004800,9.1240048828125,-6.560262186431884,-2.5397990486145017,-3.9845501129150387
1788881000291035000,9.134034912109374,-6.43546442489624,-1.605761125946045,-3.8802527030944822
1788881000301065000,9.14406494140625,-6.2304609077453605,-0.8987234481811522,-3.4082957008361814
1788881000311095000,9.154094970703126,-5.991938567352294,-0.5762544120788574,-2.5885809074401855
1788881000321126000,9.1641259765625,-5.997774433898925,-0.3205237472534179,-2.221070952606201
1788881000331156000,9.174156005859375,-5.728127471923828,-0.42931028518676756,-2.267458609771728
1788881000341186000,9.18418603515625,-5.814618006896972,-0.733523533630371,-2.5335142692565915
1788881000351215900,9.1942158203125,-5.885995143890381,-0.8707412162780761,-2.639308055114746
1788881000361245000,9.204244873046875,-5.925499471282959,-0.7634510543823242,-2.4536077888488768
1788881000371275800,9.21427587890625,-6.114940677642822,-0.7438485282897949,-2.1121347770690915
1788881000381305900,9.224305908203124,-6.537367633056641,-1.0175357055664063,-1.7384896804809569
1788881000391336000,9.2343359375,-7.2815154365539545,-1.57044665145874,-1.457470260620117
1788881000401366000,9.244365966796876,-7.8906901214599605,-2.2129905220031736,-1.2913725204467772
1788881000411396900,9.25439697265625,-8.049904531860351,-2.821117743682861,-1.042525185394287
1788881000421427000,9.264427001953125,-8.232911321258545,-3.4693478431701656,-0.7791630027770996
1788881000431457000,9.27445703125,-8.43372498550415,-4.025850091552734,-0.8415618835449218
1788881000441487000,9.284487060546875,-8.635286837768554,-4.263923519134521,-0.8915408432006835
1788881000451517000,9.294516845703125,-8.818443264770508,-4.650886362457275,-0.8906430175781249
1788881000461548000,9.304548095703124,-9.038859455108643,-5.2085857116699215,-1.0353425804138183
1788881000471577900,9.314577880859375,-9.080757984161377,-5.830629230499267,-0.9977835418701171
1788881000481608000,9.32460791015625,-9.061903646087647,-6.715586019134521,-0.6305728622436523
1788881000491638000,9.334637939453126,-8.933364944458008,-7.6665329910278315,0.007781155395507812
1788881000501668900,9.3446689453125,-8.786121542358398,-8.483554307556151,0.4695628005981445
1788881000511699000,9.354698974609375,-8.621071265411377,-9.27633433227539,0.6069301208496093
1788881000521729000,9.36472900390625,-8.563161512756347,-9.873538008880615,0.43499651412963863
1788881000531759000,9.374759033203125,-8.387486965942383,-10.344447547912598,0.27249007644653317
1788881000541789000,9.384788818359375,-8.543858261871337,-10.493785876464843,0.4149450752258301
1788881000551820000,9.394820068359374,-8.398859423828124,-10.114753826141357,0.8631096984863281
1788881000561850000,9.40485009765625,-8.470386198425292,-9.472658868408203,1.2606968116760253
1788881000571880000,9.4148798828125,-8.6444147315979,-9.2580785446167,1.4935329231262207
1788881000581910000,9.424909912109374,-8.819490727996826,-8.704269773101807,1.726967584991455
1788881000591940900,9.43494091796875,-8.658779941558837,-7.98032304611206,1.9370587806701658
1788881000601971000,9.444970947265626,-8.58710352935791,-7.478737798309326,2.0356699615478515
1788881000612001000,9.4550009765625,-8.590994107055664,-7.524975817871093,1.9993080238342285
1788881000622030800,9.46503076171875,-8.429684770202636,-7.382520819091797,1.8728642486572264
1788881000632061000,9.47506103515625,-8.374917407226562,-7.355436412811279,1.4294880287170408
1788881000642092000,9.485092041015625,-8.093000161743163,-7.562684494018554,0.891241567993164
1788881000652122000,9.4951220703125,-7.4579381713867186,-7.656357633972168,0.5989993278503417
1788881000662152000,9.50515185546875,-6.810456259918213,-7.867496292877197,0.4644751220703125
1788881000672182000,9.51518212890625,-6.173149705505371,-7.864353903198242,0.9665092826843261
1788881000682211800,9.5252119140625,-5.859210012817383,-7.663989151763915,2.0880431228637693
1788881000692243000,9.535242919921876,-5.280262123870849,-7.416787830352782,3.0303111137390135
1788881000702272800,9.545272705078125,-4.626345795440674,-6.9533601715087885,3.5109470970153804
1788881000712302800,9.555302734375,-4.26467170715332,-6.543053861999511,3.748870886993408
1788881000722333000,9.5653330078125,-4.257489102172851,-5.725583632659911,4.043806604003906
1788881000732364000,9.575364013671875,-4.052784860229492,-5.383063157653808,3.9453450607299803
1788881000742393900,9.585393798828125,-4.04784681930542,-5.130624520111084,3.8817490791320797
1788881000752424000,9.595423828125,-4.272752137756347,-5.408202275085449,3.745878134918213
1788881000762454000,9.6054541015625,-4.5230958488464355,-5.830030680084228,2.9990368545532227
1788881000772485000,9.615485107421875,-5.144989730072021,-6.042665715026855,2.338536471557617
1788881000782515000,9.625514892578124,-5.550507636260986,-6.341940922546386,2.1257517990112302
1788881000792545000,9.635544921875,-5.660790550231933,-6.548440815734863,2.529324416351318
1788881000802574800,9.645574951171875,-5.729025297546387,-6.470629261779785,3.21765739364624
1788881000812605000,9.65560498046875,-5.932233163452148,-6.136039579772949,3.5473090347290035
1788881000822635800,9.6656357421875,-6.16731383895874,-5.819556047821044,3.6165912452697753
1788881000832665900,9.675665771484375,-6.5309332160949705,-5.801898810577392,3.5220202796936033
1788881000842696000,9.685696044921874,-6.993163774108886,-6.244526842498779,3.4982279006958006
1788881000852726000,9.69572607421875,-7.339574826812743,-6.967126831054687,3.7223850311279296
1788881000862756900,9.7057568359375,-7.531110959625244,-7.617900769805908,3.9598599082946775
1788881000872787000,9.715786865234374,-7.530512409210204,-8.020874836730956,3.9809588104248044
1788881000882817000,9.725817138671875,-6.893205854797363,-8.7463179397583,4.140023583221435
1788881000892847000,9.73584716796875,-7.152827097320556,-9.508422255706787,4.546888227844238
1788881000902877200,9.745877197265624,-10.477625015258788,-8.815300875091552,3.2787095359802243
1788881000912908000,9.755907958984375,-12.454936311340331,-7.866299192047118,0.7595604766845703
1788881000922937900,9.765937744140626,-11.733683061218262,-7.300519412231445,-0.8342296409606933
1788881000932968000,9.775968017578125,-10.03619408416748,-7.376684952545165,-1.470937644958496
1788881000942998000,9.785998046875,-8.239046463012695,-7.894879974365234,-1.3786112434387205
1788881000953028900,9.79602880859375,-6.867767462158203,-8.346935175323486,-1.2764087600708007
1788881000963059000,9.806058837890625,-6.6729393020629875,-8.444349255371094,-1.5269021087646484
1788881000973089000,9.816089111328125,-7.109581829833984,-8.303989183044433,-1.9342156661987304
1788881000983119000,9.826119140625,-7.666084078216552,-8.087912483215332,-2.1609166358947753
1788881000993149000,9.83614892578125,-7.973140441131592,-7.931092274475097,-2.0964228286743163
1788881001003180000,9.846179931640625,-7.9843632614135736,-7.775469166564941,-1.7949030570983886
1788881001013210000,9.856210205078124,-7.991096953582764,-7.371148361206054,-1.6799813774108885
1788881001023240200,9.866240234375,-8.081178791046142,-6.742670425415039,-1.3596072677612303
1788881001033269800,9.876269775390625,-8.430881871032714,-6.517465831756591,-1.0316016403198243
1788881001043300900,9.88630078125,-8.802432041168212,-6.548141540527343,-0.7139210075378417
1788881001053331000,9.8963310546875,-8.666261821746826,-6.275052913665771,-0.5063736511230469
1788881001063361000,9.906361083984375,-8.869619325256346,-5.694309373474121,-0.4225765930175781
1788881001073390800,9.916390869140624,-9.418639693450928,-5.267243652343749,-0.5924152732849121
1788881001083421000,9.9264208984375,-9.422829546356201,-4.0334816093444825,-1.3640963958740233
1788881001093452000,9.9364521484375,-8.82323166809082,-1.6069582267761229,-3.1485248207092282
1788881001103482000,9.946482177734374,-7.359177352905273,0.18210896377563476,-3.8699277084350583
1788881001113512000,9.956511962890625,-6.643011781311035,-0.031872809600830075,-2.5842414169311523
1788881001123542000,9.9665419921875,-5.986551613616943,-1.7667711875915526,-2.456001990509033
1788881001133573000,9.976572998046874,-5.6407391113281244,-2.7582699501037595,-2.648286311340332
1788881001143603200,9.986603271484375,-5.6754550354003905,-3.368492098236084,-2.535309920501709
1788881001153632800,9.9966328125,-6.189460204315186,-3.0265701736450192,-2.8776807579040526
1788881001163662800,10.006662841796874,-6.545597701263428,-2.212840884399414,-3.301155176544189
1788881001173693000,10.01669287109375,-6.535422344207763,-1.5032593673706054,-3.760841895294189
1788881001183724000,10.02672412109375,-7.171082884979247,-0.8864531646728515,-3.7110125732421873
1788881001193753900,10.03675390625,-8.01877991027832,-0.7202057868957519,-3.3831565834045407
1788881001203784000,10.046783935546875,-8.300547518157959,-0.42003275375366206,-3.0720600051879883
1788881001213814000,10.05681396484375,-8.08881030883789,-0.10115502014160156,-2.969408609008789
1788881001223845000,10.06684521484375,-7.940968356323242,-0.21532851181030271,-2.9900585983276367
1788881001233875000,10.076875,-7.427262462615967,-0.19737199935913086,-2.605340319061279
1788881001243905000,10.086905029296876,-6.843077257537842,-0.3705027069091797,-2.198326036834717
1788881001253934800,10.096934814453125,-6.478859329986572,-0.730979694366455,-1.9201497314453124
1788881001263966200,10.10696630859375,-6.357353595733642,-1.09160631942749,-1.7643769859313965
1788881001273995800,10.116995849609374,-6.413617334747314,-1.5272013839721679,-1.7188871543884277
1788881001284025900,10.12702587890625,-6.83739102859497,-1.9217957450866698,-1.7117045494079588
1788881001294056000,10.137055908203125,-7.368305246734619,-2.3041198226928707,-1.8315642700195311
1788881001304086000,10.1470859375,-7.796568068695068,-2.388964344024658,-1.8592472267150877
1788881001314116900,10.157116943359375,-7.941267631530761,-2.6418518943786617,-1.5882535263061524
1788881001324147000,10.16714697265625,-7.997082457733153,-3.135955261993408,-1.038185694885254
1788881001334177000,10.177177001953124,-8.178742508697509,-3.7377977043151853,-0.5946598373413086
1788881001344207000,10.18720703125,-8.742726637268065,-4.573673358917236,-0.3007715835571289
1788881001354241500,10.197241455078125,-9.18086554107666,-5.501576139831543,-0.026186580657958983
1788881001364271600,10.207271728515625,-8.907178363800048,-6.291064137268066,0.16564882736206055
1788881001374301700,10.2173017578125,-8.309974687194824,-7.136815873718262,0.3021183219909668
1788881001384331500,10.22733154296875,-8.307580485534668,-8.044367940521239,0.4976946701049804
1788881001394361600,10.237361572265625,-8.693196590423584,-9.406519047546386,0.4122515983581543
1788881001404392400,10.247392333984376,-8.92543415145874,-10.979359900665283,0.21054010848999022
1788881001414422500,10.257422607421875,-9.53236427230835,-12.051214056396484,0.016460136413574217
1788881001424452600,10.26745263671875,-9.399186804962158,-12.025326750946045,0.2888005752563476
1788881001434482700,10.277482666015626,-9.113528619384764,-11.537358525085448,1.1282675323486326
1788881001444513500,10.287513427734375,-9.005041356658936,-10.860996556091308,1.8326117332458496
1788881001454543600,10.297543701171875,-8.722675198364257,-10.165480973815917,2.308010400390625
1788881001464573700,10.30757373046875,-8.552836518096923,-9.3209263381958,2.4263737449645997
1788881001474603800,10.317603759765625,-8.632443723297119,-8.334066341400145,2.3062147491455076
1788881001484634600,10.327634521484375,-9.068637338256835,-7.603834835052489,2.1715409057617188
1788881001494664700,10.337664794921874,-9.11083514251709,-7.074865905761718,1.7983447219848632
1788881001504694500,10.347694580078125,-8.698882819366455,-7.062445984649658,1.2376526206970213
1788881001514724600,10.357724609375,-8.232163133239746,-7.365312494659423,0.8243535591125488
1788881001524755500,10.36775537109375,-7.465270413970947,-7.883058603668212,0.5071218391418457
1788881001534785500,10.37778564453125,-6.6346320755004875,-8.022071937561035,0.6221931564331055
1788881001544815600,10.387815673828126,-5.881206740570068,-7.933785751342773,1.3166612754821776
1788881001554845700,10.397845703125,-5.242553447723388,-7.639747859954833,2.2481553588867187
1788881001564875500,10.40787548828125,-4.63502477645874,-7.420079857635498,3.112761433410644
1788881001574906600,10.41790673828125,-4.167706539916992,-7.104194876098632,3.601926760101318
1788881001584936700,10.427936767578124,-3.901501242828369,-6.950816332244873,3.738096979522705
1788881001594966500,10.437966552734375,-3.859303438568115,-6.259191327667236,3.9694367149353025
1788881001604996400,10.447996337890626,-3.8284780921936035,-5.770175638580322,3.982604824066162
1788881001615027700,10.45802783203125,-3.9636008483886718,-5.487061292266845,3.882946179962158
1788881001625057500,10.4680576171875,-4.293102851867675,-5.09471149520874,3.7995980346679685
1788881001635087600,10.478087646484376,-4.578611399841308,-4.966023155975342,3.2619501243591307
1788881001645117400,10.488117431640624,-4.8500540130615235,-4.870853639984131,2.724451851654053
1788881001655148500,10.4981484375,-5.280411761474609,-4.835838440704346,3.0036756202697754
1788881001665178600,10.5081787109375,-5.409549013519287,-4.905868839263916,3.5673604736328124
1788881001675208400,10.51820849609375,-5.283853426361084,-4.989815534973144,3.8079777404785156
1788881001685238500,10.528238525390625,-5.187786084747314,-5.145438642883301,3.884292918395996
1788881001695268600,10.5382685546875,-5.262006336212158,-5.425709874725341,3.7134067749023436
1788881001705299700,10.5482998046875,-5.342960279846191,-5.757157167053222,3.7571009552001953
1788881001715329500,10.55832958984375,-5.468805504608154,-6.3700727920532225,3.8878842208862303
1788881001725359600,10.568359619140624,-5.664381852722167,-6.8958993316650385,3.818452372741699
1788881001735389400,10.578389404296875,-5.877166525268555,-7.4305544898986815,3.746476685333252
1788881001745420500,10.588420654296876,-5.951835689544677,-7.991246591186523,3.58801046295166
1788881001755450400,10.598450439453124,-6.060622227478027,-8.377161971282959,3.453336619567871
1788881001765480400,10.60848046875,-6.104316407775879,-9.269451002502441,3.7174469902038574
1788881001775510500,10.618510498046875,-8.42115542678833,-9.337386474609374,3.309385244750976
1788881001785541600,10.628541748046874,-11.819874320983885,-8.611344821166991,1.3353659759521483
1788881001795571500,10.638571533203125,-12.837858939361572,-8.740781348419189,-0.6977601463317871
1788881001805601500,10.6486015625,-11.745354794311522,-9.380033191680907,-1.8641852676391601
1788881001815631600,10.658631591796874,-10.291924748992919,-9.64055225982666,-2.431162148284912
1788881001825662700,10.668662841796875,-9.117718472290038,-9.510816457366943,-2.7494413314819335
1788881001835692500,10.678692626953126,-7.8812629524230955,-9.213486538696289,-2.672527603149414
1788881001845722600,10.68872265625,-7.162104628753662,-8.905083437347411,-2.3329998802185057
1788881001855752400,10.69875244140625,-6.815843213653564,-8.620323077392577,-2.277035416412353
1788881001865782500,10.708782470703126,-6.517166556549072,-8.193855906677246,-2.0726304496765136
1788881001875813400,10.7188134765625,-6.605901655578613,-7.839065148162842,-1.769763939666748
1788881001885843500,10.728843505859375,-7.136067685699462,-7.255777768707275,-1.767818650817871
1788881001895873500,10.73887353515625,-7.892934685516357,-6.538415096282959,-1.868674395751953
1788881001905903600,10.748903564453125,-8.28722977142334,-5.8445455276489255,-1.8113631935119627
1788881001915934500,10.7589345703125,-8.757391122436523,-5.257966120910644,-1.7277157730102537
1788881001925964500,10.768964599609374,-8.879495407104491,-4.652233100891113,-1.4921861846923827
1788881001935994600,10.77899462890625,-8.712799116516113,-4.281281481170654,-1.2770073104858397
1788881001946024700,10.789024658203125,-9.005490269470215,-4.077624702453613,-1.2493243537902832
1788881001956055600,10.7990556640625,-9.304615839385987,-3.8703766212463377,-1.360505093383789
1788881001966085600,10.809085693359375,-9.733926124572754,-3.1811458183288575,-2.227655007171631
1788881001976115500,10.819115478515625,-9.438092581939697,-1.877652651977539,-3.8187516479492185
1788881001986145500,10.8291455078125,-7.017105790710449,-0.11507131729125976,-4.611980585479736
1788881001996176400,10.83917626953125,-5.022586170196533,-0.07227496261596679,-3.2665888900756834
1788881002006206500,10.84920654296875,-5.122394451904297,-1.988085203552246,-2.842815196228027
1788881002016236500,10.859236572265624,-5.709422771453857,-3.0698154411315914,-2.8268039726257324
1788881002026266600,10.8692666015625,-6.5105825019836425,-3.2314240531921383,-2.507028413391113
1788881002036296700,10.879296630859375,-7.126790154266357,-2.892943793487549,-2.4295161346435545
1788881002046327600,10.88932763671875,-7.440729846954345,-2.0504840843200682,-2.7301380805969235
1788881002056357600,10.899357666015625,-7.328202368927002,-1.3868413116455078,-2.4275708457946776
1788881002066387700,10.9093876953125,-7.474697583007812,-0.6389525680541992,-2.302922721862793
1788881002076417500,10.91941748046875,-7.5971011428833,-0.3181295455932617,-2.5662849044799803
1788881002086448600,10.92944873046875,-7.447164263916015,-0.2946364418029785,-2.6931775924682615
1788881002096478500,10.939478515625,-6.836792478179931,-0.3043628860473633,-2.693476867675781
1788881002106508500,10.949508544921875,-6.1738978935241695,-0.5128080680847168,-2.7178677970886227
1788881002116538600,10.95953857421875,-5.661239463043213,-0.6935702934265137,-2.631077986907959
1788881002126569500,10.969569580078126,-6.083666418457031,-1.0778396598815918,-2.4996961708068848
1788881002136599600,10.979599609375,-7.119757186889648,-1.6329951698303222,-2.4226328048706054
1788881002146629600,10.989629638671875,-7.682993127441406,-2.1441572242736817,-2.147598889160156
1788881002156659700,10.99965966796875,-7.695861961364746,-2.5707740325927735,-1.9259855979919434
1788881002166690600,11.009690673828125,-7.5065703926086425,-2.776376100158691,-1.7432780838012694
1788881002176720600,11.019720703125,-7.464522225952148,-3.314024010467529,-1.4443021514892578
1788881002186750700,11.029750732421874,-7.447014626312256,-3.6276644279479977,-1.1757026527404784
1788881002196780500,11.039780517578125,-7.569717461395263,-4.19419239578247,-0.8915408432006835
1788881002206811600,11.049811767578126,-7.853729633331298,-5.167136095428466,-0.49036242752075193
1788881002216841500,11.059841552734374,-8.378508709716796,-6.16072978439331,-0.18809446792602538
1788881002226871600,11.06987158203125,-8.647257846069335,-6.897844620513916,0.09846154327392577
1788881002236901600,11.079901611328125,-8.748113591003417,-7.452700855255126,0.3781342247009277
1788881002246932500,11.089932373046874,-8.850615349578858,-8.512883277893065,0.6364087287902832
1788881002256962600,11.099962646484375,-9.285312588500975,-9.61526350479126,0.7950245887756348
1788881002266992600,11.10999267578125,-9.411756363677977,-9.806949275207518,0.7897872726440429
1788881002277022700,11.120022705078124,-9.089885877990723,-9.424924472808838,0.8975263473510742
1788881002287053600,11.130053466796875,-9.122506875610352,-9.420734619903564,1.2086229255676268
1788881002297083600,11.140083740234376,-9.219920955657958,-9.880570976257324,1.8059762397766113
1788881002307113700,11.15011376953125,-9.22530790939331,-9.779715231323241,2.4028806411743164
1788881002317143600,11.1601435546875,-9.284115487670897,-9.406219772338867,2.5650878036499023
1788881002327173400,11.17017333984375,-9.6656913772583,-8.942193563079833,2.357839722442627
1788881002337204500,11.18020458984375,-9.811438403320311,-8.221089950561524,2.1121347770690915
1788881002347234600,11.190234619140625,-9.414150565338135,-7.653963432312011,1.8766051887512205
1788881002357261300,11.20026123046875,-8.741379898834229,-7.179612228393554,1.5173253021240234
1788881002367291400,11.21029150390625,-8.065616480255127,-6.88871672668457,1.0829273384094238
1788881002377322500,11.220322509765625,-7.389104873657226,-6.854449715423583,0.656310530090332
1788881002387352600,11.2303525390625,-7.018003616333007,-6.870311301422118,0.4121019607543945
1788881002397382400,11.24038232421875,-6.851307325744629,-7.38671067199707,0.18599954147338865
1788881002407412500,11.25041259765625,-6.6343328002929685,-8.053495834350585,-0.020649989318847654
1788881002417443600,11.260443603515625,-6.225223591613769,-8.398560148620605,0.29882629470825195
1788881002427473700,11.2704736328125,-5.754613327789306,-7.905803519439697,1.1526584617614746
1788881002437503200,11.280503173828125,-5.56068299331665,-6.988375370788574,2.074276463317871
1788881002447533300,11.290533203125,-5.353883824920654,-6.317699630737304,2.741360900878906
1788881002457564400,11.300564453125,-4.866364511871337,-5.827337203216552,3.162291480255127
1788881002467594500,11.310594482421875,-4.417302062988281,-5.390993950653076,3.52396556854248
1788881002477624300,11.320624267578125,-4.270357936096191,-5.128379956054687,4.023156614685059
1788881002487654400,11.330654296875,-4.463689720153808,-5.046079273986816,4.45605820236206
1788881002497685500,11.340685546875,-4.967369894409179,-4.715978720092773,4.639813179779052
1788881002507715600,11.350715576171876,-5.853074871063232,-5.106083953094482,3.8893805969238278
1788881002517745400,11.360745361328124,-6.391022056579589,-5.977573357391357,2.2954408416748047
1788881002527775500,11.370775390625,-6.829909148406982,-6.459855354309082,1.7458219230651855
1788881002537806600,11.380806640625,-7.155819849395751,-6.775291423034668,1.9183540802001953
1788881002547836400,11.39083642578125,-7.092373505401611,-6.785466780090331,2.4283190338134766
1788881002557866200,11.4008662109375,-6.762272951507568,-6.702567547607422,2.8553847549438474
1788881002567896300,11.410896240234376,-6.635829176330566,-6.657227353668213,3.132214321899414
1788881002577927400,11.420927490234375,-6.625653819274902,-6.710498340606689,3.1293712074279783
1788881002587957500,11.43095751953125,-6.592583908843994,-6.7167831199645995,2.940678189086914
1788881002597987300,11.4409873046875,-6.6048541923522945,-6.736984196472168,2.614917125701904
1788881002608017400,11.451017333984375,-6.641814680480957,-7.141454639434814,2.551171506500244
1788881002618048500,11.461048583984375,-6.6525885879516595,-7.607426137542724,2.8453590354919434
1788881002628078300,11.471078369140624,-5.627271726989746,-9.016264176940917,3.914220439147949
1788881002638108400,11.4811083984375,-7.849988693237305,-9.023895694732666,4.123862722015381
1788881002648138500,11.491138427734375,-12.3088900100708,-7.305906365966797,2.0771195777893063
1788881002658169600,11.501169677734374,-12.984952703857422,-6.978648926544189,0.21921908950805663
1788881002668199400,11.511199462890625,-11.403133594512939,-7.1607578903198235,-0.5008370597839356
1788881002678229200,11.521229248046875,-9.0397572807312,-7.622090622711181,-0.7160159339904785
1788881002688259300,11.53125927734375,-7.780556845092773,-7.97403826675415,-1.0594342346191405
1788881002698289400,11.541289306640625,-7.518691038513183,-8.182184173583984,-1.3435960441589354
1788881002708320300,11.5513203125,-7.676409072875976,-8.084171543121338,-1.712901650238037
1788881002718350300,11.561350341796874,-7.763049245452881,-7.886649906158447,-1.910273649597168
1788881002728380400,11.57138037109375,-7.593659477996826,-7.811082916259765,-1.993172882080078
1788881002738410500,11.581410400390626,-7.753622076416015,-7.601889546203613,-2.009782656097412
1788881002748441300,11.59144140625,-8.358008358001708,-7.15058253326416,-1.9683330398559569
1788881002758471400,11.601471435546875,-9.446921200561523,-6.552481031036376,-1.8996493797302245
1788881002768501500,11.61150146484375,-10.128969398498535,-6.022464638519287,-1.8124106567382812
1788881002778531600,11.621531494140624,-10.102034629821777,-4.973804311370849,-1.8697218589782714
1788881002788562400,11.6315625,-10.00402199935913,-3.6930560607910152,-2.1541829437255857
1788881002798592300,11.64159228515625,-9.050381550598145,-2.4992472579956053,-2.428618309020996
1788881002808622300,11.651622314453125,-7.702595653533935,-1.80672442779541,-2.3971944122314452
1788881002818652400,11.66165234375,-7.086836914062499,-1.8453309295654297,-2.024447141265869
1788881002828683300,11.671683349609374,-7.250989365386962,-2.0415058280944822,-1.3958195678710936
1788881002838713300,11.68171337890625,-7.852233257293701,-2.704400412750244,-1.6606781265258788
1788881002848743400,11.691743408203125,-8.038681711578368,-2.660855870056152,-2.299630694580078
1788881002858773500,11.7017734375,-7.198316928863525,-2.10046304397583,-2.899677485656738
1788881002868804400,11.711804443359375,-6.131101538848877,-1.7310078002929687,-3.1196447631835937
1788881002878834400,11.72183447265625,-5.523572867584228,-1.5484499237060545,-3.0186393806457517
1788881002888864500,11.731864501953124,-5.457582684326171,-2.238279277038574,-2.8983307472229
1788881002898894600,11.74189453125,-6.088754096984863,-2.7295395301818846,-2.4254759193420408
1788881002908925400,11.751925537109376,-6.8056678565979,-2.4435820693969723,-2.4283190338134766
1788881002918955300,11.761955322265624,-7.079504671478271,-1.6675614562988281,-2.6153660385131836
1788881002928985300,11.7719853515625,-6.969969945526123,-0.8019079185485839,-2.5321675308227536
1788881002939015400,11.782015380859375,-6.819135240936279,-0.43574470214843747,-2.254889051055908
1788881002949046300,11.79204638671875,-6.739677673339843,-0.05820902786254883,-2.2819734573364254
1788881002959076400,11.802076416015625,-6.65887336730957,0.16505027694702148,-2.295590479278564
1788881002969106400,11.8121064453125,-6.950068144226074,0.14395137481689452,-2.3690625427246093
1788881002979136500,11.822136474609374,-7.1972694656372065,0.017956512451171875,-2.2297499336242677
1788881002989167400,11.83216748046875,-7.28465782623291,-0.428412459564209,-1.9672855766296387
1788881002999197400,11.842197509765626,-7.464372588348388,-1.0534487304687499,-1.7548001792907715
1788881003009227500,11.8522275390625,-7.562983769226074,-1.613991194152832,-1.4564227973937987
1788881003019257600,11.862257568359375,-7.716661588287353,-2.3039701850891112,-1.2752116592407226
1788881003029288400,11.872288330078124,-8.00007520980835,-2.812139487457275,-1.0736498069763183
1788881003039318300,11.882318359375,-8.443451429748535,-3.3387142150878906,-1.066916114807129
1788881003049348400,11.892348388671875,-8.856900128936767,-4.134636629486084,-1.2463316017150878
1788881003059378400,11.90237841796875,-8.863035270690917,-4.760870001220703,-1.1873743858337402
1788881003069408500,11.912408447265625,-8.787318643188476,-5.230283164215088,-0.9305962577819824
1788881003079439400,11.922439453125,-8.839542166900634,-6.03323854598999,-0.6088754096984863
1788881003089469400,11.932469482421874,-8.99531491241455,-6.5577183471679685,-0.37753567428588863
1788881003099499500,11.94249951171875,-9.082403997802734,-7.477391059875488,-0.2937386161804199
1788881003109529600,11.952529541015625,-9.034968877410888,-8.588749542999267,-0.025139117431640625
1788881003119560400,11.962560546875,-9.624241761016846,-9.721955116271973,0.19722236175537108
1788881003129590500,11.972590576171875,-10.300753367614746,-10.200196897888183,0.4248211570739746
1788881003139620600,11.98262060546875,-10.078092613220214,-9.745298582458496,0.7260416534423828
1788881003149650400,11.992650390625,-9.798419931793212,-9.202562993621825,1.0133458526611328
1788881003159681300,12.002681396484375,-9.406070134735106,-8.858097229766845,1.6843208679199217
1788881003169711400,12.01271142578125,-8.76562119064331,-8.539967684173584,2.4996961708068848
1788881003179741400,12.022741455078124,-8.733149830627442,-8.286032670593261,2.863465185546875
1788881003189771500,12.032771484375,-9.02150149307251,-8.049455619049072,2.7670985687255856
1788881003199802400,12.04280224609375,-8.97002615737915,-7.900865478515625,2.7596166885375975
1788881003209832400,12.05283251953125,-8.791358858489989,-7.732373536682128,2.6420015319824217
1788881003219862500,12.062862548828125,-8.756493296813964,-7.6856866043090815,2.301725621032715
1788881003229892600,12.072892578125,-8.65099878616333,-8.070853796386718,1.6003741722106932
1788881003239923500,12.08292333984375,-8.498518067932128,-8.045265766143798,0.942267990875244
1788881003249953500,12.09295361328125,-8.289025422668457,-7.943661833190918,0.14050970993041992
1788881003259983600,12.102983642578126,-7.999327021789551,-8.630049521636963,-0.4927566291809082
1788881003270013400,12.113013427734375,-7.146991230773925,-8.832958112335204,-0.37125089492797847
1788881003280044300,12.123044189453125,-6.140528707885742,-8.770858506774902,0.26171616897583005
1788881003290074400,12.133074462890624,-5.298218636322021,-8.368333352661132,1.221342121887207
1788881003300104400,12.1431044921875,-4.533869756317139,-7.4585367218017575,2.1306898399353025
1788881003310134500,12.153134521484375,-3.7900212280273435,-6.547692627716064,2.618807703399658
1788881003320165400,12.163165283203124,-3.2918776451110836,-5.747131447601318,2.8176760787963864
1788881003330195500,12.173195556640625,-3.126378455352783,-5.180603479766845,3.0301614761352536
1788881003340225500,12.1832255859375,-3.2900819938659667,-4.576815748596191,3.292476195526123
1788881003350255600,12.193255615234374,-3.5429695442199707,-4.053084135437011,3.7479730613708493
1788881003360286000,12.203285888671875,-4.248211570739746,-4.129997863769531,3.948637088012695
1788881003370316000,12.21331591796875,-5.086331789398193,-4.9528550468444825,3.5411738929748533
1788881003380346000,12.22334619140625,-5.336226587677001,-5.88614478149414,2.513313192749023
1788881003390376200,12.233376220703125,-5.482572164154052,-6.031592532348633,1.9707272415161132
1788881003400407000,12.243406982421876,-5.531204385375976,-6.194098970031738,2.010381206512451
1788881003410437000,12.25343701171875,-5.679495250701904,-6.37785394744873,2.390311082458496
1788881003420467200,12.26346728515625,-6.017975510406494,-6.430676021575928,2.724451851654053
1788881003430497300,12.273497314453126,-6.514024166870117,-6.424391242218017,2.9296050064086914
1788881003440528100,12.283528076171875,-7.007977896881103,-6.519261483001708,3.057395520019531
1788881003450558000,12.293557861328125,-7.671471031951904,-6.833051538085937,3.168426622009277
1788881003460588000,12.303588134765626,-8.333168515777587,-7.265803488159179,3.2884359802246093
1788881003470618000,12.3136181640625,-8.487744160461425,-7.939920893096923,3.297563874053955
1788881003480649000,12.32364892578125,-8.1594392578125,-8.591443019866944,3.214963916778564
1788881003490679000,12.333678955078126,-7.138162612152099,-9.901520240783691,3.7735610916137694
1788881003500709000,12.343709228515625,-10.764330664062498,-9.33409444732666,3.218255944061279
1788881003510739200,12.3537392578125,-13.493421281433104,-8.27421129989624,1.3549685020446776
1788881003520770000,12.36377001953125,-11.99644669342041,-8.199242860412598,0.15936404800415038
1788881003530800000,12.373800048828125,-9.783605809020996,-8.153902666473389,-0.3006219459533691
1788881003540830200,12.383830322265625,-8.418910862731932,-7.8709379577636716,-0.6515221267700195
1788881003550860300,12.3938603515625,-7.764096708679198,-7.92929662322998,-0.9864110839843749
1788881003560891100,12.40389111328125,-7.216871991729736,-7.933935388946533,-1.3970166687011718
1788881003570921000,12.4139208984375,-6.706607762908935,-7.98690710067749,-1.8219874633789062
1788881003580951000,12.423950927734374,-6.37171880569458,-7.829338703918457,-2.0298340950012204
1788881003590981000,12.433981201171875,-6.265625744628906,-7.573907314300537,-1.9231424835205078
1788881003601012000,12.444011962890626,-6.189310566711425,-7.350348734283447,-1.9514239906311035
1788881003611042000,12.4540419921875,-6.617423751068115,-7.196521277618408,-1.7536030784606933
1788881003621072100,12.464072021484375,-7.523479441833496,-6.972064871978759,-1.2797007873535156
1788881003631102200,12.474102294921876,-8.817994351959229,-6.623708530426025,-1.1140519599914551
1788881003641133000,12.484133056640625,-10.015394457244872,-5.947047286224365,-1.2707225311279295
1788881003651163100,12.4941630859375,-11.061510945129394,-5.042338333892822,-1.665017617034912
1788881003661193200,12.504193115234376,-10.831069035339354,-3.7104140228271483,-1.5028104545593262
1788881003671223000,12.51422314453125,-9.810839852905273,-2.9740473747253415,-1.578227806854248
1788881003681254100,12.524254150390625,-8.89371097946167,-2.8241104957580565,-1.9116203880310056
1788881003691284000,12.534283935546876,-8.080430603027343,-2.73896669921875,-2.2340894241333005
1788881003701314000,12.54431396484375,-7.485920403289795,-2.260724917602539,-2.6843489738464354
1788881003711344000,12.55434423828125,-7.907748808288574,-1.0685621284484863,-3.269432004547119
1788881003721375000,12.564375,-7.203404607391357,-0.9789292037963867,-3.427748589324951
1788881003731405000,12.574405029296875,-5.895871225738525,-2.1978771240234374,-3.1425393165588376
1788881003741435100,12.58443505859375,-5.973832417297363,-3.0846295639038086,-2.4066215812683103
1788881003751465000,12.59446484375,-6.850858412933349,-3.2831986640930175,-2.2192753013610838
1788881003761496000,12.60449609375,-7.294982820892334,-2.0376152503967284,-2.533364631652832
1788881003771526100,12.614526123046875,-6.660220105743408,-1.0422259101867675,-2.5854385177612302
1788881003781556200,12.62455615234375,-6.310666663360595,-0.8524854286193847,-2.675669992828369
1788881003791586000,12.6345859375,-6.490680700683593,-0.6398503936767578,-2.7578210372924805
1788881003801616000,12.644615966796875,-6.608595132446289,-0.13347674255371092,-2.6581623931884764
1788881003811647200,12.654647216796874,-6.884526873779296,0.16998831787109375,-2.529324416351318
1788881003821677000,12.664677001953125,-7.178265489959716,0.002992752075195312,-2.3383868339538574
1788881003831707000,12.674706787109375,-6.987028632354736,-0.5487210929870605,-2.2617723808288575
1788881003841738000,12.684738037109375,-6.740874774169922,-1.0143933158874512,-2.390161444854736
1788881003851768000,12.69476806640625,-6.631190410614013,-1.3530232131958007,-2.3597850112915038
1788881003861798100,12.704798095703126,-6.68461103515625,-1.788319002532959,-2.2577321655273437
1788881003871828000,12.714827880859374,-6.924929026794433,-2.2062568298339844,-2.137273894500732
1788881003881858000,12.724858154296875,-7.332990772247314,-2.593369310760498,-1.913416039276123
1788881003891889200,12.73488916015625,-7.8176669708251945,-2.9052140769958497,-1.876305913543701
1788881003901919200,12.744919189453125,-8.303839545440674,-3.1289222946166992,-1.9410989959716796
1788881003911949000,12.754948974609375,-8.787318643188476,-3.2995091629028317,-1.6793828269958495
1788881003921979000,12.764978759765626,-9.205705383300781,-3.7653310234069823,-1.4532804077148436
1788881003932010200,12.77501025390625,-9.264812236785888,-4.502296221923828,-1.1688193229675292
1788881003942040000,12.7850400390625,-8.652944075012206,-5.123591552734375,-0.7867945205688476
1788881003952070000,12.79506982421875,-8.252364209747315,-5.678747062683105,-0.3725976333618164
1788881003962100000,12.805099853515625,-8.154201941680908,-6.834847189331055,0.049530046844482416
1788881003972131000,12.815131103515625,-8.133252677154541,-8.09464617538452,0.5315127685546874
