time,seconds_elapsed,z,y,x
1789031942035843800,0.05284375,0.060744550079107285,0.06299322098493576,0.0070093609392642975
1789031942045846800,0.0628466796875,0.07333303987979889,0.07402296364307404,0.010676001198589802
1789031942055849700,0.072849609375,0.0770561620593071,0.07170072942972183,0.010584908537566662
1789031942065852700,0.082852783203125,0.08473538607358932,0.07230420410633087,0.015277132391929626
1789031942075855600,0.092855712890625,0.0917971134185791,0.06903720647096634,0.02142711915075779
1789031942085858800,0.10285888671875,0.11378417164087296,0.06323444098234177,0.016056589782238007
1789031942095861800,0.11286181640625,0.13617756962776184,0.05806732550263405,0.015294699929654598
1789031942105864700,0.12286474609375,0.16588033735752106,0.05320785567164421,0.013094129972159863
1789031942115868000,0.132867919921875,0.19056850671768188,0.030479170382022858,0.008137783966958523
1789031942125870600,0.14287060546875,0.219773530960083,-0.01398123987019062,-0.0003092302940785885
1789031942135873800,0.152873779296875,0.25731515884399414,-0.10794652253389359,-0.03697781637310982
1789031942145876700,0.162876708984375,0.2832428812980652,-0.20244640111923218,-0.04826615750789642
1789031942155879700,0.172879638671875,0.3067086338996887,-0.2273721694946289,-0.0037850309163331985
1789031942165883000,0.1828828125,0.3289497494697571,-0.2549643814563751,0.0397038571536541
1789031942175885600,0.192885498046875,0.33413296937942505,-0.2659519612789154,0.08711430430412292
1789031942185888800,0.202888671875,0.3458287715911865,-0.24029558897018433,0.12877918779850006
1789031942195892000,0.21289208984375,0.3638747036457062,-0.20998412370681763,0.1267455518245697
1789031942205894700,0.222894775390625,0.3737933933734894,-0.1719251573085785,0.09487549960613251
1789031942215897900,0.23289794921875,0.37260639667510986,-0.11320021748542786,0.0696902722120285
1789031942225900500,0.242900634765625,0.35989779233932495,-0.06631020456552505,0.049110427498817444
1789031942235903700,0.25290380859375,0.338645339012146,-0.0393921323120594,0.03872311860322952
1789031942245907000,0.262906982421875,0.3014140725135803,-0.050298575311899185,0.038736168295145035
1789031942255909600,0.27290966796875,0.2706645131111145,-0.09371299296617508,0.023159556090831757
1789031942265912800,0.282912841796875,0.255944162607193,-0.12448422610759735,-0.0034515480510890484
1789031942275915800,0.292915771484375,0.2514098882675171,-0.18503887951374054,-0.027676738798618317
1789031942285918700,0.302918701171875,0.2559410035610199,-0.21672889590263367,-0.04372281953692436
1789031942295922000,0.312921875,0.2623952329158783,-0.2690534293651581,-0.07105141133069992
1789031942305924600,0.322924560546875,0.2655430734157562,-0.280753493309021,-0.061508506536483765
1789031942315927800,0.332927734375,0.264540433883667,-0.27011561393737793,-0.03860359638929367
1789031942325930800,0.3429306640625,0.2680124044418335,-0.23465457558631897,-0.026119496673345566
1789031942335933700,0.35293359375,0.2645357847213745,-0.17985382676124573,-0.007921934127807617
1789031942345937000,0.36293701171875,0.258516788482666,-0.1145605593919754,0.005579759366810322
1789031942355939800,0.37293994140625,0.25806838274002075,-0.08250153064727783,0.0018518154975026846
1789031942365942800,0.38294287109375,0.28122323751449585,-0.06869197636842728,0.024468444287776947
1789031942375945700,0.39294580078125,0.2969028353691101,-0.08025185018777847,0.03995367884635925
1789031942385948700,0.40294873046875,0.3169702887535095,-0.09299614280462265,0.025062616914510727
1789031942395951900,0.412951904296875,0.3297342360019684,-0.09729421883821487,-0.004379930440336466
1789031942405954800,0.422954833984375,0.3448151648044586,-0.08416564017534256,-0.022773850709199905
1789031942415957800,0.432957763671875,0.34642452001571655,-0.04956630989909172,-0.02701546438038349
1789031942425960700,0.442960693359375,0.3531085252761841,-0.029540136456489563,-0.06001841649413109
1789031942435964000,0.4529638671875,0.3561497628688812,0.010500134900212288,-0.08966680616140366
1789031942445966800,0.462966796875,0.3487413823604584,0.082164466381073,-0.0924769714474678
1789031942455969800,0.4729697265625,0.3342788517475128,0.15434573590755463,-0.10364363342523575
1789031942465972700,0.48297265625,0.33249959349632263,0.22069253027439117,-0.09879854321479797
1789031942475975700,0.4929755859375,0.35526949167251587,0.23679408431053162,-0.10965578258037567
1789031942485979000,0.502978759765625,0.3911702334880829,0.2699001133441925,-0.11284651607275009
1789031942495981600,0.512981689453125,0.42676541209220886,0.3096332848072052,-0.09777884185314178
1789031942505984800,0.52298486328125,0.4562215805053711,0.3566756248474121,-0.09359315037727356
1789031942515987700,0.53298779296875,0.48705169558525085,0.4129219055175781,-0.07672922313213348
1789031942525990700,0.54299072265625,0.5264225602149963,0.45814770460128784,-0.06879114359617233
1789031942535993900,0.552993896484375,0.5651593804359436,0.5066751837730408,-0.056561682373285294
1789031942545996500,0.56299658203125,0.598677396774292,0.5531870126724243,-0.057717759162187576
1789031942556000800,0.573000732421875,0.6127856373786926,0.5898650288581848,-0.07470547407865524
1789031942566003700,0.583003662109375,0.5898861289024353,0.6555766463279724,-0.05499861761927605
1789031942576006700,0.593006591796875,0.5639424920082092,0.7081827521324158,-0.0007652430795133114
1789031942586009900,0.603009765625,0.5458002686500549,0.7692397236824036,0.050407931208610535
1789031942596012800,0.6130126953125,0.5364168286323547,0.8217762112617493,0.09927830100059509
1789031942606015700,0.623015625,0.5324998497962952,0.8199436664581299,0.1413080394268036
1789031942616018700,0.633018798828125,0.5301552414894104,0.7834315299987793,0.17359483242034912
1789031942626022000,0.64302197265625,0.5205247402191162,0.7873559594154358,0.18629704415798187
1789031942636024800,0.65302490234375,0.5215209722518921,0.7681646943092346,0.22086012363433838
1789031942646027800,0.66302783203125,0.5207257270812988,0.7654781341552734,0.22782002389431
1789031942656030700,0.67303076171875,0.5315523743629456,0.7411205768585205,0.23524567484855652
1789031942666033700,0.68303369140625,0.5332440137863159,0.6859952807426453,0.24763230979442596
1789031942676036900,0.693036865234375,0.5302993059158325,0.6429140567779541,0.24454917013645172
1789031942686039800,0.703039794921875,0.528544008731842,0.6097619533538818,0.2592833936214447
1789031942696042800,0.713042724609375,0.5123171210289001,0.6227707266807556,0.2596146762371063
1789031942706046000,0.7230458984375,0.49214181303977966,0.6195067763328552,0.25132906436920166
1789031942716048600,0.733048583984375,0.4816098213195801,0.596315324306488,0.2417621910572052
1789031942726051800,0.7430517578125,0.4732474684715271,0.5733966827392578,0.2433752715587616
1789031942736054800,0.7530546875,0.4518054127693176,0.5169379115104675,0.23995277285575867
1789031942746057700,0.7630576171875,0.4252486526966095,0.47580328583717346,0.234698086977005
1789031942756061000,0.77306103515625,0.3805081844329834,0.44515207409858704,0.20726920664310455
1789031942766063600,0.783063720703125,0.3215157091617584,0.4665455222129822,0.12917973101139069
1789031942776066800,0.79306689453125,0.2890108525753021,0.47220683097839355,0.08834144473075867
1789031942786069800,0.80306982421875,0.29196110367774963,0.43804699182510376,0.07180507481098175
1789031942796072700,0.81307275390625,0.31475645303726196,0.40073052048683167,0.07815349102020264
1789031942806076000,0.823075927734375,0.3199951648712158,0.36610355973243713,0.1138819232583046
1789031942816078600,0.83307861328125,0.31249716877937317,0.3468123972415924,0.14347346127033234
1789031942826081800,0.843081787109375,0.29541271924972534,0.32079172134399414,0.18916237354278564
1789031942836084700,0.853084716796875,0.2704616189002991,0.30125242471694946,0.19644209742546082
1789031942846087700,0.863087646484375,0.24701568484306335,0.3355371356010437,0.17383691668510437
1789031942856091000,0.8730908203125,0.2197064608335495,0.3586205244064331,0.20564843714237213
1789031942866093600,0.883093505859375,0.19725361466407776,0.3135707378387451,0.21668830513954163
1789031942876096800,0.8930966796875,0.19597087800502777,0.28250652551651,0.16682109236717224
1789031942886099700,0.903099609375,0.1872090846300125,0.25771862268447876,0.15975040197372437
1789031942896102700,0.9131025390625,0.17305780947208405,0.22229807078838348,0.17836804687976837
1789031942906105900,0.92310595703125,0.16140516102313995,0.18242762982845306,0.20405901968479156
1789031942916108800,0.93310888671875,0.14360156655311584,0.1220596507191658,0.2103119045495987
1789031942926111700,0.94311181640625,0.11986108124256134,0.08769901096820831,0.24886222183704376
1789031942936114700,0.95311474609375,0.12036798894405365,0.07370571047067642,0.2963140904903412
1789031942946117600,0.96311767578125,0.12560562789440155,0.07567857950925827,0.2907893657684326
1789031942956120800,0.973120849609375,0.11551813781261444,0.1043378934264183,0.2784818410873413
1789031942966123800,0.983123779296875,0.08721406012773514,0.0930950939655304,0.3062404990196228
1789031942976126700,0.993126708984375,0.0738276019692421,0.03239741921424866,0.3084416389465332
1789031942986129700,1.003129638671875,0.06263859570026398,-0.02391139604151249,0.2992497384548187
1789031942996132900,1.0131328125,0.04141247272491455,-0.054384492337703705,0.28768599033355713
1789031943006135800,1.0231357421875,0.016944412142038345,-0.06536657363176346,0.28877177834510803
1789031943016138800,1.033138671875,0.003286641789600253,-0.06776246428489685,0.3116627037525177
1789031943026141700,1.0431416015625,0.010277971625328064,-0.06717124581336975,0.35940679907798767
1789031943036144600,1.05314453125,0.04628445953130722,-0.08131837099790573,0.37845051288604736
1789031943046147800,1.06314794921875,0.08665104955434799,-0.06659375876188278,0.34987398982048035
1789031943056150800,1.07315087890625,0.11103779077529907,-0.04508242756128311,0.31739839911460876
1789031943066153700,1.08315380859375,0.10622864961624146,-0.021627699956297874,0.2781442105770111
1789031943076157000,1.093156982421875,0.10326283425092697,-0.007293597795069218,0.281949520111084
1789031943086159600,1.10315966796875,0.09477107226848602,0.0023198812268674374,0.29645097255706787
1789031943096163800,1.113163818359375,0.06983567029237747,0.02416914515197277,0.2921784222126007
1789031943106166800,1.123166748046875,0.057099636644124985,0.038800016045570374,0.30338048934936523
1789031943116169700,1.133169677734375,0.05060862749814987,0.02958984486758709,0.2903747260570526
1789031943126172700,1.143172607421875,0.06346423178911209,0.01696806028485298,0.296733558177948
1789031943136175900,1.15317578125,0.08879413455724716,-0.018781334161758423,0.2926575541496277
1789031943146178800,1.1631787109375,0.0690702348947525,-0.03177250176668167,0.20333246886730194
1789031943156181800,1.173181640625,0.02174573577940464,0.006840084679424763,0.1647622436285019
1789031943166184700,1.183184814453125,0.022807803004980087,-0.04087390750646591,0.2319069355726242
1789031943176187600,1.193187744140625,0.07100573182106018,-0.0759558379650116,0.262544184923172
1789031943186190800,1.20319091796875,0.11461019515991211,-0.06833280622959137,0.2855645418167114
1789031943196193800,1.21319384765625,0.10698964446783066,-0.061507947742938995,0.23852163553237915
1789031943206196700,1.22319677734375,0.03588005155324936,0.027709010988473892,0.15220537781715393
1789031943216199700,1.23319970703125,0.04276619479060173,0.027003731578588486,0.23696739971637726
1789031943226202600,1.24320263671875,0.0961010530591011,0.009016208350658417,0.3204401731491089
1789031943236205800,1.253205810546875,0.13597707450389862,0.05104997754096985,0.3548077642917633
1789031943246208800,1.263208740234375,0.15391479432582855,0.07092168927192688,0.40000349283218384
1789031943256211700,1.273211669921875,0.12366403639316559,0.07845213264226913,0.4105798900127411
1789031943266215000,1.28321484375,0.08386735618114471,0.09443029761314392,0.3756999373435974
1789031943276217600,1.293217529296875,0.05724707245826721,0.07762888818979263,0.36587053537368774
1789031943286220800,1.303220703125,0.05468857288360596,0.03173170983791351,0.3504955768585205
1789031943296223700,1.3132236328125,0.05451798439025879,0.011327497661113739,0.33548834919929504
1789031943306226700,1.323226806640625,0.0482582226395607,-0.01586364395916462,0.33170264959335327
1789031943316230000,1.33322998046875,0.01159520074725151,-0.031460952013731,0.2983122766017914
1789031943326232600,1.343232666015625,-0.03899313881993294,-0.009461908601224422,0.24452146887779236
1789031943336235800,1.35323583984375,-0.06098505109548569,-0.0527520589530468,0.19943071901798248
1789031943346239000,1.363239013671875,-0.0816892683506012,-0.0591854564845562,0.15452289581298828
1789031943356241700,1.37324169921875,-0.10396043956279755,-0.06060164421796799,0.10235553979873657
1789031943366244900,1.383244873046875,-0.13758790493011475,-0.11771845817565918,0.06401747465133667
1789031943376247600,1.39324755859375,-0.16629597544670105,-0.18179932236671448,0.07035072892904282
1789031943386250800,1.403250732421875,-0.18878689408302307,-0.24876902997493744,0.0852777510881424
1789031943396254000,1.41325390625,-0.22015272080898285,-0.2672261595726013,0.1189977303147316
1789031943406256600,1.423256591796875,-0.2338285893201828,-0.2610745131969452,0.16457293927669525
1789031943416259800,1.433259765625,-0.22354884445667267,-0.2454662173986435,0.24423302710056305
1789031943426262800,1.4432626953125,-0.21484163403511047,-0.24938665330410004,0.35517391562461853
1789031943436265700,1.453265625,-0.21110495924949646,-0.2908991575241089,0.46787625551223755
1789031943446268700,1.4632685546875,-0.21143385767936707,-0.31167954206466675,0.5263726115226746
1789031943456271600,1.473271728515625,-0.19553057849407196,-0.36303672194480896,0.5562431216239929
1789031943466274800,1.48327490234375,-0.17110620439052582,-0.3204953968524933,0.5260772705078125
1789031943476277800,1.49327783203125,-0.1389802247285843,-0.2799868583679199,0.48510798811912537
1789031943486280700,1.50328076171875,-0.12486550956964493,-0.2682325839996338,0.45407846570014954
1789031943496283600,1.51328369140625,-0.1330392211675644,-0.27714866399765015,0.4722241461277008
1789031943506286800,1.523286865234375,-0.1694456934928894,-0.22560559213161469,0.4941299855709076
1789031943516289800,1.533289794921875,-0.21108511090278625,-0.20639628171920776,0.49377158284187317
1789031943526292700,1.543292724609375,-0.24253705143928528,-0.1934240311384201,0.4695679843425751
1789031943536295700,1.553295654296875,-0.26409250497817993,-0.19309911131858826,0.44765859842300415
1789031943546298600,1.563298583984375,-0.2707786560058594,-0.22106389701366425,0.4232717454433441
1789031943556302000,1.573302001953125,-0.2753109633922577,-0.23520047962665558,0.4137329161167145
1789031943566305300,1.58330517578125,-0.2761293351650238,-0.26015907526016235,0.41434356570243835
1789031943576308000,1.593307861328125,-0.27323219180107117,-0.27867749333381653,0.4132031202316284
1789031943586311200,1.603311279296875,-0.26754313707351685,-0.2936524450778961,0.3979911506175995
1789031943596314000,1.613314208984375,-0.2593729496002197,-0.2757692039012909,0.33469557762145996
1789031943606317000,1.623317138671875,-0.24599508941173553,-0.26554957032203674,0.2815639078617096
1789031943616320300,1.6333203125,-0.23949402570724487,-0.26691770553588867,0.23827609419822693
1789031943626323200,1.6433232421875,-0.22640086710453033,-0.27139875292778015,0.22388730943202972
1789031943636326100,1.653326171875,-0.21902547776699066,-0.25818878412246704,0.21818199753761292
1789031943646329000,1.6633291015625,-0.22341810166835785,-0.24816490709781647,0.21839186549186707
1789031943656332000,1.67333203125,-0.23393762111663818,-0.2469763606786728,0.2334595024585724
1789031943666335200,1.683335205078125,-0.23379355669021606,-0.2484711855649948,0.22184252738952637
1789031943676338200,1.693338134765625,-0.2081349939107895,-0.25933828949928284,0.2093014121055603
1789031943686342100,1.703342041015625,-0.1974908709526062,-0.24075233936309814,0.19161535799503326
1789031943696345000,1.713344970703125,-0.18319976329803467,-0.2400389462709427,0.18450868129730225
1789031943706348300,1.723348388671875,-0.18389324843883514,-0.20005159080028534,0.15600194036960602
1789031943716351000,1.73335107421875,-0.20002220571041107,-0.1473071575164795,0.09882576763629913
1789031943726354200,1.743354248046875,-0.21475481986999512,-0.13951368629932404,0.04566800594329834
1789031943736357000,1.753357177734375,-0.20897698402404785,-0.1535944789648056,0.013348778709769249
1789031943746360000,1.763360107421875,-0.20381978154182434,-0.1584686040878296,-0.004072555340826511
1789031943756363300,1.77336328125,-0.19925598800182343,-0.13436822593212128,-0.04727606847882271
1789031943766366200,1.7833662109375,-0.19831936061382294,-0.12259679287672043,-0.10186420381069183
1789031943776369200,1.793369140625,-0.1933150738477707,-0.1205257698893547,-0.139216348528862
1789031943786372000,1.8033720703125,-0.1771100014448166,-0.09360919892787933,-0.14738158881664276
1789031943796375000,1.813375,-0.173136904835701,-0.09011917561292648,-0.13214027881622314
1789031943806378200,1.823378173828125,-0.195232093334198,-0.0784555971622467,-0.11426407843828201
1789031943816381200,1.833381103515625,-0.23459412157535553,-0.08338186889886856,-0.09010788053274155
1789031943826384100,1.843384033203125,-0.28802433609962463,-0.08043481409549713,-0.0868937149643898
1789031943836387000,1.853386962890625,-0.359022855758667,-0.05003361403942108,-0.08522845804691315
1789031943846390000,1.86339013671875,-0.45141294598579407,-0.03847123309969902,-0.10672523081302643
1789031943856393200,1.873393310546875,-0.5369345545768738,-0.016661547124385834,-0.1638401448726654
1789031943866396200,1.883396240234375,-0.61910080909729,-0.013225270435214043,-0.2584814429283142
1789031943876399000,1.893399169921875,-0.6586030721664429,-0.038200944662094116,-0.36901044845581055
1789031943886402000,1.903402099609375,-0.6609793901443481,-0.03514603525400162,-0.4593659043312073
1789031943896405200,1.9134052734375,-0.6224690079689026,-0.03979632630944252,-0.519797146320343
1789031943906408200,1.923408203125,-0.5712183117866516,-0.06685031205415726,-0.5584473609924316
1789031943916411100,1.9334111328125,-0.5397585034370422,-0.0614481046795845,-0.5723437666893005
1789031943926414000,1.9434140625,-0.5351136326789856,-0.09980401396751404,-0.5639564394950867
1789031943936417000,1.9534169921875,-0.5297917723655701,-0.1383838802576065,-0.5329337120056152
1789031943946420200,1.963420166015625,-0.486839234828949,-0.16628076136112213,-0.48397016525268555
1789031943956423200,1.973423095703125,-0.4065929353237152,-0.1947828233242035,-0.43652182817459106
1789031943966426000,1.983426025390625,-0.3348771929740906,-0.23755691945552826,-0.37556686997413635
1789031943976429300,1.99342919921875,-0.24093127250671387,-0.2590714693069458,-0.30384737253189087
1789031943986432000,2.003431884765625,-0.16244497895240784,-0.28442078828811646,-0.22507455945014954
1789031943996435200,2.013435302734375,-0.09334321320056915,-0.32686689496040344,-0.1808023899793625
1789031944006438100,2.023438232421875,-0.05036911368370056,-0.3678816854953766,-0.16388891637325287
1789031944016441000,2.033441162109375,0.004917568527162075,-0.40376079082489014,-0.14557702839374542
1789031944026444300,2.0434443359375,0.05286991596221924,-0.47845393419265747,-0.1319674700498581
1789031944036447000,2.053447021484375,0.06530232727527618,-0.44546806812286377,-0.12809468805789948
1789031944046450200,2.0634501953125,0.03565921634435654,-0.35740211606025696,-0.1366807222366333
1789031944056453000,2.073453125,-0.0026382231153547764,-0.2957168221473694,-0.13640010356903076
1789031944066456000,2.0834560546875,0.011772673577070236,-0.26319029927253723,-0.15670111775398254
1789031944076459300,2.093459228515625,0.024279717355966568,-0.26831892132759094,-0.21025049686431885
1789031944086462000,2.1034619140625,0.03444473817944527,-0.3110019266605377,-0.26192566752433777
1789031944096465200,2.113465087890625,0.03468604385852814,-0.31446051597595215,-0.29693934321403503
1789031944106468000,2.123468017578125,0.02000723034143448,-0.2680964767932892,-0.33565372228622437
1789031944116471000,2.133470947265625,-0.05562826991081238,-0.1425556242465973,-0.3738783895969391
1789031944126474200,2.14347412109375,-0.13484399020671844,-0.05471605062484741,-0.3892557621002197
1789031944136477200,2.153477294921875,-0.16323187947273254,-0.016926545649766922,-0.3905375897884369
1789031944146480000,2.163480224609375,-0.16624924540519714,0.019717752933502197,-0.4006562829017639
1789031944156483000,2.173483154296875,-0.16403229534626007,0.08069050312042236,-0.4200969934463501
1789031944166486000,2.183486083984375,-0.15099772810935974,0.17731957137584686,-0.41820642352104187
1789031944176489200,2.1934892578125,-0.12749534845352173,0.209152489900589,-0.39323288202285767
1789031944186492200,2.2034921875,-0.09544260054826736,0.23186258971691132,-0.35937559604644775
1789031944196495000,2.2134951171875,-0.050566416233778,0.2697356641292572,-0.3620007038116455
1789031944206498000,2.223498046875,-0.03232323005795479,0.30878373980522156,-0.37167516350746155
1789031944216501200,2.233501220703125,-0.014978693798184395,0.3123408257961273,-0.3623867928981781
1789031944226504200,2.243504150390625,-0.0019209482707083225,0.28629112243652344,-0.3526023328304291
1789031944236507100,2.253507080078125,0.01032759714871645,0.2537808418273926,-0.33427828550338745
1789031944246510000,2.263510009765625,0.023751527070999146,0.23425854742527008,-0.27476996183395386
1789031944256513000,2.273512939453125,0.014388279989361763,0.19716840982437134,-0.2121562957763672
1789031944266516200,2.28351611328125,0.006181482225656509,0.1532672643661499,-0.14715492725372314
1789031944276519200,2.293519287109375,0.0033310349099338055,0.09599293768405914,-0.09984969347715378
1789031944286522000,2.303522216796875,-0.013157927431166172,0.08771529793739319,-0.07992871850728989
1789031944296526000,2.313526123046875,-0.03971933200955391,0.05813099071383476,-0.08477230370044708
1789031944306529000,2.323529052734375,-0.06580846011638641,0.03597642108798027,-0.08553183823823929
1789031944316532200,2.3335322265625,-0.1033812165260315,-0.013003879226744175,-0.06791231036186218
1789031944326535200,2.34353515625,-0.12940189242362976,-0.05338991805911064,-0.04306635633111
1789031944336538000,2.3535380859375,-0.15963511168956757,-0.09447555989027023,0.0015620682388544083
1789031944346541000,2.363541015625,-0.1530483067035675,-0.10668481886386871,0.052686769515275955
1789031944356544000,2.3735439453125,-0.13123908638954163,-0.07958611845970154,0.09869549423456192
1789031944366547200,2.383547119140625,-0.09744169563055038,-0.04578741267323494,0.11819276213645935
1789031944376550100,2.393550048828125,-0.08861315250396729,-0.010440962389111519,0.12890911102294922
1789031944386553000,2.403552978515625,-0.08605412393808365,0.022318316623568535,0.11850494146347046
1789031944396556000,2.41355615234375,-0.093000628054142,0.05074464529752731,0.11562138050794601
1789031944406559200,2.423559326171875,-0.1233111321926117,0.06053043156862259,0.10283154994249344
1789031944416562200,2.433562255859375,-0.16690795123577118,0.0773780345916748,0.09442303329706192
1789031944426565000,2.443565185546875,-0.20657466351985931,0.0937546119093895,0.11094582080841064
1789031944436568000,2.453568115234375,-0.21319299936294556,0.10612151771783829,0.13882863521575928
1789031944446571000,2.463571044921875,-0.16034816205501556,0.13802377879619598,0.1700422167778015
1789031944456574200,2.47357421875,-0.11380433291196823,0.09121690690517426,0.17396984994411469
1789031944466577200,2.4835771484375,-0.05855172872543335,0.033315256237983704,0.14647457003593445
1789031944476580000,2.493580078125,0.001877387287095189,-0.05719407647848129,0.09039285033941269
1789031944486583300,2.503583251953125,0.02083749696612358,-0.11781907826662064,0.04325542971491814
1789031944496586000,2.5135859375,0.015787215903401375,-0.13688577711582184,0.02913835272192955
1789031944506589200,2.523589111328125,-0.007395335007458925,-0.16002145409584045,0.011532194912433624
1789031944516592000,2.533592041015625,-0.07190578430891037,-0.15912553668022156,0.004700595047324896
1789031944526595000,2.543594970703125,-0.110759437084198,-0.1798585206270218,0.0391874685883522
1789031944536598300,2.553598388671875,-0.14295493066310883,-0.21546216309070587,0.05025876685976982
1789031944546601000,2.56360107421875,-0.17657627165317535,-0.2644324004650116,0.05692785605788231
1789031944556604400,2.5736044921875,-0.21594320237636566,-0.31651371717453003,0.09266538918018341
1789031944566607400,2.583607421875,-0.2665403485298157,-0.3253607451915741,0.1162135899066925
1789031944576610300,2.5936103515625,-0.3118896782398224,-0.31420451402664185,0.13244421780109406
1789031944586613500,2.603613525390625,-0.34870922565460205,-0.28745946288108826,0.1267668753862381
1789031944596616200,2.6136162109375,-0.3740330934524536,-0.24648618698120117,0.1053992211818695
1789031944606619400,2.623619384765625,-0.38190725445747375,-0.22037629783153534,0.08652779459953308
1789031944616622300,2.633622314453125,-0.3676256835460663,-0.23550966382026672,0.05311543494462967
1789031944626625300,2.643625244140625,-0.3740105926990509,-0.2433830350637436,0.001691125798970461
1789031944636628500,2.65362841796875,-0.40029996633529663,-0.19983966648578644,-0.03831100836396217
1789031944646631200,2.663631103515625,-0.40951210260391235,-0.13736963272094727,-0.049631841480731964
1789031944656634400,2.67363427734375,-0.3964588940143585,-0.07398414611816406,-0.03483292832970619
1789031944666637300,2.68363720703125,-0.3703191578388214,-0.03485511615872383,-0.03168001025915146
1789031944676640300,2.69364013671875,-0.3180796504020691,0.022727185860276222,-0.02053949236869812
1789031944686643500,2.7036435546875,-0.2863403558731079,0.04925839602947235,-0.02891460247337818
1789031944696646400,2.713646484375,-0.25826847553253174,0.059674136340618134,-0.0665445402264595
1789031944706649300,2.7236494140625,-0.2378753274679184,0.037745401263237,-0.12827713787555695
1789031944716652300,2.73365234375,-0.19270597398281097,0.012950954027473927,-0.18608346581459045
1789031944726655200,2.7436552734375,-0.15103362500667572,0.03364238142967224,-0.23065413534641266
1789031944736658400,2.753658447265625,-0.10226046293973923,0.07881268113851547,-0.26102858781814575
1789031944746661400,2.763661376953125,-0.07384666055440903,0.11767645925283432,-0.2921212613582611
1789031944756664300,2.773664306640625,-0.06606847047805786,0.12224189937114716,-0.311726838350296
1789031944766667300,2.783667236328125,-0.04913049936294556,0.11885888129472733,-0.31878796219825745
1789031944776670200,2.793670166015625,-0.05692293494939804,0.12119737267494202,-0.31701958179473877
1789031944786673400,2.80367333984375,-0.08538813143968582,0.13549400866031647,-0.2938157320022583
1789031944796676400,2.81367626953125,-0.13340206444263458,0.1442691683769226,-0.2589176297187805
1789031944806679300,2.82367919921875,-0.1753348708152771,0.12801562249660492,-0.21093812584877014
1789031944816682200,2.83368212890625,-0.20740476250648499,0.12464587390422821,-0.16645729541778564
1789031944826685400,2.843685546875,-0.2111009657382965,0.13709881901741028,-0.13039463758468628
1789031944836688400,2.8536884765625,-0.2058478742837906,0.14353293180465698,-0.09776265919208527
1789031944846691300,2.86369140625,-0.20663058757781982,0.14982198178768158,-0.07258965820074081
1789031944856694300,2.8736943359375,-0.20342691242694855,0.152238667011261,-0.06354070454835892
1789031944866698200,2.8836982421875,-0.20368070900440216,0.1584523618221283,-0.08757040649652481
1789031944876701400,2.893701416015625,-0.21656955778598785,0.16438642144203186,-0.14130398631095886
1789031944886703400,2.903703369140625,-0.23942826688289642,0.17208322882652283,-0.19150322675704956
1789031944896707300,2.913707275390625,-0.24519285559654236,0.19485734403133392,-0.20966070890426636
1789031944906710300,2.923710205078125,-0.24311426281929016,0.20633183419704437,-0.2213173657655716
1789031944916713200,2.933713134765625,-0.21709896624088287,0.21820168197155,-0.23766514658927917
1789031944926716400,2.94371630859375,-0.20039428770542145,0.2070944458246231,-0.23111191391944885
1789031944936719400,2.95371923828125,-0.19487017393112183,0.17365847527980804,-0.22655946016311646
1789031944946722300,2.963722412109375,-0.18737764656543732,0.13518618047237396,-0.21439440548419952
1789031944956725200,2.973725341796875,-0.18373998999595642,0.18384622037410736,-0.189864844083786
1789031944966728400,2.983728515625,-0.20049819350242615,0.20512619614601135,-0.1872972846031189
1789031944976731400,2.9937314453125,-0.21734951436519623,0.2018955498933792,-0.2059333473443985
1789031944986734300,3.003734375,-0.2091517597436905,0.22114594280719757,-0.2221032679080963
1789031944996737300,3.0137373046875,-0.19323477149009705,0.23968663811683655,-0.23305316269397736
1789031945006740200,3.023740234375,-0.17574313282966614,0.2795352637767792,-0.23803406953811646
1789031945016743400,3.033743408203125,-0.16350866854190826,0.2608114778995514,-0.24792926013469696
1789031945026746400,3.043746337890625,-0.14891879260540009,0.25107842683792114,-0.2514331638813019
1789031945036749300,3.053749267578125,-0.10900575667619705,0.26812466979026794,-0.22172720730304718
1789031945046752500,3.06375244140625,-0.06830812245607376,0.28478434681892395,-0.2063317447900772
1789031945056755200,3.073755126953125,-0.03300881385803223,0.26192358136177063,-0.21205110847949982
1789031945066758400,3.08375830078125,0.019162246957421303,0.22102728486061096,-0.20648057758808136
1789031945076761300,3.09376123046875,0.04166674613952637,0.24475087225437164,-0.22050289809703827
1789031945086764300,3.103764404296875,0.04386784881353378,0.2788691520690918,-0.2187444120645523
1789031945096767500,3.113767578125,0.021854517981410027,0.32209688425064087,-0.19487403333187103
1789031945106770200,3.123770263671875,-0.0023211240768432617,0.3189506232738495,-0.1730361133813858
1789031945116773400,3.1337734375,-0.017172278836369514,0.29798927903175354,-0.16169473528862
1789031945126776300,3.1437763671875,-0.01617439277470112,0.25310567021369934,-0.1520053595304489
1789031945136779300,3.153779296875,0.003577298019081354,0.18547247350215912,-0.1299469918012619
1789031945146782500,3.163782470703125,0.033410828560590744,0.12606081366539001,-0.10318620502948761
1789031945156785200,3.17378515625,0.061599280685186386,0.08597776293754578,-0.08432168513536453
1789031945166788400,3.183788330078125,0.08718852698802948,0.018489263951778412,-0.05082577466964722
1789031945176791600,3.19379150390625,0.1208367720246315,-0.014498056843876839,-0.025451716035604477
1789031945186794200,3.203794189453125,0.16832280158996582,-0.065469890832901,-0.003098472021520138
1789031945196797400,3.21379736328125,0.24586783349514008,-0.10699957609176636,0.022708678618073463
1789031945206800100,3.223800048828125,0.3092193603515625,-0.12560495734214783,0.0338611975312233
1789031945216803300,3.23380322265625,0.3188301920890808,-0.10787762701511383,0.03460448607802391
1789031945226806500,3.243806640625,0.28558939695358276,-0.042309004813432693,0.025006454437971115
1789031945236809200,3.253809326171875,0.24042059481143951,0.012011758983135223,0.004165620543062687
1789031945246812400,3.2638125,0.18944476544857025,0.007970145903527737,-0.021924301981925964
1789031945256815400,3.2738154296875,0.15261276066303253,-0.030134012922644615,-0.04975755512714386
1789031945266818300,3.283818359375,0.14207889139652252,-0.12843528389930725,-0.07621819525957108
1789031945276821200,3.2938212890625,0.13934838771820068,-0.26177653670310974,-0.07858388870954514
1789031945286824200,3.30382421875,0.14142245054244995,-0.4139503538608551,-0.03939441218972206
1789031945296827400,3.313827392578125,0.15360692143440247,-0.4866562783718109,0.015562327578663826
1789031945306830300,3.323830322265625,0.14199553430080414,-0.43095120787620544,0.06626571714878082
1789031945316833300,3.333833251953125,0.1257828176021576,-0.38270074129104614,0.11119826883077621
1789031945326836200,3.343836181640625,0.11049892753362656,-0.33695802092552185,0.12933705747127533
1789031945336839400,3.35383935546875,0.11507529765367508,-0.29361897706985474,0.12594684958457947
1789031945346842400,3.36384228515625,0.13559281826019287,-0.23610003292560577,0.1176748126745224
1789031945356845300,3.37384521484375,0.1459982693195343,-0.1391720175743103,0.09785081446170807
1789031945366848300,3.38384814453125,0.10948445647954941,-0.009111477993428707,0.0656910091638565
1789031945376851200,3.393851318359375,0.045004040002822876,0.10537424683570862,0.03289629518985748
1789031945386854400,3.4038544921875,-0.015719762071967125,0.18151535093784332,0.014122338965535164
1789031945396857300,3.413857421875,-0.06504064053297043,0.17358671128749847,0.010992820374667645
1789031945406860300,3.4238603515625,-0.08311844617128372,0.11462991684675217,0.004747973755002022
1789031945416863500,3.433863525390625,-0.08450385928153992,0.06886280328035355,-0.022037547081708908
1789031945426866200,3.4438662109375,-0.09034284204244614,0.028557460755109787,-0.09281185269355774
1789031945436869400,3.453869384765625,-0.07096914947032928,0.012160185724496841,-0.15102694928646088
1789031945446872300,3.463872314453125,-0.014786832965910435,-0.027767255902290344,-0.1521414816379547
1789031945456875300,3.473875244140625,0.021820422261953354,-0.07750928401947021,-0.17001952230930328
1789031945466878500,3.48387841796875,0.0685674175620079,-0.08095834404230118,-0.21124392747879028
1789031945476881200,3.493881103515625,0.09095603972673416,-0.06324201822280884,-0.25901171565055847
1789031945486884400,3.50388427734375,0.09035442769527435,-0.058575622737407684,-0.27882668375968933
1789031945496888300,3.513888427734375,0.08492685109376907,-0.01585179567337036,-0.251735121011734
1789031945506891300,3.523891357421875,0.09119060635566711,0.029793720692396164,-0.22075137495994568
1789031945516894500,3.53389453125,0.11365573108196259,0.11681966483592987,-0.20754823088645935
1789031945526897400,3.5438974609375,0.08808671683073044,0.13996465504169464,-0.1539936661720276
1789031945536900400,3.553900390625,0.09210115671157837,0.1194797083735466,-0.11455143988132477
1789031945546903300,3.5639033203125,0.11572020500898361,0.1468261033296585,-0.12385039776563644
1789031945556905500,3.573905517578125,0.1154027134180069,0.12990370392799377,-0.10408412665128708
1789031945566908700,3.58390869140625,0.10504595190286636,0.04281539469957352,-0.07686023414134979
1789031945576911400,3.593911376953125,0.07172740995883942,-0.052881836891174316,-0.1138874888420105
1789031945586914600,3.60391455078125,0.05970723554491997,-0.09522583335638046,-0.19835203886032104
1789031945596917500,3.61391748046875,0.052297551184892654,-0.10876616835594177,-0.20057259500026703
1789031945606920400,3.62392041015625,0.04983998462557793,-0.1186254620552063,-0.142948716878891
1789031945616923600,3.633923583984375,0.0415986031293869,-0.1361084282398224,-0.08941547572612762
1789031945626926300,3.64392626953125,0.03778708726167679,-0.13811512291431427,-0.05738217383623123
1789031945636929500,3.653929443359375,0.025185061618685722,-0.1149410828948021,0.027012836188077927
1789031945646932500,3.663932373046875,0.011805607005953789,-0.15446504950523376,0.11395759135484695
1789031945656935400,3.673935302734375,-0.007915183901786804,-0.18469351530075073,0.13796523213386536
1789031945666938600,3.683938720703125,-0.016518259420990944,-0.1501443237066269,0.12507925927639008
1789031945676941300,3.69394140625,-0.03777742758393288,-0.10423826426267624,0.11592862010002136
1789031945686944500,3.703944580078125,-0.06334085017442703,-0.053295720368623734,0.13328389823436737
1789031945696947500,3.713947509765625,-0.08714809268712997,-0.02577357366681099,0.159006267786026
1789031945706950400,3.723950439453125,-0.10304130613803864,-0.007661414332687855,0.18227031826972961
1789031945716953600,3.73395361328125,-0.09724847227334976,-0.0026272886898368597,0.27465248107910156
1789031945726956500,3.74395654296875,-0.06258024275302887,-0.007907271385192871,0.40693914890289307
1789031945736959500,3.75395947265625,-0.007372060790657997,-0.03485126420855522,0.49515581130981445
1789031945746962400,3.76396240234375,0.015073594637215137,-0.05438688397407532,0.5446652770042419
1789031945756965400,3.77396533203125,0.022317057475447655,-0.0720118060708046,0.5574338436126709
1789031945766968600,3.783968505859375,0.011164272204041481,-0.04767210781574249,0.5854910612106323
1789031945776971500,3.793971435546875,-0.0026686210185289383,-0.034653160721063614,0.6112608313560486
1789031945786974500,3.803974365234375,-0.026906847953796387,-0.022510476410388947,0.6104274988174438
1789031945796977400,3.813977294921875,-0.03659701719880104,-0.023717494681477547,0.5979173183441162
1789031945806980600,3.823980712890625,-0.07973916828632355,0.0043916357681155205,0.6041706800460815
1789031945816983600,3.833983642578125,-0.10342041403055191,0.017260808497667313,0.6319989562034607
1789031945826986500,3.843986572265625,-0.10733233392238617,0.03842362016439438,0.6455312967300415
1789031945836989400,3.853989501953125,-0.12775009870529175,0.06175247207283974,0.6702015995979309
1789031945846992400,3.863992431640625,-0.16190753877162933,0.09874537587165833,0.6863478422164917
1789031945856995600,3.87399560546875,-0.29239320755004883,0.14167970418930054,0.7206094861030579
1789031945866998500,3.88399853515625,-0.4331689774990082,0.20546799898147583,0.7116756439208984
1789031945877001500,3.89400146484375,-0.5491719841957092,0.27577918767929077,0.6134843230247498
1789031945887004700,3.904004638671875,-0.44180747866630554,0.3048830032348633,0.44864025712013245
1789031945897007400,3.91400732421875,-0.14627420902252197,0.2677542269229889,0.36026304960250854
1789031945907010600,3.924010498046875,0.07666219025850296,0.1442703753709793,0.3343505263328552
1789031945917013500,3.934013427734375,0.13398675620555878,0.14563816785812378,0.3003564178943634
1789031945927016400,3.944016357421875,0.10214175283908844,0.1161378026008606,0.35199326276779175
1789031945937019600,3.95401953125,0.06306368857622147,0.11486539989709854,0.3911612629890442
1789031945947022300,3.964022216796875,0.023658758029341698,0.12259895354509354,0.3839763104915619
1789031945957025500,3.974025634765625,0.008263396099209785,0.1465357393026352,0.3651373088359833
1789031945967028700,3.98402880859375,0.020912613719701767,0.179109126329422,0.3421691358089447
1789031945977031400,3.994031494140625,0.03512747213244438,0.1937922239303589,0.3005940318107605
1789031945987034600,4.00403466796875,0.05973534658551216,0.19048458337783813,0.2548973858356476
1789031945997037300,4.014037353515625,0.09216242283582687,0.1536695510149002,0.22076129913330078
1789031946007040500,4.02404052734375,0.10909799486398697,0.11213250458240509,0.1902521252632141
1789031946017043700,4.034043701171875,0.12921005487442017,0.06829851865768433,0.1670314371585846
1789031946027046400,4.04404638671875,0.15406586229801178,0.031887516379356384,0.14138279855251312
1789031946037049600,4.054049560546875,0.16502264142036438,0.032913897186517715,0.1322668045759201
1789031946047052300,4.06405224609375,0.1622082144021988,0.017795933410525322,0.1234424039721489
1789031946057055500,4.074055419921875,0.17362257838249207,-0.009670646861195564,0.10402686893939972
1789031946067058700,4.08405859375,0.19695161283016205,-0.04670855775475502,0.0698997899889946
1789031946077061400,4.094061279296875,0.21449382603168488,-0.0970209613442421,0.019115187227725983
1789031946087064600,4.104064697265625,0.2278493046760559,-0.1262454390525818,-0.02188444510102272
1789031946097067500,4.114067626953125,0.23307490348815918,-0.1279677003622055,-0.04857061803340912
1789031946107070500,4.124070556640625,0.2342514842748642,-0.1639624536037445,-0.0737910196185112
1789031946117073400,4.134073486328125,0.24262328445911407,-0.20700639486312866,-0.12102025747299194
1789031946127076400,4.144076416015625,0.22703500092029572,-0.23403801023960114,-0.14459241926670074
1789031946137080300,4.154080322265625,0.20645460486412048,-0.24985355138778687,-0.12395264208316803
1789031946147083500,4.16408349609375,0.19328953325748444,-0.2522149682044983,-0.09686189889907837
1789031946157086700,4.174086669921875,0.17652098834514618,-0.2541867792606354,-0.08860506862401962
1789031946167089400,4.18408935546875,0.14600889384746552,-0.24512937664985657,-0.10617686808109283
1789031946177092600,4.194092529296875,0.1176920160651207,-0.2680497169494629,-0.11691100150346756
1789031946187095300,4.20409521484375,0.07972705364227295,-0.2807668447494507,-0.1337733417749405
1789031946197098500,4.214098388671875,0.041426707059144974,-0.2522425651550293,-0.1628764569759369
1789031946207101700,4.224101806640625,0.02803979441523552,-0.22696013748645782,-0.1907472312450409
1789031946217104400,4.2341044921875,0.01856219209730625,-0.19923824071884155,-0.21960459649562836
1789031946227107600,4.244107666015625,0.020928144454956055,-0.1905621886253357,-0.24767084419727325
1789031946237110500,4.254110595703125,0.036954574286937714,-0.17435240745544434,-0.27766183018684387
1789031946247113500,4.264113525390625,0.0596604198217392,-0.16805855929851532,-0.30415043234825134
1789031946257116700,4.27411669921875,0.07568950951099396,-0.16624395549297333,-0.29788804054260254
1789031946267119400,4.284119384765625,0.09210710227489471,-0.16277411580085754,-0.2751270532608032
1789031946277122600,4.29412255859375,0.0999043732881546,-0.1824030876159668,-0.25403299927711487
1789031946287125500,4.30412548828125,0.09610217809677124,-0.17285645008087158,-0.25798219442367554
1789031946297128400,4.31412841796875,0.08576694130897522,-0.1822279989719391,-0.2925065755844116
1789031946307131600,4.324131591796875,0.06890300661325455,-0.1913919448852539,-0.336296409368515
1789031946317134600,4.334134521484375,0.06206608936190605,-0.15793386101722717,-0.3591651916503906
1789031946327137500,4.344137451171875,0.07219648361206055,-0.1241370141506195,-0.34633222222328186
1789031946337140500,4.354140380859375,0.0979233831167221,-0.135822594165802,-0.3215733468532562
1789031946347143400,4.364143310546875,0.12072376906871796,-0.15928104519844055,-0.31104135513305664
1789031946357146600,4.374146728515625,0.12425240874290466,-0.1757993847131729,-0.3139398992061615
1789031946367149600,4.384149658203125,0.11026415973901749,-0.17786866426467896,-0.2996389865875244
1789031946377152500,4.394152587890625,0.09139915555715561,-0.17458289861679077,-0.24662746489048004
1789031946387155500,4.404155517578125,0.11323761194944382,-0.18464325368404388,-0.17919409275054932
1789031946397158400,4.414158447265625,0.09690158069133759,-0.1677248626947403,-0.131463885307312
1789031946407161600,4.42416162109375,0.06332604587078094,-0.12431985884904861,-0.11683034151792526
1789031946417164500,4.43416455078125,0.057533636689186096,-0.06528306752443314,-0.10109476745128632
1789031946427167500,4.44416748046875,0.04654383659362793,0.010822889395058155,-0.0887552797794342
1789031946437170400,4.45417041015625,0.016777537763118744,0.06546442955732346,-0.055902592837810516
1789031946447173600,4.464173583984375,0.010601400397717953,0.11658912897109985,-0.000963711179792881
1789031946457176300,4.47417626953125,0.03554452955722809,0.14939752221107483,0.05585484951734543
1789031946467179500,4.484179443359375,0.07042687386274338,0.16432693600654602,0.06712694466114044
1789031946477182500,4.494182373046875,0.0876966267824173,0.1502704918384552,0.021861759945750237
1789031946487185400,4.504185302734375,0.08796906471252441,0.12061646580696106,-0.03343372046947479
1789031946497188600,4.514188720703125,0.09134592115879059,0.14230474829673767,-0.06183605268597603
1789031946507191300,4.52419140625,0.0717804804444313,0.1797756850719452,-0.07002340257167816
1789031946517194500,4.534194580078125,0.05208592489361763,0.2139722853899002,-0.05342954397201538
1789031946527197700,4.54419775390625,0.06751574575901031,0.25080859661102295,-0.015986032783985138
1789031946537200400,4.554200439453125,0.08422014117240906,0.25285032391548157,0.03262252360582352
1789031946547203600,4.56420361328125,0.09304745495319366,0.24930992722511292,0.07678412646055222
1789031946557207000,4.57420703125,0.08970017731189728,0.25944459438323975,0.09378678351640701
1789031946567210000,4.5842099609375,0.10354435443878174,0.27308690547943115,0.10987600684165955
1789031946577213000,4.594212890625,0.1431083232164383,0.2515082359313965,0.1360252946615219
1789031946587216000,4.6042158203125,0.16932687163352966,0.22463881969451904,0.14997652173042297
1789031946597219000,4.614218994140625,0.17676807940006256,0.173577681183815,0.15920290350914001
1789031946607222000,4.624221923828125,0.1704992651939392,0.12495581060647964,0.16708879172801971
1789031946617225000,4.634224853515625,0.1571851521730423,0.09118613600730896,0.1772734522819519
1789031946627228000,4.644227783203125,0.13471713662147522,0.07173281162977219,0.17701806128025055
1789031946637231000,4.654231201171875,0.11146043241024017,0.07444533705711365,0.17496174573898315
1789031946647234000,4.664234130859375,0.08295661956071854,0.05939767509698868,0.1858506053686142
1789031946657237000,4.674237060546875,0.06235005334019661,0.07912993431091309,0.18115471303462982
1789031946667240000,4.684239990234375,0.03932169824838638,0.06510892510414124,0.1690511852502823
1789031946677243000,4.694242919921875,0.02551579475402832,0.06262947618961334,0.15748831629753113
1789031946687246000,4.70424609375,0.02521352656185627,0.0545467846095562,0.14083343744277954
1789031946697249000,4.7142490234375,0.026455746963620186,0.06311190873384476,0.12382694333791733
1789031946707252000,4.724251953125,0.0223305094987154,0.02315836399793625,0.11413410305976868
1789031946717255200,4.734255126953125,0.0014515325892716646,0.023138193413615227,0.08699440211057663
1789031946727257900,4.7442578125,-0.03719572722911835,-0.05675850063562393,0.04416224732995033
1789031946737261000,4.754260986328125,-0.07768852263689041,-0.06959903985261917,-0.014103477820754051
1789031946747264000,4.764263916015625,-0.12137102335691452,-0.11889015883207321,-0.07347039878368378
1789031946757267000,4.774266845703125,-0.1375943422317505,-0.15072035789489746,-0.12445227056741714
1789031946767270100,4.784270263671875,-0.1698329746723175,-0.18651165068149567,-0.16275784373283386
1789031946777272800,4.79427294921875,-0.21564212441444397,-0.19716551899909973,-0.1820908784866333
1789031946787276000,4.804276123046875,-0.22009466588497162,-0.20717713236808777,-0.19101780652999878
1789031946797279200,4.814279296875,-0.18226292729377747,-0.20409028232097626,-0.2050638198852539
1789031946807283000,4.824282958984375,-0.13849733769893646,-0.20308813452720642,-0.20939837396144867
1789031946817285000,4.83428515625,-0.0750221237540245,-0.21583598852157593,-0.21104665100574493
1789031946827289000,4.8442890625,-0.04826188459992409,-0.23136834800243378,-0.19435395300388336
1789031946837292000,4.8542919921875,-0.024243444204330444,-0.25244757533073425,-0.18587282299995422
1789031946847295000,4.864294921875,-0.019811410456895828,-0.25321483612060547,-0.17105552554130554
1789031946857298000,4.8742978515625,-0.053551092743873596,-0.24503563344478607,-0.16031786799430847
1789031946867300900,4.88430078125,-0.1188853532075882,-0.21890470385551453,-0.16571982204914093
1789031946877304000,4.894303955078125,-0.1820858120918274,-0.18065106868743896,-0.18090787529945374
1789031946887307000,4.90430712890625,-0.21690210700035095,-0.16104434430599213,-0.20078544318675995
1789031946897310000,4.91431005859375,-0.21570873260498047,-0.1289036124944687,-0.1784394085407257
1789031946907313200,4.924313232421875,-0.163871631026268,-0.09935504198074341,-0.13752900063991547
1789031946917315800,4.93431591796875,-0.12673145532608032,-0.08391350507736206,-0.11756833642721176
1789031946927319000,4.944319091796875,-0.0898623988032341,-0.09848951548337936,-0.13345782458782196
1789031946937322000,4.954322021484375,-0.04845491796731949,-0.08111884444952011,-0.17564821243286133
1789031946947325000,4.964324951171875,-0.03247808292508125,-0.05385206639766693,-0.2273327112197876
1789031946957328100,4.974328125,-0.07009456306695938,-0.003787621157243848,-0.2557765245437622
1789031946967330800,4.984330810546875,-0.11986611783504486,0.03098420798778534,-0.27926719188690186
1789031946977334000,4.994333984375,-0.13412265479564667,0.06315644085407257,-0.2781944274902344
1789031946987337200,5.004337158203125,-0.14488261938095093,0.09023439884185791,-0.22330614924430847
1789031946997340000,5.01433984375,-0.1421429067850113,0.09998656064271927,-0.14010879397392273
1789031947007343000,5.024343017578125,-0.13138186931610107,0.08018409460783005,-0.10833276063203812
1789031947017345800,5.034345703125,-0.08420160412788391,0.014341123402118683,-0.16136133670806885
1789031947027349000,5.044348876953125,-0.03020494617521763,-0.08304081857204437,-0.23623424768447876
1789031947037352200,5.054352294921875,0.018970493227243423,-0.19310404360294342,-0.2915129065513611
1789031947047355000,5.06435498046875,0.03802993893623352,-0.18644613027572632,-0.255097895860672
1789031947057358000,5.074358154296875,0.006878150627017021,-0.07730932533740997,-0.14000780880451202
1789031947067361000,5.084361083984375,-0.021396895870566368,-0.012567353434860706,-0.13143429160118103
1789031947077364000,5.094364013671875,-0.026866527274250984,0.023659128695726395,-0.11439350247383118
1789031947087367200,5.1043671875,-0.04475551098585129,0.026428816840052605,-0.11332477629184723
1789031947097369900,5.114369873046875,-0.06057938560843468,0.02276066690683365,-0.13749460875988007
1789031947107373000,5.124373046875,-0.07298891991376877,0.0163405854254961,-0.12167756259441376
1789031947117376000,5.1343759765625,-0.06838358938694,0.009510327130556107,-0.08096658438444138
1789031947127379000,5.14437890625,-0.04147367551922798,0.009237885475158691,-0.05246596038341522
1789031947137382100,5.154382080078125,-0.016752688214182854,0.004414013121277094,-0.061844658106565475
1789031947147385000,5.164385009765625,0.0030441866256296635,-0.01475808396935463,-0.08618088811635971
1789031947157388000,5.174387939453125,0.0005772927543148398,-0.044029343873262405,-0.09115035086870193
1789031947167391000,5.184390869140625,-0.01335157174617052,-0.038796767592430115,-0.0925367921590805
1789031947177394000,5.194393798828125,-0.023141976445913315,0.029155224561691284,-0.08500265330076218
1789031947187397000,5.204397216796875,-0.028247788548469543,0.13342304527759552,-0.057492468506097794
1789031947197400000,5.214400146484375,-0.044453609734773636,0.17143681645393372,-0.023742519319057465
1789031947207403000,5.224403076171875,-0.007517164573073387,0.18782033026218414,-0.0092464005574584
1789031947217406000,5.234406005859375,0.013816035352647305,0.20112653076648712,0.021146422252058983
1789031947227409000,5.244408935546875,0.05448943004012108,0.1976391226053238,0.034089118242263794
1789031947237412000,5.254412109375,0.09032905101776123,0.22652165591716766,0.04610377922654152
1789031947247415000,5.2644150390625,0.1099885031580925,0.2734833061695099,0.08664295077323914
1789031947257418000,5.27441796875,0.13258470594882965,0.27596721053123474,0.1563844233751297
1789031947267421000,5.2844208984375,0.1721174716949463,0.2437964826822281,0.20041526854038239
1789031947277424000,5.294424072265625,0.22011539340019226,0.22087474167346954,0.23315376043319702
1789031947287427000,5.304427001953125,0.2568020522594452,0.21323280036449432,0.2810794711112976
1789031947297430000,5.314429931640625,0.2691502869129181,0.18005745112895966,0.2758607566356659
1789031947307433000,5.324432861328125,0.2788583040237427,0.10802294313907623,0.2612389326095581
1789031947317436000,5.334435791015625,0.2903563678264618,0.042320989072322845,0.31328126788139343
1789031947327439000,5.344439208984375,0.29339638352394104,-0.010557137429714203,0.39454203844070435
1789031947337442000,5.354442138671875,0.29697585105895996,-0.04639146476984024,0.43266046047210693
1789031947347445000,5.364445068359375,0.3057328462600708,-0.0706789568066597,0.4485480785369873
1789031947357448200,5.3744482421875,0.30969712138175964,-0.11172593384981155,0.4584396481513977
1789031947367451000,5.384450927734375,0.3212733268737793,-0.17028485238552094,0.4806174039840698
1789031947377454000,5.3944541015625,0.33621296286582947,-0.22386494278907776,0.48354098200798035
1789031947387456800,5.404456787109375,0.3495303690433502,-0.24326607584953308,0.48964813351631165
1789031947397460000,5.4144599609375,0.3496372401714325,-0.22698235511779785,0.48068201541900635
1789031947407463200,5.424463134765625,0.3387952446937561,-0.20033423602581024,0.4367976486682892
1789031947417465900,5.4344658203125,0.33981847763061523,-0.17690697312355042,0.4042340815067291
1789031947427469000,5.444468994140625,0.3583274483680725,-0.16314588487148285,0.3723704218864441
1789031947437472000,5.454471923828125,0.33034205436706543,-0.20876705646514893,0.3287186324596405
1789031947447475000,5.464474853515625,0.3179442286491394,-0.18880267441272736,0.34551677107810974
1789031947457478100,5.47447802734375,0.33203479647636414,-0.11940879374742508,0.4275516867637634
1789031947467480800,5.484480712890625,0.3201136887073517,-0.08583272248506546,0.4398975670337677
1789031947477484000,5.494484130859375,0.2571229636669159,-0.20015184581279755,0.36680981516838074
1789031947487487000,5.504487060546875,0.22214819490909576,-0.2787396013736725,0.2976003885269165
1789031947497490000,5.514489990234375,0.2208588868379593,-0.23319393396377563,0.29156944155693054
1789031947507493000,5.5244931640625,0.2160305678844452,-0.15998709201812744,0.36009764671325684
1789031947517497000,5.5344970703125,0.20313802361488342,-0.14286279678344727,0.4387021064758301
1789031947527500000,5.5445,0.18938946723937988,-0.1751837283372879,0.48668161034584045
1789031947537503000,5.5545029296875,0.16859903931617737,-0.20455655455589294,0.5118737816810608
1789031947547506200,5.564506103515625,0.1324452906847,-0.19966353476047516,0.5370499491691589
1789031947557508400,5.57450830078125,0.07961723953485489,-0.15338392555713654,0.5506182312965393
1789031947567511600,5.584511474609375,0.040775563567876816,-0.11923899501562119,0.5480639934539795
1789031947577514500,5.594514404296875,-0.012842969968914986,-0.08526486158370972,0.5095248818397522
1789031947587517400,5.604517333984375,-0.07656043022871017,-0.09775003045797348,0.425529807806015
1789031947597520400,5.614520263671875,-0.15262162685394287,-0.13660001754760742,0.3316595256328583
1789031947607523300,5.6245234375,-0.2282695174217224,-0.18508394062519073,0.25001072883605957
1789031947617526500,5.634526611328125,-0.27649277448654175,-0.20092155039310455,0.16683705151081085
1789031947627529500,5.644529541015625,-0.31950148940086365,-0.19312860071659088,0.07851438969373703
1789031947637532400,5.654532470703125,-0.37334126234054565,-0.2219957709312439,-0.07641343027353287
1789031947647535600,5.66453564453125,-0.4089762270450592,-0.21714429557323456,-0.21445252001285553
1789031947657538300,5.674538330078125,-0.405278742313385,-0.21700015664100647,-0.2537487745285034
1789031947667541500,5.68454150390625,-0.4014451205730438,-0.2153244912624359,-0.2442822903394699
1789031947677544400,5.69454443359375,-0.3976778984069824,-0.22410160303115845,-0.275801420211792
1789031947687547400,5.70454736328125,-0.40873268246650696,-0.2589291036128998,-0.38477611541748047
1789031947697550600,5.714550537109375,-0.39656272530555725,-0.28476762771606445,-0.4907133877277374
1789031947707553300,5.72455322265625,-0.3860704004764557,-0.2877250611782074,-0.5402598977088928
1789031947717556500,5.734556396484375,-0.36674827337265015,-0.3005136549472809,-0.5305812358856201
1789031947727559700,5.7445595703125,-0.33950069546699524,-0.29073214530944824,-0.4803233742713928
1789031947737562400,5.754562255859375,-0.31782516837120056,-0.2663157880306244,-0.40909168124198914
1789031947747565600,5.764565673828125,-0.2981036603450775,-0.2360289841890335,-0.33935922384262085
1789031947757568300,5.774568359375,-0.28689029812812805,-0.20937642455101013,-0.2908783257007599
1789031947767571500,5.784571533203125,-0.27365413308143616,-0.16866761445999146,-0.26836663484573364
1789031947777574700,5.79457470703125,-0.24043920636177063,-0.10479745268821716,-0.2418191283941269
1789031947787577300,5.804577392578125,-0.1904231756925583,-0.03081057406961918,-0.18528075516223907
1789031947797580500,5.81458056640625,-0.1271200031042099,0.08143109828233719,-0.08855000883340836
1789031947807583500,5.82458349609375,-0.07112438231706619,0.16920755803585052,-0.02220587059855461
1789031947817586400,5.83458642578125,-0.049896128475666046,0.1976788341999054,-0.016835032030940056
1789031947827589600,5.844589599609375,-0.021356098353862762,0.19337037205696106,-0.014559360221028328
1789031947837592300,5.85459228515625,-0.004096425138413906,0.18561212718486786,-0.0002872096374630928
1789031947847595500,5.864595458984375,0.01828611269593239,0.18948303163051605,0.01727820187807083
1789031947857598500,5.874598388671875,0.042890314012765884,0.18838928639888763,-0.002452388871461153
1789031947867601400,5.884601318359375,0.04803420975804329,0.15707716345787048,-0.07722729444503784
1789031947877604600,5.8946044921875,0.04211879521608353,0.12307871878147125,-0.15930484235286713
1789031947887607600,5.904607666015625,0.024701720103621483,0.12799730896949768,-0.21644669771194458
1789031947897610500,5.914610595703125,0.0012605312513187528,0.16995319724082947,-0.25327447056770325
1789031947907613400,5.924613525390625,-0.02657429687678814,0.1965043842792511,-0.25167468190193176
1789031947917616400,5.934616455078125,-0.036594606935977936,0.21036727726459503,-0.2215442806482315
1789031947927619600,5.94461962890625,-0.03734002634882927,0.2113955318927765,-0.1948796510696411
1789031947937622500,5.95462255859375,-0.03420001268386841,0.20887738466262817,-0.1959824115037918
1789031947947625500,5.96462548828125,-0.038446154445409775,0.2029646337032318,-0.24926212430000305
1789031947957628400,5.97462841796875,-0.05902661383152008,0.18059858679771423,-0.3535550832748413
1789031947967631600,5.984631591796875,-0.06750611215829849,0.17273907363414764,-0.45857471227645874
1789031947977634300,5.99463427734375,-0.04521459341049194,0.19084739685058594,-0.4968375563621521
1789031947987637500,6.004637451171875,-0.010128781199455261,0.17745809257030487,-0.4703412652015686
1789031947997640400,6.014640380859375,0.020951714366674423,0.13912220299243927,-0.4327569007873535
1789031948007643400,6.024643310546875,0.0439920537173748,0.1361972540616989,-0.3875159025192261
1789031948017646600,6.034646484375,0.06074448302388191,0.1775643676519394,-0.32194575667381287
1789031948027649300,6.044649169921875,0.06622527539730072,0.19325996935367584,-0.25849220156669617
1789031948037652500,6.054652587890625,0.05679675564169884,0.1824251264333725,-0.22273679077625275
1789031948047655400,6.064655517578125,0.0427219495177269,0.17643620073795319,-0.19614379107952118
1789031948057658400,6.074658447265625,0.015064477920532227,0.15420420467853546,-0.17758582532405853
1789031948067661600,6.08466162109375,-0.03683307021856308,0.11363814026117325,-0.2057119905948639
1789031948077664300,6.094664306640625,-0.10366883128881454,0.0872587338089943,-0.28694719076156616
1789031948087667500,6.10466748046875,-0.176625058054924,0.04306730255484581,-0.3636869788169861
1789031948097670700,6.114670654296875,-0.24273845553398132,0.023472236469388008,-0.39931240677833557
1789031948107673300,6.12467333984375,-0.2667921185493469,0.037170737981796265,-0.39160656929016113
1789031948117676500,6.134676513671875,-0.2792348861694336,0.07779627293348312,-0.393514484167099
1789031948127679200,6.14467919921875,-0.2905655801296234,0.09947387129068375,-0.3975350558757782
1789031948137682400,6.154682373046875,-0.28628453612327576,0.103907011449337,-0.39488717913627625
1789031948147685600,6.164685546875,-0.2683185935020447,0.10946023464202881,-0.3873389959335327
1789031948157688300,6.174688232421875,-0.27054527401924133,0.13522742688655853,-0.38010266423225403
1789031948167691500,6.18469140625,-0.2567325234413147,0.1447993665933609,-0.3667412996292114
1789031948177694500,6.194694580078125,-0.24013590812683105,0.12866292893886566,-0.36158400774002075
1789031948187697400,6.204697509765625,-0.23041856288909912,0.08512557297945023,-0.36840808391571045
1789031948197700600,6.21470068359375,-0.22381119430065155,0.08663719147443771,-0.39278414845466614
1789031948207703300,6.224703369140625,-0.22845788300037384,0.11416309326887131,-0.42975229024887085
1789031948217706500,6.23470654296875,-0.25077152252197266,0.16274814307689667,-0.4735203981399536
1789031948227709400,6.24470947265625,-0.2678501009941101,0.1928647756576538,-0.4883462190628052
1789031948237713700,6.254713623046875,-0.26721495389938354,0.21394704282283783,-0.47798848152160645
1789031948247716400,6.26471630859375,-0.289411336183548,0.2176797240972519,-0.44837814569473267
1789031948257719600,6.274719482421875,-0.29830023646354675,0.24206598103046417,-0.4232499897480011
1789031948267722500,6.284722412109375,-0.3194100260734558,0.24919207394123077,-0.4029487371444702
1789031948277725400,6.294725341796875,-0.3013615012168884,0.2719079852104187,-0.38312000036239624
1789031948287728600,6.304728759765625,-0.2690717279911041,0.2907988727092743,-0.37415340542793274
1789031948297731300,6.3147314453125,-0.2558270990848541,0.2683456540107727,-0.35283252596855164
1789031948307734500,6.324734619140625,-0.24196268618106842,0.2535475194454193,-0.3244991600513458
1789031948317737500,6.334737548828125,-0.21715885400772095,0.22479617595672607,-0.2994832694530487
1789031948327740400,6.344740478515625,-0.20142462849617004,0.20601290464401245,-0.3103281855583191
1789031948337743600,6.35474365234375,-0.17651017010211945,0.17724137008190155,-0.32323816418647766
1789031948347746300,6.364746337890625,-0.15765684843063354,0.17571112513542175,-0.3348418176174164
1789031948357749500,6.37474951171875,-0.13539211452007294,0.1659887433052063,-0.3322869837284088
1789031948367752400,6.38475244140625,-0.11397923529148102,0.12482398748397827,-0.3162699341773987
1789031948377755400,6.39475537109375,-0.10107526183128357,0.09370999783277512,-0.2869098484516144
1789031948387758600,6.404758544921875,-0.09238696098327637,0.05763854831457138,-0.22938452661037445
1789031948397761300,6.41476123046875,-0.08812938630580902,-0.0009078567964024842,-0.16393162310123444
1789031948407764500,6.424764404296875,-0.06996423006057739,-0.035681549459695816,-0.10607577860355377
1789031948417767400,6.434767333984375,-0.032948967069387436,-0.08052457869052887,-0.05671567842364311
1789031948427770400,6.444770263671875,0.009631781838834286,-0.118583545088768,-0.009835787117481232
1789031948437773600,6.454773681640625,0.04491857439279556,-0.11403529345989227,0.03260253369808197
1789031948447776500,6.464776611328125,0.0683320164680481,-0.07004360109567642,0.0654856488108635
1789031948457779500,6.474779541015625,0.07825492322444916,-0.02519373409450054,0.07678226381540298
1789031948467782400,6.484782470703125,0.07704797387123108,0.03675352409482002,0.06749209016561508
1789031948477785300,6.494785400390625,0.03751600906252861,0.08707322925329208,0.05957558751106262
1789031948487788500,6.50478857421875,-0.0024085058830678463,0.08976248651742935,0.06597596406936646
1789031948497791500,6.51479150390625,-0.0005216561257839203,0.07718277722597122,0.07720891386270523
1789031948507794400,6.52479443359375,0.02891513891518116,0.08983230590820312,0.08580847829580307
1789031948517797400,6.53479736328125,0.03467143326997757,0.04827096313238144,0.09422547370195389
1789031948527800600,6.544800537109375,0.050231218338012695,-0.058257877826690674,0.09390349686145782
1789031948537803500,6.554803466796875,0.0956873819231987,-0.11557229608297348,0.08492012321949005
1789031948547806500,6.564806396484375,0.13469204306602478,-0.11825809627771378,0.10865288227796555
1789031948557809200,6.57480908203125,0.17326994240283966,-0.11271250247955322,0.15562297403812408
1789031948567812000,6.58481201171875,0.22135144472122192,-0.10465910285711288,0.1901703029870987
1789031948577815300,6.594815185546875,0.25919023156166077,-0.07127203792333603,0.20541898906230927
1789031948587818200,6.604818359375,0.28252193331718445,-0.03754975646734238,0.21784770488739014
1789031948597821200,6.6148212890625,0.28095757961273193,0.005454168654978275,0.23235900700092316
1789031948607824400,6.624824462890625,0.27232468128204346,0.04139623045921326,0.23824244737625122
1789031948617827000,6.6348271484375,0.27067941427230835,0.04245586693286896,0.23629555106163025
1789031948627830300,6.644830322265625,0.2796694338321686,0.021679216995835304,0.24379926919937134
1789031948637833200,6.654833251953125,0.2847621440887451,-0.023063458502292633,0.24432219564914703
1789031948647836200,6.664836181640625,0.29406189918518066,-0.0718749389052391,0.2563983201980591
1789031948657839400,6.67483935546875,0.31071338057518005,-0.12011261284351349,0.2689261734485626
1789031948667842000,6.684842041015625,0.32546567916870117,-0.18294483423233032,0.28341299295425415
1789031948677845200,6.69484521484375,0.3494557738304138,-0.2705443501472473,0.30792734026908875
1789031948687848400,6.704848388671875,0.37151259183883667,-0.3174423277378082,0.3108302056789398
1789031948697851100,6.71485107421875,0.3711963891983032,-0.3470865488052368,0.28203722834587097
1789031948707854300,6.724854248046875,0.3624849319458008,-0.38629812002182007,0.27276304364204407
1789031948717857000,6.73485693359375,0.3604976534843445,-0.40806448459625244,0.2720984220504761
1789031948727860200,6.744860107421875,0.3421039879322052,-0.4111822545528412,0.25431516766548157
1789031948737863400,6.754863525390625,0.30170559883117676,-0.44680073857307434,0.1951637864112854
1789031948747866000,6.7648662109375,0.25837621092796326,-0.4813864231109619,0.1456630825996399
1789031948757869300,6.774869384765625,0.19672533869743347,-0.5035184025764465,0.1211625337600708
1789031948767872000,6.7848720703125,0.13222065567970276,-0.5025721788406372,0.12141846120357513
1789031948777875200,6.794875244140625,0.07675822824239731,-0.4993976056575775,0.1269197314977646
1789031948787878400,6.80487841796875,0.040828730911016464,-0.5125378966331482,0.10987656563520432
1789031948797881000,6.814881103515625,0.017692066729068756,-0.5125706791877747,0.06880151480436325
1789031948807884300,6.82488427734375,-0.00905725546181202,-0.5001952648162842,0.0060369400307536125
1789031948817887200,6.83488720703125,-0.055751729756593704,-0.4560866951942444,-0.06606418639421463
1789031948827890200,6.84489013671875,-0.09824405610561371,-0.4050655961036682,-0.1294301152229309
1789031948837893000,6.85489306640625,-0.12214773148298264,-0.3338051736354828,-0.16975131630897522
1789031948847896000,6.86489599609375,-0.13300436735153198,-0.24642448127269745,-0.1712924838066101
1789031948857899300,6.874899169921875,-0.14461053907871246,-0.2057238221168518,-0.1616937518119812
1789031948867902200,6.884902099609375,-0.17301689088344574,-0.2001303881406784,-0.1821361780166626
1789031948877906400,6.894906494140625,-0.20995496213436127,-0.2268596887588501,-0.19787463545799255
1789031948887909000,6.9049091796875,-0.2325228601694107,-0.2684670388698578,-0.20705002546310425
1789031948897912300,6.914912353515625,-0.23965995013713837,-0.2893940806388855,-0.2036975771188736
1789031948907915000,6.9249150390625,-0.23723328113555908,-0.3043226897716522,-0.15440353751182556
1789031948917918200,6.934918212890625,-0.22009487450122833,-0.315411239862442,-0.08245072513818741
1789031948927921400,6.94492138671875,-0.20114754140377045,-0.3226188123226166,-0.036396950483322144
1789031948937924000,6.954924072265625,-0.20370107889175415,-0.3036269545555115,-0.015344226732850075
1789031948947927300,6.96492724609375,-0.22452673316001892,-0.3057950437068939,0.0015239682979881763
1789031948957930200,6.97493017578125,-0.23030318319797516,-0.29662275314331055,0.06039823591709137
1789031948967933200,6.98493310546875,-0.22774948179721832,-0.2714569568634033,0.1954633742570877
1789031948977936400,6.994936279296875,-0.21876494586467743,-0.2403343766927719,0.3368476331233978
1789031948987939000,7.00493896484375,-0.196025550365448,-0.20183280110359192,0.4159970283508301
1789031948997942300,7.0149423828125,-0.17146356403827667,-0.15457294881343842,0.41792547702789307
1789031949007945200,7.0249453125,-0.17078286409378052,-0.13580991327762604,0.3461266756057739
1789031949017948200,7.0349482421875,-0.16601839661598206,-0.12946674227714539,0.2621273100376129
1789031949027951400,7.044951416015625,-0.1307235211133957,-0.1440078765153885,0.22812968492507935
1789031949037954000,7.0549541015625,-0.09440954029560089,-0.11692304909229279,0.22222761809825897
1789031949047957200,7.064957275390625,-0.0727417916059494,-0.08306601643562317,0.21356727182865143
1789031949057960200,7.074960205078125,-0.0657568946480751,-0.05226218327879906,0.21171507239341736
1789031949067963100,7.084963134765625,-0.06697236001491547,-0.02550407499074936,0.20089519023895264
1789031949077966300,7.09496630859375,-0.08487067371606827,-0.021550536155700684,0.15858635306358337
1789031949087969300,7.10496923828125,-0.08855835348367691,-0.032990679144859314,0.1008431538939476
1789031949097972200,7.11497216796875,-0.08002284914255142,-0.026303699240088463,0.03937895596027374
1789031949107975200,7.12497509765625,-0.09155832976102829,-0.025297822430729866,-0.002654781099408865
1789031949117978000,7.13497802734375,-0.12485244870185852,-0.027826467528939247,-0.030048808082938194
1789031949127981300,7.144981201171875,-0.16172364354133606,-0.0025458780582994223,-0.019999636337161064
1789031949137984300,7.154984375,-0.19043512642383575,0.022328052669763565,-0.005473719909787178
1789031949147987200,7.1649873046875,-0.1921565979719162,0.037492357194423676,-0.007900658994913101
1789031949157990100,7.174990234375,-0.1884389966726303,0.0859154462814331,-0.04875599592924118
1789031949167993300,7.184993408203125,-0.17926734685897827,0.06778251379728317,-0.10999272018671036
1789031949177996000,7.19499609375,-0.18344376981258392,0.054957065731287,-0.18313294649124146
1789031949187999200,7.204999267578125,-0.17608758807182312,0.07938198745250702,-0.23054175078868866
1789031949198002200,7.215002197265625,-0.15518233180046082,0.10966482013463974,-0.24699713289737701
1789031949208005000,7.225005126953125,-0.1283874660730362,0.12528613209724426,-0.2642485499382019
1789031949218008300,7.23500830078125,-0.10883516818284988,0.12933236360549927,-0.3054113984107971
1789031949228011000,7.245010986328125,-0.09355022758245468,0.15154045820236206,-0.3512934148311615
1789031949238014200,7.25501416015625,-0.06976685672998428,0.19025848805904388,-0.36770352721214294
1789031949248017400,7.265017333984375,-0.0344243086874485,0.22118151187896729,-0.3629963994026184
1789031949258020000,7.27502001953125,0.007633734494447708,0.21074730157852173,-0.32038426399230957
1789031949268023300,7.285023193359375,0.06005486473441124,0.16446609795093536,-0.25533655285835266
1789031949278026000,7.29502587890625,0.11166874319314957,0.10878065228462219,-0.20744463801383972
1789031949288029200,7.305029296875,0.14444932341575623,0.05183799937367439,-0.21092724800109863
1789031949298032400,7.315032470703125,0.1441444456577301,0.03048432618379593,-0.23881669342517853
1789031949308035000,7.32503515625,0.11672692745923996,0.030841989442706108,-0.2409064769744873
1789031949318038300,7.335038330078125,0.09737300127744675,0.033592697232961655,-0.21409673988819122
1789031949328041200,7.345041259765625,0.07070383429527283,0.045821934938430786,-0.17853501439094543
1789031949338044200,7.355044189453125,0.033393628895282745,0.04307110235095024,-0.13795609772205353
1789031949348047400,7.36504736328125,0.003595516085624695,0.03140352666378021,-0.0852702409029007
1789031949358050000,7.375050048828125,-0.031069224700331688,0.03177553415298462,-0.055150438100099564
1789031949368053200,7.38505322265625,-0.07676108181476593,0.04478640854358673,-0.0483202300965786
1789031949378056200,7.39505615234375,-0.08924461156129837,0.028313051909208298,-0.024561656638979912
1789031949388059100,7.40505908203125,-0.08831623196601868,0.010096495971083641,0.006025280803442001
1789031949398062300,7.415062255859375,-0.07102274149656296,0.047558534890413284,0.02757399156689644
1789031949408065300,7.425065185546875,-0.04064113274216652,0.09683846682310104,0.04355162754654884
1789031949418068200,7.435068115234375,-0.015084953978657722,0.12706393003463745,0.03680666536092758
1789031949428071200,7.4450712890625,-0.007161516696214676,0.15411125123500824,0.007510825991630554
1789031949438074000,7.45507421875,-0.021329984068870544,0.19087590277194977,-0.027075160294771194
1789031949448078000,7.465078125,-0.04009221866726875,0.22743311524391174,-0.06640844792127609
1789031949458081300,7.475081298828125,-0.04695465788245201,0.2502029538154602,-0.10598781704902649
1789031949468084200,7.485084228515625,-0.04149091988801956,0.25715166330337524,-0.14376075565814972
1789031949478087200,7.495087158203125,-0.03165533393621445,0.23468071222305298,-0.1874706894159317
1789031949488090400,7.50509033203125,-0.02589917741715908,0.22856450080871582,-0.2238558679819107
1789031949498093000,7.515093017578125,-0.02733778767287731,0.2316681146621704,-0.2513660788536072
1789031949508096300,7.52509619140625,-0.04664942994713783,0.22792132198810577,-0.25452885031700134
1789031949518099200,7.53509912109375,-0.03015914000570774,0.2395460158586502,-0.23260462284088135
1789031949528102100,7.54510205078125,-0.017078757286071777,0.23180927336215973,-0.20679061114788055
1789031949538105300,7.555105224609375,-0.022740963846445084,0.2273610532283783,-0.19438877701759338
1789031949548108000,7.56510791015625,-0.04197511076927185,0.2276494801044464,-0.19069842994213104
1789031949558111200,7.575111328125,-0.060012418776750565,0.24861106276512146,-0.1882464587688446
1789031949568114200,7.5851142578125,-0.04436288774013519,0.2842034101486206,-0.18884806334972382
1789031949578117000,7.5951171875,-0.01427292637526989,0.30151131749153137,-0.18414464592933655
1789031949588120300,7.605120361328125,0.02363797090947628,0.2839568257331848,-0.14177347719669342
1789031949598123300,7.615123291015625,0.05386726185679436,0.2149651050567627,-0.10650551319122314
1789031949608126200,7.625126220703125,0.062267135828733444,0.14040164649486542,-0.1267910897731781
1789031949618129200,7.635129150390625,0.07005123049020767,0.10811116546392441,-0.16704393923282623
1789031949628132000,7.645132080078125,0.08596095442771912,0.08140338212251663,-0.1820702850818634
1789031949638135300,7.65513525390625,0.1198878362774849,0.04109702259302139,-0.16416987776756287
1789031949648138200,7.66513818359375,0.16385182738304138,-0.003398806555196643,-0.1284361183643341
1789031949658141200,7.67514111328125,0.2077619582414627,-0.048791900277137756,-0.09146688133478165
1789031949668144000,7.68514404296875,0.2457388937473297,-0.06595597416162491,-0.08920691907405853
1789031949678147300,7.695147216796875,0.24590250849723816,-0.04556531831622124,-0.09832882881164551
1789031949688150300,7.705150390625,0.23062607645988464,-0.000794118968769908,-0.09796211123466492
1789031949698153200,7.7151533203125,0.21176022291183472,0.04836395010352135,-0.08574190735816956
1789031949708156200,7.72515625,0.1982734352350235,0.1100480854511261,-0.05533686652779579
1789031949718159000,7.7351591796875,0.182681143283844,0.14985229074954987,-0.039826612919569016
1789031949728162300,7.745162353515625,0.15599094331264496,0.18957920372486115,-0.05159858241677284
1789031949738165200,7.755165283203125,0.1494288593530655,0.21603040397167206,-0.07336003333330154
1789031949748168200,7.765168212890625,0.184861958026886,0.18972370028495789,-0.07855745404958725
1789031949758171400,7.77517138671875,0.2351638227701187,0.1548103392124176,-0.06453277170658112
1789031949768174000,7.785174072265625,0.2674168348312378,0.1265600621700287,-0.03270826116204262
1789031949778177300,7.79517724609375,0.24588608741760254,0.1374126523733139,0.030388353392481804
1789031949788180200,7.80518017578125,0.1974349319934845,0.16384904086589813,0.07501600682735443
1789031949798183200,7.81518310546875,0.1696530133485794,0.14845262467861176,0.06195298582315445
1789031949808186400,7.825186279296875,0.18896839022636414,0.11016248911619186,0.047910403460264206
1789031949818189000,7.83518896484375,0.2040102630853653,0.07774395495653152,0.033492013812065125
1789031949828192300,7.845192138671875,0.2144423872232437,0.0350971594452858,0.04019438847899437
1789031949838195200,7.8551953125,0.2120978683233261,-0.035684771835803986,0.06606920808553696
1789031949848198100,7.8651982421875,0.20599016547203064,-0.06761287897825241,0.09609821438789368
1789031949858201300,7.875201416015625,0.1876387745141983,-0.09565084427595139,0.11206935346126556
1789031949868204000,7.8852041015625,0.1827353537082672,-0.12898562848567963,0.13011173903942108
1789031949878207200,7.895207275390625,0.16384705901145935,-0.15661559998989105,0.11645245552062988
1789031949888210200,7.905210205078125,0.12836496531963348,-0.17618156969547272,0.09189784526824951
1789031949898213000,7.915213134765625,0.10493437945842743,-0.1644980013370514,0.07134786993265152
1789031949908216300,7.92521630859375,0.0908031091094017,-0.12616606056690216,0.08033604174852371
1789031949918219300,7.93521923828125,0.0903058648109436,-0.08978530019521713,0.12127950042486191
1789031949928222200,7.94522216796875,0.08804351091384888,-0.04368704557418823,0.1350616216659546
1789031949938225200,7.95522509765625,0.07820282131433487,-0.03947994112968445,0.13646991550922394
1789031949948228000,7.96522802734375,0.07531329244375229,-0.04844867065548897,0.10458789020776749
1789031949958231300,7.975231201171875,0.08384691923856735,-0.07750755548477173,0.075531966984272
1789031949968234200,7.985234130859375,0.10218464583158493,-0.08034515380859375,0.08927308022975922
1789031949978238200,7.99523828125,0.10872398316860199,-0.10817751288414001,0.09416987746953964
1789031949988241200,8.0052412109375,0.09444703906774521,-0.11444206535816193,0.05862812325358391
1789031949998244400,8.015244384765625,0.05672939121723175,-0.14488524198532104,0.0016105503309518099
1789031950008247000,8.0252470703125,0.01587490178644657,-0.16925157606601715,-0.061381995677948
1789031950018250200,8.035250244140625,-0.007688984274864197,-0.18948283791542053,-0.08570493012666702
1789031950028253400,8.04525341796875,-0.011027256026864052,-0.20086412131786346,-0.05490067973732948
1789031950038256000,8.055256103515624,-0.026751507073640823,-0.1918076127767563,-0.02368914522230625
1789031950048259300,8.06525927734375,-0.056357868015766144,-0.20689627528190613,-0.01556011289358139
1789031950058262000,8.075261962890625,-0.0997777208685875,-0.22345270216464996,-0.04144767299294472
1789031950068265200,8.08526513671875,-0.15709933638572693,-0.23359987139701843,-0.060259174555540085
1789031950078268400,8.095268310546874,-0.21744108200073242,-0.21243813633918762,-0.05677543580532074
1789031950088271000,8.10527099609375,-0.262984037399292,-0.20575547218322754,-0.03552927076816559
1789031950098274300,8.1152744140625,-0.2984063923358917,-0.18146362900733948,-0.0093160942196846
1789031950108277200,8.12527734375,-0.32153886556625366,-0.16902799904346466,-0.001728216651827097
1789031950118280200,8.1352802734375,-0.33472341299057007,-0.17492879927158356,0.018861493095755577
1789031950128283100,8.145283203125,-0.34464210271835327,-0.2057620882987976,0.0323013998568058
1789031950138286000,8.1552861328125,-0.3108764886856079,-0.24169254302978516,0.03807331994175911
1789031950148289300,8.165289306640625,-0.25644147396087646,-0.2705250084400177,0.07577569782733917
1789031950158292200,8.175292236328126,-0.183909073472023,-0.2782556712627411,0.16129130125045776
1789031950168295200,8.185295166015624,-0.11888053268194199,-0.27195489406585693,0.2633196711540222
1789031950178298000,8.195298095703125,-0.07133599370718002,-0.2701141834259033,0.34670352935791016
1789031950188301300,8.20530126953125,-0.047927334904670715,-0.26078060269355774,0.38847601413726807
1789031950198304300,8.21530419921875,-0.022941285744309425,-0.25809457898139954,0.42549848556518555
1789031950208307200,8.22530712890625,-0.0303035955876112,-0.19939933717250824,0.4781510531902313
1789031950218310100,8.23531005859375,-0.04387805238366127,-0.16472995281219482,0.5261359214782715
1789031950228313000,8.24531298828125,-0.06029031425714493,-0.14199241995811462,0.5575090050697327
1789031950238316300,8.25531640625,-0.06775669753551483,-0.15398311614990234,0.5294288992881775
1789031950248319200,8.2653193359375,-0.06529726833105087,-0.18201129138469696,0.3848687708377838
1789031950258322200,8.275322265625,-0.07580075412988663,-0.1914937049150467,0.20257271826267242
1789031950268325400,8.285325439453125,-0.06302929669618607,-0.16245990991592407,0.11594302207231522
1789031950278328000,8.295328125,-0.04747079312801361,-0.17612317204475403,0.10712046921253204
1789031950288331300,8.305331298828126,-0.05121440067887306,-0.19878427684307098,0.09349121153354645
1789031950298334200,8.315334228515624,-0.07400671392679214,-0.18649308383464813,0.0662161335349083
1789031950308337200,8.325337158203125,-0.14766548573970795,-0.16378778219223022,0.03886466845870018
1789031950318340400,8.33534033203125,-0.2070450782775879,-0.13664114475250244,0.017029501497745514
1789031950328343000,8.345343017578125,-0.2189376801252365,-0.09727908670902252,0.011835005134344101
1789031950338346200,8.35534619140625,-0.21945594251155853,-0.08153641223907471,0.00691241305321455
1789031950348349200,8.36534912109375,-0.19112282991409302,-0.05545607954263687,-0.0013106288388371468
1789031950358352100,8.37535205078125,-0.1862962245941162,0.003241306869313121,0.005912987515330315
1789031950368355300,8.385355224609375,-0.18181492388248444,0.05814184248447418,0.0019507366232573986
1789031950378358000,8.39535791015625,-0.18038418889045715,0.11870734393596649,-0.0065746246837079525
1789031950388361200,8.405361328125,-0.17992664873600006,0.1727151870727539,-0.011463122442364693
1789031950398364400,8.415364501953125,-0.16616098582744598,0.2061653733253479,-0.004769293125718832
1789031950408367000,8.4253671875,-0.14865896105766296,0.22702431678771973,-0.019404694437980652
1789031950418370300,8.435370361328125,-0.14064234495162964,0.22648699581623077,-0.06754610687494278
1789031950428373000,8.445373046875,-0.13115829229354858,0.2242368906736374,-0.13628122210502625
1789031950438376200,8.455376220703124,-0.10302598029375076,0.21995802223682404,-0.19227580726146698
1789031950448379400,8.46537939453125,-0.0823979377746582,0.22741460800170898,-0.25362730026245117
1789031950458382000,8.475382080078125,-0.07030825316905975,0.25258052349090576,-0.29154032468795776
1789031950468386000,8.485385986328126,-0.0638495534658432,0.26369547843933105,-0.2990294098854065
1789031950478389200,8.49538916015625,-0.04084912687540054,0.27206355333328247,-0.2909747064113617
1789031950488392200,8.50539208984375,-0.02572530321776867,0.26359468698501587,-0.2801380157470703
1789031950498395100,8.51539501953125,-0.019909758120775223,0.247482031583786,-0.2575267255306244
1789031950508398300,8.5253984375,-0.019395465031266212,0.220091313123703,-0.24627195298671722
1789031950518401000,8.535401123046874,-0.02351183071732521,0.20473980903625488,-0.25455933809280396
1789031950528404200,8.545404296875,-0.04287993535399437,0.17879928648471832,-0.278317928314209
1789031950538407400,8.555407470703125,-0.05310226231813431,0.17349128425121307,-0.2933582663536072
1789031950548410000,8.56541015625,-0.03883970528841019,0.16376090049743652,-0.26232922077178955
1789031950558413800,8.575413818359374,-0.0168597511947155,0.16467615962028503,-0.21458905935287476
1789031950568416800,8.585416748046875,0.017600754275918007,0.20106826722621918,-0.1657184511423111
1789031950578420000,8.595419921875,0.031165892258286476,0.21532142162322998,-0.12702541053295135
1789031950588422700,8.605422607421875,0.02390611357986927,0.19614213705062866,-0.09705846011638641
1789031950598425900,8.61542578125,0.00209963321685791,0.18833839893341064,-0.07119011878967285
1789031950608428800,8.6254287109375,-0.029687590897083282,0.1908303052186966,-0.04539873078465462
1789031950618431700,8.635431640625,-0.04814627021551132,0.20192895829677582,-0.03145306557416916
1789031950628435000,8.64543505859375,-0.048587024211883545,0.23105488717556,-0.04160929471254349
1789031950638437600,8.655437744140626,-0.032679155468940735,0.2580723166465759,-0.059645555913448334
1789031950648440800,8.66544091796875,-0.005417441949248314,0.273200660943985,-0.05408594384789467
1789031950658444000,8.675444091796875,0.029311446473002434,0.2636331021785736,-0.04942925274372101
1789031950668446700,8.68544677734375,0.03609371930360794,0.26218727231025696,-0.06136208027601242
1789031950678450000,8.695449951171875,0.020261181518435478,0.2749141454696655,-0.05538405478000641
1789031950688452600,8.70545263671875,0.009548881091177464,0.292514443397522,-0.027008339762687683
1789031950698455800,8.715455810546874,0.00859803520143032,0.29360678791999817,-0.0010062465444207191
1789031950708459000,8.725458984375,-0.01044995803385973,0.24627897143363953,0.00016501173377037048
1789031950718461700,8.735461669921875,-0.0498245470225811,0.1773267537355423,-0.037619903683662415
1789031950728465000,8.74546484375,-0.09821871668100357,0.12290453165769577,-0.08096258342266083
1789031950738467800,8.7554677734375,-0.12019858509302139,0.10067645460367203,-0.11198708415031433
1789031950748470800,8.765470703125,-0.08965106308460236,0.10227994620800018,-0.10132697969675064
1789031950758474000,8.775473876953125,-0.045821987092494965,0.1218835636973381,-0.0831805169582367
1789031950768476700,8.7854765625,-0.012228608131408691,0.17351587116718292,-0.06671339273452759
1789031950778479900,8.79547998046875,0.009608082473278046,0.17220404744148254,-0.05086323246359825
1789031950788482800,8.80548291015625,0.005230112466961145,0.1920240968465805,-0.05578209087252617
1789031950798485800,8.81548583984375,-0.02431356906890869,0.177393838763237,-0.0709640309214592
1789031950808489000,8.825489013671875,-0.022160137072205544,0.12457668781280518,-0.0740748718380928
1789031950818492000,8.835491943359376,-0.004888227209448814,0.005789283663034439,-0.09694315493106842
1789031950828494800,8.845494873046874,0.015217838808894157,-0.09943300485610962,-0.12285145372152328
1789031950838497800,8.855497802734375,0.033049531280994415,-0.1789543628692627,-0.11366139352321625
1789031950848500700,8.865500732421875,0.04798906669020653,-0.2448420226573944,-0.09936261177062988
1789031950858504000,8.87550390625,0.06851689517498016,-0.25893786549568176,-0.11956972628831863
1789031950868507000,8.8855068359375,0.06981385499238968,-0.19181771576404572,-0.15661615133285522
1789031950878509800,8.895509765625,0.04221348464488983,-0.1263195276260376,-0.15386848151683807
1789031950888512800,8.9055126953125,0.019855977967381477,-0.1107080727815628,-0.141581192612648
1789031950898516000,8.915515869140625,0.011389567516744137,-0.1425948292016983,-0.15252521634101868
1789031950908519000,8.925518798828126,0.02377752773463726,-0.1714874505996704,-0.200321227312088
1789031950918521900,8.93552197265625,0.04062844440340996,-0.19115892052650452,-0.26990777254104614
1789031950928524800,8.94552490234375,0.04353262111544609,-0.19869273900985718,-0.3214804232120514
1789031950938527700,8.95552783203125,0.06654395908117294,-0.16256673634052277,-0.30030059814453125
1789031950948532000,8.965531982421876,0.09843531250953674,-0.14636379480361938,-0.2734471261501312
1789031950958534700,8.97553466796875,0.13087815046310425,-0.13985523581504822,-0.24312034249305725
1789031950968537900,8.985537841796875,0.11647950112819672,-0.07080159336328506,-0.20206904411315918
1789031950978540800,8.995540771484375,0.09245268255472183,-0.07280276715755463,-0.17154094576835632
1789031950988543700,9.005543701171876,0.10648461431264877,-0.0468827560544014,-0.1439218372106552
1789031950998547000,9.015546875,0.1365877389907837,-0.007567603141069412,-0.13231423497200012
1789031951008550000,9.0255498046875,0.18313206732273102,-0.007409677375108004,-0.13704906404018402
1789031951018552800,9.035552734375,0.21868856251239777,0.004802301991730928,-0.12492439895868301
1789031951028555800,9.0455556640625,0.23578552901744843,0.02001108229160309,-0.10919203609228134
1789031951038558700,9.055558837890626,0.25066494941711426,0.008877669461071491,-0.1049315482378006
1789031951048562000,9.06556201171875,0.27829045057296753,0.0014096328523010015,-0.09870081394910812
1789031951058564900,9.07556494140625,0.2881266176700592,0.0038757682777941227,-0.12193827331066132
1789031951068567800,9.08556787109375,0.2789035737514496,0.003509849775582552,-0.1294473260641098
1789031951078570800,9.09557080078125,0.2731880843639374,0.026832658797502518,-0.13388115167617798
1789031951088574000,9.105573974609374,0.24262483417987823,0.028873439878225327,-0.16947244107723236
1789031951098577000,9.115576904296875,0.19805988669395447,0.016015030443668365,-0.18774473667144775
1789031951108579800,9.125579833984375,0.15948133170604706,0.005197802558541298,-0.23748831450939178
1789031951118582800,9.135582763671875,0.13606026768684387,-0.0025002772454172373,-0.2964833676815033
1789031951128585700,9.145585693359376,0.13748665153980255,-0.007456686347723007,-0.2811049222946167
1789031951138589000,9.1555888671875,0.1253163069486618,-0.014624959789216518,-0.23425596952438354
1789031951148591900,9.165591796875,0.129839688539505,-0.0177278071641922,-0.163091778755188
1789031951158594800,9.1755947265625,0.14490091800689697,-0.016609281301498413,-0.12397180497646332
1789031951168598000,9.185597900390626,0.13951322436332703,-0.04594527557492256,-0.11196208000183105
1789031951178600700,9.1956005859375,0.14529362320899963,-0.03431779891252518,-0.08362125605344772
1789031951188604000,9.20560400390625,0.13817979395389557,-0.06607439368963242,-0.07363253831863403
1789031951198606800,9.21560693359375,0.13444584608078003,-0.10898742079734802,-0.08368586748838425
1789031951208609800,9.22560986328125,0.13167110085487366,-0.13075290620326996,-0.08126212656497955
1789031951218613000,9.235613037109376,0.10695383697748184,-0.1486096829175949,-0.06952215731143951
1789031951228615700,9.24561572265625,0.06886477768421173,-0.11308285593986511,-0.06481395661830902
1789031951238619000,9.255618896484375,0.01194850541651249,-0.07866184413433075,-0.04825948178768158
1789031951248621800,9.265621826171875,-0.03492126241326332,-0.059741679579019547,-0.0009841127321124077
1789031951258624800,9.275624755859376,-0.03824623301625252,-0.0557694248855114,0.08185325562953949
1789031951268628000,9.2856279296875,-0.0377170629799366,-0.08881153166294098,0.17304281890392303
1789031951278630700,9.295630615234375,-0.043225470930337906,-0.15343602001667023,0.21699213981628418
1789031951288633900,9.3056337890625,-0.05572715029120445,-0.20962685346603394,0.2167913317680359
1789031951298636800,9.31563671875,-0.08651051670312881,-0.28050217032432556,0.18416447937488556
1789031951308639700,9.3256396484375,-0.09544967859983444,-0.3234240710735321,0.1805705428123474
1789031951318643000,9.335642822265624,-0.07441745698451996,-0.35306018590927124,0.23013213276863098
1789031951328646000,9.34564599609375,-0.06154559552669525,-0.3540929853916168,0.31772592663764954
1789031951338648800,9.35564892578125,-0.06866352260112762,-0.33405837416648865,0.4149358868598938
1789031951348651800,9.36565185546875,-0.08308347314596176,-0.30536842346191406,0.4936211109161377
1789031951358654700,9.37565478515625,-0.09284895658493042,-0.2632825970649719,0.545702338218689
1789031951368658000,9.385657958984375,-0.1182728186249733,-0.23801188170909882,0.5387762784957886
1789031951378660900,9.395660888671875,-0.13354048132896423,-0.2108602076768875,0.48981836438179016
1789031951388663800,9.405663818359375,-0.13434049487113953,-0.18552476167678833,0.429651141166687
1789031951398666800,9.415666748046876,-0.12096972018480301,-0.20540447533130646,0.3791441321372986
1789031951408670000,9.425669921875,-0.12483183294534683,-0.16074272990226746,0.299841046333313
1789031951418673000,9.4356728515625,-0.12821251153945923,-0.12477310001850128,0.23843029141426086
1789031951428676900,9.4456767578125,-0.12030799686908722,-0.10308351367712021,0.229414165019989
1789031951438679800,9.4556796875,-0.0917467251420021,-0.059248536825180054,0.23999066650867462
1789031951448682800,9.465682861328125,-0.05703401565551758,-0.038792263716459274,0.2736833989620209
1789031951458686000,9.47568603515625,-0.021338772028684616,-0.013382157310843468,0.27116212248802185
1789031951468688600,9.485688720703125,0.017649639397859573,0.029424162581562996,0.25933343172073364
1789031951478691800,9.49569189453125,0.04292463883757591,0.07229013741016388,0.21333478391170502
1789031951488694800,9.50569482421875,0.08107681572437286,0.09733051061630249,0.16527831554412842
1789031951498697700,9.51569775390625,0.10963232070207596,0.11542585492134094,0.14944979548454285
1789031951508701000,9.525700927734375,0.10421305149793625,0.13326583802700043,0.16566871106624603
1789031951518703900,9.535703857421876,0.09773150086402893,0.15086698532104492,0.21721698343753815
1789031951528706800,9.545706787109374,0.09286324679851532,0.1542755663394928,0.25663548707962036
1789031951538709800,9.555709716796875,0.08983901143074036,0.17848104238510132,0.2582423985004425
1789031951548712700,9.565712646484375,0.08301173150539398,0.22061678767204285,0.24328583478927612
1789031951558716000,9.5757158203125,0.06325790286064148,0.2524512708187103,0.19562900066375732
1789031951568718600,9.585718505859376,0.03203660622239113,0.3017570376396179,0.13056769967079163
1789031951578721800,9.5957216796875,0.0009318594820797443,0.33985260128974915,0.05742936581373215
1789031951588724700,9.605724853515625,-0.025491759181022644,0.3549468517303467,-0.012645592913031578
1789031951598727700,9.615727783203125,-0.03921480476856232,0.3718666434288025,-0.04844777286052704
1789031951608731000,9.62573095703125,-0.04204494506120682,0.37123146653175354,-0.06887075304985046
1789031951618733600,9.635733642578124,-0.029343679547309875,0.3215591311454773,-0.03612832352519035
1789031951628736800,9.64573681640625,0.003219323931261897,0.30788564682006836,0.02966107428073883
1789031951638739700,9.65573974609375,0.038599979132413864,0.2718541622161865,0.05197370797395706
1789031951648742700,9.66574267578125,0.0681016743183136,0.23974575102329254,0.04072371497750282
1789031951658745900,9.675745849609376,0.09007343649864197,0.1837472915649414,-0.004808166529983282
1789031951668748500,9.68574853515625,0.09540828317403793,0.13362367451190948,-0.02375948615372181
1789031951678751700,9.695751708984375,0.09078080952167511,0.09674331545829773,-0.017241686582565308
1789031951688754700,9.705754638671875,0.08369173854589462,0.05511597543954849,-0.03923407196998596
1789031951698757600,9.715757568359376,0.0707007348537445,0.029953351244330406,-0.08601482957601547
1789031951708760800,9.7257607421875,0.03347054868936539,0.015314754098653793,-0.14950911700725555
1789031951718763800,9.735763671875,-0.023337269201874733,0.008420145139098167,-0.1638721227645874
1789031951728766700,9.7457666015625,-0.06405806541442871,0.03926354646682739,-0.12378862500190735
1789031951738769700,9.755769775390625,-0.0885799303650856,0.044278886169195175,-0.06740470230579376
1789031951748772600,9.765772705078126,-0.07186859101057053,0.043188054114580154,-0.055869754403829575
1789031951758775800,9.77577587890625,-0.0552295446395874,-0.0023414776660501957,-0.08144242316484451
1789031951768778800,9.78577880859375,-0.048991888761520386,-0.04138634726405144,-0.10070479661226273
1789031951778781700,9.79578173828125,-0.06721271574497223,-0.04031461477279663,-0.15941019356250763
1789031951788784600,9.80578466796875,-0.09348373860120773,-0.04205232858657837,-0.21689797937870026
1789031951798787600,9.81578759765625,-0.11927948892116547,-0.014071274548768997,-0.24331343173980713
1789031951808790800,9.825790771484375,-0.15659330785274506,0.03699803724884987,-0.2558942139148712
1789031951818793700,9.835793701171875,-0.16395507752895355,0.08259294927120209,-0.19730253517627716
1789031951828796700,9.845796630859375,-0.11784058064222336,0.08290187269449234,-0.08581914007663727
1789031951838799600,9.855799560546876,-0.07419203221797943,0.06771035492420197,-0.00877249427139759
1789031951848802800,9.865802734375,-0.06494341045618057,0.043997298926115036,0.038497015833854675
1789031951858805800,9.8758056640625,-0.0700528621673584,0.04842017590999603,0.047522153705358505
1789031951868808700,9.88580859375,-0.05757168307900429,0.061782050877809525,0.03160896897315979
1789031951878812700,9.895812744140626,-0.05565239489078522,0.07298969477415085,0.01717785932123661
1789031951888815600,9.905815673828124,-0.02758321352303028,0.06480233371257782,0.02715672366321087
1789031951898818800,9.91581884765625,-0.005877355579286814,0.06348617374897003,0.04283713176846504
1789031951908821800,9.92582177734375,-0.02460790053009987,0.05197731778025627,0.04930967837572098
1789031951918824700,9.93582470703125,-0.03147408366203308,0.058639172464609146,0.06320686638355255
1789031951928827600,9.94582763671875,-0.026044165715575218,0.0675615593791008,0.07585342228412628
1789031951938830600,9.95583056640625,-0.0069938041269779205,0.0907827615737915,0.09544231742620468
1789031951948833800,9.965833740234375,0.024817654862999916,0.09011084586381912,0.08199814707040787
1789031951958836700,9.975836669921875,0.05292391777038574,0.06041041016578674,0.05796841159462929
1789031951968839700,9.985839599609376,0.06013256311416626,0.041406892240047455,0.032381292432546616
1789031951978842600,9.995842529296874,0.07149660587310791,0.03391280397772789,0.001920812763273716
1789031951988845800,10.005845703125,0.09349751472473145,0.045674387365579605,-0.029645370319485664
1789031951998848800,10.015848876953125,0.12191217392683029,0.0894784927368164,-0.022195328027009964
1789031952008851700,10.025851806640626,0.14876003563404083,0.12811589241027832,-0.02066933736205101
1789031952018854700,10.035854736328124,0.1611286848783493,0.11624457687139511,-0.033511172980070114
1789031952028857600,10.045857666015625,0.17124177515506744,0.06434409320354462,-0.03233325853943825
1789031952038860800,10.05586083984375,0.17914441227912903,0.05612621456384659,-0.044490035623311996
1789031952048863700,10.06586376953125,0.1867338865995407,0.05576509237289429,-0.07242845743894577
1789031952058866700,10.07586669921875,0.17741860449314117,0.0462956428527832,-0.09518299996852875
1789031952068870000,10.085869873046875,0.16546180844306946,0.009106194600462914,-0.12130647897720337
1789031952078872600,10.09587255859375,0.16571517288684845,0.0024966602213680744,-0.11197641491889954
1789031952088875800,10.105875732421875,0.17815986275672913,0.022212574258446693,-0.10783945024013519
1789031952098878700,10.115878662109376,0.21109598875045776,0.028355196118354797,-0.09016726166009903
1789031952108881700,10.125881591796874,0.25289830565452576,0.036237090826034546,-0.061854131519794464
1789031952118884900,10.135884765625,0.27472129464149475,0.026379738003015518,-0.05973318591713905
1789031952128887600,10.145887451171875,0.26139509677886963,0.006140513811260462,-0.09216543287038803
1789031952138890800,10.155890869140626,0.22681555151939392,-0.03022521734237671,-0.12852317094802856
1789031952148893700,10.165893798828124,0.20182764530181885,-0.06057193502783775,-0.11571549624204636
1789031952158896600,10.175896728515625,0.15571431815624237,-0.03756708279252052,-0.07943212240934372
1789031952168899800,10.18589990234375,0.09865396469831467,0.024180440232157707,-0.04808458313345909
1789031952178902500,10.195902587890625,0.05489204823970795,0.11863058060407639,-0.04451804608106613
1789031952188905700,10.20590576171875,0.008576744236052036,0.1688482016324997,-0.04703233391046524
1789031952198909000,10.215908935546874,-0.00893141608685255,0.20770247280597687,-0.017314650118350983
1789031952208911600,10.22591162109375,-0.013210050761699677,0.237578883767128,-0.032183077186346054
1789031952218914800,10.235914794921875,-0.017514251172542572,0.24107614159584045,-0.04420831426978111
1789031952228917500,10.24591748046875,-0.014790637418627739,0.2091568261384964,-0.016345525160431862
1789031952238920700,10.255920654296874,-0.009852862916886806,0.16488116979599,-0.0020123966969549656
1789031952248924000,10.265923828125,-0.006527905352413654,0.13013143837451935,-0.009334757924079895
1789031952258926600,10.275926513671875,-0.01104008499532938,0.13194623589515686,-0.022037247195839882
1789031952268929800,10.2859296875,-0.04152741655707359,0.10520170629024506,-0.068080373108387
1789031952278932700,10.2959326171875,-0.0657884031534195,0.10748230665922165,-0.10881921648979187
1789031952288935700,10.305935791015624,-0.09291216731071472,0.11323925852775574,-0.12559419870376587
1789031952298938600,10.315938720703125,-0.11791978031396866,0.1067880168557167,-0.11315883696079254
1789031952308941600,10.325941650390625,-0.12269003689289093,0.1341959536075592,-0.07303991168737411
1789031952318945500,10.335945556640626,-0.13291017711162567,0.0993843525648117,-0.022197239100933075
1789031952328948700,10.34594873046875,-0.14859192073345184,0.07002992928028107,0.012784446589648724
1789031952338952000,10.355951904296875,-0.1525346338748932,0.04955369606614113,0.07469702512025833
1789031952348954600,10.36595458984375,-0.1365857571363449,0.02833736129105091,0.1838914155960083
1789031952358957800,10.375957763671876,-0.10004451870918274,0.0037061660550534725,0.2857365608215332
1789031952368960500,10.38596044921875,-0.07777729630470276,-0.07228207588195801,0.3535339832305908
1789031952378963700,10.395963623046875,-0.05297914519906044,-0.1384785771369934,0.39768046140670776
1789031952388967000,10.405966796875,-0.0562223419547081,-0.190475732088089,0.4370798170566559
1789031952398969600,10.415969482421875,-0.06151607632637024,-0.2515808045864105,0.4822179675102234
1789031952408972800,10.425972900390626,-0.05659934878349304,-0.2562096416950226,0.5136792063713074
1789031952418975500,10.4359755859375,-0.05090392380952835,-0.25344228744506836,0.5569416880607605
1789031952428978700,10.445978759765625,-0.042681679129600525,-0.22921524941921234,0.6122912168502808
1789031952438982000,10.45598193359375,-0.03976021334528923,-0.20222441852092743,0.6174376010894775
1789031952448984600,10.465984619140626,-0.03687414526939392,-0.18758554756641388,0.5688857436180115
1789031952458987800,10.47598779296875,-0.024021493270993233,-0.15977464616298676,0.5574307441711426
1789031952468990700,10.48599072265625,-0.015713496133685112,-0.16993114352226257,0.5924675464630127
1789031952478993700,10.49599365234375,-0.02209528163075447,-0.21531248092651367,0.5880927443504333
1789031952488996900,10.505996826171875,-0.023187177255749702,-0.2214135229587555,0.5396919250488281
1789031952498999600,10.51599951171875,-0.004612427670508623,-0.17841865122318268,0.4867813289165497
1789031952509002800,10.526002685546874,0.02245047502219677,-0.11107125133275986,0.46272650361061096
1789031952519005700,10.536005615234375,0.050134774297475815,-0.06738921254873276,0.4278271496295929
1789031952529008600,10.546008544921875,0.07184939086437225,-0.043542202562093735,0.3300750255584717
1789031952539011800,10.55601171875,0.0744142234325409,-0.05707266926765442,0.19851411879062653
1789031952549014800,10.566014892578124,0.07202430814504623,-0.09329644590616226,0.05974291265010834
1789031952559017500,10.576017578125,0.042094431817531586,-0.10107295215129852,-0.029766496270895004
1789031952569020200,10.586020263671875,0.032359778881073,-0.0863850861787796,-0.054205793887376785
1789031952579023400,10.5960234375,0.030971532687544823,-0.06671930849552155,-0.027705509215593338
1789031952589026600,10.606026611328126,0.03166262432932854,-0.08297710865736008,0.016668081283569336
1789031952599029200,10.616029296875,0.022236468270421028,-0.07715325057506561,0.036438148468732834
1789031952609032400,10.626032470703125,-0.0021146780345588923,-0.054659925401210785,0.027221214026212692
1789031952619035100,10.63603515625,-0.043221764266490936,-0.00984933041036129,-0.014576109126210213
1789031952629038300,10.646038330078126,-0.09874867647886276,0.06885959953069687,-0.09786406904459
1789031952639041500,10.65604150390625,-0.16021578013896942,0.12364131212234497,-0.17952270805835724
1789031952649044200,10.666044189453125,-0.19188715517520905,0.15156401693820953,-0.21879661083221436
1789031952659047400,10.67604736328125,-0.20591437816619873,0.19529715180397034,-0.22186319530010223
1789031952669050000,10.686050048828125,-0.1890949308872223,0.22656239569187164,-0.20886217057704926
1789031952679053300,10.69605322265625,-0.15685473382472992,0.2525201439857483,-0.19932696223258972
1789031952689056500,10.706056396484374,-0.11811134219169617,0.26418906450271606,-0.19906172156333923
1789031952699059200,10.71605908203125,-0.07534243911504745,0.27865132689476013,-0.18670737743377686
1789031952709062400,10.7260625,-0.023506667464971542,0.2792028486728668,-0.18625544011592865
1789031952719065300,10.7360654296875,0.00703514413908124,0.24475421011447906,-0.2159363180398941
1789031952729068300,10.746068359375,0.022221287712454796,0.20553384721279144,-0.2702152729034424
1789031952739071500,10.756071533203125,0.03029770962893963,0.16375403106212616,-0.3152954578399658
1789031952749075500,10.766075439453125,0.016005320474505424,0.1407882571220398,-0.33565717935562134
1789031952759078100,10.776078125,0.0024730381555855274,0.13649140298366547,-0.35356882214546204
1789031952769081300,10.786081298828124,-0.017723577097058296,0.09804841130971909,-0.3939114511013031
1789031952779084500,10.79608447265625,-0.05274077132344246,0.07515997439622879,-0.43427640199661255
1789031952789087200,10.806087158203125,-0.07625648379325867,0.07780023664236069,-0.42485228180885315
1789031952799090400,10.81609033203125,-0.09953960031270981,0.04951241984963417,-0.3801690340042114
1789031952809093000,10.826093017578126,-0.1101517602801323,0.044718727469444275,-0.3255039155483246
1789031952819096300,10.836096435546875,-0.12249882519245148,0.06926514208316803,-0.32306092977523804
1789031952829099500,10.846099609375,-0.1384064108133316,0.062450651079416275,-0.34601420164108276
1789031952839102200,10.856102294921875,-0.1361362785100937,0.03858572989702225,-0.34437504410743713
1789031952849105400,10.86610546875,-0.13022193312644958,0.02067490667104721,-0.3456096947193146
1789031952859108400,10.8761083984375,-0.13863667845726013,0.01206799317151308,-0.31615328788757324
1789031952869111300,10.886111328125,-0.14610444009304047,-0.020448405295610428,-0.2654520273208618
1789031952879114500,10.896114501953125,-0.12412673234939575,-0.05243974179029465,-0.26201173663139343
1789031952889117200,10.9061171875,-0.09192725270986557,-0.06016397476196289,-0.2658171057701111
1789031952899120400,10.916120361328124,-0.034596461802721024,-0.014594989828765392,-0.25347569584846497
1789031952909123300,10.926123291015625,0.023776300251483917,-0.04079623520374298,-0.2488148957490921
1789031952919126300,10.936126220703125,0.021540479734539986,-0.05299416929483414,-0.2800440192222595
1789031952929129500,10.94612939453125,-0.0179749708622694,-0.07636820524930954,-0.29098427295684814
1789031952939132400,10.95613232421875,-0.06549108028411865,-0.03871658444404602,-0.28146374225616455
1789031952949135400,10.96613525390625,-0.10402009636163712,0.02567305974662304,-0.22456638514995575
1789031952959138300,10.97613818359375,-0.10702989995479584,-0.052083998918533325,-0.07162974029779434
1789031952969141200,10.986141357421875,-0.0885976254940033,-0.1404799073934555,0.04832569137215614
1789031952979144400,10.99614453125,-0.09146115183830261,-0.23927372694015503,0.07250922918319702
1789031952989147400,11.0061474609375,-0.0802798718214035,-0.2694912552833557,0.029674679040908813
1789031952999150300,11.016150390625,-0.06526349484920502,-0.20003849267959595,-0.0600878931581974
1789031953009153300,11.0261533203125,-0.058933958411216736,-0.16187405586242676,-0.13078522682189941
1789031953019156200,11.03615625,-0.055875781923532486,-0.12763342261314392,-0.14587952196598053
1789031953029159400,11.046159423828126,-0.044789575040340424,-0.11742524802684784,-0.13073626160621643
1789031953039162400,11.056162353515624,-0.0189689751714468,-0.14609448611736298,-0.09644696116447449
1789031953049165300,11.066165283203125,-0.005641451105475426,-0.17275460064411163,-0.05518633872270584
1789031953059168300,11.076168212890625,-0.010783888399600983,-0.1398882120847702,0.0140810776501894
1789031953069171500,11.08617138671875,-0.00998387485742569,-0.12302480638027191,0.07044661045074463
1789031953079174400,11.09617431640625,0.029248598963022232,-0.1841689497232437,0.06685595959424973
1789031953089177300,11.10617724609375,0.047567155212163925,-0.23318815231323242,0.08051051944494247
1789031953099180300,11.11618017578125,0.05239395052194595,-0.2467641830444336,0.08801206201314926
1789031953109183200,11.126183349609375,0.0688706561923027,-0.26319748163223267,0.09031569212675095
1789031953119186400,11.1361865234375,0.06827880442142487,-0.25285840034484863,0.09357759356498718
1789031953129189400,11.146189453125,0.08524180948734283,-0.22401714324951172,0.1061628982424736
1789031953139192300,11.1561923828125,0.10738515853881836,-0.22273819148540497,0.14735189080238342
1789031953149195500,11.166195556640625,0.12614473700523376,-0.25533023476600647,0.15243107080459595
1789031953159198200,11.1761982421875,0.13722269237041473,-0.302384614944458,0.14259494841098785
1789031953169202400,11.186202392578124,0.14744018018245697,-0.341464638710022,0.14036668837070465
1789031953179205400,11.196205322265625,0.15142934024333954,-0.36146435141563416,0.09832441806793213
1789031953189208300,11.206208251953125,0.14381270110607147,-0.3662590980529785,0.054793454706668854
1789031953199211300,11.216211181640626,0.13847771286964417,-0.35294637084007263,0.022072456777095795
1789031953209214500,11.22621435546875,0.12685540318489075,-0.3424351215362549,0.0008662387263029814
1789031953219217400,11.236217529296875,0.09842032194137573,-0.31059378385543823,-0.00903354212641716
1789031953229220400,11.246220458984375,0.051626987755298615,-0.28527510166168213,-0.04615854099392891
1789031953239223300,11.256223388671875,0.03601979836821556,-0.22356835007667542,-0.056841813027858734
1789031953249226200,11.266226318359376,0.02698981761932373,-0.16437533497810364,-0.05187022313475609
1789031953259229400,11.2762294921875,0.02976946160197258,-0.1378089189529419,-0.019381161779165268
1789031953269232400,11.286232421875,0.03234793618321419,-0.11223883926868439,0.006904769688844681
1789031953279235300,11.2962353515625,0.013239924795925617,-0.13639597594738007,0.01767369732260704
1789031953289238500,11.306238525390626,0.009751982986927032,-0.12936469912528992,-0.0174078568816185
1789031953299241200,11.3162412109375,0.0022993036545813084,-0.11281411349773407,-0.08929397910833359
1789031953309244400,11.326244384765625,-0.003411312587559223,-0.11370626837015152,-0.12361013889312744
1789031953319247400,11.336247314453125,-0.012802883051335812,-0.15814872086048126,-0.10471025854349136
1789031953329250300,11.346250244140625,-0.024160467088222504,-0.1836618036031723,-0.09145651012659073
1789031953339253500,11.35625341796875,-0.07449930906295776,-0.15513816475868225,-0.1018393486738205
1789031953349256200,11.366256103515624,-0.15090273320674896,-0.12857232987880707,-0.13530144095420837
1789031953359259400,11.37625927734375,-0.18017494678497314,-0.09482739120721817,-0.14892026782035828
1789031953369262300,11.386262451171875,-0.19582527875900269,-0.07318361848592758,-0.13356474041938782
1789031953379265300,11.396265380859376,-0.2265165150165558,-0.053070876747369766,-0.11416926980018616
1789031953389268500,11.4062685546875,-0.25626882910728455,-0.060943715274333954,-0.09369302541017532
1789031953399271200,11.416271240234375,-0.27836164832115173,-0.05902544781565666,-0.0288399588316679
1789031953409274400,11.4262744140625,-0.2900870144367218,-0.09211176633834839,0.06914545595645905
1789031953419277300,11.43627734375,-0.28398650884628296,-0.1203761175274849,0.147492453455925
1789031953429280300,11.4462802734375,-0.28091108798980713,-0.1375521719455719,0.1747959703207016
1789031953439283500,11.456283447265625,-0.2844869792461395,-0.18301519751548767,0.16994427144527435
1789031953449286100,11.4662861328125,-0.2881333827972412,-0.19621887803077698,0.2444925457239151
1789031953459289300,11.476289306640625,-0.27137815952301025,-0.17787446081638336,0.4727668762207031
1789031953469292300,11.486292236328126,-0.22738830745220184,-0.09862038493156433,0.7433277368545532
1789031953479295200,11.496295166015624,-0.21986792981624603,-0.03157171234488487,0.8735561966896057
1789031953489298400,11.50629833984375,-0.2517603635787964,-0.021762490272521973,0.8243143558502197
1789031953499301400,11.51630126953125,-0.3063197433948517,-0.023067748174071312,0.7174800634384155
1789031953509304300,11.52630419921875,-0.3496943712234497,-0.0033797959331423044,0.6381910443305969
1789031953519307300,11.536307373046874,-0.3310975134372711,0.0754658654332161,0.5858621001243591
1789031953529310200,11.546310302734375,-0.2473861128091812,0.1306217908859253,0.5698444843292236
1789031953539313400,11.5563134765625,-0.14033083617687225,0.16151541471481323,0.5625035166740417
1789031953549316400,11.56631640625,-0.05433070659637451,0.1710095852613449,0.45253390073776245
1789031953559319800,11.57631982421875,-0.0523998849093914,0.16803640127182007,0.26382920145988464
1789031953569322800,11.58632275390625,-0.10468892753124237,0.16126024723052979,0.11798810213804245
1789031953579326000,11.596325927734375,-0.14229153096675873,0.14078976213932037,0.02520042471587658
1789031953589329700,11.60632958984375,-0.141471266746521,0.0850580558180809,-0.03479659929871559
1789031953599332900,11.616332763671876,-0.12044491618871689,0.032529816031455994,-0.05751026049256325
1789031953609335800,11.626335693359374,-0.12330488860607147,0.003651031758636236,-0.06910539418458939
1789031953619338800,11.6363388671875,-0.13479745388031006,0.00437796488404274,-0.10032565146684647
1789031953629342000,11.646342041015625,-0.15060144662857056,0.037622734904289246,-0.12338729202747345
1789031953639345000,11.656344970703126,-0.16702868044376373,0.09028308838605881,-0.10390225052833557
1789031953649347800,11.666347900390624,-0.15789297223091125,0.1405329406261444,-0.05984184518456459
1789031953659350800,11.676350830078125,-0.1468810737133026,0.17576149106025696,-0.030689019709825516
1789031953669353700,11.686353759765625,-0.14478276669979095,0.1917354017496109,-0.06276679784059525
1789031953679357000,11.69635693359375,-0.13773681223392487,0.19168177247047424,-0.1549457460641861
1789031953689360000,11.70635986328125,-0.17533186078071594,0.1853192150592804,-0.2718481421470642
1789031953699362800,11.71636279296875,-0.17094630002975464,0.23234106600284576,-0.31982356309890747
1789031953709365800,11.72636572265625,-0.12491648644208908,0.2632710039615631,-0.32096898555755615
1789031953719369000,11.736368896484375,-0.06939224153757095,0.23929032683372498,-0.3198251724243164
1789031953729372000,11.746371826171876,-0.016306065022945404,0.19069643318653107,-0.30390748381614685
1789031953739374800,11.756374755859374,0.012809498235583305,0.14326851069927216,-0.2702485918998718
1789031953749377800,11.766377685546875,0.04798000305891037,0.10791556537151337,-0.20384427905082703
1789031953759380700,11.776380615234375,0.08752814680337906,0.09819137305021286,-0.1492246836423874
1789031953769384000,11.786384033203126,0.09517142176628113,0.06099846214056015,-0.15415552258491516
1789031953779387000,11.796386962890624,0.09962726384401321,0.03298308700323105,-0.19143611192703247
1789031953789389800,11.806389892578125,0.07651128619909286,-0.02579847164452076,-0.2542819082736969
1789031953799393000,11.81639306640625,0.023972531780600548,-0.029263535514473915,-0.28911131620407104
1789031953809395700,11.826395751953125,-0.0015016694087535143,0.03225548192858696,-0.2879432439804077
1789031953819399000,11.83639892578125,-0.0008662692271173,0.10391399264335632,-0.2788112461566925
1789031953829401900,11.84640185546875,-0.008061065338551998,0.1744547337293625,-0.2500956952571869
1789031953839404800,11.85640478515625,-0.04150693491101265,0.21875165402889252,-0.25471577048301697
1789031953849408000,11.866407958984375,-0.10230477154254913,0.25571075081825256,-0.27915051579475403
1789031953859410700,11.87641064453125,-0.1250985860824585,0.3170567750930786,-0.28680625557899475
1789031953869414000,11.886413818359374,-0.12431162595748901,0.3578502833843231,-0.3013322055339813
1789031953879416800,11.896416748046875,-0.11570765823125839,0.35466814041137695,-0.30620425939559937
1789031953889419800,11.906419677734375,-0.09880776703357697,0.3304743766784668,-0.31237372756004333
1789031953899423000,11.916423095703125,-0.11387786269187927,0.30795663595199585,-0.3639777600765228
1789031953909425700,11.92642578125,-0.1397632509469986,0.29700303077697754,-0.41553470492362976
1789031953919428900,11.936428955078124,-0.13670185208320618,0.28040120005607605,-0.3965195417404175
1789031953929431800,11.946431884765625,-0.09785431623458862,0.2690633237361908,-0.33390143513679504
1789031953939434800,11.956434814453125,-0.06559261679649353,0.2708803713321686,-0.286481648683548
1789031953949438000,11.96643798828125,-0.06717640161514282,0.21492122113704681,-0.26033899188041687
1789031953959441000,11.97644091796875,-0.07964284718036652,0.14204227924346924,-0.23311619460582733
1789031953969443800,11.98644384765625,-0.07455434650182724,0.08618087321519852,-0.18641287088394165
1789031953979446800,11.99644677734375,-0.05033490061759949,0.0803007185459137,-0.1579902023077011
1789031953989451000,12.006450927734376,-0.018994024023413658,0.06461815536022186,-0.14641425013542175
1789031953999453700,12.01645361328125,0.022727251052856445,0.0713156908750534,-0.14183196425437927
1789031954009457000,12.026456787109375,0.039816223084926605,0.10295910388231277,-0.16061657667160034
1789031954019459800,12.0364599609375,0.023922404274344444,0.13468897342681885,-0.21048784255981445
1789031954029462800,12.046462890625,0.01811511442065239,0.1253226399421692,-0.25883832573890686
1789031954039466000,12.056466064453126,0.02834114246070385,0.09678691625595093,-0.29598623514175415
1789031954049468700,12.06646875,0.005069110542535782,0.09676507860422134,-0.30572009086608887
1789031954059472000,12.076471923828125,0.005164748057723045,0.03643542900681496,-0.29384252429008484
1789031954069474800,12.086474853515625,0.05591900646686554,-0.08394397050142288,-0.3197803795337677
1789031954079477800,12.096477783203126,0.10054221749305725,-0.0741412490606308,-0.33111509680747986
1789031954089481000,12.10648095703125,0.10799773782491684,-0.008381410501897335,-0.30080726742744446
1789031954099483600,12.116483642578125,0.16486084461212158,0.019755125045776367,-0.2524847984313965
1789031954109486800,12.12648681640625,0.17616435885429382,0.005060867872089148,-0.20088312029838562
1789031954119489800,12.13648974609375,0.1687418818473816,-0.020170412957668304,-0.12535908818244934
1789031954129492700,12.14649267578125,0.17694495618343353,-0.03644898533821106,-0.084946408867836
1789031954139496000,12.156495849609374,0.19940388202667236,-0.044503457844257355,-0.04760780185461044
1789031954149499000,12.166498779296875,0.1895613670349121,0.015515406616032124,-0.06564778089523315
1789031954159501800,12.176501708984375,0.20115433633327484,-0.010546062141656876,-0.08803537487983704
1789031954169504800,12.1865048828125,0.2106514424085617,-0.04930464178323746,-0.1111723855137825
1789031954179507700,12.1965078125,0.21456843614578247,-0.07215624302625656,-0.09831144660711288
1789031954189511000,12.206510986328125,0.22181515395641327,-0.08363579958677292,-0.06664193421602249
1789031954199513900,12.216513916015625,0.22840899229049683,-0.0944078117609024,-0.03175511956214905
1789031954209516800,12.226516845703125,0.24210774898529053,-0.09656869620084763,-0.034991659224033356
1789031954219519700,12.236519775390626,0.24077948927879333,-0.11543162167072296,-0.09204846620559692
1789031954229523000,12.24652294921875,0.23284059762954712,-0.12102053314447403,-0.1594488024711609
