time,seconds_elapsed,z,y,x
1789323720596874500,0.25187451171875,8.95394229888916,3.2679975032806396,-1.3022937774658203
1789323720615724500,0.270724609375,9.030512809753418,3.1890344619750977,-1.2640085220336914
1789323720634574600,0.28957470703125,9.052047729492188,3.421138286590576,-1.1228320598602295
1789323720653424600,0.308424560546875,9.152546882629395,3.57906436920166,-0.7636095285415649
1789323720672275000,0.32727490234375,9.21715259552002,3.64127779006958,-0.48843491077423096
1789323720691125000,0.346125,9.087940216064453,3.5336008071899414,-0.1579262912273407
1789323720709975000,0.36497509765625,8.970691680908203,3.583850145339966,0.15074782073497772
1789323720728825300,0.383825439453125,8.898907661437988,3.88803768157959,-0.016749758273363113
1789323720747675400,0.40267529296875,8.793622970581055,3.928715705871582,-0.20338992774486542
1789323720766525400,0.421525390625,8.877371788024902,3.7181472778320312,0.16749759018421173
1789323720785375500,0.44037548828125,9.059226989746094,3.8545382022857666,0.6942176818847656
1789323720804225800,0.459225830078125,8.733802795410156,4.196712017059326,0.8401798605918884
1789323720823075800,0.478075927734375,7.996214866638184,4.328616142272949,0.8691928386688232
1789323720841926000,0.49692578125,7.77607536315918,4.567898273468018,0.7085745930671692
1789323720860776000,0.51577587890625,7.867002487182617,4.896014213562012,0.6056832075119019
1789323720879626200,0.534626220703125,8.252546310424805,4.963013172149658,0.643968403339386
1789323720898476300,0.553476318359375,8.415258407592773,4.893621444702148,0.6296114325523376
1789323720917326300,0.572326416015625,8.649754524230957,4.982155799865723,0.8883354067802429
1789323720936176600,0.5911767578125,8.63779067993164,4.967798709869385,1.1778669357299805
1789323720955026700,0.610026611328125,8.487042427062988,4.713860511779785,1.5155540704727173
1789323720973876700,0.628876708984375,8.374580383300781,4.610969066619873,1.5586248636245728
1789323720992727000,0.64772705078125,8.568398475646973,4.555934429168701,1.596909999847412
1789323721011577000,0.6665771484375,8.824729919433594,4.59421968460083,1.843370795249939
1789323721030427100,0.68542724609375,8.405686378479004,4.603790760040283,2.173879384994507
1789323721049277400,0.70427734375,8.101499557495117,4.632504463195801,2.3509483337402344
1789323721068127500,0.72312744140625,7.99382209777832,4.371686935424805,2.5088746547698975
1789323721086977500,0.7419775390625,8.30279541015625,3.7683966159820557,2.975774049758911
1789323721105827600,0.76082763671875,7.977072715759277,3.4857444763183594,2.8704898357391357
1789323721124678000,0.779677978515625,7.041179656982422,2.8513472080230713,3.459423303604126
1789323721143528000,0.79852783203125,6.2892351150512695,2.5785655975341797,3.4881372451782227
1789323721162378000,0.8173779296875,5.396413326263428,2.4323041439056396,2.966202735900879
1789323721181228300,0.836228271484375,5.214259624481201,2.5016961097717285,2.1308085918426514
1789323721200078300,0.855078369140625,6.303592205047607,2.9614171981811523,1.6016956567764282
1789323721218928600,0.8739287109375,7.086643218994141,2.8154549598693848,1.1419745683670044
1789323721237778700,0.89277880859375,7.675576686859131,2.39401912689209,0.6822535395622253
1789323721256628700,0.911628662109375,7.440781116485596,2.2241287231445312,0.13878370821475983
1789323721275479000,0.93047900390625,6.524031162261963,2.0231316089630127,-0.02392822690308094
1789323721294329000,0.9493291015625,6.294020652770996,1.8744773864746094,-0.15553347766399384
1789323721313179100,0.96817919921875,6.7896342277526855,1.6447664499282837,-0.5865406394004822
1789323721332029400,0.987029541015625,9.020941734313965,1.434198021888733,-0.9720842242240906
1789323721350879500,1.00587939453125,10.481460571289062,0.9625129103660583,-1.2448660135269165
1789323721369729500,1.0247294921875,10.687243461608887,0.24406790733337402,-1.5251253843307495
1789323721388579800,1.043579833984375,9.916455268859863,-0.5075774788856506,-1.8266209363937378
1789323721407430000,1.062429931640625,8.812766075134277,-1.0845468044281006,-2.2025933265686035
1789323721426280200,1.0812802734375,7.895716667175293,-1.3884353637695312,-2.645564556121826
1789323721445130200,1.100130126953125,7.5774712562561035,-2.080559253692627,-2.841775894165039
1789323721463980300,1.118980224609375,7.922037601470947,-2.8752756118774414,-2.9542386531829834
1789323721482830600,1.13783056640625,8.803194046020508,-3.497708559036255,-3.1746773719787598
1789323721501680600,1.1566806640625,9.593125343322754,-4.179962158203125,-2.738884687423706
1789323721520530700,1.17553076171875,10.069596290588379,-5.006083965301514,-3.4498519897460938
1789323721539381000,1.194381103515625,10.244272232055664,-5.063511848449707,-5.346164226531982
1789323721558231000,1.21323095703125,10.375877380371094,-5.32911491394043,-6.859025955200195
1789323721577081300,1.232081298828125,9.667302131652832,-6.016453266143799,-8.43440055847168
1789323721605356500,1.2603564453125,9.174081802368164,-6.6939215660095215,-10.165308952331543
1789323721624206600,1.27920654296875,9.581160545349121,-6.921239376068115,-10.92891788482666
1789323721643057000,1.298056884765625,9.068798065185547,-6.238986015319824,-11.022537231445312
1789323721661907000,1.316906982421875,9.439984321594238,-5.978168487548828,-10.71117115020752
1789323721680757000,1.335757080078125,11.74307632446289,-4.362115859985352,-10.265807151794434
1789323721699607300,1.354607177734375,11.972786903381348,-3.3278181552886963,-11.065608024597168
1789323721718457300,1.373457275390625,11.264212608337402,-2.731706142425537,-12.221940040588379
1789323721737307600,1.3923076171875,10.27059268951416,-1.922333836555481,-12.078370094299316
1789323721756157700,1.41115771484375,8.594719886779785,-1.1204391717910767,-10.251450538635254
1789323721775008000,1.430008056640625,8.106285095214844,-0.5195416212081909,-7.323532581329346
1789323721793858000,1.448858154296875,7.579864025115967,-0.36640095710754395,-5.8582282066345215
1789323721812708400,1.467708251953125,6.296413898468018,-0.8258228898048401,-5.334199905395508
1789323721831558400,1.486558349609375,4.939085006713867,-1.3908281326293945,-5.286044120788574
1789323721850408700,1.50540869140625,3.967000722885132,-2.513660192489624,-5.819942951202393
1789323721869258800,1.5242587890625,3.8545382022857666,-3.342175006866455,-7.45992374420166
1789323721888109000,1.543109130859375,3.4163525104522705,-3.7827534675598145,-7.419245719909668
1789323721916384300,1.57138427734375,3.090928554534912,-4.658825874328613,-6.835097789764404
1789323721935234300,1.590234375,2.6240291595458984,-5.879763603210449,-6.401698112487793
1789323721954084600,1.609084716796875,3.0810582637786865,-6.145665645599365,-5.884549140930176
1789323721972934700,1.6279345703125,4.172783374786377,-4.946263313293457,-4.970191955566406
1789323721991785000,1.646784912109375,4.572684288024902,-4.773980140686035,-2.379662036895752
1789323722010635000,1.665635009765625,4.196712017059326,-6.646064758300781,-1.220937728881836
1789323722029485300,1.6844853515625,3.1316065788269043,-8.386544227600098,-1.9752750396728516
1789323722048335400,1.70333544921875,2.6264219284057617,-10.57956600189209,-3.9550366401672363
1789323722067185700,1.722185546875,1.9366908073425293,-12.604791641235352,-9.044869422912598
1789323722086035700,1.74103564453125,2.159522533416748,-13.050155639648438,-10.948360443115234
1789323722104886000,1.759885986328125,3.2129626274108887,-13.866705894470215,-7.1249284744262695
1789323722123736000,1.778736083984375,3.3230323791503906,-14.345569610595703,-3.6125640869140625
1789323722142586400,1.79758642578125,3.6460635662078857,-14.551352500915527,-2.674278497695923
1789323722161436400,1.8164365234375,3.514458179473877,-14.558530807495117,-2.535494804382324
1789323722180286700,1.83528662109375,3.05234432220459,-14.251951217651367,-2.4466612339019775
1789323722199136800,1.85413671875,2.9805595874786377,-13.466805458068848,-2.4466612339019775
1789323722217987000,1.872987060546875,2.8776683807373047,-12.751052856445312,-2.0470597743988037
1789323722236837000,1.891837158203125,2.8704898357391357,-11.793325424194336,-1.7404793500900269
1789323722255687400,1.9106875,0.29700911045074463,-11.335997581481934,-2.5929224491119385
1789323722274537500,1.929537353515625,0.9649057388305664,-10.625029563903809,-4.3070807456970215
1789323722293387800,1.9483876953125,1.7165511846542358,-9.794121742248535,-5.860620975494385
1789323722312237800,1.96723779296875,1.6806588172912598,-9.157332420349121,-7.244569778442383
1789323722331088100,1.986088134765625,0.7564310431480408,-8.472685813903809,-8.350651741027832
1789323722349938200,2.004938232421875,2.777169704437256,-6.945167541503906,-8.372187614440918
1789323722368788500,2.02378857421875,3.037987470626831,-5.7409796714782715,-8.429615020751953
1789323722387638500,2.042638427734375,0.3735794425010681,-5.085047245025635,-9.959526062011719
1789323722406488800,2.06148876953125,4.203890323638916,-3.263211965560913,-9.147761344909668
1789323722425339000,2.0803388671875,5.104189872741699,-2.2600209712982178,-8.937192916870117
1789323722444189200,2.099189208984375,4.093820571899414,-1.9824535846710205,-10.347163200378418
1789323722463039200,2.118039306640625,4.179962158203125,-1.800299882888794,-9.763015747070312
1789323722481889500,2.1368896484375,4.148855209350586,-2.0757737159729004,-9.542876243591309
1789323722500739800,2.15573974609375,4.010071754455566,-2.001596212387085,-10.601101875305176
1789323722519590000,2.17458984375,4.60139799118042,-2.564208507537842,-6.660421848297119
1789323722538440200,2.193440185546875,5.104189872741699,-2.604886531829834,-3.6631124019622803
1789323722557290200,2.212290283203125,5.195116996765137,-4.256831645965576,-1.659123420715332
1789323722576140500,2.231140625,6.495316982269287,-5.731408596038818,-1.4581263065338135
1789323722594990600,2.249990478515625,8.077570915222168,-5.108975410461426,-2.7652056217193604
1789323722613841000,2.2688408203125,8.812766075134277,-6.384948253631592,-4.252045631408691
1789323722632691000,2.28769091796875,6.564708709716797,-7.132106781005859,-5.2645087242126465
1789323722651541200,2.306541259765625,5.209474086761475,-9.399306297302246,-6.787241458892822
1789323722670391600,2.3253916015625,5.461019515991211,-9.842277526855469,-7.189534664154053
1789323722689241600,2.34424169921875,5.899205207824707,-8.970691680908203,-6.569494724273682
1789323722708092000,2.363091796875,5.815157413482666,-7.77607536315918,-5.611767292022705
1789323722726942000,2.38194189453125,6.073881149291992,-6.854240417480469,-5.846263885498047
1789323722745792300,2.400792236328125,6.555137634277344,-5.743372440338135,-6.22702169418335
1789323722764642300,2.419642333984375,6.457031726837158,-4.7835516929626465,-6.451947212219238
1789323722783492600,2.43849267578125,6.1695942878723145,-4.369294166564941,-7.388139247894287
1789323722802342700,2.4573427734375,5.317151069641113,-4.29033088684082,-6.744170665740967
1789323722821193000,2.47619287109375,5.84865665435791,-3.88803768157959,-4.383651256561279
1789323722840043300,2.495043212890625,6.507281303405762,-3.0236306190490723,-3.617349624633789
1789323722858893300,2.513893310546875,7.069893836975098,-2.5713870525360107,-3.5503506660461426
1789323722877743600,2.53274365234375,6.715456962585449,-2.8298118114471436,-3.849752426147461
1789323722896593700,2.55159375,6.732206344604492,-3.07627272605896,-3.691826343536377
1789323722915444000,2.57044384765625,6.495316982269287,-3.57906436920166,-4.673182487487793
1789323722934294000,2.5892939453125,6.277271270751953,-4.172783374786377,-6.1241302490234375
1789323722953144300,2.608144287109375,6.686742782592773,-4.505684852600098,-6.722635269165039
1789323722971994600,2.62699462890625,7.022037029266357,-4.67078971862793,-6.780063152313232
1789323722990844700,2.6458447265625,6.7178497314453125,-5.108975410461426,-6.964310169219971
1789323723009695000,2.664695068359375,6.006882190704346,-5.6859450340271,-7.6253275871276855
1789323723028545000,2.683544921875,5.262115955352783,-5.923133373260498,-8.31715202331543
1789323723047395300,2.702395263671875,5.702694416046143,-5.592624664306641,-7.627720355987549
1789323723066245600,2.72124560546875,5.097011566162109,-4.565505504608154,-6.8279194831848145
1789323723085095700,2.740095703125,5.365306377410889,-3.0667014122009277,-6.238986015319824
1789323723103946000,2.758946044921875,4.266402721405029,-1.537089467048645,-5.899205207824707
1789323723122796300,2.77779638671875,4.553541660308838,0.05742774158716202,-5.202295303344727
1789323723141646300,2.796646240234375,4.584648132324219,1.4222339391708374,-4.53200626373291
1789323723160496600,2.81549658203125,3.8234314918518066,1.2592228651046753,-3.1028928756713867
1789323723179346700,2.8343466796875,3.2201411724090576,-0.6367899179458618,-1.695015788078308
1789323723198197000,2.853197021484375,2.942274570465088,-3.8832521438598633,-1.8026927709579468
1789323723217047000,2.872047119140625,0.8715856671333313,-7.816753387451172,-4.268795490264893
1789323723235897300,2.8908974609375,3.239283561706543,-11.417353630065918,-6.449554443359375
1789323723254747600,2.90974755859375,3.569493293762207,-13.694124221801758,-10.083952903747559
1789323723273597700,2.92859765625,4.026821613311768,-15.202499389648438,-10.744670867919922
1789323723292448000,2.947447998046875,3.6340994834899902,-14.96561050415039,-8.432007789611816
1789323723311298000,2.966298095703125,2.9949166774749756,-14.127524375915527,-6.365805625915527
1789323723330148400,2.9851484375,3.0643084049224854,-12.334402084350586,-5.709873199462891
1789323723348998700,3.00399853515625,3.284747362136841,-10.873883247375488,-5.937490463256836
1789323723367848700,3.0228486328125,4.0818562507629395,-11.388639450073242,-5.587839126586914
1789323723386699000,3.041698974609375,4.5200419425964355,-12.063714027404785,-5.25972318649292
1789323723405549300,3.06054931640625,4.280759811401367,-11.087143898010254,-4.759324073791504
1789323723424399400,3.0793994140625,2.9781668186187744,-9.478269577026367,-3.9789650440216064
1789323723443249700,3.098249755859375,1.8696918487548828,-7.340282440185547,-3.7181472778320312
1789323723462099700,3.117099609375,2.0303099155426025,-4.709074974060059,-3.3278181552886963
1789323723480950000,3.135949951171875,7.182356357574463,-4.826622486114502,-1.5083755254745483
1789323723499800300,3.15480029296875,8.305188179016113,-4.790729999542236,-5.9422760009765625
1789323723518650400,3.173650390625,7.833503246307373,1.0534402132034302,-6.279664039611816
1789323723537500700,3.192500732421875,3.2440693378448486,3.7851462364196777,-7.254140853881836
1789323723556350700,3.211350830078125,7.177570819854736,-1.2472587823867798,-3.3756744861602783
1789323723575201000,3.230200927734375,9.985847473144531,-3.200998544692993,-2.489732027053833
1789323723594051300,3.24905126953125,6.160022735595703,-10.29452133178711,-2.0207388401031494
1789323723612901400,3.2679013671875,7.675576686859131,-14.32882022857666,-7.658827304840088
1789323723631751700,3.286751708984375,11.178071022033691,-14.69492244720459,-8.66889762878418
1789323723650601700,3.305601806640625,8.585148811340332,-8.20947551727295,-8.906085968017578
1789323723669452000,3.3244521484375,9.435198783874512,-12.458828926086426,-3.555136203765869
1789323723688302300,3.34330224609375,9.89970588684082,-14.32164192199707,-5.353342533111572
1789323723707152400,3.36215234375,20.129619598388672,-2.4538395404815674,-4.4650068283081055
1789323723726002700,3.381002685546875,-1.0055837631225586,-12.597613334655762,-13.629517555236816
1789323723744853000,3.39985302734375,6.255735874176025,-8.810373306274414,-5.954239845275879
1789323723763703000,3.418703125,6.162415504455566,-11.070393562316895,1.6016956567764282
1789323723782553300,3.43755322265625,5.13529634475708,-11.13021469116211,6.8279194831848145
1789323723801403400,3.4564033203125,4.960620403289795,-3.569493293762207,3.684647798538208
1789323723820253700,3.475253662109375,9.849455833435059,-8.707481384277344,5.25254487991333
1789323723839104000,3.49410400390625,5.334199905395508,-1.9438693523406982,6.167201042175293
1789323723857954000,3.5129541015625,3.8832521438598633,8.872586250305176,3.088535785675049
1789323723886229500,3.5412294921875,6.018846035003662,1.220937728881836,-0.05024927482008934
1789323723905079600,3.56007958984375,7.843074321746826,-4.34536600112915,-0.9529415965080261
1789323723923929900,3.578929931640625,5.923133373260498,-3.4642090797424316,-2.410768747329712
1789323723942780200,3.5977802734375,6.916453838348389,-2.645564556121826,-1.8242281675338745
1789323723961630200,3.616630126953125,9.478269577026367,-1.7620147466659546,0.3568296730518341
1789323723980480500,3.63548046875,9.27009391784668,-3.05234432220459,-0.46450668573379517
1789323723999330800,3.654330810546875,7.084250450134277,-3.4235310554504395,0.41186460852622986
1789323724018180900,3.673180908203125,8.475078582763672,-3.315854072570801,1.5203397274017334
1789323724037031200,3.69203125,7.646862983703613,-2.386840581893921,2.6551358699798584
1789323724055881200,3.710881103515625,6.476174354553223,-1.4820544719696045,0.7995018362998962
1789323724074731500,3.7297314453125,6.68435001373291,-0.6822535395622253,0.09810572862625122
1789323724093581800,3.748581787109375,7.301997184753418,0.24646073579788208,0.16510476171970367
1789323724112431900,3.767431884765625,6.926024913787842,0.062213387340307236,-0.6990033388137817
1789323724131282200,3.7862822265625,6.7896342277526855,-0.368793785572052,-0.1818545162677765
1789323724150132500,3.805132568359375,7.99382209777832,-2.0518453121185303,-1.2352946996688843
1789323724168982500,3.823982421875,9.576375007629395,-5.358128070831299,-2.166700839996338
1789323724187832800,3.842832763671875,8.64496898651123,-7.914859294891357,-1.922333836555481
1789323724206683000,3.861682861328125,8.063214302062988,-9.633803367614746,-0.8428717851638794
1789323724225533200,3.880533203125,7.007380962371826,-9.878170013427734,0.30179476737976074
1789323724244383500,3.899383544921875,6.768098831176758,-8.910871505737305,0.1339980661869049
1789323724263233500,3.918233642578125,6.722635269165039,-7.661220073699951,1.450947880744934
1789323724282083800,3.937083740234375,8.11824893951416,-7.426424026489258,3.098107099533081
1789323724300934100,3.95593408203125,8.563612937927246,-8.338687896728516,3.0020952224731445
1789323724319784200,3.9747841796875,8.52772045135498,-8.374580383300781,1.8864415884017944
1789323724338634500,3.993634521484375,7.9005022048950195,-9.198010444641113,1.0271191596984863
1789323724357484800,4.01248486328125,6.0762739181518555,-10.730314254760742,2.2169501781463623
1789323724376334800,4.0313349609375,5.714658737182617,-10.68245792388916,3.442673683166504
1789323724395185200,4.05018505859375,5.872584819793701,-9.325128555297852,2.5160529613494873
1789323724414035200,4.06903515625,4.029214382171631,-9.016156196594238,2.183450698852539
1789323724432885500,4.087885498046875,4.797908306121826,-9.186046600341797,2.841775894165039
1789323724451735800,4.10673583984375,4.254438877105713,-9.09272575378418,3.5814573764801025
1789323724470585900,4.1255859375,5.4418768882751465,-8.796015739440918,3.569493293762207
1789323724489436200,4.144436279296875,6.181558132171631,-9.075976371765137,2.7963123321533203
1789323724508286200,4.1632861328125,6.081059455871582,-8.93240737915039,1.7309080362319946
1789323724527136500,4.182136474609375,5.554339408874512,-8.530113220214844,1.2113664150238037
1789323724545986800,4.20098681640625,4.651647090911865,-8.499007225036621,0.9984052777290344
1789323724564836900,4.2198369140625,4.146462440490723,-9.049654960632324,1.4365909099578857
1789323724583687200,4.238687255859375,3.890430450439453,-9.253045082092285,2.557030200958252
1789323724602537500,4.257537353515625,4.862514495849609,-9.205188751220703,2.865704298019409
1789323724621387500,4.276387451171875,6.298806667327881,-8.925228118896484,2.7652056217193604
1789323724640237800,4.29523779296875,7.215855598449707,-8.66171932220459,2.2671995162963867
1789323724659088000,4.314087890625,7.977072715759277,-8.470293045043945,0.9122636318206787
1789323724677938200,4.332938232421875,7.550850868225098,-8.20229721069336,0.5650052428245544
1789323724696788500,4.35178857421875,7.043572425842285,-7.618149280548096,0.4621138870716095
1789323724715638500,4.370638427734375,6.73938512802124,-6.964310169219971,0.4501497745513916
1789323724734488800,4.38948876953125,6.73938512802124,-6.751348972320557,0.20817556977272034
1789323724753339100,4.408339111328125,6.945167541503906,-7.347461223602295,-0.30658039450645447
1789323724772189200,4.427189208984375,7.392924785614014,-7.914859294891357,-0.12921242415905
1789323724791039500,4.44603955078125,7.491030216217041,-8.113463401794434,-0.35922250151634216
1789323724809889500,4.4648896484375,7.766504287719727,-8.561220169067383,0.18424734473228455
1789323724828739800,4.48373974609375,7.945965766906738,-8.036892890930176,0.35922250151634216
1789323724847590100,4.502590087890625,7.680362701416016,-6.935596466064453,0.4046861231327057
1789323724866440200,4.521440185546875,7.479066371917725,-5.997310638427734,0.6678966283798218
1789323724885290500,4.54029052734375,8.388936996459961,-5.094618320465088,0.27038896083831787
1789323724913565700,4.568565673828125,10.095916748046875,-6.823133945465088,1.3453645706176758
1789323724932416000,4.587416015625,9.825528144836426,-7.864609718322754,2.2265214920043945
1789323724951266300,4.606266357421875,7.771289825439453,-6.894918441772461,2.7364916801452637
1789323724970116600,4.62511669921875,6.488138675689697,-4.898406982421875,0.8548358678817749
1789323724988966700,4.643966552734375,7.089035987854004,-4.191926002502441,-0.08614161610603333
1789323725007817000,4.66281689453125,7.4001030921936035,-3.2895328998565674,0.22971096634864807
1789323725026667000,4.6816669921875,6.586244106292725,-2.420340061187744,0.6343970894813538
1789323725045517300,4.700517333984375,4.850550651550293,-1.4605190753936768,0.6559324860572815
1789323725064367600,4.71936767578125,5.226223945617676,-1.2759727239608765,0.5841478109359741
1789323725083217700,4.7382177734375,6.832705020904541,-0.3209373354911804,1.5945172309875488
1789323725102068000,4.75706787109375,6.868597507476807,-0.9553344249725342,1.3525429964065552
1789323725120918300,4.775918212890625,6.4304118156433105,-1.5346965789794922,1.8744773864746094
1789323725139768300,4.794768310546875,8.173583030700684,-1.9127626419067383,0.9290133714675903
1789323725158618600,4.81361865234375,8.123034477233887,-2.255235433578491,1.0582258701324463
1789323725177468700,4.83246875,8.786444664001465,-1.8601205348968506,0.04546362906694412
1789323725196319000,4.851319091796875,8.992227554321289,-3.1627132892608643,-0.37597227096557617
1789323725215169300,4.870169189453125,9.087940216064453,-2.746062994003296,0.4262215197086334
1789323725234019300,4.889019287109375,9.3490571975708,-1.8553348779678345,-0.4812564551830292
1789323725252869600,4.90786962890625,8.894122123718262,-2.0207388401031494,-0.9936196208000183
1789323725271720000,4.926719970703125,8.52054214477539,-2.059023857116699,-1.2903295755386353
1789323725290570000,4.945570068359375,8.245368003845215,-2.6192433834075928,-1.2616157531738281
1789323725318845400,4.973845458984375,8.286046028137207,-3.5336008071899414,-0.643968403339386
1789323725337695500,4.992695556640625,7.060322284698486,-4.328616142272949,-0.8739784955978394
1789323725356545800,5.0115458984375,6.057131290435791,-6.059524059295654,0.10767702013254166
1789323725375395800,5.030395751953125,5.3940205574035645,-6.509674072265625,1.3621143102645874
1789323725394246100,5.04924609375,5.4418768882751465,-5.935097694396973,1.654337763786316
1789323725413096400,5.068096435546875,6.81595516204834,-5.5758748054504395,1.7117655277252197
1789323725431946500,5.086946533203125,7.599006652832031,-5.884549140930176,1.6495521068572998
1789323725450796800,5.105796875,7.1871418952941895,-7.2182488441467285,1.201795220375061
1789323725469647000,5.124647216796875,6.966702938079834,-8.958727836608887,1.4533406496047974
1789323725488497200,5.1434970703125,6.464210510253906,-10.378270149230957,1.7715860605239868
1789323725507347500,5.162347412109375,6.713063716888428,-11.211570739746094,2.8776683807373047
1789323725526197500,5.181197509765625,7.536494255065918,-11.580364227294922,3.959822416305542
1789323725545047800,5.2000478515625,7.9866437911987305,-11.879467010498047,3.5479576587677
1789323725563898000,5.218898193359375,6.806384086608887,-11.101500511169434,2.334198474884033
1789323725582748200,5.237748046875,6.329913139343262,-9.169296264648438,1.7620147466659546
1789323725601598500,5.256598388671875,6.650850772857666,-7.709076404571533,2.042274236679077
1789323725620448500,5.275448486328125,6.9475603103637695,-7.785646915435791,2.4538395404815674
1789323725639298800,5.294298828125,6.504888534545898,-8.68325424194336,2.8896324634552
1789323725658149000,5.313149169921875,6.3753767013549805,-9.392127990722656,1.9680966138839722
1789323725676999200,5.331999267578125,6.224628925323486,-9.020941734313965,1.934298038482666
1789323725695849500,5.350849365234375,5.647659778594971,-9.169296264648438,2.3198416233062744
1789323725714699800,5.36969970703125,4.850550651550293,-9.461520195007324,3.2967114448547363
1789323725733549800,5.3885498046875,4.6995038986206055,-9.109476089477539,3.3948171138763428
1789323725752400100,5.407400146484375,5.24536657333374,-8.745766639709473,2.3988046646118164
1789323725771250200,5.426250244140625,5.590231895446777,-8.604290962219238,1.6423736810684204
1789323725790100500,5.4451005859375,6.045167446136475,-8.709874153137207,1.2759727239608765
1789323725808950500,5.463950439453125,6.332305908203125,-8.80798053741455,1.2759727239608765
1789323725827800800,5.48280078125,6.748956203460693,-8.343473434448242,0.9385846853256226
1789323725846651100,5.501651123046875,6.930810928344727,-7.603792190551758,1.4365909099578857
1789323725865501200,5.520501220703125,7.2589263916015625,-7.1010003089904785,1.3022937774658203
1789323725884351500,5.5393515625,7.167999267578125,-7.261319637298584,0.4788636267185211
1789323725903201800,5.558201904296875,6.55992317199707,-8.02492904663086,-0.02153540402650833
1789323725922051800,5.5770517578125,6.837490558624268,-7.634898662567139,0.24646073579788208
1789323725940902100,5.595902099609375,7.380960464477539,-7.194320201873779,0.5362913608551025
1789323725959752200,5.614752197265625,7.409674644470215,-8.12542724609375,1.252044439315796
1789323725978602500,5.6336025390625,8.207082748413086,-7.666005611419678,1.2113664150238037
1789323725997452800,5.652452880859375,8.522934913635254,-7.479066371917725,1.5777673721313477
1789323726016302800,5.671302734375,8.82233715057373,-6.49770975112915,1.3836497068405151
1789323726035153200,5.690153076171875,9.265308380126953,-5.209474086761475,1.0103694200515747
1789323726054003500,5.70900341796875,9.013762474060059,-4.6061835289001465,0.5075774788856506
1789323726072853500,5.727853515625,7.325925827026367,-4.486542224884033,0.48364928364753723
1789323726091703800,5.746703857421875,6.198307991027832,-3.1004998683929443,0.18424734473228455
1789323726110553900,5.765553955078125,6.916453838348389,-3.129213809967041,-0.6726822853088379
1789323726129404200,5.784404052734375,7.4862446784973145,-4.089034557342529,-0.3233301639556885
1789323726148254500,5.80325439453125,6.557530403137207,-3.943072557449341,0.7396813035011292
1789323726167104500,5.8221044921875,6.449554443359375,-2.6096723079681396,1.6399807929992676
1789323726185954800,5.840954833984375,5.810371398925781,-2.4993033409118652,1.812264084815979
1789323726204805000,5.85980517578125,7.704290866851807,-0.701396107673645,2.1571295261383057
1789323726223655200,5.8786552734375,9.52612590789795,0.0023928226437419653,1.843370795249939
1789323726242505500,5.89750537109375,7.855038642883301,-1.4365909099578857,-0.10049854964017868
1789323726261355500,5.91635546875,7.562815189361572,-1.446162223815918,-0.48843491077423096
1789323726280205800,5.935205810546875,9.774979591369629,-1.1850453615188599,0.3041875660419464
1789323726299056000,5.95405615234375,8.908478736877441,-3.224926710128784,-0.37597227096557617
1789323726317906200,5.97290625,7.747361660003662,-2.2887349128723145,-0.12921242415905
1789323726336756500,5.991756591796875,7.4862446784973145,-3.232105255126953,-0.31854450702667236
1789323726355606500,6.0106064453125,5.819942951202393,-3.5336008071899414,0.3616153299808502
1789323726374456800,6.029456787109375,5.886941909790039,-2.760420083999634,0.45972105860710144
1789323726393307100,6.04830712890625,6.277271270751953,-1.7596219778060913,1.074975609779358
1789323726412157200,6.0671572265625,6.372983932495117,-1.012762188911438,0.7995018362998962
1789323726431007500,6.086007568359375,7.230212688446045,-1.1539387702941895,0.26081767678260803
1789323726449857800,6.10485791015625,9.061619758605957,-1.994417667388916,-0.6583253145217896
1789323726468707800,6.123707763671875,8.496614456176758,-3.801896095275879,-1.8529419898986816
1789323726487558100,6.14255810546875,7.110571384429932,-6.887740135192871,-1.8026927709579468
1789323726506408200,6.161408203125,7.634898662567139,-9.090332984924316,0.38793638348579407
1789323726525258500,6.180258544921875,8.994620323181152,-10.351948738098145,2.286342144012451
1789323726544108800,6.19910888671875,7.206284523010254,-11.302497863769531,4.100998878479004
1789323726562958800,6.217958740234375,6.473781585693359,-10.739885330200195,4.4482574462890625
1789323726581809200,6.23680908203125,6.057131290435791,-9.260522842407227,4.383651256561279
1789323726600659500,6.255659423828125,5.855835437774658,-7.998608112335205,3.1339993476867676
1789323726619509500,6.274509521484375,7.014858722686768,-7.017251491546631,1.6399807929992676
1789323726638359800,6.29335986328125,8.266902923583984,-7.232605457305908,0.893121063709259
1789323726657209900,6.3122099609375,7.797610759735107,-8.992227554321289,0.9361918568611145
1789323726676060200,6.33106005859375,6.73938512802124,-11.527722358703613,1.2113664150238037
1789323726694910500,6.349910400390625,6.246164321899414,-12.858729362487793,1.7476578950881958
1789323726713760500,6.368760498046875,6.143272876739502,-10.878668785095215,3.7683966159820557
1789323726732610800,6.38761083984375,5.712265968322754,-8.884550094604492,4.429114818572998
1789323726751460900,6.4064609375,5.760122299194336,-7.414460182189941,3.5718860626220703
1789323726770311200,6.425311279296875,4.924727916717529,-7.0770721435546875,2.4059832096099854
1789323726789161500,6.444161376953125,5.0347981452941895,-6.823133945465088,1.8170497417449951
1789323726808011500,6.463011474609375,5.377270698547363,-7.630113124847412,1.5346965789794922
1789323726826861800,6.48186181640625,5.815157413482666,-8.697610855102539,2.372483730316162
1789323726864562200,6.519562255859375,6.384948253631592,-9.09990406036377,2.496910333633423
1789323726883412500,6.53841259765625,6.605386734008789,-8.496614456176758,1.807478427886963
1789323726902262500,6.557262451171875,6.732206344604492,-8.367402076721191,1.1324033737182617
1789323726921112800,6.57611279296875,6.866204738616943,-8.417651176452637,1.1252248287200928
1789323726939963100,6.594963134765625,7.3283185958862305,-8.424829483032227,1.4198411703109741
1789323726958813200,6.613813232421875,7.752147197723389,-8.489435195922852,1.80508553981781
1789323726977663500,6.63266357421875,8.00100040435791,-8.623434066772461,1.5203397274017334
1789323726996513500,6.651513427734375,7.7353973388671875,-8.376973152160645,1.1802598237991333
1789323727015363800,6.67036376953125,7.299604415893555,-7.627720355987549,1.074975609779358
1789323727034214100,6.689214111328125,7.072286605834961,-7.3043904304504395,0.8715856671333313
1789323727053064200,6.708064208984375,7.177570819854736,-6.818347930908203,0.7420741319656372
1789323727071914500,6.72691455078125,7.642077445983887,-6.461817741394043,0.368793785572052
1789323727090764500,6.7457646484375,7.778468132019043,-6.296413898468018,0.10767702013254166
1789323727109614800,6.76461474609375,8.522934913635254,-6.248557090759277,0.5697908997535706
1789323727128465200,6.783465087890625,8.65214729309082,-5.461019515991211,0.8715856671333313
1789323727147315200,6.802315185546875,8.405686378479004,-4.776372909545898,1.8553348779678345
1789323727166165500,6.82116552734375,7.354639530181885,-4.618147850036621,2.173879384994507
1789323727185015600,6.840015625,6.353841304779053,-4.4410786628723145,1.8385851383209229
1789323727203865900,6.858865966796875,7.744968891143799,-4.776372909545898,0.6559324860572815
1789323727222716200,6.877716064453125,9.444769859313965,-5.080261707305908,1.4940186738967896
1789323727241566200,6.896566162109375,9.190832138061523,-3.9813578128814697,1.9055840969085693
1789323727260416500,6.91541650390625,6.509674072265625,-2.5689942836761475,1.2089736461639404
1789323727279266800,6.934266845703125,5.800800323486328,-1.8577276468276978,0.7875377535820007
1789323727298116900,6.953116943359375,7.2182488441467285,-0.8668000102043152,1.5227324962615967
1789323727316967200,6.97196728515625,7.969893932342529,-0.8162516355514526,1.4557334184646606
1789323727335817200,6.990817138671875,7.981858253479004,-1.6926229000091553,1.0247262716293335
1789323727354667500,7.00966748046875,6.86381196975708,-2.6575286388397217,-0.11246266216039658
1789323727373517600,7.028517578125,6.279664039611816,-2.2576282024383545,0.5721837282180786
1789323727392367900,7.047367919921875,7.357032299041748,-0.9481559991836548,1.2903295755386353
1789323727411218200,7.06621826171875,6.562315940856934,-1.0079765319824219,0.27038896083831787
1789323727430068200,7.085068115234375,5.784050464630127,-1.0701899528503418,0.23210379481315613
1789323727448918500,7.10391845703125,6.782455921173096,-0.5147559642791748,0.16271193325519562
1789323727467768600,7.1227685546875,8.338687896728516,-0.6942176818847656,-0.5578267574310303
1789323727486619000,7.141618896484375,8.597112655639648,-1.7356936931610107,-0.9601200819015503
1789323727505469200,7.16046923828125,8.930013656616211,-2.8848466873168945,-0.4453641176223755
1789323727524319200,7.1793193359375,8.71226692199707,-4.393222332000732,-0.5434698462486267
1789323727543169500,7.19816943359375,8.369794845581055,-5.925526142120361,-0.49322056770324707
1789323727562019600,7.21701953125,7.902894973754883,-7.697112083435059,0.2994019389152527
1789323727580870000,7.235869873046875,7.158428192138672,-8.44157886505127,1.220937728881836
1789323727599720200,7.25472021484375,6.358626842498779,-7.254140853881836,1.8026927709579468
1789323727618570200,7.2735703125,7.692326545715332,-5.923133373260498,1.6615161895751953
1789323727637420500,7.292420654296875,8.247760772705078,-5.7888360023498535,1.3908281326293945
1789323727656270600,7.3112705078125,7.685148239135742,-6.2892351150512695,0.8620143532752991
1789323727675121000,7.330120849609375,6.760920524597168,-7.795217990875244,0.4214358925819397
1789323727693971000,7.348970947265625,6.133701801300049,-9.485447883605957,0.8282157182693481
1789323727712821200,7.3678212890625,5.729015827178955,-10.055238723754883,1.9319051504135132
1789323727731671600,7.386671630859375,6.461817741394043,-9.837491989135742,3.3278181552886963
1789323727750521600,7.405521484375,6.569494724273682,-9.645767211914062,4.089034557342529
1789323727769372000,7.424371826171875,5.195116996765137,-12.494721412658691,3.7348971366882324
1789323727788222000,7.443221923828125,5.556732177734375,-10.670493125915527,3.6631124019622803
1789323727807072300,7.462072265625,7.1871418952941895,-7.388139247894287,3.468994617462158
1789323727825922300,7.48092236328125,8.884550094604492,-8.067999839782715,3.2344980239868164
1789323727844772600,7.499772705078125,6.7896342277526855,-10.574780464172363,4.390829563140869
1789323727863622700,7.51862255859375,5.24536657333374,-9.90688419342041,3.4307093620300293
1789323727882473000,7.537472900390625,5.398806095123291,-7.749754428863525,3.2033913135528564
1789323727901323300,7.5563232421875,5.889334678649902,-8.796015739440918,1.7572290897369385
1789323727920173300,7.57517333984375,2.6886353492736816,-11.34078311920166,0.8306085467338562
1789323727939023600,7.594023681640625,4.814658164978027,-9.763015747070312,-0.5721837282180786
1789323727957873700,7.612873779296875,5.6931233406066895,-6.583851337432861,1.2281162738800049
1789323727976724000,7.631723876953125,5.063511848449707,-5.614160060882568,1.5418751239776611
1789323727995574000,7.650573974609375,5.173581600189209,-6.591030120849609,1.4198411703109741
1789323728014424300,7.66942431640625,6.722635269165039,-8.130212783813477,1.2544373273849487
1789323728033274600,7.688274658203125,6.937989234924316,-6.370591163635254,2.7652056217193604
1789323728052124700,7.707124755859375,5.903990745544434,-8.039285659790039,3.1579277515411377
1789323728070975000,7.72597509765625,9.406484603881836,-6.394519329071045,3.02123761177063
1789323728089825000,7.744824951171875,7.1799635887146,-7.740182876586914,0.20338992774486542
1789323728108675300,7.76367529296875,7.316354274749756,-8.446364402770996,-2.6072793006896973
1789323728127525400,7.782525390625,7.804789066314697,-6.861418724060059,-4.309473514556885
1789323728146375700,7.801375732421875,7.5942206382751465,-9.92841911315918,-4.4243292808532715
1789323728165226000,7.82022607421875,8.554041862487793,-7.862216949462891,-4.78594446182251
1789323728184076000,7.839075927734375,8.997013092041016,-7.550850868225098,-4.548755645751953
1789323728202926300,7.85792626953125,10.222736358642578,-6.81595516204834,-5.8749775886535645
1789323728221776400,7.8767763671875,10.90738296508789,-4.481756687164307,-3.3134610652923584
1789323728240626700,7.895626708984375,9.404091835021973,-3.840181350708008,-0.766002357006073
1789323728259476700,7.914476806640625,6.930810928344727,-4.194318771362305,-1.55623197555542
1789323728278327000,7.9333271484375,4.912764072418213,-4.9893341064453125,-1.843370795249939
1789323728297177000,7.952177001953125,5.278865814208984,-6.119344711303711,-1.9872392416000366
1789323728316027400,7.97102734375,5.867799282073975,-4.7401814460754395,-1.0319048166275024
1789323728334877700,7.989877685546875,6.619743824005127,-4.213760852813721,0.5075774788856506
1789323728353727700,8.008727783203126,7.550850868225098,-2.8202404975891113,2.035095691680908
1789323728372578000,8.027578125,6.526423931121826,-4.098606109619141,0.43579283356666565
1789323728391428000,8.046427978515625,7.256533622741699,-3.224926710128784,-0.7636095285415649
1789323728410278400,8.0652783203125,8.556434631347656,-0.4142574071884155,-1.1635099649429321
1789323728429128400,8.08412841796875,9.734301567077637,-2.5761725902557373,-0.7109674215316772
1789323728447978800,8.102978759765625,7.843074321746826,-2.533101797103882,-3.1411778926849365
1789323728466828800,8.121828857421875,7.795217990875244,-3.5742788314819336,-2.4777679443359375
1789323728485679000,8.14067919921875,7.433602809906006,-5.254937648773193,-0.8979067206382751
1789323728504529200,8.159529052734374,5.6548380851745605,-3.418745279312134,0.08614161610603333
1789323728523379500,8.17837939453125,5.396413326263428,-2.049452543258667,0.9314061999320984
1789323728542229500,8.1972294921875,5.384449005126953,-1.036690354347229,0.014356935396790504
1789323728561079800,8.216079833984375,4.35254430770874,-1.5514464378356934,-1.781157374382019
1789323728579929900,8.234929931640625,5.678766250610352,-1.927119493484497,-0.5745765566825867
1789323728598780200,8.2537802734375,6.830312252044678,-2.2241287231445312,0.4405784606933594
1789323728617630200,8.272630126953125,6.411269187927246,-1.0271191596984863,-0.4214358925819397
1789323728636480500,8.29148046875,7.464709281921387,-1.6710875034332275,-2.449054002761841
1789323728655330800,8.310330810546875,9.305986404418945,-4.235296249389648,-2.753241539001465
1789323728674180900,8.329180908203124,9.449555397033691,-6.839883327484131,-4.656432628631592
1789323728693031200,8.34803125,7.6253275871276855,-7.878966808319092,-4.591826438903809
1789323728711881200,8.366881103515626,7.385746002197266,-9.966704368591309,-4.108177185058594
1789323728730731500,8.3857314453125,8.625826835632324,-10.37348461151123,-2.26959228515625
1789323728749581600,8.40458154296875,7.804789066314697,-9.176474571228027,-0.8955138921737671
1789323728768431900,8.423431884765625,6.071488380432129,-8.362615585327148,-0.7037889361381531
1789323728787282000,8.442281982421875,3.9239299297332764,-6.87816858291626,0.13878370821475983
1789323728806132200,8.46113232421875,5.642873764038086,-6.897311210632324,-2.8824539184570312
1789323728824982300,8.479982177734374,7.579864025115967,-8.518149375915527,-4.493721008300781
1789323728843832600,8.49883251953125,7.519744396209717,-10.747063636779785,-4.235296249389648
1789323728862682600,8.5176826171875,6.4594244956970215,-11.807682037353516,-4.759324073791504
1789323728881533000,8.536532958984376,5.709873199462891,-11.44845962524414,-4.110570430755615
1789323728900383000,8.555383056640625,6.806384086608887,-11.032109260559082,-2.9015965461730957
1789323728919233000,8.57423291015625,6.579065799713135,-11.745469093322754,-1.2424731254577637
1789323728938083300,8.593083251953125,6.794419765472412,-11.711969375610352,-1.6160526275634766
1789323728956933600,8.61193359375,6.2892351150512695,-10.239486694335938,-1.4796617031097412
1789323728975783700,8.63078369140625,6.191129684448242,-9.375378608703613,-2.087737798690796
1789323728994633700,8.6496337890625,5.571089267730713,-8.877371788024902,-2.0829520225524902
1789323729013484000,8.668484130859374,4.936692237854004,-8.180761337280273,-2.5112674236297607
1789323729032334000,8.687333984375,4.417150497436523,-7.536494255065918,-2.420340061187744
1789323729051184400,8.706184326171876,4.223331928253174,-6.6245293617248535,-1.9896320104599
1789323729070034400,8.725034423828125,5.041976451873779,-6.176772594451904,-1.8337994813919067
1789323729088884700,8.743884765625,6.305984973907471,-7.153642177581787,-2.786741018295288
1789323729107734800,8.76273486328125,7.435995578765869,-8.63779067993164,-2.5857439041137695
1789323729126585000,8.781585205078125,7.654041290283203,-10.210772514343262,-2.8920252323150635
1789323729145435100,8.80043505859375,7.481459140777588,-10.644172668457031,-3.7253258228302
1789323729164285400,8.819285400390624,7.220641613006592,-9.902098655700684,-3.653541088104248
1789323729183135500,8.838135498046874,7.141678333282471,-8.827122688293457,-3.524029493331909
1789323729201985800,8.85698583984375,6.9068827629089355,-7.514958381652832,-4.177569389343262
1789323729220835800,8.8758359375,6.873383045196533,-7.4479594230651855,-4.567898273468018
1789323729239686000,8.894685791015625,7.488637447357178,-6.3753767013549805,-2.7484560012817383
1789323729258536200,8.9135361328125,7.936394691467285,-4.819443702697754,-2.1332013607025146
1789323729277386200,8.93238623046875,7.2349982261657715,-5.049154758453369,-2.0303099155426025
1789323729296236500,8.951236572265625,6.971488952636719,-5.266901969909668,-2.2360928058624268
1789323729315086600,8.970086669921875,7.160820960998535,-5.800800323486328,-2.6168506145477295
1789323729333937000,8.98893701171875,7.668398380279541,-6.432804584503174,-2.5689942836761475
1789323729352787000,9.007786865234374,7.740182876586914,-6.4666032791137695,-2.276770830154419
1789323729371637200,9.02663720703125,7.249355316162109,-6.2653069496154785,-1.8792630434036255
1789323729390487300,9.0454873046875,7.311568737030029,-5.72422981262207,-2.513660192489624
1789323729409337300,9.06433740234375,8.903693199157715,-2.700599431991577,-1.843370795249939
1789323729428187600,9.083187744140625,9.483055114746094,-3.4402806758880615,-0.7875377535820007
1789323729447038000,9.102037841796875,6.365805625915527,-2.973381280899048,-1.0558329820632935
1789323729465888000,9.120887939453125,6.902096748352051,-1.1467602252960205,-0.275174617767334
1789323729484738000,9.139738037109375,7.301997184753418,-2.540280342102051,-0.4334000051021576
1789323729503588400,9.15858837890625,6.341877460479736,-3.253640651702881,-0.893121063709259
1789323729522438400,9.1774384765625,2.999702215194702,-2.4083759784698486,-2.4634108543395996
1789323729541288700,9.196288818359376,2.935096025466919,-2.1714866161346436,0.5075774788856506
1789323729560138800,9.215138671875,7.230212688446045,-0.09571290761232376,3.677469253540039
1789323729578989000,9.233989013671875,8.633005142211914,0.06699903309345245,2.169093608856201
1789323729597839000,9.252839111328125,5.614160060882568,-0.9433703422546387,-1.6351951360702515
1789323729616689200,9.271689208984375,6.679564476013184,-2.1714866161346436,-1.5658032894134521
1789323729635539500,9.29053955078125,9.638588905334473,-2.9255247116088867,-1.2975081205368042
1789323729654389500,9.309389404296875,8.051250457763672,-3.1076784133911133,-1.6495521068572998
1789323729673239800,9.32823974609375,7.934001445770264,-3.16749906539917,-2.621636390686035
1789323729692089900,9.34708984375,7.4479594230651855,-4.41475772857666,-4.017250061035156
1789323729710940000,9.36593994140625,8.393722534179688,-5.647659778594971,-3.7971103191375732
1789323729729790200,9.384790283203126,7.074679374694824,-6.222236156463623,-2.9853453636169434
1789323729748640300,9.40364013671875,6.669992923736572,-6.464210510253906,-2.410768747329712
1789323729767490600,9.422490478515625,6.112166404724121,-6.3442702293396,-1.7859430313110352
1789323729786340600,9.441340576171875,6.485745906829834,-5.796014785766602,-1.599302887916565
1789323729805191000,9.46019091796875,6.435197353363037,-5.463412284851074,-1.9007984399795532
1789323729824041000,9.479041015625,4.850550651550293,-5.537590026855469,-2.1332013607025146
1789323729842891000,9.49789111328125,5.346164226531982,-5.429912567138672,-2.035095691680908
1789323729861741300,9.5167412109375,6.598208427429199,-6.02602481842041,-1.934298038482666
1789323729880591400,9.53559130859375,6.918846607208252,-7.733004570007324,-1.9800606966018677
1789323729899441400,9.55444140625,7.120142936706543,-10.474282264709473,-2.5450658798217773
1789323729918291700,9.573291748046875,7.392924785614014,-13.842778205871582,-2.9781668186187744
1789323729937141800,9.592141845703125,6.981060028076172,-16.203298568725586,-3.3230323791503906
1789323729955992000,9.610991943359375,7.153642177581787,-15.961323738098145,-2.9925239086151123
1789323729974842000,9.629842041015625,6.607779502868652,-10.282557487487793,-1.994417667388916
1789323729993692200,9.648692138671874,6.823133945465088,-7.354639530181885,-2.0039889812469482
1789323730012542500,9.66754248046875,6.973881721496582,-6.825526714324951,-2.9087750911712646
1789323730031392500,9.686392578125,6.631708145141602,-7.065107822418213,-3.5814573764801025
1789323730050242800,9.705242919921876,5.664409637451172,-7.502994537353516,-2.935096025466919
1789323730069092900,9.7240927734375,5.7409796714782715,-7.857431411743164,-2.7747769355773926
1789323730087943200,9.742943115234375,5.776872158050537,-9.585947036743164,-1.4724832773208618
1789323730106793200,9.761793212890625,5.015655517578125,-9.602696418762207,-0.7827520966529846
1789323730125643300,9.780643310546875,4.713860511779785,-9.078369140625,-1.067797064781189
1789323730144493600,9.79949365234375,4.35254430770874,-8.688039779663086,-1.690230131149292
1789323730163343600,9.818343505859374,5.298008441925049,-8.70508861541748,-3.0020952224731445
1789323730182194000,9.83719384765625,7.034001350402832,-10.919346809387207,-3.897608995437622
1789323730201044000,9.8560439453125,7.380960464477539,-13.339985847473145,-4.038785457611084
1789323730219894000,9.87489404296875,6.918846607208252,-11.613863945007324,-4.1368913650512695
1789323730238744300,9.893744384765625,6.183950901031494,-8.987442016601562,-2.3270199298858643
1789323730257594400,9.912594482421875,5.32911491394043,-6.9690961837768555,-1.628016710281372
1789323730276444400,9.9314443359375,4.689932346343994,-5.812764644622803,-2.810669183731079
1789323730295294700,9.950294677734375,4.735395908355713,-5.590231895446777,-2.3222343921661377
1789323730314144800,9.969144775390625,5.647659778594971,-4.907978534698486,-2.903989315032959
1789323730332994800,9.987994873046874,4.874478816986084,-5.396413326263428,-2.9063823223114014
1789323730351845000,10.00684521484375,5.791228771209717,-5.123332500457764,-2.181057929992676
1789323730370695200,10.025695068359376,9.008976936340332,-4.718646049499512,-1.4916257858276367
1789323730389545200,10.044545166015626,10.526924133300781,-7.321139812469482,-2.614457845687866
1789323730408395500,10.0633955078125,9.040083885192871,-10.002596855163574,-4.3310089111328125
1789323730427245600,10.08224560546875,8.542078018188477,-8.0081787109375,-4.819443702697754
1789323730446095600,10.101095703125,7.938787460327148,-5.9183478355407715,-2.7173492908477783
1789323730464945700,10.119945556640625,8.774480819702148,-4.333401679992676,-1.8218353986740112
1789323730483796000,10.1387958984375,11.036894798278809,-3.859323740005493,-3.318246841430664
1789323730502646000,10.15764599609375,11.343175888061523,-5.877370834350586,-2.7269206047058105
1789323730521496300,10.176496337890624,6.832705020904541,-5.192724227905273,-2.310270309448242
1789323730540346400,10.195346435546876,4.675575256347656,-3.287140130996704,-1.0821540355682373
1789323730559196400,10.214196533203125,4.350151538848877,-1.1252248287200928,0.24167509377002716
1789323730578046500,10.23304638671875,4.764110088348389,-0.4166502356529236,1.048654556274414
1789323730596896800,10.251896728515625,4.984548568725586,-0.5697908997535706,0.7229315638542175
1789323730615746800,10.270746826171875,5.266901969909668,-0.7995018362998962,-0.15314064919948578
1789323730634596900,10.289596923828125,5.111368179321289,-1.0247262716293335,-0.31375887989997864
1789323730653447200,10.308447265625,6.567101955413818,-1.3262219429016113,-0.16271193325519562
1789323730672297200,10.327297119140624,6.286842346191406,-1.9630118608474731,-1.532303810119629
1789323730691147300,10.346147216796876,5.959025859832764,-2.2025933265686035,-1.1850453615188599
1789323730709997600,10.36499755859375,6.332305908203125,-2.6240291595458984,-1.5107684135437012
1789323730728847600,10.38384765625,6.880561351776123,-2.410768747329712,-1.2305090427398682
1789323730747697700,10.40269775390625,9.037691116333008,-1.8242281675338745,-1.8505492210388184
1789323730766547700,10.421547607421875,9.3490571975708,-3.342175006866455,-2.444268226623535
1789323730785398000,10.44039794921875,7.874181270599365,-4.730610370635986,-3.3684961795806885
1789323730804248000,10.459248046875,6.87816858291626,-5.72422981262207,-4.103391647338867
1789323730823098000,10.47809814453125,7.412067413330078,-7.709076404571533,-3.466601848602295
1789323730841948200,10.4969482421875,6.99541711807251,-8.02492904663086,-3.061915636062622
1789323730860798500,10.515798583984376,6.464210510253906,-7.675576686859131,-2.5232315063476562
1789323730879648500,10.5346484375,6.669992923736572,-6.317949295043945,-2.4634108543395996
1789323730898498600,10.55349853515625,6.885347366333008,-5.2645087242126465,-2.872882604598999
1789323730917348900,10.572348876953125,6.545566558837891,-5.90877628326416,-3.514458179473877
1789323730936199000,10.591198974609375,5.547161102294922,-8.089534759521484,-3.5886356830596924
1789323730955049000,10.610049072265625,5.118546962738037,-10.325628280639648,-3.4019956588745117
1789323730973899000,10.62889892578125,5.932704448699951,-11.556435585021973,-2.513660192489624
1789323730992749300,10.647749267578124,6.713063716888428,-12.305688858032227,-2.480160713195801
1789323731011599400,10.666599365234376,6.713063716888428,-12.880265235900879,-2.3437697887420654
1789323731030449400,10.685449462890626,6.803991317749023,-12.298510551452637,-2.7484560012817383
1789323731049299500,10.704299560546875,7.785646915435791,-11.257034301757812,-3.3206396102905273
1789323731068149800,10.723149658203125,8.089534759521484,-11.740683555603027,-3.5886356830596924
1789323731086999800,10.741999755859375,7.306783199310303,-11.513364791870117,-4.1129631996154785
1789323731105849900,10.760849853515625,6.191129684448242,-9.679266929626465,-3.2679975032806396
1789323731124700000,10.779699951171875,5.66201639175415,-7.785646915435791,-2.0685951709747314
1789323731143550200,10.79855029296875,4.646861553192139,-6.591030120849609,-1.8337994813919067
1789323731162400300,10.817400146484376,3.835395574569702,-6.04038143157959,-2.073380708694458
1789323731181250300,10.836250244140626,3.3613176345825195,-5.712265968322754,-1.7715860605239868
1789323731200100400,10.855100341796875,3.4091739654541016,-5.66201639175415,-1.8792630434036255
1789323731218950400,10.873950439453125,4.474578380584717,-6.346662998199463,-2.11405873298645
1789323731237800700,10.89280078125,6.028417587280273,-8.087141990661621,-2.6264219284057617
1789323731256650800,10.911650634765625,7.632505893707275,-10.253843307495117,-3.01405930519104
1789323731284926000,10.939926025390625,8.695218086242676,-12.042179107666016,-4.622933387756348
1789323731303776000,10.95877587890625,8.240582466125488,-12.07358455657959,-4.40757942199707
1789323731322626000,10.9776259765625,7.998608112335205,-10.529316902160645,-4.735395908355713
1789323731341476000,10.99647607421875,7.105785846710205,-8.554041862487793,-4.350151538848877
1789323731360326400,11.015326416015625,6.49770975112915,-6.971488952636719,-3.4642090797424316
1789323731379176400,11.034176513671875,6.540780544281006,-5.90877628326416,-2.8824539184570312
1789323731398026500,11.053026611328125,6.75374174118042,-5.3940205574035645,-2.755634307861328
1789323731416876500,11.07187646484375,6.758527755737305,-5.446662425994873,-2.566601276397705
1789323731435726600,11.0907265625,7.045965194702148,-5.839085578918457,-2.7125635147094727
1789323731454577000,11.109576904296874,6.9068827629089355,-6.598208427429199,-2.183450698852539
1789323731473427000,11.128427001953124,6.097809314727783,-5.892026424407959,-1.287936806678772
1789323731492277000,11.147277099609376,5.039583683013916,-3.770789384841919,-1.654337763786316
1789323731511127000,11.166126953125,6.686742782592773,-4.417150497436523,-2.283949136734009
1789323731529977000,11.18497705078125,8.379365921020508,-2.0829520225524902,-2.011167526245117
1789323731548827400,11.203827392578125,8.86780071258545,-3.1483564376831055,-0.6726822853088379
1789323731567677400,11.222677490234375,7.414460182189941,-4.249652862548828,-0.859621524810791
1789323731586527500,11.241527587890625,6.73938512802124,-3.3708889484405518,-1.225723385810852
1789323731605377500,11.26037744140625,6.772884368896484,-2.496910333633423,-1.1467602252960205
1789323731624227600,11.2792275390625,7.297211647033691,-2.283949136734009,-0.8691928386688232
1789323731643077600,11.29807763671875,7.72104024887085,-2.3054845333099365,-1.0582258701324463
1789323731661928000,11.316927978515626,7.2732834815979,-2.118844509124756,-1.9872392416000366
1789323731680778000,11.335778076171875,6.638886451721191,-1.9007984399795532,-0.7540382146835327
1789323731699628000,11.3546279296875,6.921239376068115,-1.4724832773208618,-0.4453641176223755
1789323731718478000,11.37347802734375,6.155237197875977,-1.4916257858276367,-1.1467602252960205
1789323731737328000,11.392328125,5.44426965713501,-2.1619153022766113,-1.0390832424163818
1789323731756178400,11.411178466796875,5.413163185119629,-2.580958366394043,-0.9050851464271545
1789323731775028500,11.430028564453124,5.815157413482666,-2.504088878631592,-0.8042874932289124
1789323731793878500,11.44887841796875,6.660421848297119,-2.4921247959136963,-0.9266205430030823
1789323731812728600,11.467728515625,6.461817741394043,-2.9231319427490234,-1.8505492210388184
1789323731831578600,11.48657861328125,6.8757758140563965,-3.8832521438598633,-2.4562325477600098
1789323731859853800,11.514853759765625,7.6013994216918945,-6.322734832763672,-3.7612180709838867
1789323731878703900,11.533703857421875,7.572386264801025,-7.797610759735107,-3.318246841430664
1789323731897554000,11.552553955078125,6.8279194831848145,-8.654540061950684,-2.9303104877471924
1789323731916404000,11.571404052734374,6.08823823928833,-9.521340370178223,-2.4681966304779053
1789323731935254300,11.590254150390624,6.75374174118042,-9.631410598754883,-2.159522533416748
1789323731954104300,11.609104248046876,6.679564476013184,-9.712766647338867,-3.1076784133911133
1789323731972954400,11.627954345703126,6.224628925323486,-9.485447883605957,-3.6221351623535156
1789323731991804400,11.646804443359375,6.2174506187438965,-9.066405296325684,-3.7588253021240234
1789323732010654500,11.665654541015625,6.981060028076172,-8.73619556427002,-3.531208038330078
1789323732029504500,11.68450439453125,8.15683364868164,-8.726624488830566,-2.9327032566070557
1789323732048354600,11.7033544921875,7.938787460327148,-9.475876808166504,-3.524029493331909
1789323732067204900,11.722204833984375,6.485745906829834,-10.390533447265625,-3.5886356830596924
1789323732086055000,11.741054931640624,5.5998029708862305,-10.385747909545898,-3.483351469039917
1789323732104905000,11.759905029296876,5.609374523162842,-9.241081237792969,-2.793919563293457
1789323732123755000,11.778755126953126,5.705087184906006,-9.042476654052734,-2.525923490524292
1789323732142605000,11.79760498046875,6.21984338760376,-10.174880027770996,-3.0786654949188232
1789323732161455000,11.816455078125,7.610970497131348,-11.36949634552002,-3.3708889484405518
1789323732180305200,11.83530517578125,7.833503246307373,-11.819646835327148,-3.5264222621917725
1789323732199155200,11.8541552734375,6.535995006561279,-10.363913536071777,-3.8162529468536377
1789323732218005200,11.873005126953124,5.1305108070373535,-8.755337715148926,-3.1627132892608643
1789323732236855300,11.891855224609374,4.572684288024902,-8.432007789611816,-2.6168506145477295
1789323732255705600,11.91070556640625,4.252045631408691,-8.52054214477539,-1.572981834411621
1789323732274555600,11.9295556640625,4.862514495849609,-7.835896015167236,-2.142772674560547
1789323732293405700,11.94840576171875,4.622933387756348,-7.108178615570068,-2.5689942836761475
1789323732312255700,11.967255859375,4.680361270904541,-6.581458568572998,-2.8776683807373047
1789323732331105800,11.986105712890625,5.18315315246582,-6.322734832763672,-2.6096723079681396
1789323732349955800,12.004955810546875,5.879763603210449,-5.994917869567871,-2.5378875732421875
1789323732368806000,12.023805908203125,6.557530403137207,-6.207879066467285,-2.4634108543395996
1789323732387656000,12.042656005859374,7.615756034851074,-6.983452796936035,-2.760420083999634
1789323732406506000,12.061506103515624,9.231510162353516,-8.099106788635254,-3.528815269470215
1789323732425356000,12.08035595703125,10.68245792388916,-9.861420631408691,-4.91037130355835
1789323732444206000,12.0992060546875,10.605887413024902,-10.857133865356445,-5.9422760009765625
1789323732463056100,12.11805615234375,9.325128555297852,-9.325128555297852,-6.028417587280273
1789323732481906400,12.136906494140625,7.855038642883301,-6.337091445922852,-3.500101327896118
1789323732500756500,12.155756591796875,7.065107822418213,-4.991727352142334,-2.3198416233062744
1789323732519606500,12.1746064453125,6.3993048667907715,-3.804288864135742,-1.474876046180725
1789323732538456600,12.19345654296875,6.203093528747559,-3.5982069969177246,-1.8912272453308105
1789323732557306600,12.212306640625,5.90159797668457,-5.125725269317627,-2.3509483337402344
1789323732576156700,12.23115673828125,5.803193092346191,-4.1129631996154785,-1.3334003686904907
1789323732595006700,12.2500068359375,4.045963764190674,-0.924227774143219,0.5554339289665222
1789323732613856800,12.268856689453125,5.187938690185547,-1.5442678928375244,0.859621524810791
1789323732632706800,12.287706787109375,5.384449005126953,-2.4849462509155273,-0.12203395366668701
1789323732651556900,12.306556884765625,7.203891754150391,-1.9968105554580688,0.004785645287483931
1789323732670407000,12.325406982421875,7.223034381866455,-2.621636390686035,-0.014356935396790504
1789323732689257000,12.344257080078124,6.612565517425537,-2.200200319290161,-0.24406790733337402
1789323732708107000,12.36310693359375,5.712265968322754,-1.695015788078308,-1.158724308013916
1789323732726957300,12.381957275390626,6.796812534332275,-1.6423736810684204,-0.6248258352279663
1789323732745807400,12.400807373046876,6.873383045196533,-1.695015788078308,-1.3860424757003784
1789323732764657400,12.419657470703125,5.087440013885498,-1.470090389251709,-1.800299882888794
1789323732783507500,12.438507568359375,7.232605457305908,-1.3022937774658203,-1.012762188911438
1789323732802357500,12.457357421875,8.67607593536377,-1.922333836555481,-1.7572290897369385
1789323732821207600,12.47620751953125,8.082356452941895,-3.01405930519104,-2.066202402114868
1789323732840057600,12.4950576171875,6.966702938079834,-3.6726837158203125,-2.2265214920043945
1789323732858907600,12.51390771484375,6.957131862640381,-3.9406797885894775,-3.191427230834961
1789323732877757700,12.5327578125,8.01057243347168,-7.038786888122559,-3.9263229370117188
1789323732896607700,12.551607666015625,7.555636405944824,-8.52772045135498,-3.6559338569641113
1789323732915457800,12.570457763671875,6.138487339019775,-8.367402076721191,-3.552743434906006
1789323732934307800,12.589307861328125,5.211866855621338,-7.572386264801025,-2.6862425804138184
1789323732953158000,12.608157958984375,6.387341022491455,-7.110571384429932,-2.228914260864258
1789323732972008000,12.627008056640625,6.662814617156982,-7.4001030921936035,-2.2576282024383545
1789323732990858000,12.64585791015625,5.851049423217773,-7.835896015167236,-3.19860577583313
1789323733009708000,12.6647080078125,5.015655517578125,-8.458329200744629,-3.193819999694824
1789323733028558000,12.68355810546875,5.185545921325684,-9.20997428894043,-3.153141975402832
1789323733047408000,12.702408203125,5.968596935272217,-10.268199920654297,-2.722134828567505
1789323733075683000,12.73068310546875,7.072286605834961,-11.194820404052734,-3.5024940967559814
1789323733094533000,12.749533203125,7.072286605834961,-11.280961990356445,-3.667897939682007
1789323733113383200,12.768383056640625,6.866204738616943,-11.51815128326416,-3.9239299297332764
1789323733132233200,12.787233154296874,7.014858722686768,-11.798110961914062,-3.006880760192871
1789323733160508400,12.81550830078125,7.112964630126953,-10.040882110595703,-2.6503500938415527
1789323733179358500,12.8343583984375,5.56869649887085,-9.147761344909668,-1.9680966138839722
1789323733198208500,12.85320849609375,5.6309099197387695,-8.338687896728516,-2.348555326461792
1789323733217058600,12.87205859375,4.800301551818848,-7.907680511474609,-2.0829520225524902
1789323733235908600,12.89090869140625,4.903192520141602,-7.270890712738037,-2.566601276397705
1789323733254758700,12.909758544921875,4.680361270904541,-7.263712406158447,-2.533101797103882
1789323733273608700,12.928608642578125,5.810371398925781,-7.790432453155518,-3.05234432220459
1789323733292458800,12.947458740234374,6.902096748352051,-9.059226989746094,-3.279961585998535
1789323733311308500,12.96630859375,7.041179656982422,-9.337093353271484,-4.453042984008789
1789323733330158600,12.98515869140625,6.291627883911133,-8.44157886505127,-4.302295207977295
1789323733349008600,13.004008544921875,6.174379825592041,-8.250153541564941,-3.0332016944885254
1789323733367858700,13.022858642578125,6.655636310577393,-8.96112060546875,-2.5184457302093506
1789323733386708700,13.041708740234375,7.440781116485596,-9.655338287353516,-2.525923490524292
1789323733405558800,13.060558837890625,7.912466049194336,-9.334700584411621,-3.7683966159820557
1789323733424408800,13.079408935546875,7.230212688446045,-8.455936431884766,-4.749752998352051
1789323733443259000,13.0982587890625,7.498208999633789,-6.681957244873047,-4.383651256561279
1789323733462109000,13.11710888671875,8.348258972167969,-5.370092391967773,-3.614956855773926
1789323733480959000,13.135958984375,8.398508071899414,-5.872584819793701,-3.303889751434326
1789323733499809000,13.15480908203125,7.34267520904541,-5.511268615722656,-3.191427230834961
1789323733518659000,13.1736591796875,6.064310073852539,-5.470590591430664,-3.8521454334259033
1789323733537509000,13.192509033203125,6.976274490356445,-4.805087089538574,-2.166700839996338
1789323733556359200,13.211359130859375,7.864609718322754,-5.932704448699951,-3.57906436920166
1789323733575209200,13.230209228515625,6.085845470428467,-9.142974853515625,-2.762812852859497
1789323733594059300,13.249059326171874,4.153641223907471,-2.39401912689209,-0.01196411345154047
1789323733612909300,13.267909423828126,7.3522467613220215,1.0031908750534058,1.410269856452942
1789323733631759000,13.286759033203126,8.491828918457031,-2.3030917644500732,0.05742774158716202
1789323733650609200,13.305609130859375,8.314759254455566,-3.5359935760498047,0.32572299242019653
1789323733669459200,13.324459228515625,5.937490463256836,-3.4570305347442627,-1.5418751239776611
1789323733697734400,13.352734375,4.924727916717529,-1.6088740825653076,-1.1730812788009644
1789323733716584400,13.37158447265625,6.277271270751953,-2.183450698852539,-0.44297128915786743
1789323733735434500,13.3904345703125,3.7253258228302,-3.0020952224731445,-2.8465616703033447
1789323733754284500,13.409284423828124,1.6088740825653076,-0.8066803216934204,1.6256239414215088
1789323733773134300,13.42813427734375,10.383355140686035,0.643968403339386,1.9752750396728516
1789323733791984400,13.446984375,11.673684120178223,-1.0510473251342773,-1.0031908750534058
1789323733810834400,13.46583447265625,5.7888360023498535,-2.4777679443359375,-2.3844478130340576
1789323733829684500,13.4846845703125,6.372983932495117,-2.580958366394043,-3.78753924369812
1789323733848534500,13.503534423828125,7.1488566398620605,-3.0957143306732178,-3.9622151851654053
1789323733867384600,13.522384521484375,7.249355316162109,-3.5024940967559814,-3.3373894691467285
1789323733886234600,13.541234619140624,6.250949859619141,-6.653243541717529,-2.7269206047058105
1789323733905084700,13.560084716796876,6.495316982269287,-8.714659690856934,-3.0475587844848633
1789323733923934500,13.5789345703125,7.026822566986084,-7.941180229187012,-3.5431721210479736
1789323733942784500,13.597784423828125,6.535995006561279,-6.62931489944458,-2.935096025466919
1789323733961634600,13.616634521484375,5.839085578918457,-6.555137634277344,-2.451446771621704
1789323733989909800,13.64490966796875,6.6245293617248535,-7.433602809906006,-2.839383125305176
1789323734008759800,13.663759765625,6.835097789764404,-8.235795974731445,-4.053142547607422
1789323734027609600,13.682609619140624,5.877370834350586,-9.416056632995605,-4.579862594604492
1789323734046459600,13.701459716796874,6.116951942443848,-10.67288589477539,-4.295116424560547
1789323734065309700,13.720309814453126,7.39771032333374,-12.061321258544922,-3.2823543548583984
1789323734084159700,13.73915966796875,6.650850772857666,-12.611969947814941,-2.7412774562835693
1789323734103009800,13.758009765625,5.96381139755249,-11.568400382995605,-2.557030200958252
1789323734121859800,13.77685986328125,6.021239280700684,-9.777372360229492,-2.2791635990142822
1789323734140710000,13.7957099609375,6.2653069496154785,-8.556434631347656,-2.7963123321533203
1789323734159559700,13.8145595703125,6.854240417480469,-7.680362701416016,-3.895216226577759
1789323734178409700,13.83340966796875,6.22702169418335,-7.673183917999268,-4.055535316467285
1789323734197259800,13.852259765625,6.2653069496154785,-8.216653823852539,-4.16799783706665
1789323734216109800,13.87110986328125,5.903990745544434,-9.37059211730957,-3.4139597415924072
1789323734234960000,13.8899599609375,5.84865665435791,-9.471091270446777,-3.208176851272583
1789323734253810000,13.908809814453125,5.039583683013916,-8.307580947875977,-2.3150558471679688
1789323734272660000,13.927659912109375,4.347758769989014,-7.325925827026367,-1.6878372430801392
1789323734291509800,13.946509765625,4.735395908355713,-7.536494255065918,-2.159522533416748
1789323734310359800,13.96535986328125,4.860121726989746,-8.74337387084961,-1.4270195960998535
1789323734329209900,13.9842099609375,5.947061538696289,-10.229914665222168,-1.7380865812301636
1789323734348060000,14.003059814453126,6.286842346191406,-10.351948738098145,-3.3469607830047607
1789323734366910000,14.021909912109376,6.334698677062988,-9.337093353271484,-4.201497554779053
1789323734385759700,14.040759765625,7.311568737030029,-8.333902359008789,-4.48414945602417
1789323734404609800,14.05960986328125,7.723433494567871,-7.359425067901611,-3.6966118812561035
1789323734423459800,14.0784599609375,9.09990406036377,-7.026822566986084,-3.715754508972168
1789323734442310000,14.097309814453125,9.303593635559082,-7.840681552886963,-4.500899314880371
1789323734461160000,14.116159912109374,8.82233715057373,-8.219046592712402,-4.936692237854004
1789323734480009700,14.135009765625,8.472685813903809,-8.20229721069336,-4.857728958129883
1789323734498859800,14.15385986328125,8.656932830810547,-7.462316513061523,-4.302295207977295
1789323734517709800,14.172709716796875,7.46710205078125,-7.11775016784668,-3.5359935760498047
1789323734536559900,14.191559814453125,5.365306377410889,-5.343770980834961,-3.0332016944885254
1789323734555410000,14.210409912109375,3.1722846031188965,-3.4737801551818848,-2.001596212387085
1789323734574260000,14.229260009765625,5.147260665893555,-1.0941181182861328,-0.5386841893196106
1789323734593109800,14.24810986328125,6.681957244873047,0.33050861954689026,0.48364928364753723
1789323734611959800,14.266959716796874,6.478567123413086,-2.674278497695923,0.4094717800617218
1789323734630809900,14.285809814453126,4.644468784332275,-3.169891834259033,-0.8668000102043152
1789323734649660000,14.304659912109376,5.456233978271484,-3.0164520740509033,0.23449662327766418
1789323734677934800,14.332934814453125,6.74656343460083,-1.8816559314727783,-0.6032904386520386
1789323734706209800,14.361209716796875,6.547959327697754,-1.9319051504135132,-1.2137593030929565
1789323734725059800,14.380059814453125,6.325127601623535,-0.6870391964912415,-0.9361918568611145
1789323734743910000,14.398909912109374,7.737790107727051,-1.2233306169509888,-0.6894320249557495
1789323734762759700,14.417759765625,6.823133945465088,-2.1547367572784424,-2.5929224491119385
1789323734781609700,14.436609619140626,6.009274959564209,-2.9781668186187744,-1.958226203918457
1789323734800459800,14.455459716796875,6.756134510040283,-2.6072793006896973,-1.6806588172912598
1789323734819309800,14.474309814453125,6.291627883911133,-2.746062994003296,-1.6136597394943237
1789323734838159600,14.49315966796875,6.80877685546875,-3.4618160724639893,-1.9896320104599
1789323734857009700,14.512009765625,6.7106709480285645,-4.764110088348389,-2.3198416233062744
1789323734875859700,14.530859619140625,5.959025859832764,-5.90877628326416,-3.0933215618133545
1789323734894709800,14.549709716796874,5.791228771209717,-6.059524059295654,-3.4953157901763916
1789323734913559800,14.568559814453126,5.865406513214111,-6.68435001373291,-3.3517463207244873
1789323734932409600,14.58740966796875,6.16480827331543,-7.749754428863525,-3.037987470626831
1789323734951259600,14.606259765625,6.315556049346924,-9.095118522644043,-3.5264222621917725
1789323734970109700,14.625109619140625,5.939883232116699,-10.67288589477539,-4.050749778747559
1789323734988959700,14.643959716796875,5.860620975494385,-11.771790504455566,-4.515256404876709
1789323735007809500,14.6628095703125,5.884549140930176,-11.616256713867188,-3.6870405673980713
1789323735026659600,14.68165966796875,6.260521411895752,-10.553245544433594,-2.39401912689209
1789323735045509600,14.700509521484374,7.196712970733643,-9.803693771362305,-2.2576282024383545
1789323735064359400,14.719359375,7.562815189361572,-9.782157897949219,-3.10528564453125
1789323735083209500,14.73820947265625,6.660421848297119,-9.954740524291992,-3.6726837158203125
1789323735102059500,14.7570595703125,6.186343669891357,-10.268199920654297,-3.9502511024475098
1789323735120909600,14.77590966796875,6.679564476013184,-10.847562789916992,-3.435495138168335
1789323735149184500,14.8041845703125,6.7657060623168945,-10.009775161743164,-3.287140130996704
1789323735168034300,14.823034423828124,6.674778938293457,-8.379365921020508,-3.363710403442383
1789323735186884400,14.84188427734375,6.457031726837158,-7.977072715759277,-3.4570305347442627
1789323735205734400,14.860734375,6.0834527015686035,-8.262117385864258,-4.264009952545166
1789323735224584400,14.87958447265625,5.118546962738037,-8.391329765319824,-3.1794631481170654
1789323735243434200,14.898434326171875,5.528018474578857,-8.65214729309082,-2.7652056217193604
1789323735262284300,14.9172841796875,5.889334678649902,-9.538089752197266,-2.472982168197632
1789323735281134300,14.93613427734375,5.982954025268555,-10.431211471557617,-2.3365912437438965
1789323735299984100,14.954984130859375,6.535995006561279,-9.772586822509766,-3.397209882736206
1789323735318834200,14.973834228515624,6.928418159484863,-8.920442581176758,-4.225724697113037
1789323735337684200,14.992684326171876,8.020143508911133,-8.28843879699707,-4.622933387756348
1789323735356534000,15.011533935546876,8.422436714172363,-8.42722225189209,-4.632504463195801
1789323735375384000,15.030384033203125,8.439186096191406,-8.745766639709473,-4.443471431732178
1789323735394234000,15.049234130859375,7.502994537353516,-8.448758125305176,-4.266402721405029
1789323735413084200,15.068084228515625,6.365805625915527,-7.989036560058594,-3.9550366401672363
1789323735431934000,15.086933837890625,6.315556049346924,-7.115357398986816,-3.586242914199829
1789323735450784000,15.105783935546874,6.564708709716797,-5.978168487548828,-3.7253258228302
1789323735469634000,15.124634033203124,6.722635269165039,-5.492125988006592,-2.698206663131714
1789323735488483800,15.14348388671875,7.191927433013916,-3.037987470626831,-1.6351951360702515
1789323735535608800,15.19060888671875,7.189534664154053,-1.92951238155365,-2.4777679443359375
1789323735554459000,15.209458984375,5.3318071365356445,-3.3541390895843506,-1.5346965789794922
1789323735573308700,15.22830859375,3.9574296474456787,-3.0188448429107666,-1.5466607809066772
1789323735592158700,15.24715869140625,3.7109687328338623,-1.89840567111969,0.1698904037475586
1789323735611008800,15.2660087890625,4.041178226470947,-0.7157530784606934,0.4692923426628113
1789323735629858600,15.284858642578126,4.737788677215576,-0.5889334678649902,0.19621145725250244
1789323735648708600,15.30370849609375,5.535196781158447,-0.610468864440918,0.20817556977272034
1789323735667558700,15.32255859375,5.8582282066345215,-0.5673980712890625,-0.04546362906694412
1789323735686408400,15.341408447265625,7.596613883972168,-1.1754741668701172,-0.5913262963294983
1789323735705258500,15.360258544921875,8.245368003845215,-3.0355947017669678,-2.449054002761841
1789323735724108500,15.379108642578124,6.957131862640381,-4.191926002502441,-2.784348249435425
1789323735742958300,15.397958251953124,6.258128643035889,-3.3206396102905273,-2.7197420597076416
1789323735761808400,15.416808349609376,6.813562393188477,-3.959822416305542,-2.8298118114471436
1789323735780658200,15.435658203125,6.425626277923584,-5.518447399139404,-3.153141975402832
1789323735799508200,15.45450830078125,6.444768905639648,-6.444768905639648,-2.628814697265625
1789323735818358300,15.473358154296875,5.96381139755249,-5.973382472991943,-2.3030917644500732
1789323735837208000,15.4922080078125,5.676373481750488,-6.09541654586792,-2.1236300468444824
1789323735856058000,15.51105810546875,6.272485256195068,-6.890132904052734,-2.6336004734039307
1789323735874908200,15.529908203125,5.829514026641846,-7.661220073699951,-2.6168506145477295
1789323735893758000,15.548758056640626,5.578267574310303,-8.17836856842041,-3.7037904262542725
1789323735912608000,15.56760791015625,5.886941909790039,-9.10229778289795,-4.498506546020508
1789323735931457800,15.586457763671875,6.775277137756348,-10.47188949584961,-4.6995038986206055
1789323735950307800,15.605307861328125,7.167999267578125,-11.845967292785645,-5.0347981452941895
1789323735969158000,15.624157958984375,7.385746002197266,-11.934501647949219,-3.9789650440216064
1789323735988007700,15.643007568359375,7.95553731918335,-10.763813972473145,-3.617349624633789
1789323736006857700,15.661857666015624,7.737790107727051,-9.964311599731445,-2.8226335048675537
1789323736025707800,15.680707763671874,7.704290866851807,-9.971489906311035,-3.452244758605957
1789323736044557600,15.6995576171875,7.83111047744751,-11.328819274902344,-4.431507587432861
1789323736063407600,15.71840771484375,7.445566654205322,-12.420543670654297,-4.744967460632324
1789323736082257400,15.73725732421875,7.285247802734375,-9.990633010864258,-3.483351469039917
1789323736101107500,15.756107421875,6.636493682861328,-7.867002487182617,-3.1411778926849365
1789323736119957200,15.774957275390625,5.959025859832764,-7.929215908050537,-3.6436707973480225
1789323736138807300,15.793807373046874,5.305186748504639,-9.375378608703613,-3.4881372451782227
1789323736157657300,15.8126572265625,5.2166523933410645,-9.727123260498047,-3.5048868656158447
1789323736176507100,15.831507080078126,5.539982795715332,-9.109476089477539,-2.896811008453369
1789323736195357200,15.850357177734375,5.597410202026367,-8.451150894165039,-2.825026273727417
1789323736214207000,15.86920703125,5.590231895446777,-8.127820014953613,-3.01405930519104
1789323736233057000,15.88805712890625,5.755336761474609,-8.214261054992676,-3.4307093620300293
1789323736251906800,15.90690673828125,5.913562297821045,-7.699504852294922,-3.435495138168335
1789323736270756900,15.9257568359375,5.913562297821045,-6.720242500305176,-3.1172497272491455
1789323736289607000,15.94460693359375,6.55992317199707,-6.356234073638916,-3.16749906539917
1789323736308456700,15.963456787109376,7.792825222015381,-7.084250450134277,-3.492922782897949
1789323736327306800,15.982306640625,8.628219604492188,-7.395317554473877,-3.7061831951141357
1789323736346156500,16.001156494140623,9.097511291503906,-7.507780075073242,-4.881657123565674
1789323736365006600,16.020006591796875,9.308379173278809,-8.187939643859863,-4.319045066833496
1789323736383856400,16.0388564453125,10.332806587219238,-7.337889671325684,-3.1722846031188965
1789323736402706400,16.05770654296875,8.386544227600098,-6.15762996673584,-3.3134610652923584
1789323736421556500,16.076556396484374,6.02602481842041,-5.56869649887085,-3.8784663677215576
1789323736440406300,16.09540625,5.228616714477539,-4.4410786628723145,-2.7508487701416016
1789323736459256300,16.11425634765625,5.733801364898682,-0.8668000102043152,-1.5466607809066772
1789323736478106000,16.133106201171874,4.817050933837891,-1.86729896068573,0.16749759018421173
1789323736496956200,16.1519560546875,4.512863636016846,-1.3932210206985474,1.194616675376892
1789323736515806000,16.170805908203125,3.4809587001800537,-0.8330013751983643,1.1635099649429321
1789323736534656000,16.189656005859376,3.253640651702881,-0.38793638348579407,1.3597214221954346
1789323736553505800,16.208505859375,3.3589248657226562,-1.1491531133651733,0.3329014480113983
1789323736572355800,16.22735595703125,3.849752426147461,-1.9007984399795532,-0.4142574071884155
1789323736591205600,16.24620556640625,4.395615100860596,-1.4318052530288696,-0.08135596662759781
1789323736610055700,16.2650556640625,5.389235019683838,-1.3692927360534668,-0.4166502356529236
1789323736628905500,16.283905517578123,7.969893932342529,-1.8553348779678345,-0.4286143481731415
1789323736647755500,16.302755615234375,6.6245293617248535,-2.92073917388916,-2.8704898357391357
1789323736666605300,16.321605224609375,5.975775241851807,-2.8944180011749268,-2.2193429470062256
1789323736685455400,16.340455322265626,8.094321250915527,-2.4681966304779053,-3.442673683166504
1789323736704305200,16.35930517578125,8.786444664001465,-5.391627788543701,-3.6870405673980713
1789323736723155200,16.3781552734375,8.123034477233887,-10.064809799194336,-4.677968502044678
1789323736742005000,16.3970048828125,5.8582282066345215,-11.853145599365234,-6.253343105316162
1789323736760855000,16.41585498046875,4.4650068283081055,-11.08475112915039,-4.524827480316162
1789323736779704800,16.434704833984377,4.9725847244262695,-8.779266357421875,-3.061915636062622
1789323736798555000,16.453554931640625,6.715456962585449,-6.5288166999816895,-1.9968105554580688
1789323736817404700,16.47240478515625,10.940882682800293,-6.961917400360107,-3.145963668823242
1789323736836254700,16.491254638671876,11.740683555603027,-12.16929817199707,-5.618945598602295
1789323736855104500,16.5101044921875,7.5942206382751465,-13.143475532531738,-7.435995578765869
1789323736873954600,16.52895458984375,4.563112735748291,-10.869097709655762,-4.29033088684082
1789323736892804400,16.547804443359375,4.151247978210449,-7.8765740394592285,-1.3764712810516357
1789323736911654400,16.566654296875,5.892026424407959,-8.700303077697754,-2.2671995162963867
1789323736930504200,16.585504150390626,7.761718273162842,-12.664911270141602,-4.261617183685303
1789323736949354200,16.604354248046874,8.692825317382812,-15.726826667785645,-6.327520370483398
1789323736968204000,16.6232041015625,6.478567123413086,-10.562816619873047,-4.304687976837158
1789323736987054000,16.64205419921875,4.7835516929626465,-6.844669342041016,-2.6551358699798584
1789323737005904000,16.66090380859375,3.3062827587127686,-4.924727916717529,-1.2185449600219727
1789323737024753700,16.679753662109373,3.349353551864624,-4.790729999542236,-1.2281162738800049
1789323737043603700,16.698603759765625,4.196712017059326,-6.195915222167969,-1.072582721710205
1789323737062453500,16.71745361328125,4.759324073791504,-7.0025954246521,-1.8098711967468262
1789323737081303600,16.736303466796876,5.678766250610352,-7.45274543762207,-2.8274190425872803
1789323737100153300,16.7551533203125,7.004988193511963,-7.826324462890625,-4.148855209350586
1789323737119003400,16.77400341796875,8.44157886505127,-8.788837432861328,-5.673980712890625
1789323737137853200,16.792853271484375,9.344271659851074,-10.692028999328613,-5.755336761474609
1789323737156703000,16.811702880859375,8.257331848144531,-10.538887977600098,-4.5822553634643555
1789323737175553000,16.830552978515627,7.022037029266357,-9.20997428894043,-3.859323740005493
1789323737194402800,16.84940283203125,6.854240417480469,-9.506983757019043,-4.405186653137207
1789323737213252900,16.8682529296875,7.847859859466553,-9.640981674194336,-5.477769374847412
1789323737232102700,16.8871025390625,8.393722534179688,-8.784051895141602,-5.309972763061523
1789323737250952700,16.90595263671875,8.906085968017578,-6.9236321449279785,-4.287938117980957
1789323737269802500,16.924802490234374,8.956335067749023,-5.7409796714782715,-2.2791635990142822
1789323737288652300,16.94365234375,7.957930088043213,-4.409972190856934,-1.8912272453308105
1789323737307502300,16.96250244140625,5.159224510192871,-2.5785655975341797,-2.1308085918426514
1789323737326352100,16.98135205078125,3.332603693008423,-2.0374884605407715,-3.311068296432495
1789323737345202200,17.0002021484375,3.638885021209717,-0.21296121180057526,-2.1403799057006836
1789323737364052000,17.019052001953124,3.9000017642974854,-1.1276177167892456,-0.1986042857170105
1789323737382901800,17.03790185546875,4.3788652420043945,-1.9414764642715454,0.2874378263950348
1789323737401751800,17.056751708984375,5.408377170562744,-3.045166015625,0.8835497498512268
1789323737420601600,17.0756015625,6.174379825592041,-2.4370899200439453,0.5650052428245544
1789323737439451600,17.09445166015625,6.198307991027832,-2.9542386531829834,-0.8644071817398071
1789323737458301400,17.113301513671875,6.519245147705078,-3.0571300983428955,-1.4198411703109741
1789323737477151200,17.132151123046874,5.97098970413208,-2.3437697887420654,-1.048654556274414
1789323737496001300,17.151001220703126,5.573482036590576,-1.7069798707962036,-1.4174482822418213
1789323737514851000,17.16985107421875,6.10259485244751,-1.9510477781295776,-0.7037889361381531
1789323737533700900,17.188700927734374,5.587839126586914,-1.807478427886963,-0.9768698215484619
1789323737552551000,17.207551025390625,3.859323740005493,-1.5801602602005005,-1.7572290897369385
1789323737571400700,17.226400634765625,4.986941337585449,-1.6447664499282837,-1.2041879892349243
1789323737590250800,17.245250732421876,6.416054725646973,-3.4331023693084717,-2.6192433834075928
1789323737609100500,17.2641005859375,6.483353137969971,-6.930810928344727,-2.2121646404266357
1789323737627950300,17.282950439453124,6.507281303405762,-8.075178146362305,-4.086641788482666
1789323737646800400,17.30180029296875,6.806384086608887,-10.852348327636719,-4.622933387756348
1789323737665650200,17.320650146484375,7.680362701416016,-13.72523021697998,-5.793622016906738
1789323737684500000,17.3395,5.968596935272217,-15.970894813537598,-7.074679374694824
1789323737703350000,17.35835009765625,7.524529933929443,-14.527424812316895,-4.73300313949585
1789323737722199800,17.37719970703125,7.606184959411621,-10.46231746673584,-3.045166015625
1789323737741049600,17.396049560546874,7.907680511474609,-7.6636128425598145,-2.856132984161377
1789323737759899600,17.414899658203126,7.340282440185547,-6.2892351150512695,-3.6511483192443848
1789323737778749400,17.43374951171875,5.944668769836426,-5.700301647186279,-3.5096726417541504
1789323737797599200,17.45259912109375,6.811169624328613,-6.054738521575928,-3.4163525104522705
1789323737816449300,17.47144921875,7.634898662567139,-8.597112655639648,-3.1746773719787598
1789323737835299000,17.490299072265625,8.910871505737305,-12.839587211608887,-4.503292083740234
1789323737854148900,17.50914892578125,8.594719886779785,-15.413067817687988,-6.662814617156982
1789323737872999000,17.5279990234375,7.898109436035156,-10.476675033569336,-5.90159797668457
1789323737891848700,17.5468486328125,7.270890712738037,-8.168797492980957,-3.7899320125579834
1789323737910698500,17.565698486328124,6.894918441772461,-10.186843872070312,-4.453042984008789
1789323737929548500,17.584548583984375,4.8792643547058105,-11.798110961914062,-3.253640651702881
1789323737948398300,17.6033984375,4.7234320640563965,-10.680065155029297,-2.3988046646118164
1789323737967248100,17.622248046875,4.295116424560547,-8.374580383300781,-2.458625316619873
1789323737986098200,17.64109814453125,3.617349624633789,-6.384948253631592,-2.676671266555786
1789323738004948000,17.659947998046874,4.6061835289001465,-5.609374523162842,-3.1148569583892822
1789323738023797800,17.6787978515625,6.059524059295654,-5.879763603210449,-2.9542386531829834
1789323738042647600,17.6976474609375,7.5774712562561035,-6.308377742767334,-3.390031576156616
1789323738061497600,17.71649755859375,6.672386169433594,-7.0531439781188965,-4.191926002502441
1789323738080347400,17.735347412109373,4.2831525802612305,-7.756932735443115,-4.943870544433594
1789323738099197200,17.754197265625,3.2033913135528564,-6.859025955200195,-3.7372899055480957
1789323738118047200,17.773047119140625,5.070690155029297,-4.884049892425537,-1.6998014450073242
1789323738136897000,17.79189697265625,10.82841968536377,-4.991727352142334,-1.5418751239776611
1789323738155746800,17.810746826171876,15.006288528442383,-7.804789066314697,-2.942274570465088
1789323738174596600,17.8295966796875,12.707982063293457,-10.191629409790039,-3.531208038330078
1789323738193446700,17.84844677734375,8.678468704223633,-9.851848602294922,-3.5910286903381348
1789323738212296400,17.86729638671875,5.997310638427734,-4.709074974060059,-3.895216226577759
1789323738231146200,17.886146240234375,4.364508628845215,-0.27756741642951965,-2.4466612339019775
1789323738249996000,17.90499609375,4.730610370635986,1.1060823202133179,-0.3329014480113983
1789323738268846000,17.92384619140625,3.4642090797424316,1.0031908750534058,1.0630114078521729
1789323738287696000,17.94269580078125,0.8452646136283875,0.07178468257188797,0.2826521694660187
1789323738306545700,17.961545654296874,1.7045869827270508,1.4174482822418213,3.3948171138763428
1789323738325395500,17.9803955078125,4.096213340759277,0.7899305820465088,0.39511483907699585
1789323738344245500,17.99924560546875,5.309972763061523,-1.287936806678772,-0.24167509377002716
1789323738363095300,18.01809521484375,7.421638488769531,-1.1515458822250366,-1.6160526275634766
1789323738381945000,18.036945068359376,8.810373306274414,-3.3684961795806885,-3.215355396270752
1789323738400795000,18.055794921875,6.291627883911133,-4.132105827331543,-4.402793884277344
1789323738419645000,18.07464501953125,6.988238334655762,-4.115355968475342,-3.6559338569641113
1789323738438494700,18.09349462890625,6.892525672912598,-4.292723655700684,-3.7612180709838867
1789323738457344500,18.112344482421875,5.937490463256836,-7.697112083435059,-3.7181472778320312
1789323738476194300,18.1311943359375,6.160022735595703,-10.153345108032227,-2.8226335048675537
1789323738495044400,18.15004443359375,5.0347981452941895,-10.38066291809082,-2.480160713195801
1789323738513894100,18.16889404296875,2.99013090133667,-9.186046600341797,-2.2025933265686035
1789323738532744000,18.187743896484374,2.042274236679077,-7.223034381866455,-0.5123631358146667
1789323738551593700,18.20659375,5.338985443115234,-4.203890323638916,-0.7923234105110168
1789323738570443500,18.225443603515625,8.319544792175293,-3.284747362136841,-1.6447664499282837
1789323738589293600,18.24429345703125,10.708778381347656,-6.064310073852539,-5.173581600189209
1789323738608143400,18.263143310546877,10.076774597167969,-11.08475112915039,-8.817551612854004
1789323738626993200,18.2819931640625,6.571887493133545,-15.109179496765137,-10.648958206176758
1789323738645843000,18.300843017578124,4.718646049499512,-16.322938919067383,-4.575077056884766
1789323738664692700,18.319692626953124,6.337091445922852,-15.238391876220703,0.13160525262355804
1789323738683542800,18.338542724609376,7.05553674697876,-13.655838966369629,-0.7133602499961853
1789323738702392600,18.357392578125,7.613363265991211,-12.693625450134277,-3.81864595413208
1789323738721242400,18.376242431640627,10.112667083740234,-11.015358924865723,-4.53200626373291
1789323738740092200,18.395092041015626,9.72951602935791,-8.283653259277344,-5.053940296173096
1789323738758942200,18.413942138671874,7.067500591278076,-6.4304118156433105,-5.405984401702881
1789323738777792000,18.4327919921875,5.62373161315918,-5.475376605987549,-5.1209397315979
1789323738796641800,18.451641845703126,4.462614059448242,-5.398806095123291,-4.295116424560547
1789323738815491600,18.47049169921875,3.5814573764801025,-6.667600154876709,-3.555136203765869
1789323738834341400,18.48934130859375,3.418745279312134,-7.934001445770264,-3.6966118812561035
1789323738853191200,18.508191162109377,4.100998878479004,-7.821538925170898,-3.380460262298584
1789323738872041200,18.527041259765625,6.078666687011719,-8.207082748413086,-2.449054002761841
1789323738890891000,18.54589111328125,8.283653259277344,-9.138189315795898,-2.6096723079681396
1789323738909740800,18.56474072265625,10.495817184448242,-9.396913528442383,-3.6726837158203125
1789323738928590600,18.583590576171876,12.20518970489502,-9.61944580078125,-6.2413787841796875
1789323738947440400,18.6024404296875,10.634601593017578,-11.065608024597168,-8.546863555908203
1789323738966290200,18.621290283203123,8.970691680908203,-10.694421768188477,-6.818347930908203
1789323738985140000,18.640139892578127,6.090631008148193,-6.641279220581055,-3.5910286903381348
1789323739003990000,18.658989990234375,4.893621444702148,-3.5048868656158447,-2.566601276397705
1789323739022839800,18.67783984375,4.9654059410095215,-1.1228320598602295,-1.5083755254745483
1789323739041689600,18.696689697265626,5.278865814208984,-0.9912267923355103,-1.659123420715332
1789323739060539400,18.715539306640625,5.587839126586914,-0.5099703073501587,-1.721336841583252
1789323739079389200,18.73438916015625,6.160022735595703,-0.27756741642951965,-1.4916257858276367
1789323739098239000,18.753239013671877,5.343770980834961,-2.7340989112854004,-0.8883354067802429
1789323739117088800,18.7720888671875,4.840979099273682,-3.5479576587677,0.7612167000770569
1789323739135938600,18.7909384765625,2.6240291595458984,-3.0738797187805176,-1.7069798707962036
1789323739154788600,18.80978857421875,3.904787540435791,-1.831406593322754,0.23688943684101105
1789323739173638400,18.828638427734376,6.394519329071045,0.2994019389152527,1.0199406147003174
1789323739192488200,18.84748828125,11.283354759216309,-2.111665964126587,-0.5626124143600464
1789323739211338000,18.866337890625,8.233403205871582,-3.7205400466918945,-2.944667339324951
1789323739230187800,18.885187744140627,4.735395908355713,-5.030012130737305,-3.976572036743164
1789323739249037600,18.90403759765625,2.99013090133667,-4.60857629776001,-2.3772692680358887
1789323739267887400,18.922887451171874,3.483351469039917,-3.7420754432678223,-3.4067811965942383
1789323739286737200,18.941737060546874,4.9175496101379395,-4.450650215148926,-0.11006984114646912
1789323739305587000,18.9605869140625,6.763313293457031,-3.497708559036255,-0.8258228898048401
1789323739324437000,18.97943701171875,7.426424026489258,-2.489732027053833,-1.7476578950881958
1789323739343286800,18.998286865234373,8.300402641296387,-1.529910922050476,-4.575077056884766
1789323739362136600,19.017136474609377,5.140082359313965,-2.36291241645813,-5.738586902618408
1789323739380986400,19.035986328125,5.197509765625,-4.462614059448242,-4.386044025421143
1789323739399836200,19.054836181640624,6.473781585693359,-8.087141990661621,-6.028417587280273
1789323739418686000,19.07368603515625,6.085845470428467,-14.682957649230957,-4.7401814460754395
1789323739437535700,19.09253564453125,7.673183917999268,-20.560626983642578,-6.545566558837891
1789323739456385500,19.111385498046875,10.165308952331543,-21.417556762695312,-3.8521454334259033
1789323739475235300,19.1302353515625,10.304092407226562,-12.846765518188477,-3.1890344619750977
1789323739494085000,19.149085205078126,7.383353233337402,-7.728219032287598,-4.749752998352051
1789323739512935000,19.167934814453126,7.498208999633789,-7.383353233337402,-5.549553871154785
1789323739531784700,19.18678466796875,7.428816795349121,-8.767302513122559,-5.353342533111572
1789323739550634500,19.205634521484374,5.312365531921387,-9.573982238769531,-3.7444684505462646
1789323739569484300,19.224484375,4.3070807456970215,-6.768098831176758,-2.5232315063476562
1789323739588334000,19.243333984375,1.4557334184646606,-4.553541660308838,-0.016749758273363113
1789323739607184000,19.262183837890625,5.12811803817749,-2.5761725902557373,-1.311864972114563
1789323739626034000,19.281033935546876,5.403591632843018,-4.843372344970703,-2.417947292327881
1789323739644883700,19.2998837890625,5.853442192077637,-8.343473434448242,-3.2440693378448486
1789323739663733500,19.3187333984375,9.150154113769531,-10.057631492614746,-6.514459609985352
1789323739682583300,19.337583251953124,7.3283185958862305,-12.351152420043945,-7.194320201873779
1789323739701433000,19.35643310546875,8.86780071258545,-12.85633659362793,-7.668398380279541
1789323739720283000,19.375282958984375,9.573982238769531,-12.339188575744629,-3.9789650440216064
1789323739739132700,19.394132568359375,6.725028038024902,-9.961918830871582,-3.5742788314819336
1789323739757982500,19.412982421875,5.511268615722656,-7.878966808319092,-4.436293125152588
1789323739776832300,19.431832275390626,7.654041290283203,-6.358626842498779,-4.888835906982422
1789323739795682000,19.45068212890625,9.032905578613281,-7.514958381652832,-5.319543838500977
1789323739814531800,19.46953173828125,9.121439933776855,-8.19272518157959,-5.302793979644775
1789323739833381600,19.488381591796873,7.103393077850342,-7.045965194702148,-4.182354927062988
1789323739852231400,19.5072314453125,5.290830135345459,-6.593422889709473,-2.698206663131714
1789323739871081200,19.526081298828124,4.388436794281006,-3.8162529468536377,-1.017547845840454
1789323739889931000,19.544930908203124,3.866502285003662,-1.1371889114379883,-1.1563315391540527
1789323739908780800,19.56378076171875,4.455435752868652,-0.2584248483181,-2.6264219284057617
1789323739927630600,19.582630615234375,5.140082359313965,-1.5873386859893799,-2.597707986831665
1789323739946480400,19.60148046875,5.5591254234313965,-1.9872392416000366,-0.4668995141983032
1789323739965330200,19.620330078125,5.781657695770264,-0.8787640929222107,1.1611171960830688
1789323739984180000,19.639179931640626,5.556732177734375,-1.7380865812301636,0.40229329466819763
1789323740003029800,19.65802978515625,5.161617755889893,-2.7029922008514404,-1.067797064781189
1789323740021879600,19.676879638671874,4.812265396118164,-2.1882362365722656,-0.5745765566825867
1789323740040729300,19.695729248046874,6.27487850189209,-1.7356936931610107,-0.3113660514354706
1789323740059579100,19.7145791015625,6.751348972320557,-1.2687941789627075,-1.347757339477539
1789323740078429000,19.733428955078125,5.611767292022705,-0.9744769930839539,-1.800299882888794
1789323740097278500,19.752278564453125,5.760122299194336,-0.8835497498512268,-2.011167526245117
1789323740116128300,19.771128173828124,5.508875846862793,-1.1012966632843018,-2.564208507537842
1789323740134978000,19.78997802734375,5.657230854034424,-1.8888343572616577,-2.6790640354156494
1789323740153827800,19.808827880859376,5.84865665435791,-4.9965128898620605,-3.4546377658843994
1789323740172677600,19.827677734375,6.121737480163574,-9.119047164916992,-4.268795490264893
1789323740191527400,19.84652734375,6.15762996673584,-10.766206741333008,-4.805087089538574
1789323740210377200,19.865377197265627,5.638088226318359,-9.523733139038086,-4.9654059410095215
1789323740229227000,19.88422705078125,6.519245147705078,-8.697610855102539,-4.9725847244262695
1789323740248076800,19.903076904296874,7.972286701202393,-9.205188751220703,-5.626124382019043
1789323740266926600,19.921926513671874,8.048856735229492,-10.656136512756348,-6.447161674499512
1789323740285776400,19.9407763671875,7.189534664154053,-13.179368019104004,-6.305984973907471
1789323740304626200,19.959626220703125,7.103393077850342,-14.15145206451416,-4.089034557342529
1789323740323476000,19.97847607421875,6.55992317199707,-11.45563793182373,-2.410768747329712
1789323740342325500,19.997325439453125,5.702694416046143,-9.068798065185547,-1.8553348779678345
1789323740361175300,20.01617529296875,6.167201042175293,-8.357830047607422,-2.801098108291626
1789323740380025000,20.035025146484376,6.473781585693359,-9.724730491638184,-3.4139597415924072
1789323740398875000,20.053875,6.952346324920654,-9.810872077941895,-4.141676902770996
1789323740417724700,20.072724609375,6.736992359161377,-7.5774712562561035,-3.864109516143799
1789323740436574500,20.091574462890627,6.396912097930908,-6.368198394775391,-3.9717864990234375
1789323740455424300,20.11042431640625,5.980561256408691,-6.715456962585449,-3.9789650440216064
1789323740474274000,20.129274169921874,5.535196781158447,-7.325925827026367,-3.0499515533447266
1789323740493123800,20.148123779296874,6.1695942878723145,-7.756932735443115,-3.1890344619750977
1789323740511973600,20.1669736328125,6.485745906829834,-9.241081237792969,-3.3852458000183105
1789323740530823200,20.1858232421875,7.309175968170166,-10.491031646728516,-3.967000722885132
1789323740549673000,20.2046728515625,8.740981101989746,-11.206785202026367,-5.202295303344727
1789323740568522800,20.223522705078125,9.114261627197266,-11.44845962524414,-6.28205680847168
1789323740587372500,20.24237255859375,8.764909744262695,-10.272985458374023,-6.748956203460693
1789323740606222300,20.261222412109376,8.748159408569336,-9.121439933776855,-6.140880107879639
1789323740625072000,20.280072021484376,7.2110700607299805,-9.190832138061523,-5.372485160827637
1789323740643922000,20.298921875,4.716253280639648,-8.348258972167969,-5.235795021057129
1789323740662771700,20.317771728515623,2.880061149597168,-6.188736438751221,-3.452244758605957
1789323740681621200,20.336621337890627,3.1627132892608643,-3.2273194789886475,-1.529910922050476
1789323740700471000,20.355470947265626,6.617351055145264,-1.8194425106048584,-0.23688943684101105
1789323740719320800,20.37432080078125,7.991429328918457,-3.129213809967041,-0.46450668573379517
1789323740738170600,20.393170654296874,5.2716875076293945,-3.6583266258239746,-0.9433703422546387
1789323740757020400,20.4120205078125,4.165605068206787,0.14117653667926788,-0.9577272534370422
1789323740775870200,20.4308701171875,6.023632049560547,-1.2640085220336914,-2.23848557472229
1789323740794720000,20.449719970703125,7.110571384429932,-3.6221351623535156,-2.1020946502685547
1789323740813569500,20.468569580078125,7.7114691734313965,-3.6511483192443848,-1.4844473600387573
1789323740832419300,20.48741943359375,7.8693952560424805,-3.0332016944885254,-1.6878372430801392
1789323740851269000,20.50626904296875,5.377270698547363,-2.1379871368408203,-2.403590440750122
1789323740870119000,20.525118896484376,3.3948171138763428,-1.3692927360534668,-1.4964114427566528
1789323740888968700,20.54396875,4.4243292808532715,-0.4668995141983032,0.5123631358146667
1789323740907818500,20.562818603515623,6.387341022491455,0.20338992774486542,1.0103694200515747
1789323740926668000,20.58166796875,6.658029079437256,-0.24167509377002716,-0.014356935396790504
1789323740945517800,20.600517822265626,5.410770416259766,-1.2759727239608765,-1.592124342918396
1789323740964367600,20.61936767578125,5.149653434753418,-2.2360928058624268,-2.3509483337402344
1789323740983217400,20.638217529296874,5.432305812835693,-2.7891337871551514,-2.255235433578491
1789323741002067200,20.657067138671874,5.664409637451172,-3.7995033264160156,-2.6886353492736816
1789323741020916700,20.675916748046873,6.1241302490234375,-6.4905314445495605,-3.3373894691467285
1789323741039766500,20.6947666015625,6.346662998199463,-7.957930088043213,-4.144069671630859
1789323741058616300,20.7136162109375,6.1073808670043945,-8.745766639709473,-5.087440013885498
1789323741077466000,20.732466064453124,5.899205207824707,-9.741479873657227,-5.927918910980225
1789323741096316000,20.75131591796875,5.817550182342529,-11.924930572509766,-6.229414463043213
1789323741115165400,20.77016552734375,7.649255752563477,-13.883456230163574,-5.413163185119629
1789323741134015200,20.78901513671875,9.418449401855469,-14.141880989074707,-4.357329845428467
1789323741152865000,20.807864990234375,8.944371223449707,-11.61864948272705,-3.7731821537017822
1789323741171714800,20.82671484375,7.278069019317627,-8.429615020751953,-4.553541660308838
1789323741190564400,20.845564453125,6.555137634277344,-7.134500026702881,-4.553541660308838
1789323741209414100,20.8644140625,6.432804584503174,-7.835896015167236,-3.8617167472839355
1789323741228264000,20.883263916015625,6.167201042175293,-9.111868858337402,-3.4785659313201904
1789323741247113700,20.90211376953125,6.258128643035889,-9.07119083404541,-3.9717864990234375
1789323741265963300,20.92096337890625,6.317949295043945,-8.235795974731445,-3.1555347442626953
1789323741284813000,20.93981298828125,7.134500026702881,-7.881359577178955,-4.821836948394775
1789323741303662800,20.958662841796876,5.590231895446777,-8.415258407592773,-3.160320520401001
1789323741322512600,20.9775126953125,6.444768905639648,-9.298808097839355,-4.359723091125488
1789323741341362200,20.996362060546875,5.853442192077637,-10.057631492614746,-3.4067811965942383
1789323741360212000,21.0152119140625,6.04038143157959,-9.550054550170898,-3.859323740005493
1789323741379061800,21.034061767578127,6.408876419067383,-9.044869422912598,-4.398007869720459
1789323741397911600,21.05291162109375,7.278069019317627,-9.133403778076172,-5.075475692749023
1789323741416761000,21.071760986328126,7.567600727081299,-9.844670295715332,-4.936692237854004
1789323741435611000,21.09061083984375,8.575576782226562,-10.088738441467285,-4.735395908355713
1789323741454460700,21.109460693359374,8.183154106140137,-10.244272232055664,-4.924727916717529
1789323741473310500,21.128310546875,7.649255752563477,-9.39452075958252,-6.006882190704346
1789323741492160000,21.147159912109377,6.15762996673584,-8.219046592712402,-6.258128643035889
1789323741511009800,21.166009765625,4.8074798583984375,-6.605386734008789,-4.41475772857666
1789323741529859600,21.184859619140624,7.05553674697876,-1.501197099685669,-1.1539387702941895
1789323741548709400,21.20370947265625,9.008976936340332,-3.090928554534912,-0.646361231803894
1789323741567559000,21.222558837890624,7.457530975341797,-4.493721008300781,-2.317448616027832
1789323741586408700,21.24140869140625,4.304687976837158,-3.864109516143799,-3.248854875564575
1789323741605258500,21.260258544921875,5.899205207824707,-2.1619153022766113,-2.018345832824707
1789323741624108000,21.27910791015625,6.859025955200195,-1.695015788078308,-1.3022937774658203
1789323741642957800,21.297957763671874,5.8821563720703125,-1.9606190919876099,-0.10289137065410614
1789323741661807600,21.3168076171875,5.518447399139404,-1.9896320104599,-1.1611171960830688
1789323741680657200,21.3356572265625,6.327520370483398,-2.669492721557617,-0.3616153299808502
1789323741699507000,21.3545068359375,5.781657695770264,-2.42512583732605,-1.2305090427398682
1789323741718356700,21.373356689453125,6.162415504455566,-2.8513472080230713,-0.3927220106124878
1789323741737206500,21.39220654296875,6.064310073852539,-2.707777976989746,-0.17946170270442963
1789323741756056000,21.41105615234375,5.149653434753418,-2.9398818016052246,-1.0965110063552856
1789323741774905900,21.42990576171875,4.84815788269043,-2.810669183731079,-1.561017632484436
1789323741793755600,21.448755615234376,4.625326156616211,-2.2815563678741455,-2.0709879398345947
1789323741812605200,21.467605224609375,4.41475772857666,-2.1547367572784424,-0.9864411354064941
1789323741831455000,21.486455078125,5.573482036590576,-1.7261223793029785,-0.8018946647644043
1789323741850304500,21.505304443359375,4.117748737335205,-2.149951219558716,-2.025524377822876
1789323741869154300,21.524154296875,3.9382870197296143,-3.91914439201355,-2.5618157386779785
1789323741888004000,21.543004150390626,5.726622581481934,-5.379663467407227,-3.284747362136841
1789323741906853600,21.561853515625,6.945167541503906,-7.301997184753418,-4.038785457611084
1789323741925703400,21.580703369140625,8.530113220214844,-10.13898754119873,-6.215057849884033
1789323741944553200,21.59955322265625,9.652945518493652,-15.74118423461914,-9.667302131652832
1789323741963402800,21.61840283203125,8.072785377502441,-20.187047958374023,-10.371091842651367
1789323741982252500,21.63725244140625,8.903693199157715,-16.098012924194336,-5.07308292388916
1789323742001102300,21.656102294921876,8.362615585327148,-10.337592124938965,-2.6623141765594482
1789323742019951900,21.674951904296876,6.74656343460083,-8.760123252868652,-2.949453115463257
1789323742038801700,21.6938017578125,7.05553674697876,-8.44157886505127,-3.7037904262542725
1789323742057651500,21.7126513671875,7.543672561645508,-7.984251022338867,-4.362115859985352
1789323742076501000,21.7315009765625,6.885347366333008,-7.481459140777588,-4.579862594604492
1789323742095350800,21.750350830078126,5.62373161315918,-7.2349982261657715,-4.038785457611084
1789323742114200300,21.769200439453126,4.836193561553955,-6.3442702293396,-3.315854072570801
1789323742133050000,21.788050048828126,4.3549370765686035,-6.0762739181518555,-2.5713870525360107
1789323742151900000,21.80689990234375,5.748157978057861,-7.165606498718262,-3.193819999694824
1789323742170749400,21.82574951171875,6.1935224533081055,-8.805587768554688,-4.170390605926514
1789323742189599200,21.84459912109375,6.066702842712402,-10.127023696899414,-3.7827534675598145
1789323742208448800,21.86344873046875,6.332305908203125,-10.091131210327148,-3.928715705871582
1789323742227298600,21.882298583984376,6.825526714324951,-9.420842170715332,-3.3828530311584473
1789323742246148400,21.9011484375,8.772088050842285,-9.128618240356445,-3.5718860626220703
1789323742264998000,21.919997802734375,8.71226692199707,-10.000204086303711,-4.625326156616211
1789323742283847700,21.93884765625,7.9244303703308105,-9.042476654052734,-6.442375659942627
1789323742312122000,21.9671220703125,7.5341010093688965,-7.060322284698486,-6.928418159484863
1789323742330972000,21.985971923828124,8.15683364868164,-7.457530975341797,-6.059524059295654
1789323742349821400,22.004821533203124,7.5412797927856445,-7.5774712562561035,-4.038785457611084
1789323742368671200,22.023671142578124,6.569494724273682,-7.246962547302246,-3.8712878227233887
1789323742387520800,22.042520751953123,6.286842346191406,-6.885347366333008,-3.1627132892608643
1789323742406370600,22.06137060546875,5.719444274902344,-4.994120121002197,-2.286342144012451
1789323742425220000,22.08022021484375,4.936692237854004,-3.0020952224731445,-1.170688509941101
1789323742444070000,22.09906982421875,4.824229717254639,-0.8835497498512268,-0.7277171611785889
1789323742462919700,22.117919677734374,4.587040901184082,-0.07417750358581543,-1.7620147466659546
1789323742481769200,22.136769287109374,4.508078098297119,-1.5251253843307495,-1.6328023672103882
1789323742500619000,22.155618896484373,4.0818562507629395,-0.797109067440033,0.15314064919948578
1789323742519468500,22.174468505859377,4.7473602294921875,-0.6774678826332092,1.7883358001708984
1789323742538318300,22.193318359375,3.559921979904175,-1.3836497068405151,-1.0414760112762451
1789323742557167900,22.21216796875,2.5450658798217773,-0.7516453862190247,1.287936806678772
1789323742576017700,22.231017578125,6.9930243492126465,0.42382872104644775,1.2664014101028442
1789323742594867200,22.2498671875,9.164510726928711,-0.7612167000770569,-1.252044439315796
1789323742613717000,22.268717041015623,7.409674644470215,-2.341377019882202,-2.6192433834075928
1789323742632566800,22.28756689453125,4.694717884063721,-2.5833511352539062,-3.1890344619750977
1789323742651416300,22.306416259765626,5.683551788330078,-2.17627215385437,-3.3708889484405518
1789323742670266000,22.32526611328125,6.602993965148926,-2.817847728729248,-3.6340994834899902
1789323742689115600,22.34411572265625,6.595815658569336,-6.784848690032959,-3.9311084747314453
1789323742707965400,22.36296533203125,6.145665645599365,-9.05444049835205,-4.512863636016846
1789323742726815000,22.38181494140625,5.008476734161377,-8.31715202331543,-4.529613494873047
1789323742745664500,22.40066455078125,6.473781585693359,-7.261319637298584,-4.369294166564941
1789323742764514300,22.419514404296876,7.622934818267822,-7.881359577178955,-4.54636287689209
1789323742792788700,22.447788818359374,7.110571384429932,-10.375877380371094,-5.903990745544434
1789323742811638500,22.466638427734374,7.2110700607299805,-12.152547836303711,-6.483353137969971
1789323742830488000,22.485488037109373,7.256533622741699,-13.694124221801758,-5.757729530334473
1789323742849337900,22.504337890625,6.777669906616211,-11.817254066467285,-4.124927043914795
1789323742868187400,22.5231875,6.372983932495117,-9.286844253540039,-3.1100711822509766
1789323742887037200,22.542037109375,6.224628925323486,-8.123034477233887,-3.3684961795806885
1789323742905886700,22.56088671875,5.843871116638184,-8.372187614440918,-3.1555347442626953
1789323742924736500,22.579736572265624,6.02602481842041,-9.025727272033691,-3.2512478828430176
1789323742943586000,22.5985859375,7.1010003089904785,-9.731908798217773,-3.5647075176239014
1789323742962435800,22.617435791015627,8.041678428649902,-9.791728973388672,-4.575077056884766
1789323742981285400,22.636285400390626,7.4862446784973145,-8.870193481445312,-4.716253280639648
1789323743000135200,22.65513525390625,7.519744396209717,-8.134998321533203,-5.288437366485596
1789323743018984700,22.673984619140626,7.225427150726318,-8.314759254455566,-5.635695457458496
1789323743037834200,22.692834228515625,6.2892351150512695,-8.803194046020508,-5.080261707305908
1789323743056684000,22.71168408203125,5.829514026641846,-8.800801277160645,-4.433900356292725
1789323743075533600,22.730533447265625,5.384449005126953,-8.94676399230957,-3.6631124019622803
1789323743094383400,22.74938330078125,4.553541660308838,-8.67607593536377,-3.6559338569641113
1789323743113233000,22.76823291015625,5.1065826416015625,-8.20229721069336,-3.6966118812561035
1789323743132082700,22.787082763671876,7.948358535766602,-7.656434059143066,-3.7851462364196777
1789323743150932200,22.80593212890625,10.129416465759277,-9.174081802368164,-5.001298427581787
1789323743169781800,22.82478173828125,9.827920913696289,-10.648958206176758,-6.162415504455566
1789323743188631600,22.843631591796875,7.596613883972168,-8.372187614440918,-7.620542049407959
1789323743207481000,22.862481201171875,4.4243292808532715,-6.485745906829834,-6.195915222167969
1789323743226331000,22.881330810546874,4.067499160766602,-4.002892971038818,-1.7356936931610107
1789323743245180400,22.900180419921874,4.6301116943359375,-1.8912272453308105,-1.2592228651046753
1789323743264030200,22.9190302734375,3.507279872894287,-1.9776679277420044,-1.256830096244812
1789323743282879700,22.937879638671873,2.8848466873168945,-1.8266209363937378,-0.16271193325519562
1789323743301729300,22.956729248046877,4.4482574462890625,0.03349951654672623,0.8500502705574036
1789323743320579000,22.9755791015625,6.02602481842041,-2.403590440750122,-0.5027918815612793
1789323743339428600,22.9944287109375,6.763313293457031,-2.2600209712982178,-0.7420741319656372
1789323743358278400,23.0132783203125,8.561220169067383,-3.02123761177063,-0.7229315638542175
1789323743377128000,23.0321279296875,7.584649562835693,-2.7580273151397705,-0.6631109714508057
1789323743395977700,23.050977783203123,4.9654059410095215,-2.1786649227142334,-1.0773683786392212
1789323743414827300,23.0698271484375,3.6460635662078857,-1.4437693357467651,-2.396411895751953
1789323743433676800,23.0886767578125,6.454638957977295,-0.49322056770324707,0.6798607110977173
1789323743452526600,23.107526611328126,11.283354759216309,-0.6008976101875305,0.23449662327766418
1789323743471376100,23.126376220703126,6.334698677062988,-2.542673110961914,-3.8545382022857666
1789323743490225700,23.1452255859375,5.432305812835693,-3.631706476211548,-2.887239694595337
1789323743509075500,23.164075439453125,5.877370834350586,-3.70139741897583,-4.1991047859191895
1789323743527925000,23.182925048828125,6.3131632804870605,-5.4658050537109375,-3.4857444763183594
1789323743546774800,23.20177490234375,6.2413787841796875,-6.935596466064453,-3.397209882736206
1789323743565624300,23.220624267578124,4.651647090911865,-6.033203125,-3.2057840824127197
1789323743584473900,23.239473876953124,4.934299468994141,-4.689932346343994,-3.8473596572875977
1789323743603323600,23.25832373046875,6.988238334655762,-5.108975410461426,-4.589433670043945
1789323743622173200,23.277173095703127,6.868597507476807,-8.048856735229492,-3.967000722885132
1789323743641022700,23.296022705078126,4.912764072418213,-10.818848609924316,-6.772884368896484
1789323743659872500,23.31487255859375,5.516054630279541,-13.1123685836792,-5.075475692749023
1789323743678722000,23.33372216796875,9.416056632995605,-12.595220565795898,-4.773980140686035
1789323743697571600,23.352571533203125,9.078369140625,-12.135798454284668,-3.6125640869140625
1789323743716421400,23.37142138671875,8.436793327331543,-15.035001754760742,-5.784050464630127
1789323743735271000,23.39027099609375,6.909275531768799,-13.77817153930664,-5.324329376220703
1789323743754120400,23.409120361328124,7.7593255043029785,-9.4088773727417,-2.825026273727417
1789323743772970200,23.42797021484375,6.387341022491455,-7.737790107727051,-3.9502511024475098
1789323743791819800,23.44681982421875,5.781657695770264,-6.983452796936035,-4.967798709869385
1789323743810669300,23.46566943359375,5.8944196701049805,-6.011667728424072,-4.587040901184082
1789323743829519000,23.48451904296875,5.860620975494385,-5.853442192077637,-4.175176620483398
1789323743848368600,23.50336865234375,7.457530975341797,-6.612565517425537,-5.78644323348999
1789323743867218200,23.52221826171875,5.276473045349121,-8.944371223449707,-5.389235019683838
1789323743886068000,23.54106787109375,4.096213340759277,-9.502198219299316,-3.6942191123962402
1789323743904917500,23.55991748046875,4.467400074005127,-8.120641708374023,-3.7731821537017822
1789323743923767000,23.57876708984375,3.607778310775757,-7.33549690246582,-1.6088740825653076
1789323743942616800,23.597616943359377,7.086643218994141,-6.200700759887695,-1.7835501432418823
1789323743961466400,23.61646630859375,9.317950248718262,-8.898907661437988,-3.660719633102417
1789323743980316000,23.63531591796875,8.66171932220459,-11.436495780944824,-7.52213716506958
1789323743999165400,23.65416552734375,8.376973152160645,-10.107880592346191,-9.030512809753418
1789323744018015200,23.67301513671875,8.958727836608887,-9.483055114746094,-5.2405805587768555
1789323744036864800,23.69186474609375,8.80798053741455,-8.745766639709473,-5.089832782745361
1789323744055714300,23.71071435546875,6.526423931121826,-6.885347366333008,-6.071488380432129
1789323744074563800,23.729563720703126,5.925526142120361,-4.091427803039551,-4.419543266296387
1789323744093413600,23.74841357421875,7.39771032333374,-3.0957143306732178,-2.8776683807373047
1789323744112263200,23.76726318359375,7.426424026489258,-3.5264222621917725,-2.2408783435821533
1789323744131112700,23.78611279296875,4.900799751281738,-2.6072793006896973,-2.549851655960083
1789323744149962500,23.80496240234375,3.1746773719787598,-1.1826525926589966,-1.927119493484497
1789323744168812000,23.82381201171875,2.8226335048675537,-1.1060823202133179,-0.7803592681884766
1789323744187661600,23.84266162109375,3.342175006866455,-1.1826525926589966,0.9074779748916626
1789323744206511000,23.861510986328124,6.152844429016113,-1.4294124841690063,1.4724832773208618
1789323744225361000,23.88036083984375,4.78594446182251,-1.7644076347351074,-0.9170492887496948
1789323744244210400,23.89921044921875,4.955834865570068,-1.7309080362319946,-0.4956133961677551
1789323744263060000,23.91806005859375,5.152046203613281,-1.4820544719696045,-1.7476578950881958
1789323744281909800,23.93690966796875,5.324329376220703,-2.417947292327881,-0.5673980712890625
1789323744300759300,23.95575927734375,6.638886451721191,-1.378864049911499,-0.09571290761232376
1789323744319608800,23.97460888671875,5.915955066680908,-1.1778669357299805,-1.1276177167892456
1789323744338458400,23.993458251953125,5.504090309143066,-1.9558334350585938,-2.181057929992676
1789323744357308000,24.012307861328125,4.486542224884033,-2.7412774562835693,-3.904787540435791
1789323744376157700,24.03115771484375,4.632504463195801,-3.9885363578796387,-3.0933215618133545
1789323744395007200,24.05000732421875,7.675576686859131,-5.144867897033691,-3.5503506660461426
1789323744413856800,24.068856689453124,8.142476081848145,-6.1695942878723145,-5.202295303344727
1789323744432706300,24.087706298828124,6.964310169219971,-9.008976936340332,-6.574280261993408
1789323744451556000,24.10655615234375,6.356234073638916,-11.182856559753418,-7.254140853881836
1789323744470405600,24.125405517578123,5.018048286437988,-12.82044506072998,-7.282855033874512
1789323744489255200,24.144255126953126,5.5830535888671875,-11.642578125,-4.409972190856934
1789323744508104700,24.163104736328126,7.191927433013916,-9.013762474060059,-2.090130567550659
1789323744526954200,24.181954345703126,9.952347755432129,-11.52532958984375,-4.390829563140869
1789323744545804000,24.200803955078126,8.058428764343262,-14.082060813903809,-5.819942951202393
1789323744564653600,24.219653564453125,7.412067413330078,-12.461221694946289,-6.921239376068115
1789323744583503000,24.238503173828125,6.4905314445495605,-8.692825317382812,-5.104189872741699
1789323744602352600,24.2573525390625,5.290830135345459,-7.642077445983887,-4.2281174659729
1789323744621202200,24.2762021484375,4.409972190856934,-6.87099027633667,-3.8856449127197266
1789323744640051700,24.2950517578125,4.467400074005127,-5.810371398925781,-2.5112674236297607
1789323744658901500,24.313901611328124,4.7931227684021,-5.080261707305908,-2.0063817501068115
1789323744677751000,24.3327509765625,4.872086048126221,-5.518447399139404,-2.066202402114868
1789323744696600600,24.3516005859375,4.836193561553955,-6.28205680847168,-2.872882604598999
1789323744715450000,24.3704501953125,4.022035598754883,-7.2732834815979,-2.0207388401031494
1789323744734299600,24.389299560546874,7.278069019317627,-7.608577728271484,-3.4163525104522705
1789323744753149400,24.4081494140625,10.246665000915527,-9.19561767578125,-4.618147850036621
