time,seconds_elapsed,z,y,x
1789323720518974000,0.173973876953125,0,0,0
1789323720556674300,0.21167431640625,0.11962127685546875,0.4415276050567627,-0.26460909843444824
1789323720575524400,0.2305244140625,0.23754215240478516,0.3470735549926758,-0.1310504674911499
1789323720594374400,0.24937451171875,0.2813243865966797,-0.3042633533477783,0.16076123714447021
1789323720613224400,0.268224365234375,0.2754507064819336,-0.577486515045166,0.1980060338973999
1789323720632074800,0.28707470703125,0.34765625,-0.4681546688079834,0.2753164768218994
1789323720650924800,0.3059248046875,0.36519718170166016,-0.28865766525268555,0.46328413486480713
1789323720669774800,0.32477490234375,0.4266033172607422,-0.18986225128173828,0.6233652830123901
1789323720688625000,0.343625,0.33936405181884766,-0.25235843658447266,0.6599417924880981
1789323720707475200,0.36247509765625,0.20061206817626953,-0.35239672660827637,0.7908216118812561
1789323720726325200,0.3813251953125,0.06725692749023438,-0.1438426971435547,0.7300025224685669
1789323720745175300,0.40017529296875,0.0389556884765625,0.04268670082092285,0.40760451555252075
1789323720764025300,0.419025390625,0.02873706817626953,-0.1642773151397705,0.43211209774017334
1789323720782875600,0.437875732421875,0.23993396759033203,-0.3187723159790039,0.8157174587249756
1789323720801725700,0.4567255859375,0.2544231414794922,-0.18365168571472168,1.0020533800125122
1789323720820575700,0.47557568359375,-0.35683345794677734,0.10435247421264648,0.83964604139328
1789323720839426000,0.494426025390625,-0.8378734588623047,0.15097618103027344,0.7670894265174866
1789323720858276000,0.513276123046875,-0.8629674911499023,0.5809950828552246,0.4346967935562134
1789323720877126100,0.532126220703125,-0.5433435440063477,0.7165708541870117,0.36998221278190613
1789323720895976200,0.55097607421875,-0.26610565185546875,0.6627984046936035,0.08620274066925049
1789323720914826500,0.569826416015625,0.0035467147827148438,0.6765255928039551,0.11493611335754395
1789323720933676500,0.588676513671875,0.1331644058227539,0.6435995101928711,0.241224467754364
1789323720952526600,0.607526611328125,0.04926013946533203,0.41208648681640625,0.5329440236091614
1789323720971377000,0.626376953125,-0.09914112091064453,0.1972799301147461,0.7119594812393188
1789323720990227000,0.64522705078125,-0.07029342651367188,0.1220865249633789,0.608065664768219
1789323721009077000,0.664076904296875,0.3192768096923828,0.05488109588623047,0.5600162744522095
1789323721027927000,0.682927001953125,0.26166629791259766,0.009635448455810547,0.6796023845672607
1789323721046777300,0.70177734375,-0.0904541015625,-0.07835197448730469,0.9714387655258179
1789323721065627400,0.72062744140625,-0.34497928619384766,-0.14522075653076172,1.0924029350280762
1789323721084477700,0.739477783203125,-0.16901111602783203,-0.6787867546081543,1.5325264930725098
1789323721103327700,0.75832763671875,-0.04068946838378906,-1.1505699157714844,1.7419803142547607
1789323721122177800,0.777177734375,-0.832582950592041,-1.7420611381530762,2.1899898052215576
1789323721141027800,0.79602783203125,-1.4853134155273438,-2.129342794418335,2.8785271644592285
1789323721159878100,0.814878173828125,-2.442964553833008,-2.1900291442871094,2.9941771030426025
1789323721178728200,0.833728271484375,-3.067038059234619,-2.0294435024261475,2.7246720790863037
1789323721197578200,0.852578125,-2.57493257522583,-1.4399447441101074,2.3866217136383057
1789323721216428500,0.871428466796875,-1.4571576118469238,-1.0041592121124268,2.1804466247558594
1789323721235278600,0.890278564453125,-0.8935375213623047,-1.2996513843536377,1.7725787162780762
1789323721254129000,0.90912890625,-0.6155843734741211,-1.4439737796783447,1.2659894227981567
1789323721272979000,0.92797900390625,-1.4318017959594727,-1.5230302810668945,0.923351526260376
1789323721291829000,0.9468291015625,-1.9394001960754395,-1.2522481679916382,0.9006312489509583
1789323721310679300,0.96567919921875,-2.228733539581299,-0.8732298612594604,0.8842820525169373
1789323721329529300,0.984529296875,-0.3300962448120117,-0.32474517822265625,0.6956088542938232
1789323721348379400,1.00337939453125,1.1847333908081055,-0.14061880111694336,0.5646870136260986
1789323721367229700,1.022229736328125,1.9832220077514648,-0.37973928451538086,0.3451749086380005
1789323721386079700,1.041079833984375,1.5634088516235352,-0.8329575657844543,0.16979694366455078
1789323721404929800,1.0599296875,0.5354223251342773,-1.1447386741638184,-0.19732999801635742
1789323721423780000,1.078780029296875,-0.5991315841674805,-1.1696431636810303,-0.7079743146896362
1789323721442630100,1.097630126953125,-1.1521143913269043,-1.0528829097747803,-1.2002973556518555
1789323721461480400,1.11648046875,-1.1760530471801758,-1.3136675357818604,-1.2804800271987915
1789323721480330500,1.13533056640625,-0.26894187927246094,-1.308762550354004,-1.3716859817504883
1789323721499180500,1.1541806640625,0.7078619003295898,-1.1631357669830322,-1.1227219104766846
1789323721518030800,1.17303076171875,1.6391124725341797,-1.7058360576629639,-0.967086911201477
1789323721536881000,1.191880859375,2.0303268432617188,-1.252105951309204,-2.3488290309906006
1789323721555731200,1.210731201171875,2.7006478309631348,-0.7389287948608398,-3.8708877563476562
1789323721574581200,1.229581298828125,2.794318199157715,-0.8245277404785156,-4.828246116638184
1789323721602856400,1.2578564453125,2.6696977615356445,-0.5651416778564453,-6.191356182098389
1789323721621706800,1.276706787109375,3.6991167068481445,-0.6730237007141113,-6.392221927642822
1789323721640556800,1.295556884765625,4.275654315948486,0.01528310775756836,-6.42482328414917
1789323721659406800,1.31440673828125,4.353269577026367,0.44008636474609375,-5.573807239532471
1789323721678257200,1.333257080078125,6.781309604644775,1.4893507957458496,-4.712531566619873
1789323721697107200,1.352107177734375,8.45302963256836,3.058591604232788,-4.402987003326416
1789323721715957500,1.37095751953125,8.383387565612793,3.7098336219787598,-5.415859699249268
1789323721734807600,1.3898076171875,8.01350212097168,4.286086082458496,-5.60902214050293
1789323721753657900,1.408657958984375,6.388045310974121,4.789369583129883,-4.354141712188721
1789323721772508000,1.4275078125,4.7713518142700195,5.165860652923584,-1.6587238311767578
1789323721800783000,1.455783203125,3.8306186199188232,5.28339147567749,1.3126106262207031
1789323721819633400,1.47463330078125,2.4012246131896973,4.714509963989258,1.7851014137268066
1789323721838483500,1.4934833984375,0.9617321491241455,4.062285423278809,1.7932167053222656
1789323721857333800,1.512333740234375,0.07599139213562012,2.8858931064605713,1.2934670448303223
1789323721876183800,1.531183837890625,0.15593791007995605,1.90608549118042,-0.15607213973999023
1789323721895034000,1.5500341796875,-0.15156960487365723,1.259774923324585,0.07916688919067383
1789323721913884200,1.56888427734375,-0.3260505199432373,0.47836875915527344,0.6990180015563965
1789323721932734500,1.587734375,-1.0633225440979004,-0.5355634689331055,0.9495339393615723
1789323721951584500,1.60658447265625,-0.8942422866821289,-1.2792024612426758,1.442833423614502
1789323721970434800,1.625434814453125,0.008679389953613281,-0.9727492332458496,1.9620656967163086
1789323721989284900,1.644284912109375,0.8319051265716553,0.7303066253662109,3.4997262954711914
1789323722008135200,1.66313525390625,0.5946836471557617,-0.1783761978149414,5.263521194458008
1789323722026985200,1.681985107421875,-0.5548875331878662,-1.3042316436767578,4.484451770782471
1789323722045835300,1.700835205078125,-1.6332368850708008,-2.7562718391418457,2.29695463180542
1789323722064685600,1.719685546875,-2.191983461380005,-4.63596248626709,-1.7602739334106445
1789323722083536000,1.738535888671875,-2.9035897254943848,-5.420649528503418,-6.884588241577148
1789323722102386000,1.757385986328125,-1.8686318397521973,-6.13907527923584,-4.91509485244751
1789323722121236200,1.776236328125,-1.3171889781951904,-6.897828102111816,-0.3167891502380371
1789323722140086300,1.795086181640625,-0.926734447479248,-7.029914855957031,1.7166881561279297
1789323722158936300,1.813936279296875,-0.5786776542663574,-6.994379043579102,2.0861318111419678
1789323722177786600,1.83278662109375,-0.7840776443481445,-6.729538917541504,2.2827579975128174
1789323722196636700,1.85163671875,-0.8651659488677979,-6.103662967681885,2.3788771629333496
1789323722215487000,1.870487060546875,-0.4089388847351074,-5.184180736541748,2.7321884632110596
1789323722234337300,1.889337158203125,-0.879183292388916,-3.97696590423584,3.1097970008850098
1789323722253187300,1.908187255859375,-1.0950579643249512,-3.323004722595215,2.6798620223999023
1789323722272037600,1.92703759765625,-2.2762045860290527,-2.6934919357299805,1.2755274772644043
1789323722290887700,1.9458876953125,-0.9392673969268799,-1.6736059188842773,-0.3115673065185547
1789323722309738000,1.964738037109375,-0.4659707546234131,-1.0904150009155273,-1.5484447479248047
1789323722328588000,1.983588134765625,-0.08165454864501953,-0.35011863708496094,-2.587728977203369
1789323722347438300,2.002438232421875,0.33518683910369873,0.45646047592163086,-2.9012956619262695
1789323722366288400,2.021288330078125,2.0645952224731445,1.9830174446105957,-2.4923996925354004
1789323722385138700,2.040138671875,0.6735360622406006,2.64194393157959,-2.962885856628418
1789323722403988700,2.05898876953125,0.6336263418197632,3.634371280670166,-3.60671329498291
1789323722422839000,2.077839111328125,3.7524240016937256,5.039621353149414,-2.329373836517334
1789323722441689000,2.096689208984375,2.278640031814575,5.421916484832764,-3.3745546340942383
1789323722460539400,2.115539306640625,1.6621618270874023,5.195598602294922,-3.455618381500244
1789323722479389400,2.134389404296875,1.332676887512207,4.739696025848389,-2.4428343772888184
1789323722498239700,2.15323974609375,0.9895665645599365,3.995797634124756,-2.920544147491455
1789323722517089800,2.17208984375,0.24785876274108887,2.9091639518737793,-1.3938384056091309
1789323722535940000,2.190940185546875,0.6025004386901855,2.5398871898651123,2.655641555786133
1789323722554790400,2.209790283203125,-0.12418460845947266,1.1743154525756836,4.630553245544434
1789323722573640400,2.228640380859375,-0.28591156005859375,-0.872319221496582,5.496095180511475
1789323722592490800,2.24749072265625,0.537416934967041,-1.490677833557129,3.866745710372925
1789323722611340800,2.2663408203125,1.9620919227600098,-1.779557228088379,2.1513290405273438
1789323722630191000,2.285191162109375,0.14316606521606445,-4.006814002990723,0.37870025634765625
1789323722649041200,2.304041259765625,-1.7934980392456055,-5.45477294921875,-0.5417709350585938
1789323722667891500,2.322891357421875,-2.390228271484375,-6.572869300842285,-1.6686148643493652
1789323722686741800,2.34174169921875,-1.8907661437988281,-6.3817524909973145,-1.4369215965270996
1789323722705591800,2.360591796875,-1.6807122230529785,-5.393012046813965,-0.27785539627075195
1789323722724442000,2.379442138671875,-1.6982946395874023,-4.461862564086914,0.20569181442260742
1789323722743292200,2.398292236328125,-1.21327543258667,-3.356105089187622,-0.24929571151733398
1789323722762142500,2.417142578125,-0.9264020919799805,-2.236034870147705,-0.5183954238891602
1789323722780992500,2.435992431640625,-1.1419305801391602,-1.2899494171142578,-0.7808475494384766
1789323722799842800,2.4548427734375,-1.5180211067199707,-1.1720690727233887,-1.3243408203125
1789323722818692900,2.47369287109375,-1.8499703407287598,-0.7369298934936523,0.13422584533691406
1789323722837543200,2.492543212890625,-1.1961078643798828,0.12921547889709473,2.3008744716644287
1789323722856393500,2.5113935546875,0.12425422668457031,1.002558708190918,2.694429397583008
1789323722875243500,2.530243408203125,0.08231401443481445,1.1055281162261963,2.4710347652435303
1789323722894093800,2.54909375,0.13904285430908203,0.8875041007995605,2.6160144805908203
1789323722912943900,2.56794384765625,0.4062795639038086,0.731804609298706,2.4842817783355713
1789323722931794200,2.586794189453125,0.33166074752807617,0.3065221309661865,1.2016172409057617
1789323722950644200,2.605644287109375,0.6074023246765137,-0.06627082824707031,0.2146306037902832
1789323722969494500,2.62449462890625,1.4326725006103516,-0.05305910110473633,0.19922304153442383
1789323722988344800,2.6433447265625,1.8036465644836426,-0.17315196990966797,0.18178033828735352
1789323723007195000,2.66219482421875,1.702728271484375,-0.5121088027954102,-0.025997161865234375
1789323723026045200,2.681045166015625,1.7354130744934082,-0.7915329933166504,-0.49849700927734375
1789323723044895200,2.699895263671875,1.9627907276153564,-0.5633864402770996,-0.7678370475769043
1789323723063745500,2.71874560546875,2.4971134662628174,0.4646720886230469,0.4876999855041504
1789323723082595800,2.737595947265625,3.4921560287475586,1.9668986797332764,1.3431153297424316
1789323723101446000,2.75644580078125,2.686554431915283,3.7300608158111572,1.4457178115844727
1789323723120296200,2.775296142578125,2.223477602005005,5.463345050811768,1.8835134506225586
1789323723139146200,2.794146240234375,2.3065147399902344,6.963330268859863,2.3321914672851562
1789323723157996500,2.81299658203125,1.204566240310669,7.740143299102783,3.0945112705230713
1789323723176846800,2.831846923828125,0.04339289665222168,6.8240647315979,4.400027275085449
1789323723195697000,2.85069677734375,0.01853799819946289,4.3726654052734375,4.639639854431152
1789323723214547200,2.869547119140625,-1.3602268695831299,1.052229404449463,3.0214695930480957
1789323723233397200,2.888397216796875,-1.745206594467163,-2.6741504669189453,-0.33552980422973633
1789323723252247600,2.90724755859375,-0.16424965858459473,-5.149796009063721,-3.3615550994873047
1789323723271097900,2.926097900390625,0.15993595123291016,-7.0357232093811035,-6.349793910980225
1789323723289948000,2.944947998046875,0.22990059852600098,-7.451940059661865,-4.746872901916504
1789323723308798200,2.963798095703125,-0.5834915637969971,-6.903761386871338,-2.2959189414978027
1789323723327648300,2.982648193359375,-0.785212516784668,-5.569802284240723,-0.9975132942199707
1789323723346498600,3.00149853515625,-0.6409962177276611,-3.7947773933410645,-0.8697075843811035
1789323723365348900,3.020348876953125,-0.13901329040527344,-2.9150309562683105,-1.1074090003967285
1789323723384199000,3.039198974609375,0.2016429901123047,-3.8976430892944336,-1.0299057960510254
1789323723403049200,3.05804931640625,-0.24427223205566406,-3.684514045715332,-1.4938788414001465
1789323723421899500,3.0768994140625,-1.3075299263000488,-2.2258739471435547,-1.3840086460113525
1789323723440749600,3.09574951171875,-2.857327938079834,-0.42610931396484375,-1.1514005661010742
1789323723459600000,3.114599853515625,-3.53286075592041,2.115304470062256,-1.103461742401123
1789323723478450000,3.133449951171875,-2.827319383621216,3.7617149353027344,-0.27976369857788086
1789323723497300200,3.15230029296875,1.9967164993286133,1.7464075088500977,-1.3368377685546875
1789323723516150500,3.171150634765625,2.209412097930908,3.8402750492095947,-1.776860237121582
1789323723535000600,3.19000048828125,-0.9101309776306152,10.537139892578125,-4.374474048614502
1789323723553851000,3.208850830078125,-2.3199639320373535,8.836278915405273,-1.7012128829956055
1789323723572701000,3.227700927734375,7.539322376251221,4.528322696685791,2.384237766265869
1789323723591551200,3.24655126953125,0.10700607299804688,-0.2855544090270996,2.4881112575531006
1789323723610401500,3.265401611328125,-0.18302106857299805,-7.046288013458252,0.2957148551940918
1789323723629251600,3.28425146484375,3.7716245651245117,-9.405739784240723,-4.847080707550049
1789323723648102000,3.303101806640625,2.599700927734375,-5.698458194732666,-4.697391510009766
1789323723666952000,3.321951904296875,2.067901611328125,-3.7211813926696777,-1.518552303314209
1789323723685802200,3.34080224609375,3.1494197845458984,-8.285266876220703,-1.005256175994873
1789323723704652500,3.359652587890625,2.951889991760254,-6.627899646759033,-2.140915870666504
1789323723723502600,3.378502685546875,-10.255722999572754,-10.825227737426758,-3.4024789333343506
1789323723742353000,3.397352783203125,-2.4445228576660156,-2.4373950958251953,-11.328006744384766
1789323723761203200,3.416203125,-0.8796296119689941,-4.248346328735352,2.1484739780426025
1789323723780053200,3.43505322265625,-2.496450424194336,-3.1683168411254883,4.21437931060791
1789323723798903600,3.453903564453125,-2.377140998840332,-3.8338446617126465,7.147246360778809
1789323723817753600,3.472753662109375,-0.5698747634887695,-2.610246181488037,5.928743839263916
1789323723836604000,3.49160400390625,-0.12532997131347656,-3.3160810470581055,4.744358062744141
1789323723855454200,3.5104541015625,-7.173916339874268,6.980907440185547,3.715256452560425
1789323723883729400,3.5387294921875,-5.000110149383545,10.283231735229492,-1.8809007406234741
1789323723902579700,3.557579833984375,-2.3328709602355957,-0.06210756301879883,-0.2022775411605835
1789323723921429800,3.5764296875,-2.3508834838867188,-1.5315272808074951,-1.9753185510635376
1789323723940280000,3.595280029296875,-3.4565305709838867,-0.37000441551208496,-2.7393884658813477
1789323723959130400,3.61413037109375,-1.2551755905151367,0.638359785079956,-0.3537711501121521
1789323723977980400,3.63298046875,0.5561485290527344,0.6711242198944092,-0.286258727312088
1789323723996830700,3.651830810546875,-2.0484023094177246,-0.9153063297271729,-0.05799227952957153
1789323724015681000,3.670680908203125,-1.289109230041504,-0.14040350914001465,0.7271578907966614
1789323724034531000,3.689531005859375,-1.3775358200073242,0.022634029388427734,2.4352965354919434
1789323724053381400,3.70838134765625,-2.653636932373047,1.3265656232833862,1.7138537168502808
1789323724072231700,3.727231689453125,-2.8738765716552734,2.0639257431030273,0.08364205807447433
1789323724091081700,3.746081787109375,-1.9713706970214844,3.4510061740875244,0.07154121994972229
1789323724109932000,3.76493212890625,-1.8464717864990234,4.156970500946045,-0.11864715069532394
1789323724128782300,3.7837822265625,-1.848785400390625,4.163082122802734,-0.665269672870636
1789323724147632400,3.80263232421875,-1.543539047241211,3.6891586780548096,-0.3783915936946869
1789323724166482700,3.821482666015625,0.23557090759277344,1.00331449508667,-2.1629066467285156
1789323724185332700,3.840332763671875,0.7164430618286133,-1.8183727264404297,-2.4491963386535645
1789323724204183000,3.85918310546875,0.23463916778564453,-3.4093194007873535,-2.2574453353881836
1789323724223033300,3.878033447265625,-0.8865275382995605,-3.953322410583496,-0.8051117658615112
1789323724241883400,3.89688330078125,-0.14469671249389648,-3.239974021911621,-0.9041165113449097
1789323724260733700,3.915733642578125,-0.8765959739685059,-1.627237319946289,-0.5600247979164124
1789323724279583700,3.934583740234375,0.6244235038757324,-0.5418310165405273,1.1268501281738281
1789323724298434000,3.95343408203125,1.6944379806518555,-0.7984194755554199,1.7600547075271606
1789323724317284400,3.972284423828125,2.3901734352111816,-1.118901252746582,0.37278223037719727
1789323724336134400,3.991134521484375,2.5355782508850098,-0.9770565032958984,-0.697638750076294
1789323724354984700,4.009984619140625,1.235917568206787,-2.2804951667785645,-0.6703639030456543
1789323724373834800,4.028834716796875,0.1715221405029297,-3.050230026245117,0.9373691082000732
1789323724392685000,4.04768505859375,0.9691143035888672,-1.8432950973510742,1.2505018711090088
1789323724411535400,4.066535400390625,-0.6722683906555176,-0.9549808502197266,-0.04076409339904785
1789323724430385400,4.085385498046875,-0.03657341003417969,-0.7634639739990234,0.28197550773620605
1789323724449235700,4.104235595703125,-0.406282901763916,-0.8557338714599609,1.0706498622894287
1789323724468086000,4.1230859375,-0.020557880401611328,-0.3714275360107422,1.581606388092041
1789323724486936000,4.14193603515625,1.2242045402526855,-0.4649200439453125,1.4630141258239746
1789323724505786400,4.160786376953125,1.2246637344360352,-0.6197967529296875,0.16394901275634766
1789323724524636400,4.179636474609375,0.9496712684631348,-0.3130636215209961,-0.572667121887207
1789323724543486700,4.19848681640625,0.041993141174316406,-0.08515357971191406,-0.8075287342071533
1789323724562337000,4.2173369140625,-0.8466577529907227,-0.4527263641357422,-0.6885077953338623
1789323724581187000,4.23618701171875,-1.3724441528320312,-1.0520191192626953,0.2634519338607788
1789323724600037400,4.255037353515625,-1.3825368881225586,-1.1227750778198242,1.2270337343215942
1789323724618887700,4.2738876953125,-0.024243831634521484,-1.0701894760131836,1.3397319316864014
1789323724637737700,4.29273779296875,0.810114860534668,-0.9085907936096191,1.1768429279327393
1789323724656588000,4.311588134765625,1.677877426147461,-0.755465030670166,0.232568621635437
1789323724675438000,4.33043798828125,1.533867359161377,-0.7621383666992188,-0.7954571843147278
1789323724694288400,4.349288330078125,0.9191713333129883,-0.35619449615478516,-0.7287949919700623
1789323724713138700,4.368138671875,0.22954702377319336,0.044493675231933594,-0.7083670496940613
1789323724731988700,4.38698876953125,-0.17795753479003906,0.5691056251525879,-0.9010198712348938
1789323724750839000,4.405839111328125,-0.1055154800415039,0.19096612930297852,-1.3639302253723145
1789323724769689300,4.424689453125,-0.03410482406616211,-0.7997632026672363,-1.5001331567764282
1789323724788539400,4.443539306640625,-0.00874948501586914,-1.2790160179138184,-1.4187898635864258
1789323724807389700,4.4623896484375,0.1826801300048828,-1.7789463996887207,-1.0258700847625732
1789323724826239700,4.48123974609375,0.2574119567871094,-2.0592970848083496,-0.28140056133270264
1789323724845090000,4.500090087890625,0.07568740844726562,-1.284874439239502,-0.042543768882751465
1789323724863940400,4.5189404296875,-0.612372875213623,-0.7476301193237305,0.05352461338043213
1789323724882790400,4.537790283203125,-0.1274728775024414,0.3907012939453125,-0.4539230167865753
1789323724911065900,4.56606591796875,0.9759435653686523,-1.0164575576782227,0.565134584903717
1789323724929916000,4.584916015625,1.6241950988769531,-2.4532666206359863,1.1564782857894897
1789323724948766200,4.60376611328125,0.13774871826171875,-3.1515769958496094,2.1982791423797607
1789323724967616500,4.622616455078125,-2.248198986053467,-1.7295165061950684,1.3129985332489014
1789323724986466800,4.641466796875,-2.434774398803711,-0.5792138576507568,-0.44170093536376953
1789323725005316900,4.66031689453125,-2.03713321685791,-0.20943951606750488,-0.9172713756561279
1789323725024167200,4.679167236328125,-1.950472354888916,0.5181493759155273,0.013894915580749512
1789323725043017200,4.698017333984375,-4.132774829864502,1.1268755197525024,-0.15517064929008484
1789323725061867500,4.716867431640625,-4.621396064758301,1.482261061668396,-0.330610454082489
1789323725080717800,4.7357177734375,-3.602916717529297,1.986035704612732,0.8099181652069092
1789323725099567900,4.75456787109375,-2.320246696472168,2.2085020542144775,1.1421468257904053
1789323725118418200,4.773418212890625,-3.1834373474121094,1.2172188758850098,1.1486839056015015
1789323725137268500,4.7922685546875,-2.287881851196289,0.865959644317627,0.6629905700683594
1789323725156118500,4.811118408203125,-1.0919370651245117,0.4375631809234619,0.811657726764679
1789323725174968800,4.82996875,-1.2229089736938477,1.0643483400344849,0.8188886046409607
1789323725193819000,4.84881884765625,-0.6143655776977539,0.37549543380737305,-0.5569785833358765
1789323725212669200,4.867669189453125,-0.26053333282470703,-0.10115790367126465,0.4697479009628296
1789323725231519500,4.88651953125,-0.17374706268310547,1.157085657119751,0.0337953083217144
1789323725250369500,4.90536962890625,0.011694908142089844,1.6685810089111328,-0.9350367784500122
1789323725278645000,4.93364501953125,-0.45739078521728516,2.0127995014190674,-1.3003722429275513
1789323725297495000,4.9524951171875,-0.5465631484985352,1.8261418342590332,-1.3180506229400635
1789323725316345300,4.971345458984375,-0.2759695053100586,1.5625510215759277,-0.5216053128242493
1789323725335195600,4.990195556640625,-0.5790858268737793,1.2995235919952393,-1.2622785568237305
1789323725354045700,5.009045654296875,-1.8162693977355957,0.23909521102905273,-0.8516275882720947
1789323725372896000,5.02789599609375,-2.3919787406921387,-0.8590140342712402,0.14945238828659058
1789323725391746000,5.04674609375,-2.4496092796325684,-0.2166914939880371,0.6551223993301392
1789323725410596400,5.065596435546875,-1.6655426025390625,0.4257655143737793,0.5593243837356567
1789323725429446700,5.08444677734375,0.15432977676391602,0.7434892654418945,0.3120124340057373
1789323725448296700,5.103296630859375,0.45378541946411133,0.1250009536743164,-0.3622908592224121
1789323725467147000,5.12214697265625,0.28463172912597656,-1.1803736686706543,-0.3448554277420044
1789323725485997000,5.1409970703125,0.29987001419067383,-2.5753321647644043,-0.5187287330627441
1789323725504847400,5.159847412109375,0.3890671730041504,-3.582411766052246,0.34093236923217773
1789323725523697700,5.17869775390625,1.1278104782104492,-3.7101945877075195,1.3003153800964355
1789323725542547700,5.197547607421875,2.396425247192383,-3.8764357566833496,1.5457918643951416
1789323725570823200,5.2258232421875,1.5258631706237793,-3.0359277725219727,0.06240987777709961
1789323725589673200,5.244673095703125,1.1950230598449707,-0.9798679351806641,-0.4379446506500244
1789323725608523500,5.2635234375,1.611149787902832,0.5698027610778809,-0.05330610275268555
1789323725627373800,5.282373779296875,1.9415345191955566,0.5422854423522949,0.4636601209640503
1789323725646224000,5.301223876953125,1.4656414985656738,-0.35102272033691406,0.9762083292007446
1789323725665074200,5.32007421875,1.2484211921691895,-1.0932388305664062,0.10296523571014404
1789323725683924200,5.33892431640625,0.9691929817199707,-0.7826929092407227,0.12392807006835938
1789323725702774500,5.3577744140625,0.24900245666503906,-1.0013532638549805,0.5855799913406372
1789323725721624800,5.376624755859375,-0.6991291046142578,-1.367462158203125,1.6638981103897095
1789323725740475000,5.395474853515625,-1.0125513076782227,-1.1038761138916016,1.8703656196594238
1789323725759325200,5.4143251953125,-0.6339015960693359,-0.8470883369445801,0.9368642568588257
1789323725778175200,5.43317529296875,-0.44735193252563477,-0.8245043754577637,0.17620635032653809
1789323725797025500,5.452025634765625,-0.14020681381225586,-1.0496129989624023,-0.22485971450805664
1789323725815875800,5.470875732421875,-0.00034809112548828125,-1.2613024711608887,-0.2143096923828125
1789323725834726000,5.489725830078125,0.262937068939209,-0.9074859619140625,-0.47382652759552
1789323725853576200,5.508576171875,0.29396915435791016,-0.2807755470275879,0.11924886703491211
1789323725872426500,5.527426513671875,0.4716362953186035,0.10011100769042969,0.07237470149993896
1789323725891276500,5.546276611328125,0.21903657913208008,-0.2026205062866211,-0.6798433065414429
1789323725910126800,5.565126953125,-0.5624299049377441,-1.1306748390197754,-1.1282583475112915
1789323725928977000,5.583976806640625,-0.46984386444091797,-0.9262962341308594,-0.8031775951385498
1789323725947827200,5.6028271484375,-0.11488962173461914,-0.6847610473632812,-0.4489036202430725
1789323725966677500,5.621677490234375,-0.2797737121582031,-1.831470012664795,0.3196701407432556
1789323725985527600,5.640527587890625,0.31086158752441406,-1.6175599098205566,0.31258273124694824
1789323726004377900,5.6593779296875,0.41721630096435547,-1.6968235969543457,0.7193203568458557
1789323726023228200,5.678228271484375,0.4968719482421875,-1.0160269737243652,0.5912206768989563
1789323726042078200,5.697078125,0.7204418182373047,-0.05779743194580078,0.2962130308151245
1789323726060928500,5.715928466796875,0.260040283203125,0.19682979583740234,-0.1170840859413147
1789323726079778600,5.734778564453125,-1.6174964904785156,-0.05467081069946289,-0.12116485834121704
1789323726098628900,5.75362890625,-2.894618034362793,0.9726948738098145,-0.48407185077667236
1789323726117479200,5.772479248046875,-2.2900638580322266,0.6335031986236572,-1.4018248319625854
1789323726136329200,5.7913291015625,-1.8284626007080078,-0.6251087188720703,-1.038705825805664
1789323726155179500,5.810179443359375,-2.8527979850769043,-0.7808928489685059,0.02496570348739624
1789323726174029600,5.829029541015625,-3.0333924293518066,0.2781791687011719,0.9284861087799072
1789323726192879900,5.8478798828125,-3.7298693656921387,0.14161944389343262,1.1361497640609741
1789323726211730200,5.866730224609375,-1.8800721168518066,1.7328588962554932,1.5209791660308838
1789323726230580200,5.885580322265625,-0.09293174743652344,2.286036491394043,1.2390934228897095
1789323726249430500,5.904430419921875,-1.7775721549987793,0.775388240814209,-0.6432586908340454
1789323726268280600,5.923280517578125,-2.050832748413086,0.8127651214599609,-0.939806342124939
1789323726287131000,5.942130859375,0.19526004791259766,1.2149219512939453,-0.04802602529525757
1789323726305981200,5.960981201171875,-0.6247005462646484,-0.6355063915252686,-0.6493971943855286
1789323726324831200,5.979831298828125,-1.714785099029541,0.5216972827911377,-0.3678331971168518
1789323726343681500,5.998681640625,-1.8914985656738281,-0.1769702434539795,-0.5507782697677612
1789323726362531800,6.01753173828125,-3.450275421142578,-0.21286273002624512,0.09344759583473206
1789323726381382000,6.0363818359375,-3.2527055740356445,0.8529810905456543,0.10848069190979004
1789323726400232200,6.055232177734375,-2.711575984954834,2.164496660232544,0.6450332403182983
1789323726419082200,6.074082275390625,-2.434953212738037,3.256880760192871,0.32005926966667175
1789323726437932500,6.0929326171875,-1.3643302917480469,3.4940171241760254,-0.24366456270217896
1789323726456782800,6.111782958984375,0.6895627975463867,3.027045726776123,-1.1889770030975342
1789323726475633000,6.1306328125,0.3478050231933594,1.5630502700805664,-2.424600601196289
1789323726494483200,6.149483154296875,-0.8024401664733887,-1.195352554321289,-2.4859659671783447
1789323726513333500,6.16833349609375,-0.026631832122802734,-3.0810561180114746,-0.49868711829185486
1789323726532183600,6.18718359375,1.5801353454589844,-4.060749530792236,1.1059019565582275
1789323726551033900,6.206033935546875,0.056464195251464844,-4.753183841705322,2.582728862762451
1789323726569884200,6.22488427734375,-0.394134521484375,-3.9468560218811035,2.6269617080688477
1789323726588734200,6.243734130859375,-0.5155186653137207,-2.229999542236328,2.3317079544067383
1789323726607584500,6.26258447265625,-0.40904903411865234,-0.7283053398132324,0.9426772594451904
1789323726626434600,6.2814345703125,1.0500669479370117,0.47919464111328125,-0.6304879188537598
1789323726645284900,6.300284912109375,2.5838065147399902,0.46340513229370117,-1.4432846307754517
1789323726664135200,6.31913525390625,2.35429048538208,-1.1277227401733398,-1.4419457912445068
1789323726682985200,6.337985107421875,1.4832844734191895,-3.514436721801758,-1.1537500619888306
1789323726701835500,6.35683544921875,1.124082088470459,-4.720773696899414,-0.573051929473877
1789323726720685800,6.375685791015625,1.0866217613220215,-2.662311553955078,1.5069315433502197
1789323726739536000,6.394535888671875,0.6621284484863281,-0.6393499374389648,2.2181973457336426
1789323726758386200,6.41338623046875,0.6628913879394531,0.810063362121582,1.3857741355895996
1789323726777236200,6.432236328125,-0.26720523834228516,1.0953655242919922,0.26598143577575684
1789323726796086500,6.45108642578125,-0.27991533279418945,1.2816176414489746,-0.24870681762695312
1789323726814936600,6.4699365234375,-0.0724029541015625,0.4029426574707031,-0.44091618061065674
1789323726833787000,6.488786865234375,0.22536230087280273,-0.7342953681945801,0.4969358444213867
1789323726862062300,6.517062255859375,0.36170387268066406,-1.485912799835205,1.010718822479248
1789323726880912400,6.535912353515625,0.4338955879211426,-0.9885339736938477,0.5921398401260376
1789323726899762700,6.5547626953125,0.6030001640319824,-0.7300691604614258,-0.2257288694381714
1789323726918612700,6.57361279296875,0.45592594146728516,-0.949862003326416,-0.5198315382003784
1789323726937463000,6.592463134765625,0.5989766120910645,-1.0534214973449707,-0.2785598039627075
1789323726956313300,6.611313232421875,0.8785252571105957,-1.2871055603027344,0.05635488033294678
1789323726975163400,6.630163330078125,1.0750722885131836,-1.4869203567504883,0.263469934463501
1789323726994013700,6.649013671875,0.8667378425598145,-1.6777467727661133,-0.01740729808807373
1789323727012863700,6.66786376953125,0.2754230499267578,-1.2774062156677246,0.015165090560913086
1789323727031714000,6.686714111328125,-0.3222846984863281,-0.937281608581543,-0.11822795867919922
1789323727050564400,6.705564453125,-0.5407004356384277,-0.758629322052002,-0.29400789737701416
1789323727069414400,6.724414306640625,-0.4174933433532715,-0.4984707832336426,-0.34252673387527466
1789323727088264700,6.7432646484375,-0.32186031341552734,-0.5155549049377441,-0.7647299766540527
1789323727107114800,6.76211474609375,-0.1992053985595703,-0.5469799041748047,-0.4688499867916107
1789323727125965000,6.780965087890625,0.35034942626953125,-0.6087408065795898,-0.08385300636291504
1789323727144815400,6.7998154296875,-0.06969642639160156,0.08659219741821289,0.7219784259796143
1789323727163665400,6.81866552734375,-0.7046670913696289,0.024171829223632812,1.3413825035095215
1789323727182515700,6.837515625,-2.2918715476989746,-0.01105356216430664,1.4842209815979004
1789323727201365800,6.85636572265625,-1.9761857986450195,-0.3725152015686035,0.34009039402008057
1789323727220216000,6.875216064453125,-0.6562671661376953,-1.3319954872131348,0.13038986921310425
1789323727239066400,6.89406640625,0.38280296325683594,-1.1508872509002686,0.9247960448265076
1789323727257916400,6.91291650390625,-1.6249580383300781,0.07697916030883789,0.870574414730072
1789323727276766700,6.9317666015625,-3.5627708435058594,0.8583769798278809,0.29395830631256104
1789323727295617000,6.950616943359375,-3.0357460975646973,1.5098508596420288,0.6146414279937744
1789323727314467000,6.969467041015625,-1.8422908782958984,2.146167755126953,0.7779554724693298
1789323727333317400,6.9883173828125,-1.5049943923950195,1.535483956336975,1.1786746978759766
1789323727352167400,7.00716748046875,-2.0091586112976074,0.5598490238189697,-0.03566250205039978
1789323727371017700,7.026017822265625,-3.371899127960205,-0.058879852294921875,-0.37694188952445984
1789323727389867800,7.04486767578125,-2.4010701179504395,1.299484133720398,0.7564487457275391
1789323727408718000,7.063718017578125,-2.3682050704956055,2.066457748413086,0.6921377778053284
1789323727427568400,7.082568359375,-3.4816513061523438,1.8347593545913696,-0.18144641816616058
1789323727446418400,7.10141845703125,-3.0717477798461914,2.3137459754943848,0.029478833079338074
1789323727465268700,7.120268798828125,-1.5552120208740234,3.055318832397461,-0.35740262269973755
1789323727484118800,7.139118896484375,-0.3900156021118164,2.5973217487335205,-1.1077167987823486
1789323727502969000,7.157968994140625,-0.18924236297607422,1.8067958354949951,-0.9365055561065674
1789323727521819400,7.1768193359375,0.3364286422729492,0.7468266487121582,-0.5788155794143677
1789323727540669400,7.19566943359375,0.10019588470458984,-0.2697782516479492,-0.8845385909080505
1789323727559519700,7.214519775390625,-0.31185150146484375,-1.5535898208618164,-0.6204418540000916
1789323727578369800,7.233369873046875,-0.4303770065307617,-2.859314441680908,0.2465662956237793
1789323727597220000,7.25222021484375,-1.3369927406311035,-2.1943798065185547,0.7158215641975403
1789323727616070400,7.2710703125,-0.8712916374206543,-0.40097808837890625,0.6267439126968384
1789323727634920400,7.28992041015625,0.9859189987182617,0.709874153137207,0.23096323013305664
1789323727653770800,7.308770751953125,0.9408812522888184,0.7339482307434082,-0.23244261741638184
1789323727672620800,7.327620849609375,0.5036830902099609,-0.01714944839477539,-1.0344324111938477
1789323727691471000,7.34647119140625,-0.020513534545898438,-1.5588369369506836,-1.2623200416564941
1789323727710321200,7.365321044921875,-0.25440454483032227,-2.364504337310791,-0.551571249961853
1789323727729171500,7.38417138671875,0.36051130294799805,-2.3794708251953125,0.5817514657974243
1789323727748021800,7.403021728515625,1.0972442626953125,-1.716428279876709,1.7914021015167236
1789323727766871800,7.421871826171875,1.4251675605773926,-1.999293327331543,1.735792636871338
1789323727785722000,7.44072216796875,-0.3210482597351074,-3.740847587585449,0.909886360168457
1789323727804572200,7.459572265625,0.22140836715698242,-1.2847967147827148,1.8520245552062988
1789323727823422500,7.47842236328125,3.966240406036377,1.038243293762207,0.49015092849731445
1789323727842272500,7.4972724609375,2.358035087585449,-1.4453487396240234,1.5250005722045898
1789323727861122800,7.516122802734375,0.5101275444030762,-3.087850570678711,1.2210805416107178
1789323727879972900,7.534972900390625,-0.01853036880493164,-0.16704463958740234,0.574821949005127
1789323727898823200,7.5538232421875,0.5257740020751953,-0.08792400360107422,0.3444235324859619
1789323727917673500,7.572673583984375,-0.9877309799194336,-1.5783004760742188,-1.2285089492797852
1789323727936523500,7.5915234375,-2.6974937915802,-3.738215446472168,-1.6619820594787598
1789323727955373800,7.610373779296875,0.04475879669189453,0.6327118873596191,-1.7198783159255981
1789323727974224000,7.629223876953125,-0.28620147705078125,1.890223503112793,-0.32257580757141113
1789323727993074200,7.64807421875,-0.2593693733215332,2.317007064819336,-0.45242202281951904
1789323728011924200,7.66692431640625,0.13107967376708984,-0.5683374404907227,-0.42801833152770996
1789323728030774500,7.6857744140625,0.1716928482055664,0.9619622230529785,0.4310121536254883
1789323728049624800,7.704624755859375,-0.04866170883178711,-0.6865758895874023,2.1605396270751953
1789323728068475000,7.723474853515625,0.6304655075073242,1.3205084800720215,2.4936416149139404
1789323728087325200,7.7423251953125,1.367466926574707,-0.6633634567260742,1.8345526456832886
1789323728106175200,7.76117529296875,0.6970725059509277,-0.30509424209594727,-1.7429499626159668
1789323728125025500,7.780025634765625,0.5521702766418457,-1.611997127532959,-1.8976256847381592
1789323728143875600,7.79887548828125,0.06138038635253906,-2.59531831741333,-1.981147289276123
1789323728162726000,7.817725830078125,0.7236948013305664,-2.7549819946289062,-3.083075523376465
1789323728181576000,7.836575927734375,0.5421757698059082,-0.9944009780883789,-2.083806037902832
1789323728200426200,7.85542626953125,1.7775774002075195,-1.706540584564209,-3.4702210426330566
1789323728219276500,7.874276611328125,2.526325225830078,-1.2423877716064453,-1.940805196762085
1789323728238126600,7.893126708984375,1.7966012954711914,0.7097010612487793,0.8611372709274292
1789323728256977000,7.911976806640625,-0.03149890899658203,0.6303553581237793,0.9651881456375122
1789323728275827000,7.930826904296875,-3.179135322570801,-0.4190850257873535,-0.13481318950653076
1789323728294677200,7.94967724609375,-4.034064769744873,-1.9350194931030273,-0.19965052604675293
1789323728313527300,7.96852734375,-3.5676374435424805,-1.2527568340301514,-0.5475656986236572
1789323728332377600,7.987377685546875,-2.8654470443725586,-1.3352041244506836,0.9052296876907349
1789323728351227600,8.0062275390625,-1.9785490036010742,-0.012914896011352539,2.62013578414917
1789323728370078000,8.025077880859374,-1.9349150657653809,-0.30943965911865234,2.450979709625244
1789323728388928000,8.043927978515624,-2.992832660675049,-0.7319941520690918,0.8805376291275024
1789323728407778300,8.0627783203125,-0.8785028457641602,1.736954689025879,-0.5080636739730835
1789323728426628600,8.081628662109376,-0.09543037414550781,1.3091745376586914,0.5940112471580505
1789323728445478700,8.100478759765625,-1.2570571899414062,0.331895112991333,0.3673417568206787
1789323728464329000,8.119328857421875,-0.9489841461181641,-0.10053777694702148,-1.159839391708374
1789323728483179000,8.138178955078125,-1.2422471046447754,-1.0639517307281494,0.6112830638885498
1789323728502029300,8.157029296875,-1.5386042594909668,0.18269109725952148,0.007224559783935547
1789323728520879400,8.17587939453125,-2.4813666343688965,2.064668655395508,0.4717559814453125
1789323728539729700,8.194729736328124,-3.2942519187927246,1.4126927852630615,3.2456345558166504
1789323728558579700,8.213579833984374,-3.981721878051758,1.5576279163360596,1.505793809890747
1789323728577430000,8.232429931640626,-4.218915939331055,1.871585726737976,0.6533230543136597
1789323728596280000,8.251280029296876,-2.6558914184570312,2.410703182220459,2.098487377166748
1789323728615130400,8.27013037109375,-1.5855035781860352,2.7126574516296387,2.1850969791412354
1789323728633980400,8.28898046875,-1.4778623580932617,3.041651725769043,1.6032934188842773
1789323728652830700,8.307830810546875,0.4465351104736328,2.2612550258636475,0.18750762939453125
1789323728671681000,8.326680908203125,1.804502010345459,-0.7959380149841309,-0.4231243133544922
1789323728690531000,8.345531005859375,0.7718601226806641,-1.7768125534057617,-1.8155622482299805
1789323728709381000,8.364381103515624,-0.19779014587402344,-3.385162830352783,-1.7662179470062256
1789323728728231400,8.3832314453125,0.8427038192749023,-4.166700839996338,-0.4511098861694336
1789323728747081500,8.40208154296875,1.626633644104004,-3.3617539405822754,1.082829236984253
1789323728765931800,8.420931884765626,0.8602676391601562,-1.6689367294311523,1.9169615507125854
1789323728784781800,8.43978173828125,-1.8951334953308105,-0.40549373626708984,1.9169834852218628
1789323728803632000,8.458632080078125,-1.4510040283203125,0.9511017799377441,1.1017096042633057
1789323728822482400,8.477482421875,1.49560546875,0.6583113670349121,-2.045729160308838
1789323728841332500,8.49633251953125,2.91123104095459,-1.5538368225097656,-2.212991952896118
1789323728860182500,8.5151826171875,2.4487180709838867,-3.1175193786621094,-2.541259288787842
1789323728879032800,8.53403271484375,1.2440581321716309,-3.2657642364501953,-2.4445433616638184
1789323728897883000,8.5528828125,1.9307971000671387,-2.675943374633789,-1.457327127456665
1789323728916733200,8.571733154296876,2.4350457191467285,-2.616098403930664,0.3261817693710327
1789323728935583200,8.590583251953126,2.291015625,-3.5542564392089844,0.767728328704834
1789323728954433500,8.60943359375,2.1493473052978516,-2.397754669189453,0.7333109378814697
1789323728973283600,8.62828369140625,1.6037335395812988,-1.2037839889526367,0.5676209926605225
1789323728992134000,8.6471337890625,1.2795491218566895,-0.7321872711181641,0.1571950912475586
1789323729010984000,8.66598388671875,0.332674503326416,-0.18008136749267578,0.16791915893554688
1789323729029834200,8.684834228515625,-0.3475813865661621,0.3289914131164551,-0.2955648899078369
1789323729048684300,8.703684326171874,-1.0435914993286133,1.08439302444458,0.09309172630310059
1789323729067534600,8.72253466796875,-0.9829497337341309,1.6433744430541992,0.41214776039123535
1789323729086384600,8.741384521484376,0.14931917190551758,1.3398714065551758,-0.16509652137756348
1789323729105235000,8.76023486328125,1.2226495742797852,-0.11612415313720703,-0.7667155265808105
1789323729124085000,8.7790849609375,1.6690349578857422,-1.9219493865966797,-0.24715495109558105
1789323729142935300,8.797935302734375,1.6004600524902344,-3.0822396278381348,-1.190617561340332
1789323729161785300,8.816785400390625,1.0002264976501465,-3.0749645233154297,-1.3131353855133057
1789323729180635600,8.8356357421875,0.7716140747070312,-2.017185688018799,-1.2843666076660156
1789323729199485700,8.854485595703125,0.2496929168701172,-1.2175512313842773,-1.1771373748779297
1789323729218335700,8.873335693359374,-0.08361148834228516,-0.6155428886413574,-2.437899351119995
1789323729237186000,8.89218603515625,0.12010049819946289,-0.5442438125610352,-1.4177095890045166
1789323729256036000,8.9110361328125,0.5081100463867188,0.8156008720397949,0.2101590633392334
1789323729274886400,8.929886474609376,0.04821920394897461,1.223745346069336,0.3910806179046631
1789323729293736400,8.948736328125,-0.7396740913391113,0.5263237953186035,0.2626020908355713
1789323729312586800,8.967586669921875,-1.0295982360839844,0.06744241714477539,-0.2045884132385254
1789323729331436800,8.986436767578125,-0.9842147827148438,-0.9653277397155762,-0.3845195770263672
1789323729350287000,9.005287109375,-0.6536045074462891,-1.8888859748840332,-0.29865217208862305
1789323729369137200,9.02413720703125,-1.079455852508545,-1.805276870727539,-0.1974560022354126
1789323729387987200,9.0429873046875,-1.929840087890625,-1.6222314834594727,-0.7498548030853271
1789323729406837500,9.06183740234375,-0.7925424575805664,-1.007155418395996,-0.9208829402923584
1789323729425687600,9.0806875,0.4477806091308594,1.6970715522766113,0.34818077087402344
1789323729444537900,9.099537841796876,-1.140589714050293,-0.16507267951965332,0.28267550468444824
1789323729463388000,9.118387939453125,-3.395267963409424,1.5181607007980347,0.9468286037445068
1789323729482238200,9.13723828125,-1.9834790229797363,1.0769758224487305,0.8138289451599121
1789323729501088300,9.156088134765625,-2.5256223678588867,0.1799764633178711,0.9848961234092712
1789323729519938600,9.1749384765625,-4.449444770812988,-0.04232287406921387,-0.6068583726882935
1789323729538788600,9.19378857421875,-7.656905651092529,0.28090405464172363,-0.27573704719543457
1789323729557638700,9.212638671875,-3.9538168907165527,1.9406111240386963,4.2448039054870605
1789323729576489000,9.231489013671874,-0.8894500732421875,3.0929760932922363,4.728666305541992
1789323729595339000,9.250339111328126,-1.686460018157959,2.658517360687256,1.553057074546814
1789323729614189300,9.269189208984375,-4.257201194763184,1.4898531436920166,-0.39317476749420166
1789323729633039400,9.288039306640625,-0.14398956298828125,0.7711207866668701,0.8336499929428101
1789323729651889700,9.3068896484375,0.44559288024902344,0.49444150924682617,0.7452868223190308
1789323729670739700,9.32573974609375,-1.0247817039489746,0.8932178020477295,0.4647318124771118
1789323729689589800,9.34458984375,-0.7330851554870605,0.47596216201782227,-0.8629014492034912
1789323729708440000,9.363440185546875,-0.4362325668334961,-0.4727902412414551,-1.3825345039367676
1789323729727290000,9.3822900390625,0.05935192108154297,-1.212573528289795,-0.6148781776428223
1789323729746140400,9.401140380859376,-1.0234756469726562,-0.9264249801635742,-0.19061875343322754
1789323729764990500,9.419990478515626,-1.2550544738769531,-0.8712873458862305,0.6762531995773315
1789323729783840800,9.4388408203125,-0.9650230407714844,-0.03479337692260742,0.9127235412597656
1789323729802690800,9.45769091796875,-0.42772483825683594,0.7773504257202148,0.9063558578491211
1789323729821540900,9.476540771484375,-1.0550060272216797,1.2000732421875,0.2532789707183838
1789323729840391200,9.49539111328125,-1.622035026550293,1.5319838523864746,0.18770742416381836
1789323729859241200,9.5142412109375,-0.10024023056030273,1.7251100540161133,-0.002901792526245117
1789323729878091300,9.53309130859375,0.989588737487793,0.8111534118652344,0.18143093585968018
1789323729896941600,9.551941650390624,1.4630537033081055,-1.1998882293701172,-0.601464033126831
1789323729915791600,9.57079150390625,2.127645492553711,-4.026492118835449,-1.087158441543579
1789323729934642000,9.589641845703126,2.3123841285705566,-6.95108699798584,-1.3642314672470093
1789323729953492000,9.608491943359375,2.391751766204834,-8.043229103088379,-1.3424022197723389
1789323729972342000,9.627342041015625,2.567986488342285,-4.610877990722656,-0.41564059257507324
1789323729991192300,9.6461923828125,2.1169657707214355,0.12197208404541016,0.15267229080200195
1789323730010042400,9.66504248046875,2.6606411933898926,1.7322959899902344,-0.571385383605957
1789323730028892400,9.683892333984375,2.485487461090088,1.7776880264282227,-1.0859313011169434
1789323730047742700,9.70274267578125,1.6476078033447266,1.1381473541259766,-1.0737168788909912
1789323730066593000,9.721593017578124,0.7944774627685547,0.8828010559082031,-0.34412646293640137
1789323730085443000,9.740443115234376,1.3669099807739258,-0.34912967681884766,-0.03427934646606445
1789323730104293000,9.759293212890626,0.5193090438842773,-1.499861717224121,1.4968981742858887
1789323730123143400,9.778143310546875,0.02525043487548828,-1.0605239868164062,1.5615979433059692
1789323730141993500,9.796993408203125,-0.5921621322631836,-0.7096376419067383,1.0170658826828003
1789323730160843500,9.815843505859375,-0.5443210601806641,-0.4047679901123047,0.17020750045776367
1789323730179693800,9.83469384765625,0.9517388343811035,-1.4301395416259766,-1.3444201946258545
1789323730198544000,9.8535439453125,2.0634889602661133,-4.4892425537109375,-1.5658342838287354
1789323730217394200,9.872394287109374,1.7895665168762207,-4.9525146484375,-1.9611742496490479
1789323730236244200,9.891244140625,0.7251825332641602,-2.4033632278442383,-0.6725020408630371
1789323730255094300,9.91009423828125,-0.10715246200561523,-0.27170610427856445,0.6544058322906494
1789323730273944600,9.928944580078126,-1.2709174156188965,1.1746783256530762,0.6906468868255615
1789323730292794600,9.947794677734375,-1.7905998229980469,1.4700074195861816,-0.18810153007507324
1789323730311644700,9.966644775390625,-1.2112469673156738,1.8399615287780762,0.14333558082580566
1789323730330495000,9.985494873046875,-1.4733166694641113,1.7037434577941895,-0.3878490924835205
1789323730349345000,10.004344970703125,-2.1086645126342773,1.035017490386963,-0.10652971267700195
1789323730368195000,10.023195068359374,-0.04411602020263672,1.503415584564209,0.9966204166412354
1789323730387045400,10.04204541015625,2.7220778465270996,0.26807546615600586,0.7572252750396729
1789323730405895400,10.0608955078125,2.157534122467041,-3.4085607528686523,-0.9841156005859375
1789323730424745500,10.079745361328126,0.6012210845947266,-4.387259006500244,-2.4015965461730957
1789323730443595800,10.098595703125,-0.09154415130615234,-1.768357276916504,-1.3281733989715576
1789323730462445800,10.11744580078125,-0.5789041519165039,-1.2846465110778809,0.7800209522247314
1789323730481296000,10.1362958984375,1.1581602096557617,0.6140580177307129,-0.32479047775268555
1789323730500146000,10.15514599609375,3.1590585708618164,-0.8407964706420898,-0.928086519241333
1789323730518996200,10.173996337890625,-0.14261341094970703,-2.596142292022705,-0.14129042625427246
1789323730537846300,10.19284619140625,-3.5304837226867676,-1.1199090480804443,0.5346014499664307
1789323730556696600,10.211696533203124,-4.777881145477295,1.3754761219024658,1.6706302165985107
1789323730575546600,10.230546630859376,-4.428286075592041,2.345066785812378,2.997875690460205
1789323730594396700,10.249396728515626,-4.379231929779053,2.8580691814422607,2.757448673248291
1789323730613246700,10.268246826171875,-3.7842392921447754,2.4248030185699463,2.462179660797119
1789323730632097000,10.287096923828125,-4.311276435852051,2.2715320587158203,1.7398853302001953
1789323730650947000,10.305947021484375,-3.1154112815856934,2.1051642894744873,2.002148389816284
1789323730669797000,10.324797119140625,-2.1957950592041016,1.6725672483444214,1.360095739364624
1789323730688647400,10.3436474609375,-3.3353490829467773,1.1672394275665283,0.6236090660095215
1789323730707497500,10.36249755859375,-2.235469341278076,1.225121259689331,0.9782916307449341
1789323730726347500,10.381347412109376,-1.928915023803711,1.1975162029266357,0.9788298606872559
1789323730745197800,10.40019775390625,-0.7117338180541992,2.0322182178497314,1.1937966346740723
1789323730764048000,10.4190478515625,0.9935283660888672,1.9381015300750732,0.31508469581604004
1789323730782898000,10.43789794921875,0.8318653106689453,0.4411778450012207,0.2395005226135254
1789323730801748000,10.456748046875,-0.6869468688964844,-0.10297679901123047,-1.1394827365875244
1789323730820598300,10.475598388671875,-0.5168709754943848,-1.4755768775939941,-0.8453054428100586
1789323730839448300,10.4944482421875,-0.024983882904052734,-2.2211198806762695,-0.29349470138549805
1789323730858298400,10.51329833984375,-0.4135737419128418,-1.8866419792175293,-0.0027952194213867188
1789323730877148400,10.5321484375,-0.29655933380126953,-0.5518789291381836,0.37645673751831055
1789323730895998700,10.550998779296876,0.2319316864013672,1.0926246643066406,0.01674342155456543
1789323730914848800,10.569848876953126,0.6162476539611816,1.7951655387878418,-0.7430307865142822
1789323730933698800,10.58869873046875,0.07972002029418945,0.43187475204467773,-1.1791939735412598
1789323730952549000,10.607549072265625,-0.35558605194091797,-1.5639686584472656,-1.3560590744018555
1789323730971399200,10.626399169921875,0.24459600448608398,-3.114898681640625,-0.3987271785736084
1789323730990249200,10.645249267578125,1.351456642150879,-3.759697914123535,-0.31345415115356445
1789323731009099300,10.664099365234375,2.1089463233947754,-4.386495590209961,-0.26055073738098145
1789323731027949300,10.68294921875,1.9651856422424316,-4.361804962158203,-0.3667562007904053
1789323731046799600,10.701799560546876,2.94813871383667,-3.0577306747436523,-0.6434473991394043
1789323731065649700,10.720649658203126,3.6468915939331055,-2.833022117614746,-1.3301091194152832
1789323731084499700,10.739499755859375,3.4542174339294434,-3.301058769226074,-1.6027579307556152
1789323731103350000,10.75835009765625,2.1983790397644043,-2.2026586532592773,-1.536376953125
1789323731122200000,10.777199951171875,1.4874463081359863,-0.13999366760253906,-0.08150172233581543
1789323731141050000,10.796050048828125,0.4923386573791504,1.2945280075073242,0.6382026672363281
1789323731159900200,10.814900146484375,-0.6302704811096191,2.0839266777038574,0.5276205539703369
1789323731178750200,10.833750244140624,-1.3726413249969482,2.370637893676758,0.5379951000213623
1789323731197600500,10.8526005859375,-1.8253812789916992,2.519747734069824,0.6455029249191284
1789323731216450600,10.871450439453126,-1.3556532859802246,2.1658377647399902,0.32437658309936523
1789323731235300600,10.890300537109376,-0.2043299674987793,0.8075408935546875,-0.004157066345214844
1789323731254150700,10.909150634765625,1.3256993293762207,-1.311591625213623,-0.5162391662597656
1789323731273001000,10.9280009765625,2.419005870819092,-3.5889949798583984,-0.8408880233764648
1789323731291851000,10.94685107421875,2.7015910148620605,-4.510124683380127,-2.2128138542175293
1789323731310701000,10.965701171875,2.0169801712036133,-4.715801239013672,-1.9296445846557617
1789323731329551000,10.984551025390624,1.528334140777588,-3.3833441734313965,-2.1838266849517822
1789323731348401200,11.003401123046874,0.38130998611450195,-1.647860050201416,-1.7483055591583252
1789323731367251500,11.02225146484375,-0.4678363800048828,-0.3191699981689453,-0.825747013092041
1789323731386101500,11.0411015625,-0.660181999206543,0.4809541702270508,-0.2371959686279297
1789323731404951600,11.05995166015625,-0.6888818740844727,0.7194681167602539,-0.14369678497314453
1789323731423801600,11.078801513671875,-0.9287028312683105,0.3701467514038086,-0.0039598941802978516
1789323731442651600,11.097651611328125,-0.8806490898132324,-0.3427543640136719,-0.18404316902160645
1789323731461502000,11.116501953125,-1.2649221420288086,-1.4510822296142578,0.29193115234375
1789323731480352000,11.13535205078125,-2.3193464279174805,-1.1005258560180664,1.0508368015289307
1789323731499202000,11.1542021484375,-3.5888724327087402,0.7041199207305908,0.46325957775115967
1789323731518052000,11.173052001953126,-2.0979909896850586,-0.21630191802978516,-0.30955350399017334
1789323731536902100,11.191902099609376,-0.5569448471069336,1.8168268203735352,-0.13307106494903564
1789323731555752400,11.21075244140625,-0.20502758026123047,0.45415306091308594,1.1248492002487183
1789323731574602500,11.2296025390625,-1.7532434463500977,-0.8799958229064941,0.8779284954071045
1789323731593452500,11.24845263671875,-2.478959560394287,-0.17793893814086914,0.516605019569397
1789323731612302600,11.267302490234375,-2.458192825317383,0.5714709758758545,0.6770590543746948
1789323731631152600,11.286152587890625,-1.9183650016784668,0.7259171009063721,1.0646096467971802
1789323731650002700,11.305002685546874,-1.466845989227295,0.6996757984161377,0.9653996229171753
1789323731668853000,11.32385302734375,-1.881075382232666,0.9197640419006348,0.09149718284606934
1789323731706553000,11.361552978515626,-2.1256985664367676,1.7360044717788696,1.7125822305679321
1789323731725403100,11.380403076171875,-2.8045506477355957,1.864990234375,1.0764416456222534
1789323731744253200,11.399253173828125,-3.3954591751098633,1.3998680114746094,1.2602717876434326
1789323731763103500,11.418103515625,-3.2762231826782227,1.2296507358551025,1.4865394830703735
1789323731781953500,11.43695361328125,-2.697653293609619,1.5780043601989746,1.6977949142456055
1789323731800803600,11.455803466796874,-1.6526851654052734,1.8771147727966309,1.7034767866134644
1789323731819653600,11.474653564453124,-1.6293749809265137,1.751533031463623,0.897193193435669
1789323731838503700,11.493503662109376,-0.9779157638549805,1.1124811172485352,0.382598876953125
1789323731857353700,11.512353759765626,-0.35950136184692383,0.1273670196533203,-0.4171481132507324
1789323731876204000,11.5312041015625,0.24021148681640625,-1.5060830116271973,-0.7478632926940918
1789323731895054000,11.55005419921875,0.26346635818481445,-2.061979293823242,-0.17063498497009277
1789323731913904000,11.568904052734375,-0.6221041679382324,-2.7534685134887695,-0.061478376388549805
1789323731932754200,11.587754150390625,-0.07303142547607422,-2.7736473083496094,0.3173708915710449
1789323731951604200,11.606604248046875,0.680717945098877,-2.4841580390930176,-0.0254364013671875
1789323731970454300,11.625454345703124,0.5725517272949219,-2.0804214477539062,-1.1881396770477295
1789323731989304300,11.64430419921875,0.7412424087524414,-1.5264701843261719,-1.5005099773406982
1789323732008154400,11.663154296875,1.2827563285827637,-0.852325439453125,-1.5413477420806885
1789323732027004700,11.682004638671875,2.7816081047058105,-0.5111761093139648,-0.8970112800598145
1789323732045854700,11.700854736328125,3.7288217544555664,-0.5723819732666016,-1.0359389781951904
1789323732064704800,11.719704833984375,2.7955217361450195,-1.5032072067260742,-1.4416673183441162
1789323732083554800,11.738554931640625,1.6616425514221191,-1.956411361694336,-1.37888765335083
1789323732102404900,11.75740478515625,1.1317195892333984,-1.1383438110351562,-0.9166793823242188
1789323732121255000,11.7762548828125,1.3678112030029297,-0.4736061096191406,-0.31552934646606445
1789323732140105000,11.79510498046875,1.3698201179504395,-0.8987512588500977,-0.5358726978302002
1789323732158955000,11.813955078125,2.6336445808410645,-2.25441837310791,-1.0132958889007568
1789323732177805300,11.832805419921876,3.126802921295166,-3.3519372940063477,-0.7855076789855957
1789323732196655400,11.8516552734375,2.6348514556884766,-2.943173408508301,-1.3630726337432861
1789323732215505400,11.87050537109375,0.8432354927062988,-1.1070756912231445,-1.0151941776275635
1789323732234355500,11.88935546875,-0.3755064010620117,-0.36660099029541016,-0.37598204612731934
1789323732253205500,11.90820556640625,-0.9419283866882324,-0.45617008209228516,0.4093794822692871
1789323732272055600,11.9270556640625,-1.0013608932495117,-0.4017758369445801,1.0211825370788574
1789323732290905600,11.945905517578124,-0.7990546226501465,0.3276991844177246,0.03956151008605957
1789323732309755600,11.964755615234376,-1.2126002311706543,0.9140162467956543,-0.2663273811340332
1789323732328605700,11.983605712890625,-1.1319189071655273,0.9398312568664551,-0.34194135665893555
1789323732347455700,12.002455810546875,-0.7045331001281738,1.1575407981872559,-0.006819963455200195
1789323732366306000,12.02130615234375,-0.3141164779663086,1.0198068618774414,0.06358122825622559
1789323732385156000,12.040156005859375,0.2540626525878906,0.2163252830505371,0.08648180961608887
1789323732404006100,12.059006103515625,1.35139799118042,-0.9842410087585449,-0.4922957420349121
1789323732422856200,12.077856201171874,2.9596385955810547,-2.63393497467041,-1.541238784790039
1789323732441706200,12.096706298828124,3.265822410583496,-4.706289768218994,-2.7499101161956787
1789323732460556300,12.115556396484376,2.3524065017700195,-4.803966999053955,-3.4115655422210693
1789323732479406300,12.13440625,0.4278860092163086,-2.548494815826416,-2.1017656326293945
1789323732498256400,12.15325634765625,-0.8474025726318359,-0.5075383186340332,-0.11240434646606445
1789323732517106400,12.1721064453125,-1.7757806777954102,0.12692689895629883,0.5832177400588989
1789323732535956500,12.19095654296875,-2.5220823287963867,0.8626413345336914,0.8626972436904907
1789323732554806500,12.209806640625,-2.719841480255127,-0.10707664489746094,-0.35097599029541016
1789323732573656600,12.228656494140624,-3.0200796127319336,-1.8122215270996094,0.10840225219726562
1789323732592506600,12.247506591796874,-4.400819301605225,1.566669225692749,1.368228793144226
1789323732611356700,12.266356689453126,-4.666297435760498,2.4647998809814453,2.945535659790039
1789323732630207000,12.28520703125,-3.8716073036193848,1.1611998081207275,1.6944891214370728
1789323732649057000,12.30405712890625,-3.074179172515869,0.9671297073364258,1.791558027267456
1789323732667907000,12.322906982421875,-1.571791648864746,0.9609775543212891,1.4836689233779907
1789323732686757000,12.341757080078125,-2.469285011291504,0.3161008358001709,2.1408183574676514
1789323732705607200,12.360607177734375,-3.395843982696533,1.26791512966156,0.7214550971984863
1789323732724457200,12.379457275390624,-2.42344331741333,1.3371374607086182,1.0531013011932373
1789323732743307300,12.398307373046874,-1.689211368560791,1.6423630714416504,1.27182936668396
1789323732762157300,12.4171572265625,-2.978989601135254,1.8099173307418823,0.19951128959655762
1789323732781007400,12.43600732421875,-2.9905219078063965,2.3365416526794434,0.9778122901916504
1789323732799857400,12.454857421875,-0.41408443450927734,2.3665614128112793,1.2648588418960571
1789323732818707500,12.47370751953125,0.2663097381591797,1.6480622291564941,0.4795691967010498
1789323732837557500,12.4925576171875,-0.5860013961791992,1.0165185928344727,0.6605379581451416
1789323732856407600,12.511407470703125,-1.2332305908203125,1.3032519817352295,0.11706972122192383
1789323732875257600,12.530257568359374,-0.3105940818786621,-0.14679574966430664,-0.6665561199188232
1789323732894107600,12.549107666015624,0.3851804733276367,-2.6612586975097656,-0.7591979503631592
1789323732912957700,12.567957763671876,-0.23217344284057617,-2.6239423751831055,-0.7807450294494629
1789323732931807700,12.586807861328126,-1.355219841003418,-1.5961151123046875,-0.443143367767334
1789323732950657800,12.60565771484375,-0.9063239097595215,-0.5321884155273438,0.41884899139404297
1789323732969507800,12.6245078125,0.5478482246398926,-0.10039329528808594,0.4364292621612549
1789323732988358000,12.64335791015625,0.4338827133178711,-0.26743268966674805,-0.16250205039978027
1789323733007208000,12.6622080078125,-0.18408727645874023,-0.4546942710876465,-0.8680198192596436
1789323733026058000,12.68105810546875,-0.1790456771850586,-0.8952455520629883,-0.9147675037384033
1789323733044908000,12.699907958984374,0.6287026405334473,-1.5861082077026367,-0.6550703048706055
1789323733073183200,12.728183349609376,2.2233023643493652,-2.621373176574707,-0.6069753170013428
1789323733092033300,12.747033203125,2.9757423400878906,-2.7162065505981445,-1.4338691234588623
1789323733110883300,12.76588330078125,2.6484475135803223,-2.7909669876098633,-1.5510554313659668
1789323733129733400,12.7847333984375,2.8544797897338867,-3.072268486022949,-1.3041794300079346
1789323733158008300,12.81300830078125,3.0642800331115723,-2.308441162109375,-0.005688905715942383
1789323733176858400,12.8318583984375,2.0598745346069336,-0.9484920501708984,0.3333921432495117
1789323733195708400,12.85070849609375,1.307774543762207,-0.23960208892822266,0.5813391208648682
1789323733214558500,12.869558349609376,0.649205207824707,0.20293331146240234,0.5731160640716553
1789323733233408500,12.888408447265626,0.15378093719482422,0.6880311965942383,0.33887743949890137
1789323733252258600,12.907258544921875,-0.10886478424072266,0.9691047668457031,0.17580175399780273
1789323733271108600,12.926108642578125,-0.014827251434326172,0.6091146469116211,-0.08899521827697754
1789323733289958700,12.944958740234375,1.2200908660888672,-0.48604249954223633,-0.40254712104797363
1789323733308808700,12.96380859375,1.5795836448669434,-1.7060246467590332,-0.979799747467041
1789323733327658800,12.98265869140625,1.0678443908691406,-1.2002296447753906,-1.992922306060791
1789323733346508800,13.0015087890625,0.05292987823486328,-0.8593459129333496,-0.7618281841278076
1789323733365358800,13.02035888671875,0.3656344413757324,-1.1843905448913574,0.08606100082397461
1789323733384209000,13.039208984375,0.5917181968688965,-2.4437575340270996,0.5869922637939453
1789323733403059000,13.058058837890625,1.4069766998291016,-2.6024413108825684,-0.2363431453704834
1789323733421909000,13.076908935546875,0.6539177894592285,-2.461790084838867,-1.4044466018676758
1789323733440758800,13.0957587890625,0.14745044708251953,-1.327164649963379,-1.8824396133422852
1789323733459608800,13.11460888671875,0.6227502822875977,0.13004732131958008,-0.8153398036956787
1789323733478459000,13.133458984375,0.8950343132019043,0.12734031677246094,-0.3938891887664795
1789323733497309000,13.152308837890626,0.09015989303588867,-0.6483645439147949,-0.04367208480834961
1789323733516159000,13.171158935546876,-1.4080123901367188,-0.21731901168823242,-0.6644835472106934
1789323733535009000,13.190009033203125,-2.5377182960510254,-0.7828741073608398,-0.060520172119140625
1789323733553859000,13.208859130859375,-0.11565780639648438,-0.1044607162475586,-0.5352902412414551
1789323733572709000,13.227709228515625,-1.8058056831359863,-3.573143482208252,-1.129725694656372
1789323733591559200,13.24655908203125,-3.390195369720459,-2.373593330383301,0.8592462539672852
1789323733610409200,13.2654091796875,-4.253909587860107,4.059656620025635,3.5164079666137695
1789323733629259300,13.28425927734375,-1.073099136352539,2.8731727600097656,1.7671549320220947
1789323733648109300,13.303109375,-0.0997304916381836,0.13611102104187012,2.364534854888916
1789323733666959400,13.32195947265625,-1.8356714248657227,-0.14116859436035156,1.0996512174606323
1789323733695234300,13.350234375,-4.355931758880615,0.7884223461151123,1.0370160341262817
1789323733714084400,13.36908447265625,-3.4486641883850098,1.5877834558486938,1.6609697341918945
1789323733732934400,13.387934326171875,-3.281081199645996,0.5110971927642822,0.6787376403808594
1789323733751784400,13.406784423828125,-7.55507755279541,0.9893100261688232,1.3378486633300781
1789323733770634500,13.425634521484374,-3.9109444618225098,3.94612455368042,4.552568435668945
1789323733789484500,13.444484619140624,5.124961853027344,3.577570676803589,2.9806995391845703
1789323733808334600,13.46333447265625,-0.02920818328857422,1.5674762725830078,0.646929144859314
1789323733827184600,13.4821845703125,-3.3720431327819824,1.5367660522460938,-0.5369584560394287
1789323733846034400,13.501034423828125,-0.9542946815490723,1.3767828941345215,-0.904977560043335
1789323733864884500,13.519884521484375,-1.037003993988037,1.4749271869659424,-0.6601099967956543
1789323733883734500,13.538734619140625,-0.8123917579650879,0.3294854164123535,0.09447765350341797
1789323733902584600,13.55758447265625,-1.3471293449401855,-2.760580062866211,0.17519569396972656
1789323733921434600,13.5764345703125,-0.5046024322509766,-2.6625685691833496,-0.5451419353485107
1789323733940284700,13.59528466796875,-0.09369564056396484,-1.0318546295166016,-0.5090739727020264
1789323733959134700,13.614134765625,-0.5779962539672852,0.166412353515625,-0.1071770191192627
1789323733987409700,13.64240966796875,0.005020618438720703,-0.061017513275146484,-0.07399725914001465
1789323734006259700,13.661259765625,0.9756479263305664,-0.3485841751098633,-1.1498420238494873
1789323734025109800,13.68010986328125,0.8104963302612305,-1.1012115478515625,-2.3332626819610596
1789323734043959800,13.698959716796875,0.5436201095581055,-2.028266429901123,-2.2908473014831543
1789323734062809900,13.717809814453124,1.8584580421447754,-3.266636848449707,-1.5141711235046387
1789323734081659600,13.73665966796875,2.7404885292053223,-4.08116340637207,-0.6740729808807373
1789323734100509700,13.755509765625,1.8195013999938965,-3.6019678115844727,-0.43087077140808105
1789323734119359700,13.77435986328125,1.6811456680297852,-2.100442886352539,-0.2042851448059082
1789323734138209800,13.793209716796875,1.9926466941833496,-0.47196197509765625,0.0053255558013916016
1789323734157059800,13.812059814453125,2.4748120307922363,0.5479755401611328,-0.9353368282318115
1789323734175910000,13.830909912109375,2.479836940765381,1.0997228622436523,-1.725161075592041
1789323734194759700,13.849759765625,1.888826847076416,0.651667594909668,-1.6021511554718018
1789323734213609700,13.868609619140624,1.8022980690002441,-0.25327110290527344,-1.5260655879974365
1789323734232459800,13.887459716796876,1.2667183876037598,-1.2634401321411133,-0.5089700222015381
1789323734251309800,13.906309814453126,0.8650398254394531,-0.6562395095825195,-0.5672855377197266
1789323734270160000,13.925159912109375,-0.527686595916748,0.46428489685058594,1.0052305459976196
1789323734289010000,13.944010009765625,-0.529296875,0.7419710159301758,0.5539543628692627
1789323734307860000,13.96285986328125,-0.6116046905517578,-0.19481325149536133,0.8455404043197632
1789323734326709800,13.981709716796875,-0.19060850143432617,-1.7750244140625,1.480906367301941
1789323734345559800,14.000559814453124,0.638422966003418,-2.9010515213012695,0.07146430015563965
1789323734364409900,14.019409912109374,0.21078729629516602,-2.5245304107666016,-1.0207879543304443
1789323734383260000,14.038260009765626,0.5503883361816406,-1.6151008605957031,-1.7652866840362549
1789323734402110000,14.05710986328125,0.9484100341796875,-0.9356741905212402,-1.2809021472930908
1789323734420959700,14.075959716796875,1.5640244483947754,-0.3830752372741699,-0.6066198348999023
1789323734439809800,14.094809814453125,2.359591484069824,-0.9871015548706055,-1.1105237007141113
1789323734458659800,14.113659912109375,1.876215934753418,-2.0660252571105957,-1.650460958480835
1789323734477510000,14.132510009765625,1.0613856315612793,-2.551093101501465,-1.8228013515472412
1789323734496360000,14.15135986328125,0.8599281311035156,-2.3363285064697266,-1.3652994632720947
1789323734515209700,14.170209716796874,0.28740978240966797,-2.188535213470459,-1.1008987426757812
1789323734534059800,14.189059814453126,-1.6069021224975586,-1.6523222923278809,-0.2198646068572998
1789323734552909800,14.207909912109375,-4.593706130981445,0.37036752700805664,-0.10783243179321289
1789323734571759900,14.226759765625,-5.029025077819824,1.413320779800415,1.4342374801635742
1789323734590610000,14.24560986328125,-2.9660868644714355,4.966836929321289,2.2895050048828125
1789323734609460000,14.2644599609375,-1.7120866775512695,2.361082077026367,2.9626998901367188
1789323734628309800,14.283309814453125,-3.951054096221924,0.2745513916015625,1.6787216663360596
1789323734647159800,14.302159912109374,-4.073066234588623,0.26795244216918945,1.4322483539581299
1789323734675434800,14.330434814453126,-2.7095065116882324,1.5456658601760864,2.030608654022217
1789323734703709700,14.358709716796875,-1.4768996238708496,0.6897478103637695,1.4388930797576904
1789323734722559700,14.377559814453125,-2.8023414611816406,2.152846336364746,0.9545093774795532
1789323734741409800,14.396409912109375,-1.7952451705932617,2.592507839202881,1.661590576171875
1789323734760259800,14.415259765625,-1.1724624633789062,2.0368897914886475,0.8505710363388062
1789323734779110000,14.43410986328125,-2.7473487854003906,1.0293259620666504,0.2400815486907959
1789323734797959700,14.452959716796874,-1.9255948066711426,1.2421281337738037,1.2029304504394531
1789323734816809700,14.471809814453126,-1.6668410301208496,1.7904329299926758,1.1570894718170166
1789323734835659800,14.49065966796875,-1.576230525970459,1.660480260848999,1.242335557937622
1789323734854509800,14.509509765625,-0.7819080352783203,0.9917879104614258,0.8843533992767334
1789323734873359600,14.528359619140625,-1.145434856414795,0.006334781646728516,0.3558974266052246
1789323734892209700,14.547209716796875,-1.4446964263916016,-0.26906490325927734,-0.16962361335754395
1789323734911059700,14.566059814453125,-1.0190396308898926,-0.019680023193359375,-0.5578546524047852
1789323734929909800,14.58490966796875,-0.5467104911804199,-0.5871005058288574,-0.05814862251281738
1789323734948759600,14.603759521484376,0.14075660705566406,-1.4628629684448242,-0.33336949348449707
1789323734967609600,14.622609619140626,0.3041214942932129,-2.551997661590576,-1.0036861896514893
1789323734986459600,14.641459716796875,0.45148801803588867,-3.635347843170166,-1.7811224460601807
1789323735005309700,14.660309814453125,0.7499713897705078,-3.9321632385253906,-1.566551685333252
1789323735024159500,14.679159423828125,1.2675986289978027,-2.921232223510742,-0.6049137115478516
1789323735043009500,14.698009521484375,2.343669891357422,-1.6878070831298828,0.5252077579498291
1789323735061859600,14.716859619140624,3.217978000640869,-1.3269987106323242,-0.008133411407470703
1789323735080709600,14.735709716796874,3.269531726837158,-1.2898855209350586,-0.6362719535827637
1789323735099559400,14.754559326171876,2.244645357131958,-1.3357181549072266,-1.2292940616607666
1789323735118409500,14.773409423828125,2.507565975189209,-1.9451255798339844,-1.1299552917480469
1789323735146684400,14.801684326171875,2.7873921394348145,-2.1683006286621094,-0.32169055938720703
1789323735165534500,14.820534423828125,2.603644847869873,-0.6380958557128906,-0.2836155891418457
1789323735184384300,14.83938427734375,2.3541922569274902,0.38684844970703125,-0.3249187469482422
1789323735203234300,14.858234375,2.005460739135742,0.202911376953125,-0.9200153350830078
1789323735222084400,14.87708447265625,0.9761819839477539,-0.16423416137695312,-0.7865443229675293
1789323735240934400,14.895934326171876,0.3268470764160156,-0.42937278747558594,0.3120689392089844
1789323735259784200,14.9147841796875,0.8290877342224121,-1.0336589813232422,0.4391655921936035
1789323735278634200,14.93363427734375,0.611170768737793,-2.3491158485412598,0.8616578578948975
1789323735297484300,14.952484375,0.7743687629699707,-2.6133370399475098,0.310394287109375
1789323735316334300,14.971334228515625,0.9558067321777344,-1.876718521118164,-0.7584326267242432
1789323735335184100,14.99018408203125,1.380302906036377,-1.3840994834899902,-1.184920310974121
1789323735354034200,15.0090341796875,1.9879112243652344,-1.3188209533691406,-1.4031782150268555
1789323735372884200,15.02788427734375,1.8545422554016113,-2.004676342010498,-1.1669957637786865
1789323735391734000,15.046734130859376,1.3128371238708496,-2.226428508758545,-1.0437169075012207
1789323735410584000,15.065583984375,-0.38864946365356445,-2.15915584564209,-0.6583664417266846
1789323735429434000,15.08443408203125,-1.2617759704589844,-1.8935785293579102,-0.4166567325592041
1789323735448284000,15.103283935546875,-1.2726707458496094,-0.9573760032653809,-0.5014562606811523
1789323735467134000,15.122134033203125,-1.4570345878601074,-0.6317324638366699,-0.321455717086792
1789323735485984000,15.14098388671875,-1.2606558799743652,0.2254629135131836,1.1281856298446655
1789323735533108700,15.188108642578126,-0.45630359649658203,1.5445067882537842,-0.10257101058959961
1789323735551958800,15.206958740234375,-3.0148987770080566,1.2395579814910889,0.6758867502212524
1789323735570808800,15.225808837890625,-4.039702415466309,0.1730654239654541,0.7312667369842529
1789323735589658600,15.24465869140625,-5.49039888381958,0.7574589252471924,1.5919874906539917
1789323735608508700,15.2635087890625,-4.943251609802246,2.249051094055176,2.799616575241089
1789323735627358700,15.282358642578124,-4.6594343185424805,2.703798532485962,2.530740261077881
1789323735646208500,15.30120849609375,-3.768740177154541,2.724353313446045,2.6678194999694824
1789323735665058600,15.32005859375,-3.361819267272949,2.844740867614746,2.444288969039917
1789323735683908600,15.33890869140625,-2.1780757904052734,2.8197686672210693,2.1235125064849854
1789323735702758400,15.35775830078125,-0.6751446723937988,1.729539394378662,0.9998857975006104
1789323735721608400,15.3766083984375,-0.8428730964660645,-0.010968923568725586,0.008755922317504883
1789323735740458500,15.39545849609375,-1.9623346328735352,0.45145130157470703,0.17040610313415527
1789323735759308300,15.414308349609374,-1.4801592826843262,1.2102477550506592,0.06268668174743652
1789323735778158300,15.433158447265624,-1.1216468811035156,0.20620203018188477,-0.05044221878051758
1789323735797008100,15.452008056640626,-1.4457378387451172,-0.9357104301452637,0.029865264892578125
1789323735815858200,15.470858154296875,-1.052217960357666,-0.5791707038879395,0.42130541801452637
1789323735834708200,15.489708251953125,-1.4243626594543457,0.18836641311645508,0.5473465919494629
1789323735853558000,15.50855810546875,-0.8745455741882324,-0.07314825057983398,0.32701611518859863
1789323735872408000,15.527407958984375,-0.3527212142944336,-0.5638561248779297,0.005501985549926758
1789323735891258000,15.546258056640625,-0.5075883865356445,-0.8263897895812988,-0.5978648662567139
1789323735910108000,15.56510791015625,-0.1788182258605957,-1.1391878128051758,-1.807645559310913
1789323735928958000,15.5839580078125,0.7900652885437012,-2.0470690727233887,-2.3289215564727783
1789323735947807700,15.602807861328126,1.960127353668213,-3.296171188354492,-2.685699701309204
1789323735966657800,15.62165771484375,2.3233776092529297,-3.9212646484375,-2.515094041824341
1789323735985507800,15.6405078125,3.090939998626709,-3.065654754638672,-1.2134883403778076
1789323736004357600,15.659357666015625,3.434636116027832,-1.9679670333862305,-0.599829912185669
1789323736023207700,15.678207763671875,3.183102607727051,-1.3248186111450195,-0.47289252281188965
1789323736042057700,15.6970576171875,3.438497543334961,-2.1757421493530273,-1.4103169441223145
1789323736060907500,15.715907470703126,3.2389698028564453,-3.600865364074707,-2.103198528289795
1789323736079757600,15.734757568359376,3.165675163269043,-3.148540496826172,-1.536421775817871
1789323736098607400,15.753607421875,2.433725357055664,-0.3451099395751953,-0.28917670249938965
1789323736117457400,15.77245751953125,1.6303086280822754,0.6722478866577148,-0.5794961452484131
1789323736136307200,15.79130712890625,0.8305978775024414,-0.45244693756103516,-0.7981305122375488
1789323736155157200,15.8101572265625,0.011309623718261719,-1.6574687957763672,-0.7946913242340088
1789323736174007300,15.82900732421875,0.12680816650390625,-1.4923315048217773,-0.461956262588501
1789323736192857000,15.847857177734374,0.13023138046264648,-0.9200925827026367,0.040302276611328125
1789323736211707100,15.86670703125,-0.16077280044555664,-0.6169028282165527,-0.12978744506835938
1789323736230557000,15.885556884765625,-0.3459768295288086,-0.6394548416137695,-0.4032106399536133
1789323736249407000,15.904406982421875,-0.42532825469970703,-0.8664717674255371,-0.6349358558654785
1789323736268256800,15.9232568359375,-0.5924205780029297,-0.2493305206298828,-0.45162105560302734
1789323736287106800,15.94210693359375,-0.7102470397949219,0.19673538208007812,-0.03728652000427246
1789323736305956600,15.96095654296875,0.03076028823852539,-0.328035831451416,-0.290712833404541
1789323736324806700,15.979806640625,0.7334914207458496,-1.5183329582214355,-0.45451998710632324
1789323736343656700,15.99865673828125,1.3198585510253906,-1.762679100036621,-1.3225681781768799
1789323736362506500,16.017506591796874,0.8870306015014648,-2.816526412963867,-1.8597211837768555
1789323736381356500,16.0363564453125,1.856271743774414,-3.179434299468994,-0.9206647872924805
1789323736400206300,16.055206298828125,1.2890186309814453,-1.9217181205749512,-0.40792036056518555
1789323736419056400,16.074056396484377,-1.4665460586547852,-1.8478364944458008,-0.8497276306152344
1789323736437906200,16.09290625,-3.628176689147949,-1.5500810146331787,-1.117262601852417
1789323736456756200,16.111756103515624,-3.093231678009033,1.4106833934783936,0.3437778949737549
1789323736475606300,16.130606201171876,-3.887261390686035,2.0864157676696777,1.7930651903152466
1789323736494456000,16.1494560546875,-4.459359169006348,1.3990709781646729,3.337752103805542
1789323736513306000,16.16830615234375,-5.05289888381958,2.076951265335083,3.220743179321289
1789323736532156000,16.187156005859375,-5.962772369384766,2.5493407249450684,3.7649829387664795
1789323736551006000,16.206005859375,-5.654070854187012,2.6633965969085693,2.8938441276550293
1789323736569855700,16.224855712890626,-5.559149742126465,1.6812400817871094,1.9234097003936768
1789323736588705800,16.243705810546874,-4.4004807472229,1.799837350845337,2.6789422035217285
1789323736607555600,16.2625556640625,-4.223697662353516,2.3110978603363037,1.8832179307937622
1789323736626405600,16.281405517578126,-1.9756050109863281,2.1481404304504395,2.51255202293396
1789323736645255400,16.30025537109375,-0.24047374725341797,1.9357526302337646,0.5899126529693604
1789323736664105500,16.31910546875,-2.859931468963623,1.1291909217834473,0.4747481346130371
1789323736682955300,16.337955322265625,-0.7141036987304688,2.2496912479400635,0.2871708869934082
1789323736701805300,16.356805419921876,1.1091265678405762,1.670478343963623,-0.4300670623779297
1789323736720655000,16.375655029296876,1.2180819511413574,-2.563063621520996,-0.5303442478179932
1789323736739505200,16.394505126953124,0.3614015579223633,-5.244534969329834,-2.684208631515503
1789323736758355000,16.41335498046875,-1.7991876602172852,-5.192075252532959,-2.5273735523223877
1789323736777205000,16.432205078125,-1.806056022644043,-3.137533187866211,-0.8114442825317383
1789323736796054800,16.4510546875,-0.19123315811157227,-0.23547792434692383,0.48998570442199707
1789323736814904800,16.46990478515625,3.1810617446899414,1.3464546203613281,0.44418883323669434
1789323736833754600,16.488754638671875,6.977386951446533,-1.541914463043213,-1.281301736831665
1789323736852604700,16.507604736328126,4.799076080322266,-5.045246124267578,-4.460599899291992
1789323736871454500,16.526454345703126,1.4676780700683594,-4.105962753295898,-2.8389499187469482
1789323736890304300,16.54530419921875,-0.5667989253997803,-0.7931966781616211,0.551978349685669
1789323736909154300,16.564154296875,0.464052677154541,0.5271048545837402,1.5229145288467407
1789323736928004000,16.583004150390625,2.3232522010803223,-2.287247657775879,-0.019667625427246094
1789323736946854100,16.601854248046877,4.743009567260742,-6.349826812744141,-2.5339083671569824
1789323736965704000,16.620703857421876,3.5165634155273438,-5.411680221557617,-2.571889877319336
1789323736984554000,16.639553955078124,1.2657718658447266,0.14675521850585938,-0.45421671867370605
1789323737003403800,16.65840380859375,-0.49498772621154785,2.5988168716430664,1.1720612049102783
1789323737022253800,16.67725390625,-1.530585527420044,3.6766462326049805,1.8885924816131592
1789323737041103600,16.696103515625,-0.8924384117126465,2.717895984649658,1.9098057746887207
1789323737059953700,16.71495361328125,-0.3182826042175293,1.4267964363098145,1.4718797206878662
1789323737078803500,16.733803466796875,0.04754495620727539,0.7486586570739746,0.5659408569335938
1789323737097653500,16.752653564453126,1.0461492538452148,0.24480009078979492,-0.4720282554626465
1789323737116503300,16.77150341796875,2.1725950241088867,-0.49336814880371094,-2.147627353668213
1789323737135353000,16.79035302734375,3.358186721801758,-2.403646945953369,-2.8935494422912598
1789323737154203100,16.809203125,2.837524890899658,-3.7479424476623535,-2.035179853439331
1789323737173053000,16.828052978515625,1.054595947265625,-2.9671854972839355,-0.739295482635498
1789323737191903000,16.846903076171873,0.07033061981201172,-2.567465305328369,-0.6433670520782471
1789323737210752800,16.865752685546877,0.16545534133911133,-3.610536575317383,-1.6421873569488525
1789323737229602800,16.884602783203125,0.7980313301086426,-3.481163501739502,-2.280245304107666
1789323737248452600,16.90345263671875,1.015577793121338,-2.338027000427246,-1.7052156925201416
1789323737267302400,16.922302490234376,0.9822630882263184,-1.1090631484985352,0.19366860389709473
1789323737286152400,16.94115234375,0.5845298767089844,-0.6866459846496582,1.116119146347046
1789323737305002200,16.960002197265624,-1.764291763305664,1.1246201992034912,1.0300588607788086
1789323737323852300,16.978852294921875,-4.677962303161621,1.7362916469573975,0.25731945037841797
1789323737342702000,16.9977021484375,-5.717738151550293,2.5856618881225586,-0.24756717681884766
1789323737361552000,17.0165517578125,-4.966023921966553,3.1189489364624023,1.743102788925171
1789323737380402000,17.03540185546875,-4.963308811187744,1.7851169109344482,2.915052652359009
1789323737399251700,17.054251708984374,-4.145475387573242,0.9572534561157227,2.718985080718994
1789323737418101800,17.073101806640626,-2.9640884399414062,0.4709172248840332,3.508890151977539
1789323737436951600,17.09195166015625,-2.941887378692627,0.7493283748626709,1.7803276777267456
1789323737455801300,17.11080126953125,-2.511475086212158,0.2895843982696533,1.061873197555542
1789323737474651400,17.1296513671875,-2.6188249588012695,0.7145030498504639,1.4201220273971558
1789323737493501200,17.148501220703125,-3.020885944366455,1.7845029830932617,1.2314378023147583
1789323737512351000,17.16735107421875,-2.7507810592651367,2.1924710273742676,1.5752040147781372
1789323737531201000,17.186200927734376,-2.2216339111328125,2.348003387451172,2.3163697719573975
1789323737550050800,17.20505078125,-3.223632335662842,2.9623475074768066,1.2529442310333252
1789323737568900900,17.22390087890625,-3.9021458625793457,3.360349655151367,1.6551438570022583
1789323737587750700,17.242750732421875,-1.337573528289795,3.1855313777923584,1.131751537322998
1789323737606600400,17.261600341796875,-1.0371408462524414,0.26926136016845703,0.10891842842102051
1789323737625450500,17.280450439453126,-0.05422782897949219,-1.4356493949890137,-0.1498124599456787
1789323737644300300,17.29930029296875,-0.5557765960693359,-2.932389736175537,-1.5229876041412354
1789323737663150000,17.318150146484374,1.3663325309753418,-5.516592502593994,-2.4163498878479004
1789323737682000100,17.337000244140626,0.9508357048034668,-7.714288234710693,-3.9034247398376465
1789323737700850000,17.355849853515625,1.024968147277832,-8.33121395111084,-3.927982807159424
1789323737719700000,17.374699951171873,2.527252197265625,-4.863826274871826,-1.358161211013794
1789323737738549800,17.3935498046875,2.7633590698242188,-0.6272001266479492,-0.08726000785827637
1789323737757399600,17.412399658203125,3.2272682189941406,1.3342046737670898,-0.4331996440887451
1789323737776249600,17.43124951171875,1.984044075012207,2.411505699157715,-0.7656075954437256
1789323737795099400,17.450099365234376,1.8039112091064453,2.512803554534912,-0.6111154556274414
1789323737813949200,17.46894921875,3.174417018890381,1.4458236694335938,-0.4602673053741455
1789323737832799200,17.48779931640625,3.8689804077148438,-2.324167251586914,-0.30725979804992676
1789323737851649000,17.50664892578125,4.821529388427734,-6.584266662597656,-2.595799207687378
1789323737870498800,17.525498779296875,3.8381404876708984,-5.289085388183594,-3.3475193977355957
1789323737889348600,17.5443486328125,2.565694808959961,-0.4561805725097656,-0.8896892070770264
1789323737908198700,17.56319873046875,2.5438618659973145,-0.8901233673095703,-0.7842578887939453
1789323737927048400,17.58204833984375,0.7438740730285645,-3.418844223022461,-0.5774080753326416
1789323737945898200,17.600898193359374,-0.6782035827636719,-3.7785301208496094,0.8843803405761719
1789323737964748300,17.619748291015625,-0.7809538841247559,-1.8944106101989746,0.9767971038818359
1789323737983598000,17.63859814453125,-1.9259514808654785,0.1914224624633789,0.926863431930542
1789323738002448000,17.65744775390625,-2.0052435398101807,1.5890650749206543,0.24105453491210938
1789323738021298000,17.6762978515625,-0.7497410774230957,1.531437873840332,0.028632640838623047
1789323738040147700,17.695147705078124,0.5638351440429688,0.8714499473571777,0.14898228645324707
1789323738058997500,17.71399755859375,0.9458222389221191,0.03721332550048828,-0.5207586288452148
1789323738077847300,17.732847412109376,-1.3662800788879395,-1.100085735321045,-1.5077002048492432
1789323738096697300,17.751697265625,-3.937424421310425,-1.5133905410766602,-1.41371750831604
1789323738115547100,17.770547119140623,-3.9482955932617188,-0.1181182861328125,0.6170759201049805
1789323738134397000,17.78939697265625,-0.18176698684692383,0.6423730850219727,1.7410956621170044
1789323738153247000,17.8082470703125,5.567310333251953,-1.1716361045837402,0.9284319877624512
1789323738172096800,17.8270966796875,6.3862762451171875,-4.546688079833984,-0.5400533676147461
1789323738190946600,17.845946533203126,2.30214786529541,-5.890497207641602,-1.1071875095367432
1789323738209796400,17.86479638671875,-1.4552092552185059,-3.9661664962768555,-0.9219319820404053
1789323738228646400,17.883646484375,-4.314065456390381,1.344886302947998,-0.4381222724914551
1789323738247496200,17.90249609375,-4.380235195159912,3.9958057403564453,1.5266238451004028
1789323738266346000,17.921345947265625,-4.538741588592529,4.057254791259766,2.782377004623413
1789323738285195800,17.94019580078125,-6.123990058898926,3.752232551574707,2.0911037921905518
1789323738304045800,17.9590458984375,-8.052905082702637,3.1669044494628906,5.22607421875
1789323738322895600,17.9778955078125,-6.296850681304932,4.633673667907715,5.620523452758789
1789323738341745400,17.996745361328124,-3.9538168907165527,2.381775379180908,2.368715763092041
1789323738360595200,18.01559521484375,-2.6847662925720215,2.0999841690063477,2.751413106918335
1789323738379445200,18.0344453125,0.6090269088745117,1.3705220222473145,0.5600879192352295
1789323738398295000,18.053294921875,-0.7915444374084473,-0.29135894775390625,-0.6397521495819092
1789323738417144800,18.072144775390626,-1.9342007637023926,-0.043538570404052734,-0.2525146007537842
1789323738435994600,18.09099462890625,-0.6316814422607422,0.40660715103149414,-0.016743898391723633
1789323738454844700,18.1098447265625,-1.02197265625,-0.5605020523071289,-0.19731521606445312
1789323738473694500,18.128694580078125,-0.9865732192993164,-3.6078648567199707,0.17969894409179688
1789323738492544300,18.147544189453125,-1.1831269264221191,-4.45482873916626,0.9468014240264893
1789323738511394000,18.16639404296875,-2.4199471473693848,-3.2906603813171387,0.7314293384552002
1789323738530243800,18.185243896484376,-3.8486878871917725,-1.2739944458007812,1.8849629163742065
1789323738549094000,18.204093994140624,-2.467067241668701,1.614302158355713,2.2804148197174072
1789323738567943700,18.222943603515624,1.860628604888916,4.326490879058838,1.9057865142822266
1789323738586793500,18.24179345703125,4.7817206382751465,3.6873745918273926,-0.39606666564941406
1789323738605643300,18.260643310546875,6.109031677246094,-0.2492208480834961,-4.642159461975098
1789323738624493000,18.2794931640625,4.118110656738281,-5.252381324768066,-7.785572052001953
1789323738643343000,18.298343017578127,1.061075210571289,-7.895966529846191,-4.817597389221191
1789323738662193000,18.31719287109375,1.029472827911377,-7.437732696533203,1.6152538061141968
1789323738681042700,18.336042724609374,3.232664108276367,-6.288283348083496,3.6618831157684326
1789323738699892500,18.354892578125,2.9217209815979004,-4.605252265930176,0.5595691204071045
1789323738718742300,18.3737421875,4.798085689544678,-3.666982650756836,-0.960517406463623
1789323738737592300,18.39259228515625,6.452516555786133,-1.183995246887207,-1.5697412490844727
1789323738756442000,18.411442138671877,3.765434741973877,1.0756068229675293,-1.835465669631958
1789323738775292000,18.4302919921875,1.5999178886413574,2.277778148651123,-1.9745054244995117
1789323738794141700,18.4491416015625,0.01741647720336914,2.585862159729004,-1.2954087257385254
1789323738812991500,18.467991455078124,-1.4873871803283691,1.7300949096679688,-0.34735918045043945
1789323738831841300,18.48684130859375,-2.2003917694091797,-0.10875844955444336,-0.16448426246643066
1789323738850691300,18.50569140625,-2.395474910736084,-0.9185948371887207,0.0758657455444336
1789323738869541000,18.524541015625,-1.190253734588623,-0.9540276527404785,0.7952899932861328
1789323738888391000,18.543390869140627,0.8540997505187988,-2.0966362953186035,1.5745196342468262
1789323738907240700,18.56224072265625,2.8008899688720703,-2.9480180740356445,0.6395399570465088
1789323738926090500,18.581090576171874,4.532442569732666,-3.3116960525512695,-0.8733656406402588
1789323738944940500,18.5999404296875,4.79925012588501,-4.620597839355469,-4.103884696960449
1789323738963790300,18.618790283203126,2.069711685180664,-6.02318811416626,-4.291316986083984
1789323738982640000,18.63764013671875,-0.6542239189147949,-4.0929412841796875,-0.8741374015808105
1789323739001490000,18.656489990234373,-2.745905876159668,-0.1266007423400879,0.8235929012298584
1789323739020339700,18.675339599609377,-3.8122544288635254,2.0061838626861572,1.5129625797271729
1789323739039189500,18.694189453125,-3.2551722526550293,3.1416118144989014,2.1229615211486816
1789323739058039300,18.713039306640624,-3.496077060699463,2.6198511123657227,1.22149658203125
1789323739076889000,18.73188916015625,-2.6826562881469727,3.160895586013794,1.7044048309326172
1789323739095739100,18.7507392578125,-3.054752826690674,2.074651002883911,1.4323979616165161
1789323739114589000,18.7695888671875,-3.892444133758545,-0.7439379692077637,3.8412840366363525
1789323739133438700,18.788438720703127,-5.600982666015625,-0.19317841529846191,1.6721141338348389
1789323739152288500,18.80728857421875,-5.782108306884766,-0.05617547035217285,1.2074029445648193
1789323739171138300,18.82613818359375,-4.748688220977783,2.6409549713134766,3.900880813598633
1789323739189988000,18.844988037109374,0.75946044921875,2.479569911956787,2.729454755783081
1789323739208838000,18.863837890625,2.637420654296875,0.43918800354003906,1.1115490198135376
1789323739227687700,18.882687744140625,-2.710864543914795,-0.7869946956634521,-0.3358888626098633
1789323739246537700,18.901537841796873,-4.545784950256348,-1.103572130203247,0.11728858947753906
1789323739265387500,18.920387451171877,-4.890926361083984,0.22370338439941406,0.564324140548706
1789323739284237300,18.9392373046875,-4.274300575256348,0.5199756622314453,1.9813659191131592
1789323739303087000,18.958087158203124,-1.1897850036621094,0.9601707458496094,3.227602958679199
1789323739321937000,18.97693701171875,-0.4764533042907715,2.48838472366333,2.1741933822631836
1789323739340786700,18.99578662109375,0.5136170387268066,3.5828564167022705,1.5491446256637573
1789323739359636500,19.014636474609375,0.5777468681335449,4.582235813140869,-3.001222610473633
1789323739378486300,19.033486328125,-1.7361669540405273,3.3084588050842285,-1.6531257629394531
1789323739397336000,19.052336181640626,-0.11768531799316406,1.0094184875488281,-1.9494595527648926
1789323739416185900,19.071185791015626,-0.19546747207641602,-4.066391468048096,-2.2290680408477783
1789323739435035600,19.09003564453125,2.039788246154785,-10.516681671142578,-3.0237948894500732
1789323739453885400,19.108885498046874,3.7329797744750977,-13.950067520141602,-2.3642308712005615
1789323739472735500,19.127735595703125,6.1572089195251465,-9.703736305236816,-0.15758728981018066
1789323739491585300,19.146585205078125,3.7140159606933594,-1.264155387878418,-0.9237186908721924
1789323739510435000,19.16543505859375,2.2673583030700684,1.0344595909118652,-2.7581868171691895
1789323739529284900,19.184284912109376,3.1111998558044434,0.4727926254272461,-3.010218858718872
1789323739548134700,19.203134765625,1.8359260559082031,-1.2782697677612305,-1.9887464046478271
1789323739566984400,19.221984375,-0.05527353286743164,-0.04900550842285156,0.0454716682434082
1789323739585834200,19.240834228515624,-1.6080539226531982,2.8004817962646484,1.2064063549041748
1789323739604684000,19.25968408203125,-2.4103055000305176,4.959692001342773,2.4803884029388428
1789323739623533800,19.278533935546875,0.9989113807678223,5.067756175994873,0.03388524055480957
1789323739642383600,19.297383544921875,-0.6406736373901367,1.2645277976989746,0.4269446134567261
1789323739661233400,19.3162333984375,2.6797332763671875,-1.3956727981567383,-2.6576313972473145
1789323739680083200,19.335083251953126,2.844498634338379,-3.5163869857788086,-4.435378074645996
1789323739698933000,19.35393310546875,1.350883960723877,-5.533298492431641,-4.706012725830078
1789323739717782800,19.37278271484375,3.4461021423339844,-5.902644634246826,-3.1876206398010254
1789323739736632600,19.391632568359373,1.7708015441894531,-4.492888450622559,0.1973400115966797
1789323739755482400,19.410482421875,-1.4075732231140137,-2.5727782249450684,-0.9849288463592529
1789323739774332200,19.429332275390625,-0.9826421737670898,-0.9294734001159668,-1.2411837577819824
1789323739793182000,19.448181884765624,1.0687766075134277,-0.9216923713684082,-1.9728012084960938
1789323739812031700,19.46703173828125,1.3839659690856934,-2.8970084190368652,-2.1332945823669434
1789323739830881500,19.485881591796876,0.15100860595703125,-2.76224422454834,-1.6544997692108154
1789323739849731300,19.5047314453125,-2.2904891967773438,-2.1962223052978516,-0.42813634872436523
1789323739868581000,19.5235810546875,-3.820374011993408,-1.0271267890930176,1.432765245437622
1789323739887431000,19.542430908203126,-4.961984157562256,0.9632596969604492,1.872323751449585
1789323739906280700,19.56128076171875,-4.720012187957764,3.5100271701812744,0.47806549072265625
1789323739925130500,19.580130615234374,-4.423225402832031,2.519115447998047,-0.5257217884063721
1789323739943980300,19.598980224609374,-3.6517252922058105,1.2454304695129395,0.7104864120483398
1789323739962830000,19.617830078125,-3.6045074462890625,1.5611143112182617,2.9781839847564697
1789323739981679900,19.636679931640625,-3.5582518577575684,2.0388736724853516,2.959376335144043
1789323740000529700,19.65552978515625,-3.7853760719299316,0.5382721424102783,1.9531863927841187
1789323740019379500,19.67437939453125,-4.4799485206604,0.2658121585845947,1.0363136529922485
1789323740038229200,19.693229248046876,-3.5519156455993652,1.1326197385787964,2.0107216835021973
1789323740057079000,19.7120791015625,-2.1054787635803223,1.8080618381500244,1.8810726404190063
1789323740075928800,19.7309287109375,-2.7547125816345215,2.2501943111419678,1.0156114101409912
1789323740094778600,19.749778564453123,-2.999793529510498,2.8131439685821533,0.9948670864105225
1789323740113628400,19.76862841796875,-2.4302754402160645,3.140655040740967,0.6546053886413574
1789323740132478200,19.787478271484375,-2.8554701805114746,3.0523791313171387,0.48749566078186035
1789323740151328000,19.806327880859374,-1.7792878150939941,1.9154703617095947,0.14841914176940918
1789323740170177500,19.825177490234374,-1.6740245819091797,-2.005509376525879,-0.5536432266235352
1789323740189027300,19.84402734375,-0.9221858978271484,-4.841331481933594,-1.1913928985595703
1789323740207877000,19.862877197265625,-0.9303803443908691,-3.9877233505249023,-1.8104948997497559
1789323740226727000,19.881726806640625,-0.6261305809020996,-2.334561824798584,-1.739616870880127
1789323740245576700,19.90057666015625,1.40523099899292,-1.6769099235534668,-2.4552321434020996
1789323740264426500,19.919426513671876,2.4310927391052246,-2.3939671516418457,-2.9855804443359375
1789323740283276300,19.9382763671875,2.347670555114746,-3.966601848602295,-3.818695068359375
1789323740302126000,19.9571259765625,2.1123409271240234,-6.222111701965332,-2.280641555786133
1789323740320976000,19.975975830078124,2.3212084770202637,-4.798620223999023,-0.19412875175476074
1789323740339825700,19.99482568359375,1.5131235122680664,-1.785069465637207,0.8668644428253174
1789323740358675500,20.013675537109375,1.3015503883361816,-0.056471824645996094,0.6667773723602295
1789323740377525200,20.032525146484375,2.047778606414795,-0.4878988265991211,-0.23534417152404785
1789323740396375000,20.051375,2.3460769653320312,-1.9355278015136719,-0.7485003471374512
1789323740415224800,20.070224853515626,2.5820212364196777,-0.4758167266845703,-1.058664321899414
1789323740434074400,20.089074462890625,1.9056315422058105,1.491689682006836,-0.4607980251312256
1789323740452924200,20.107924072265625,1.5200605392456055,1.6353402137756348,-0.8647644519805908
1789323740471774000,20.12677392578125,0.7134933471679688,0.8604178428649902,-0.12740516662597656
1789323740490623700,20.145623779296876,0.549797534942627,0.23815202713012695,0.35384368896484375
1789323740509473500,20.1644736328125,0.9888029098510742,-0.796177864074707,0.055512189865112305
1789323740528323300,20.1833232421875,1.0224394798278809,-2.673068046569824,-0.05698823928833008
1789323740547173000,20.202173095703124,2.164154529571533,-3.5859498977661133,-1.2484009265899658
1789323740566023000,20.22102294921875,2.990116596221924,-4.384333610534668,-2.2049293518066406
1789323740584872400,20.23987255859375,2.287971019744873,-4.234445571899414,-3.078094005584717
1789323740603722200,20.25872216796875,2.2663464546203613,-2.9899821281433105,-2.692295789718628
1789323740622572000,20.277572021484374,1.1592140197753906,-3.034090042114258,-1.9747834205627441
1789323740641421800,20.296421875,-1.15232515335083,-3.0222525596618652,-1.5908434391021729
1789323740660271600,20.315271728515626,-4.045392036437988,-1.8998713493347168,-0.8481118679046631
1789323740679121400,20.334121337890625,-5.021965026855469,0.35935544967651367,1.2106890678405762
1789323740697971200,20.35297119140625,-3.451845645904541,2.8322644233703613,2.5113484859466553
1789323740716821000,20.371821044921877,-0.4004039764404297,1.8800373077392578,2.8796546459198
1789323740735670500,20.39067041015625,-1.7146010398864746,0.32877349853515625,2.366162061691284
1789323740754520300,20.409520263671876,-4.522718906402588,2.4952492713928223,1.7389492988586426
1789323740773370000,20.4283701171875,-3.852692127227783,3.634887933731079,1.1094000339508057
1789323740792220000,20.447219970703124,-2.3702921867370605,0.7833526134490967,-0.05817770957946777
1789323740811069700,20.466069580078123,-1.6700835227966309,-0.7238552570343018,0.6468346118927002
1789323740829919500,20.48491943359375,-1.4046545028686523,-0.3667604923248291,0.9749494791030884
1789323740848769000,20.50376904296875,-2.117730140686035,0.32648134231567383,0.2547416687011719
1789323740867618800,20.522618896484374,-5.118161201477051,1.2474915981292725,0.16744184494018555
1789323740886468600,20.541468505859374,-5.492743492126465,2.0188562870025635,2.132146120071411
1789323740905318400,20.560318359375,-3.3946471214294434,3.1761958599090576,3.578756809234619
1789323740924168200,20.579168212890625,-2.0542092323303223,3.5743980407714844,3.3691060543060303
1789323740943018000,20.59801806640625,-2.5080394744873047,2.931206703186035,1.994670033454895
1789323740961867500,20.616867431640625,-3.2906413078308105,2.1977739334106445,0.8630306720733643
1789323740980717300,20.63571728515625,-2.8554434776306152,1.7404117584228516,0.8307375907897949
1789323740999567000,20.654567138671876,-2.1491575241088867,1.6641676425933838,0.88714599609375
1789323741018417000,20.6734169921875,-1.7574362754821777,0.046074867248535156,0.3537876605987549
1789323741037266700,20.6922666015625,-0.8147454261779785,-1.7352933883666992,-0.3801286220550537
1789323741056116200,20.7111162109375,-0.7368001937866211,-2.4636716842651367,-1.3259167671203613
1789323741074966000,20.729966064453127,-0.4859795570373535,-2.513774871826172,-2.4026477336883545
1789323741093815800,20.74881591796875,-0.30118894577026367,-3.7097582817077637,-3.2500216960906982
1789323741112665600,20.76766552734375,0.8061990737915039,-5.652002811431885,-2.9859025478363037
1789323741131515100,20.78651513671875,3.621413230895996,-6.502562522888184,-1.9754610061645508
1789323741150365000,20.805364990234374,4.565056800842285,-5.257259368896484,-0.9589002132415771
1789323741169214700,20.824214599609373,3.289076805114746,-1.6804008483886719,-1.3003153800964355
1789323741188064500,20.843064453125,2.2511796951293945,0.8225302696228027,-1.893749475479126
1789323741206914300,20.861914306640625,2.0012292861938477,1.0389952659606934,-1.3597722053527832
1789323741225763800,20.880763916015624,2.0131077766418457,-0.08331012725830078,-0.6748311519622803
1789323741244613600,20.899613525390624,1.8270039558410645,-0.9294986724853516,-0.7344832420349121
1789323741263463400,20.91846337890625,1.917513370513916,-0.29387855529785156,-0.4633762836456299
1789323741282313200,20.937313232421875,2.4945311546325684,0.3794727325439453,-0.9338898658752441
1789323741301162800,20.956162841796875,1.823866844177246,0.16980648040771484,-1.2368271350860596
1789323741320012500,20.975012451171875,0.8609566688537598,-0.8482170104980469,-0.23413324356079102
1789323741338862300,20.9938623046875,1.3827638626098633,-1.7711853981018066,-0.8961598873138428
1789323741357712100,21.012712158203126,0.6365489959716797,-2.191575050354004,-0.13883447647094727
1789323741376561700,21.031561767578125,0.6475100517272949,-1.601088523864746,-0.9398829936981201
1789323741395411500,21.050411376953125,0.9588022232055664,-1.7801833152770996,-1.2353897094726562
1789323741414261200,21.06926123046875,1.4558501243591309,-2.391112804412842,-1.7421538829803467
1789323741433111000,21.088111083984376,1.693920612335205,-3.2816548347473145,-1.1894757747650146
1789323741451960600,21.106960693359376,1.752622127532959,-3.8069939613342285,-0.9372963905334473
1789323741470810400,21.125810302734376,0.9459090232849121,-3.8633432388305664,-1.767512559890747
1789323741489660200,21.14466015625,-0.3013954162597656,-3.183859348297119,-2.4266746044158936
1789323741508509700,21.163509765625,-2.500840187072754,-2.602342128753662,-1.88338303565979
1789323741527359500,21.182359375,-2.2089571952819824,0.4140644073486328,1.1942167282104492
1789323741546209300,21.201209228515626,0.10356712341308594,3.03875732421875,3.0224037170410156
1789323741565059000,21.22005908203125,0.2613840103149414,-0.43982625007629395,1.8725574016571045
1789323741583908600,21.23890869140625,-3.3703432083129883,-0.7519750595092773,0.3800952434539795
1789323741602758400,21.25775830078125,-4.337488651275635,0.04366922378540039,0.09300899505615234
1789323741621608200,21.276608154296873,-2.1859817504882812,1.5497214794158936,1.4688150882720947
1789323741640457700,21.295457763671877,-2.736809730529785,0.7780351638793945,2.4885473251342773
1789323741659307500,21.3143076171875,-3.366649627685547,1.0443589687347412,2.3210012912750244
1789323741678157300,21.3331572265625,-3.5053658485412598,0.22206449508666992,1.941728949546814
1789323741697007000,21.352007080078124,-2.502173900604248,0.4862701892852783,2.1623165607452393
1789323741715856600,21.370856689453124,-3.23671817779541,0.31263256072998047,2.028351306915283
1789323741734706400,21.38970654296875,-2.4709014892578125,0.4154078960418701,3.447338104248047
1789323741753556000,21.408555908203127,-3.073490619659424,0.6040959358215332,2.587737560272217
1789323741772405800,21.42740576171875,-3.430213451385498,0.7019882202148438,2.039480447769165
1789323741791255600,21.446255615234374,-3.3619565963745117,1.4633748531341553,1.7458109855651855
1789323741810105000,21.46510498046875,-3.848093032836914,2.115217685699463,1.951315999031067
1789323741828955000,21.483954833984374,-2.5547947883605957,2.7388110160827637,3.0670907497406006
1789323741847804700,21.5028046875,-2.3351006507873535,3.3572652339935303,2.224733352661133
1789323741866654200,21.521654296875,-3.539666175842285,2.474290609359741,1.529928207397461
1789323741885504000,21.54050390625,-1.8240156173706055,1.2156062126159668,0.5063014030456543
1789323741904353800,21.559353759765624,-0.3374762535095215,-0.08930301666259766,0.1113135814666748
1789323741923203300,21.578203369140624,1.6459217071533203,-1.747213363647461,-1.7786140441894531
1789323741942053000,21.59705322265625,3.295297145843506,-5.482057571411133,-4.525548934936523
1789323741960903000,21.61590283203125,3.548201560974121,-11.127477645874023,-8.078933715820312
1789323741979752400,21.63475244140625,3.0678420066833496,-11.970945358276367,-4.924304962158203
1789323741998602200,21.653602294921875,4.217075347900391,-4.321575164794922,0.009117841720581055
1789323742017452000,21.6724521484375,2.6867318153381348,-1.1344995498657227,0.5096609592437744
1789323742036301600,21.691301513671874,2.4752564430236816,-0.20126724243164062,-0.21492815017700195
1789323742055151400,21.7101513671875,2.9952268600463867,0.08928203582763672,-0.86942458152771
1789323742074001200,21.729001220703125,3.2590951919555664,0.7708196640014648,-1.3438084125518799
1789323742092850700,21.7478505859375,2.0090818405151367,0.9649300575256348,-1.1200270652770996
1789323742111700500,21.766700439453125,0.9342780113220215,1.477691650390625,-0.36233067512512207
1789323742130550000,21.785550048828124,0.10976934432983398,2.2394261360168457,0.31587767601013184
1789323742149399800,21.80439990234375,0.13106012344360352,1.5372204780578613,0.7028915882110596
1789323742168249600,21.82324951171875,1.2809324264526367,-0.055098533630371094,-0.42795348167419434
1789323742187099100,21.84209912109375,0.846221923828125,-1.8300457000732422,-0.7411513328552246
1789323742205949000,21.860948974609375,0.6692619323730469,-2.8534469604492188,-0.19710707664489746
1789323742224798500,21.879798583984375,0.6154088973999023,-2.44704008102417,-0.31916046142578125
1789323742243648300,21.898648193359374,1.475080966949463,-2.211648464202881,0.6563844680786133
1789323742262497800,21.917497802734374,2.7842092514038086,-2.804551601409912,-0.610637903213501
1789323742281347600,21.93634765625,1.3415937423706055,-3.414857864379883,-2.0243606567382812
1789323742309622000,21.9646220703125,0.18865203857421875,-1.3314104080200195,-3.324462890625
1789323742328471800,21.983471923828127,0.4487762451171875,-1.5361018180847168,-3.171142339706421
1789323742347321600,22.002321533203126,0.08071327209472656,-2.5734968185424805,-1.2484502792358398
1789323742366171100,22.021171142578126,-0.9360322952270508,-2.3354153633117676,-0.4354360103607178
1789323742385021000,22.04002099609375,-1.948981761932373,-3.0725741386413574,-0.15038800239562988
1789323742403870500,22.058870361328125,-2.4159693717956543,-1.4718294143676758,0.34490394592285156
1789323742422720300,22.07772021484375,-3.303025245666504,-0.6435258388519287,1.5471879243850708
1789323742441569800,22.09656982421875,-4.316699028015137,1.4249215126037598,1.8429983854293823
1789323742460419600,22.115419677734376,-4.473408222198486,3.7044782638549805,1.6628059148788452
1789323742479269400,22.134269287109376,-4.161340236663818,2.1260507106781006,0.26485633850097656
1789323742498119000,22.153118896484376,-4.956943035125732,1.7482043504714966,1.9510676860809326
1789323742516968700,22.17196875,-4.752720355987549,2.1426897048950195,3.4685630798339844
1789323742535818200,22.190818359375,-4.408608913421631,1.962526559829712,3.1098341941833496
1789323742554668000,22.20966796875,-6.652047157287598,1.537429928779602,1.7237958908081055
1789323742573517600,22.228517578125,-4.842802047729492,3.001904249191284,4.504703044891357
1789323742592367400,22.247367431640626,-0.1932544708251953,3.2303104400634766,2.678196668624878
1789323742611217000,22.266216796875,-0.0521697998046875,1.5756738185882568,1.0917974710464478
1789323742630066700,22.285066650390625,-2.936218738555908,0.8232259750366211,0.003790616989135742
1789323742648916200,22.303916259765625,-3.243319511413574,1.66267728805542,0.060414791107177734
1789323742667766000,22.32276611328125,-1.8329110145568848,2.0339784622192383,-0.08183693885803223
1789323742686615600,22.341615478515624,-1.0109524726867676,0.3089942932128906,0.04259634017944336
1789323742705465300,22.36046533203125,-0.9776077270507812,-3.314774513244629,-0.7441847324371338
1789323742724315000,22.37931494140625,-1.6304717063903809,-3.1713790893554688,-1.1715834140777588
1789323742743164700,22.39816455078125,-1.3226633071899414,-1.422119140625,-1.0314278602600098
1789323742762014200,22.41701416015625,0.9504270553588867,-0.6423678398132324,-1.4231479167938232
1789323742790289000,22.445288818359376,1.5417180061340332,-2.347776412963867,-2.1569645404815674
1789323742809138400,22.464138427734376,1.6891975402832031,-3.528165340423584,-3.41709041595459
1789323742827988200,22.48298828125,2.112541675567627,-5.266576290130615,-3.299403667449951
1789323742846837800,22.501837646484375,2.3513450622558594,-5.048938751220703,-2.0022878646850586
1789323742865687600,22.5206875,1.928382396697998,-2.2071409225463867,-0.43563079833984375
1789323742884537000,22.539537109375,1.8537516593933105,-0.21426010131835938,-0.14721298217773438
1789323742903387000,22.558386962890626,1.6891374588012695,0.21567153930664062,-0.21956610679626465
1789323742922236400,22.577236328125,1.4557480812072754,-0.3864126205444336,-0.08857131004333496
1789323742941086200,22.596086181640626,2.1635756492614746,-1.0887165069580078,-0.10933566093444824
1789323742959935700,22.614935791015625,3.182464122772217,-1.8398847579956055,-0.5140035152435303
1789323742978785300,22.633785400390625,3.206251621246338,-1.3661117553710938,-1.3290603160858154
1789323742997635000,22.652635009765625,2.5103116035461426,-0.4973726272583008,-1.3779590129852295
1789323743016484600,22.671484619140625,2.3084182739257812,-0.36930274963378906,-1.9222869873046875
1789323743035334400,22.69033447265625,1.5098357200622559,-1.0761680603027344,-1.7701361179351807
1789323743054184000,22.709183837890624,0.2630882263183594,-1.4762682914733887,-0.9872891902923584
1789323743073033700,22.72803369140625,-0.08969449996948242,-1.708806037902832,-0.36486005783081055
1789323743091883300,22.74688330078125,-1.2099146842956543,-1.9119300842285156,0.13221311569213867
1789323743110733000,22.765733154296875,-1.775428295135498,-1.7168841361999512,-0.12554430961608887
1789323743129582600,22.78458251953125,-0.21212053298950195,-1.3467926979064941,0.2427973747253418
1789323743148432100,22.80343212890625,2.481720447540283,-1.9087448120117188,-0.5099968910217285
1789323743167282000,22.822281982421874,3.088489532470703,-4.305016994476318,-1.65152907371521
1789323743186131500,22.84113134765625,1.666616439819336,-4.153347969055176,-3.17885684967041
1789323743204981200,22.859981201171873,-1.9007339477539062,-2.1322245597839355,-3.486989974975586
1789323743223830800,22.878830810546877,-3.9952292442321777,-1.007443904876709,-0.6878046989440918
1789323743242680600,22.8976806640625,-3.4279990196228027,2.175598382949829,2.1914944648742676
1789323743261530000,22.916530029296876,-4.3774638175964355,2.073981761932373,1.8143397569656372
1789323743280379600,22.935379638671876,-6.08087158203125,1.8950614929199219,2.1281583309173584
1789323743299229400,22.9542294921875,-5.218769550323486,3.4238901138305664,3.056896209716797
1789323743318079000,22.973078857421875,-3.188239097595215,2.4097211360931396,2.796088218688965
1789323743336928800,22.9919287109375,-3.1340889930725098,0.5215051174163818,1.6221745014190674
1789323743355778300,23.0107783203125,-0.8609409332275391,0.7814393043518066,1.5897328853607178
1789323743374627800,23.0296279296875,-0.997283935546875,-0.4126150608062744,2.4109702110290527
1789323743393477600,23.0484775390625,-2.7544946670532227,0.31347012519836426,1.4789477586746216
1789323743412327200,23.0673271484375,-4.648114204406738,1.1436290740966797,1.1510605812072754
1789323743431177000,23.086177001953125,-4.988654136657715,1.6444953680038452,1.9871958494186401
1789323743450026500,23.105026611328125,1.0054082870483398,3.084113359451294,4.419210433959961
1789323743468876000,23.1238759765625,1.3064756393432617,2.211909294128418,1.0652413368225098
1789323743487725800,23.142725830078124,-3.6822452545166016,0.4027731418609619,0.477588415145874
1789323743506575400,23.161575439453124,-1.983304500579834,0.616910457611084,0.28968024253845215
1789323743525425200,23.180425048828123,-1.8211102485656738,0.35579538345336914,-0.35753774642944336
1789323743544274700,23.199274658203127,-0.6995482444763184,-1.472458839416504,0.6885936260223389
1789323743563124200,23.218124267578126,-1.7049736976623535,-1.1148104667663574,0.6067595481872559
1789323743581974000,23.23697412109375,-2.306870937347412,0.6625199317932129,0.4209916591644287
1789323743600823600,23.255823486328126,-0.3829669952392578,1.9325785636901855,-1.0086922645568848
1789323743619673000,23.274673095703125,1.15570068359375,0.09326171875,0.04991507530212402
1789323743638523000,23.29352294921875,0.07455873489379883,-2.3516592979431152,-2.0260448455810547
1789323743657372400,23.312372314453125,-0.6511530876159668,-4.647151470184326,-2.859327793121338
1789323743676222000,23.331221923828124,2.5217604637145996,-5.431704044342041,-1.35079026222229
1789323743695071700,23.35007177734375,5.081188678741455,-3.8865437507629395,-1.1183221340179443
1789323743713921300,23.36892138671875,4.016092777252197,-5.303984642028809,-0.8425571918487549
1789323743732770800,23.387770751953123,3.134235382080078,-7.084932327270508,-3.2364721298217773
1789323743751620600,23.40662060546875,2.923215389251709,-2.9390830993652344,0.07479143142700195
1789323743770470100,23.42547021484375,3.391413688659668,0.10057640075683594,0.1252298355102539
1789323743789319700,23.444319580078126,1.6061344146728516,0.9094753265380859,-1.061124563217163
1789323743808169500,23.46316943359375,1.5383968353271484,1.808743953704834,-1.3553636074066162
1789323743827019000,23.48201904296875,1.3729562759399414,2.3536648750305176,-0.6454780101776123
1789323743845868500,23.50086865234375,2.2186827659606934,1.9794483184814453,-1.432030439376831
1789323743864718300,23.51971826171875,1.937138557434082,0.2327408790588379,-2.390349864959717
1789323743883567900,23.53856787109375,-0.7632451057434082,-1.8236737251281738,-0.7085144519805908
1789323743902417400,23.55741748046875,-0.8654980659484863,-1.2988510131835938,-0.08237886428833008
1789323743921267200,23.57626708984375,-1.5162477493286133,-0.19670486450195312,0.5916092395782471
1789323743940116700,23.59511669921875,-1.4042868614196777,0.33840370178222656,3.129897356033325
1789323743958966300,23.61396630859375,2.677971363067627,0.0333099365234375,1.0576529502868652
1789323743977816000,23.632816162109375,2.54903507232666,-4.251735210418701,-1.6474878787994385
1789323743996665600,23.65166552734375,1.7906899452209473,-4.615898609161377,-5.113469123840332
1789323744015515100,23.67051513671875,1.486844539642334,-3.8965115547180176,-3.4263644218444824
1789323744034364700,23.68936474609375,2.0182833671569824,-3.549654960632324,-0.7725973129272461
1789323744053214500,23.70821435546875,0.031253814697265625,-2.929692268371582,-1.8673655986785889
1789323744072064000,23.72706396484375,-2.1305651664733887,-0.9878969192504883,-1.918947458267212
1789323744090913500,23.74591357421875,-1.4711098670959473,1.4789307117462158,-0.06697249412536621
1789323744109763000,23.76476318359375,-0.7797465324401855,0.2614271640777588,0.970905065536499
1789323744128612900,23.78361279296875,-2.4273734092712402,0.5751497745513916,1.0443177223205566
1789323744147462400,23.80246240234375,-4.933032512664795,1.4302537441253662,0.32345008850097656
1789323744166312000,23.82131201171875,-6.00900936126709,2.1068947315216064,1.8210680484771729
1789323744185161700,23.84016162109375,-6.383481025695801,1.7149293422698975,2.7965259552001953
1789323744204011300,23.85901123046875,-4.149251461029053,1.7404474020004272,4.2499494552612305
1789323744222860800,23.87786083984375,-3.0842723846435547,1.250878095626831,2.833590507507324
1789323744241710300,23.89671044921875,-4.9625349044799805,0.9861689805984497,1.519822597503662
1789323744260560000,23.915559814453125,-3.452296733856201,1.521453619003296,2.157871961593628
1789323744279409700,23.93440966796875,-4.332148551940918,0.9700455665588379,1.2283042669296265
1789323744298259200,23.95325927734375,-1.9167633056640625,1.4204379320144653,3.2978744506835938
1789323744317108700,23.972108642578124,-2.317384719848633,2.4356517791748047,2.8152523040771484
