time,seconds_elapsed,z,y,x
1789324727055024400,0.1590244140625,11.436495780944824,4.278367042541504,-0.08135596662759781
1789324727073874200,0.177874267578125,10.210772514343262,4.900799751281738,-0.9218349456787109
1789324727092723500,0.196723388671875,9.432806015014648,4.668396949768066,-0.13639089465141296
1789324727111573000,0.215572998046875,8.858229637145996,4.67078971862793,-0.2632105052471161
1789324727130422300,0.23442236328125,9.114261627197266,4.891228675842285,-0.07417750358581543
1789324727149271600,0.253271484375,8.266902923583984,4.795515537261963,1.017547845840454
1789324727168121000,0.27212109375,7.531708240509033,4.457828521728516,1.8553348779678345
1789324727186970400,0.290970458984375,7.926823139190674,5.075475692749023,2.1332013607025146
1789324727224669200,0.328669189453125,6.803991317749023,5.542375564575195,0.3735794425010681
1789324727243518700,0.347518798828125,7.450352191925049,5.96381139755249,-0.4046861231327057
1789324727262368000,0.366367919921875,7.357032299041748,6.04038143157959,-0.6535396575927734
1789324727281217500,0.385217529296875,7.524529933929443,5.831906795501709,0.16031911969184875
1789324727300066800,0.40406689453125,7.7353973388671875,5.920740604400635,1.0654042959213257
1789324727318916400,0.422916259765625,8.613862037658691,5.525625705718994,1.5179468393325806
1789324727337765600,0.441765625,8.96829891204834,5.413163185119629,0.6487540602684021
1789324727356615000,0.460614990234375,9.9140625,5.25254487991333,0.6990033388137817
1789324727375464400,0.47946435546875,8.66171932220459,5.192724227905273,0.9672985672950745
1789324727394313700,0.498313720703125,6.564708709716797,5.283651351928711,1.1324033737182617
1789324727413163300,0.517163330078125,5.324329376220703,5.72422981262207,1.0271191596984863
1789324727432012500,0.536012451171875,6.2174506187438965,6.1073808670043945,0.6702894568443298
1789324727450862000,0.554862060546875,7.409674644470215,6.5288166999816895,0.39032918214797974
1789324727469711400,0.57371142578125,7.967501163482666,5.7720866203308105,0.6702894568443298
1789324727488561000,0.592560791015625,7.685148239135742,5.439484119415283,0.5721837282180786
1789324727507410200,0.61141015625,6.8757758140563965,5.8944196701049805,-0.7588238716125488
1789324727526259500,0.630259521484375,6.914061069488525,5.683551788330078,-0.22492532432079315
1789324727545109000,0.64910888671875,8.271688461303711,5.743372440338135,0.5362913608551025
1789324727563958300,0.667958251953125,9.083154678344727,5.776872158050537,0.1746760457754135
1789324727582807800,0.686807861328125,9.162117958068848,5.62373161315918,-0.36640095710754395
1789324727601657000,0.705656982421875,7.146463871002197,6.0140604972839355,-1.0558329820632935
1789324727620506600,0.724506591796875,7.050751209259033,5.863013744354248,-0.8763712644577026
1789324727639356000,0.74335595703125,7.871788501739502,5.324329376220703,-1.0845468044281006
1789324727658205200,0.762205078125,8.941978454589844,4.936692237854004,-0.9457631707191467
1789324727677054700,0.7810546875,8.422436714172363,4.929513931274414,-1.2089736461639404
1789324727695904000,0.799904052734375,7.407281398773193,5.008476734161377,-1.3980066776275635
1789324727714753500,0.81875341796875,7.232605457305908,4.929513931274414,-1.4437693357467651
1789324727733602800,0.837602783203125,7.622934818267822,5.025226593017578,-1.4653047323226929
1789324727752452400,0.856452392578125,8.549256324768066,5.032404899597168,-1.812264084815979
1789324727771301600,0.875301513671875,8.479864120483398,4.9965128898620605,-2.190629243850708
1789324727790151200,0.894151123046875,7.929215908050537,5.063511848449707,-1.5251253843307495
1789324727809000400,0.91300048828125,7.936394691467285,5.2645087242126465,-1.4437693357467651
1789324727827849700,0.931849609375,8.142476081848145,5.286044120788574,-1.8577276468276978
1789324727846699300,0.95069921875,7.888537883758545,5.161617755889893,-1.8577276468276978
1789324727865548500,0.969548583984375,7.864609718322754,5.43709135055542,-1.3453645706176758
1789324727884398000,0.988398193359375,7.778468132019043,5.774479389190674,-0.8500502705574036
1789324727903247400,1.007247314453125,8.238189697265625,5.987739562988281,-0.5626124143600464
1789324727922097000,1.026096923828125,8.680861473083496,5.470590591430664,-0.4405784606933594
1789324727940946200,1.0449462890625,8.386544227600098,5.50648307800293,-0.7133602499961853
1789324727959795500,1.06379541015625,8.082356452941895,5.539982795715332,-0.5578267574310303
1789324727978645000,1.08264501953125,7.8287177085876465,5.539982795715332,-0.5889334678649902
1789324727997494300,1.101494384765625,7.83111047744751,4.761716842651367,-1.252044439315796
1789324728016343800,1.12034375,7.9866437911987305,4.814658164978027,-1.048654556274414
1789324728035193000,1.139193115234375,8.879764556884766,4.632504463195801,-1.5155540704727173
1789324728054042600,1.158042724609375,8.695218086242676,4.967798709869385,-1.5705889463424683
1789324728072892000,1.176891845703125,8.656932830810547,4.615755081176758,-1.2424731254577637
1789324728091741200,1.1957412109375,7.610970497131348,4.694717884063721,-1.1730812788009644
1789324728110590700,1.2145908203125,7.282855033874512,4.833800792694092,-1.0558329820632935
1789324728129440000,1.23343994140625,8.374580383300781,2.4131617546081543,0.521934449672699
1789324728148289500,1.25228955078125,8.266902923583984,3.0643084049224854,0.49322056770324707
1789324728167138800,1.271138916015625,7.9005022048950195,2.5016961097717285,0.9696913957595825
1789324728185988400,1.28998828125,7.627720355987549,0.5386841893196106,1.4581263065338135
1789324728204837600,1.308837646484375,7.251748085021973,2.0997018814086914,2.183450698852539
1789324728223687000,1.32768701171875,6.3442702293396,4.225724697113037,1.3812568187713623
1789324728242536400,1.346536376953125,2.0207388401031494,0.4668995141983032,3.085843801498413
1789324728261385700,1.3653857421875,3.1746773719787598,0.8234301209449768,1.9175482988357544
1789324728280235300,1.3842353515625,7.416852951049805,5.113760948181152,-2.997309446334839
1789324728299084500,1.40308447265625,7.278069019317627,4.292723655700684,-2.8680970668792725
1789324728317934000,1.42193408203125,7.634898662567139,0.6320042610168457,-1.2041879892349243
1789324728336783400,1.440783447265625,5.791228771209717,-0.7540382146835327,-0.7851449251174927
1789324728355632600,1.459632568359375,4.225724697113037,-0.9122636318206787,-0.890728235244751
1789324728374482200,1.478482177734375,6.823133945465088,-0.6798607110977173,-1.4246268272399902
1789324728393331500,1.49733154296875,10.292128562927246,-0.23688943684101105,-2.5761725902557373
1789324728412181000,1.516180908203125,12.885050773620605,-1.953440546989441,-2.7580273151397705
1789324728431030300,1.5350302734375,8.791230201721191,-5.879763603210449,-3.01405930519104
1789324728449879800,1.5538798828125,6.897311210632324,-7.012166976928711,-4.9965128898620605
1789324728468729000,1.57272900390625,6.521637916564941,-6.04038143157959,-5.202295303344727
1789324728487578400,1.591578369140625,6.4304118156433105,-6.04038143157959,-3.270390272140503
1789324728506428000,1.610427978515625,8.276473999023438,-8.228617668151855,-4.467400074005127
1789324728525277200,1.629277099609375,10.076774597167969,-8.874979019165039,-8.298009872436523
1789324728544126700,1.648126708984375,10.15573787689209,-10.186843872070312,-7.428816795349121
1789324728562976000,1.66697607421875,7.208677291870117,-10.605887413024902,-8.231010437011719
1789324728581825500,1.685825439453125,9.497411727905273,-11.417353630065918,-10.83559799194336
1789324728600674800,1.7046748046875,15.473187446594238,-9.847063064575195,-15.973287582397461
1789324728619524000,1.723524169921875,14.601601600646973,-8.561220169067383,-18.913469314575195
1789324728638373600,1.74237353515625,15.247962951660156,-4.773980140686035,-19.38515281677246
1789324728657223000,1.761222900390625,12.82044506072998,-3.468994617462158,-16.483257293701172
1789324728685497000,1.7894970703125,7.725826263427734,-1.7428722381591797,-18.118453979492188
1789324728704346400,1.808346435546875,8.362615585327148,-1.7835501432418823,-16.15065574645996
1789324728723196000,1.82719580078125,4.857728958129883,-2.1547367572784424,-14.180166244506836
1789324728742045200,1.846045166015625,0.5937191247940063,-2.2671995162963867,-14.711671829223633
1789324728770319400,1.8743193359375,8.484649658203125,-0.6583253145217896,-5.1065826416015625
1789324728798593500,1.902593505859375,3.2608189582824707,-3.1818559169769287,-8.762516975402832
1789324728817442800,1.92144287109375,3.7827534675598145,-2.6623141765594482,-5.650052547454834
1789324728845717000,1.949717041015625,4.709074974060059,-3.9813578128814697,-7.270890712738037
1789324728864566300,1.968566162109375,4.443471431732178,-5.398806095123291,-7.630113124847412
1789324728883415800,1.987415771484375,2.4873390197753906,-5.638088226318359,-5.099404335021973
1789324728902265000,2.00626513671875,2.5232315063476562,-7.395317554473877,-4.060320854187012
1789324728921114400,2.0251142578125,6.756134510040283,-7.3283185958862305,-4.771587371826172
1789324728939964000,2.0439638671875,8.625826835632324,-3.5431721210479736,-5.456233978271484
1789324728958813200,2.062813232421875,4.7473602294921875,-5.061119079589844,-7.792825222015381
1789324728977662700,2.081662841796875,0.612861692905426,-11.374282836914062,-9.279664993286133
1789324728996512000,2.100511962890625,5.278865814208984,-10.397711753845215,-4.907978534698486
1789324729015361500,2.119361572265625,4.886443138122559,-7.795217990875244,-1.9558334350585938
1789324729034210800,2.1382109375,5.1065826416015625,-7.11775016784668,-2.506481647491455
1789324729053060400,2.157060302734375,4.194318771362305,-4.618147850036621,-3.3948171138763428
1789324729071909600,2.17590966796875,7.019644260406494,-3.387638568878174,-3.8138601779937744
1789324729090759000,2.194759033203125,9.669695854187012,-2.166700839996338,-4.72582483291626
1789324729109608400,2.2136083984375,6.179165363311768,-2.7508487701416016,-5.389235019683838
1789324729128457700,2.232457763671875,7.878966808319092,-3.4091739654541016,-4.460221290588379
1789324729147307300,2.251307373046875,5.944668769836426,-3.3541390895843506,-5.152046203613281
1789324729166156500,2.270156494140625,7.613363265991211,-4.369294166564941,-3.301496982574463
1789324729185006000,2.289006103515625,7.285247802734375,-5.053940296173096,-5.089832782745361
1789324729203855400,2.30785546875,6.626922130584717,-6.081059455871582,-5.482554912567139
1789324729232129500,2.336129638671875,6.236593246459961,-5.152046203613281,-5.348556995391846
1789324729250978800,2.354978759765625,7.666005611419678,-4.436293125152588,-4.527220249176025
1789324729269828400,2.373828369140625,8.053643226623535,-3.294318675994873,-4.817050933837891
1789324729288677600,2.392677734375,6.480959892272949,-2.8202404975891113,-4.057928085327148
1789324729307527000,2.41152685546875,8.561220169067383,-1.7668004035949707,-6.272485256195068
1789324729326376400,2.43037646484375,6.689135551452637,-1.1515458822250366,-6.21266508102417
1789324729354650600,2.458650634765625,5.348556995391846,-2.604886531829834,-6.665207386016846
1789324729373500000,2.4775,5.7409796714782715,-3.05234432220459,-8.333902359008789
1789324729392349400,2.496349365234375,3.945465326309204,-3.840181350708008,-7.479066371917725
1789324729411198700,2.51519873046875,4.551148891448975,-5.235795021057129,-6.86381196975708
1789324729430048000,2.534048095703125,4.304687976837158,-4.096213340759277,-4.764110088348389
1789324729448897500,2.5528974609375,4.038785457611084,-6.21266508102417,-5.4179487228393555
1789324729467746800,2.571746826171875,6.792026996612549,-1.3764712810516357,8.357830047607422
1789324729486596400,2.590596435546875,5.78644323348999,-7.1249284744262695,-6.564708709716797
1789324729514870300,2.618870361328125,2.2648067474365234,-12.894621849060059,-12.427722930908203
1789324729543144400,2.64714453125,7.026822566986084,-10.514960289001465,-2.6336004734039307
1789324729561993700,2.66599365234375,6.183950901031494,-11.151749610900879,-5.563910961151123
1789324729580843300,2.68484326171875,6.760920524597168,-7.620542049407959,-5.1783671379089355
1789324729609117200,2.7131171875,1.537089467048645,-14.374283790588379,-7.46710205078125
1789324729627966700,2.731966796875,1.5394822359085083,-10.67288589477539,-3.0236306190490723
1789324729646816000,2.75081591796875,0.7157530784606934,-10.47188949584961,-2.5378875732421875
1789324729665665500,2.76966552734375,6.894918441772461,-10.071989059448242,-1.7596219778060913
1789324729684514800,2.788514892578125,5.760122299194336,-13.91934871673584,-3.2967114448547363
1789324729703364400,2.8073642578125,2.1954147815704346,-16.416259765625,-4.658825874328613
1789324729722213600,2.826213623046875,4.481756687164307,-13.936098098754883,-2.396411895751953
1789324729741063000,2.84506298828125,3.153141975402832,-6.222236156463623,-3.708575963973999
1789324729759912400,2.863912353515625,-0.6487540602684021,-1.0295119285583496,-1.7045869827270508
1789324729778761700,2.88276171875,1.2616157531738281,1.0654042959213257,1.6663018465042114
1789324729797611300,2.901611328125,5.180759906768799,-0.02632104977965355,-2.645564556121826
1789324729816460500,2.92046044921875,9.164510726928711,-1.4724832773208618,-3.1962127685546875
1789324729835310000,2.93931005859375,6.167201042175293,2.17627215385437,-4.685146808624268
1789324729854159400,2.958159423828125,3.2105698585510254,-3.8449668884277344,-2.9542386531829834
1789324729873009000,2.9770087890625,13.05972671508789,-13.598411560058594,-4.9486565589904785
1789324729891858200,2.995858154296875,8.333902359008789,-16.023836135864258,-7.52213716506958
1789324729910707500,3.01470751953125,9.061619758605957,-12.758231163024902,-5.336592674255371
1789324729929557000,3.033556884765625,9.40169906616211,-13.821242332458496,-1.3860424757003784
1789324729948406300,3.05240625,9.885348320007324,-11.623435020446777,1.9486548900604248
1789324729967255800,3.071255859375,8.510971069335938,-10.282557487487793,-1.6208382844924927
1789324729986105000,3.09010498046875,8.041678428649902,-8.274081230163574,-0.8835497498512268
1789324730004954600,3.10895458984375,7.965108394622803,-6.81595516204834,-3.8066816329956055
1789324730023804000,3.127803955078125,6.966702938079834,-6.097809314727783,-4.979763031005859
1789324730042653400,3.1466533203125,7.917252063751221,-3.85693097114563,-4.376472473144531
1789324730061502700,3.165502685546875,7.45274543762207,-4.553541660308838,-5.3318071365356445
1789324730080352000,3.18435205078125,6.937989234924316,-4.876871585845947,-5.31475830078125
1789324730099201500,3.203201416015625,5.702694416046143,-3.483351469039917,-4.35254430770874
1789324730118050800,3.22205078125,7.883752346038818,-5.595017433166504,-3.2273194789886475
1789324730136900400,3.240900390625,7.709076404571533,-6.298806667327881,-4.457828521728516
1789324730155749600,3.25974951171875,7.7593255043029785,-5.379663467407227,-3.82582426071167
1789324730174599200,3.27859912109375,6.296413898468018,-4.884049892425537,-2.149951219558716
1789324730193448400,3.297448486328125,11.233105659484863,-3.061915636062622,-2.0757737159729004
1789324730212298000,3.316298095703125,4.419543266296387,-5.937490463256836,0.19621145725250244
1789324730231147300,3.335147216796875,8.688039779663086,-3.069094181060791,-1.8194425106048584
1789324730249996500,3.35399658203125,8.506185531616211,-3.6364922523498535,-0.893121063709259
1789324730268846000,3.37284619140625,3.8712878227233887,-0.7516453862190247,-4.055535316467285
1789324730287695400,3.3916953125,2.674278497695923,-2.935096025466919,-2.200200319290161
1789324730306545000,3.410544921875,9.954740524291992,-1.812264084815979,0.02392822690308094
1789324730325394200,3.429394287109375,5.2166523933410645,-4.182354927062988,-0.3209373354911804
1789324730353668400,3.45766845703125,9.499805450439453,-3.452244758605957,-1.6304094791412354
1789324730372517600,3.476517578125,8.065607070922852,-5.051547527313232,-2.1786649227142334
1789324730391367200,3.4953671875,7.495816230773926,-4.007678985595703,-1.3046865463256836
1789324730410216400,3.514216552734375,7.409674644470215,-3.6798620223999023,-3.624528169631958
1789324730429066000,3.53306591796875,7.323532581329346,-3.4307093620300293,-0.5817549824714661
1789324730447915300,3.551915283203125,8.640183448791504,-1.072582721710205,-1.9366908073425293
1789324730466764800,3.570764892578125,6.930810928344727,-1.7955143451690674,-3.6798620223999023
1789324730485614000,3.589614013671875,7.292426109313965,-2.8776683807373047,-2.4705893993377686
1789324730504463600,3.608463623046875,6.825526714324951,-2.444268226623535,-4.927121162414551
1789324730523313000,3.62731298828125,5.571089267730713,-3.059522867202759,-2.169093608856201
1789324730542162400,3.646162353515625,7.022037029266357,-2.2600209712982178,-1.800299882888794
1789324730561011700,3.66501171875,6.365805625915527,-1.6064813137054443,-3.6798620223999023
1789324730579861200,3.683861328125,5.678766250610352,-3.085843801498413,-2.635993242263794
1789324730598710500,3.70271044921875,7.330711364746094,-3.9789650440216064,-3.6798620223999023
1789324730617560000,3.72156005859375,6.085845470428467,-5.305186748504639,-3.0957143306732178
1789324730636409300,3.740409423828125,8.077570915222168,-5.709873199462891,-3.476173162460327
1789324730655258600,3.759258544921875,8.388936996459961,-6.476174354553223,-4.4721856117248535
1789324730674108200,3.778108154296875,7.438388347625732,-7.809575080871582,-4.491328239440918
1789324730692957400,3.79695751953125,7.201498985290527,-9.243474006652832,-5.530411243438721
1789324730711807000,3.815806884765625,6.9475603103637695,-11.924930572509766,-3.521636724472046
1789324730730656300,3.83465625,7.6013994216918945,-11.802896499633789,-3.0188448429107666
1789324730749505800,3.853505859375,7.380960464477539,-10.67288589477539,-3.3373894691467285
1789324730768355000,3.87235498046875,5.173581600189209,-10.234700202941895,-2.5929224491119385
1789324730787204600,3.89120458984375,6.588637351989746,-9.554840087890625,-2.8920252323150635
1789324730806054000,3.910053955078125,5.6069817543029785,-9.657731056213379,-1.812264084815979
1789324730824903400,3.9289033203125,5.609374523162842,-8.956335067749023,-3.4067811965942383
1789324730843752700,3.947752685546875,4.079463481903076,-8.020143508911133,-3.2967114448547363
1789324730862602200,3.966602294921875,3.3708889484405518,-7.034001350402832,-3.1172497272491455
1789324730881451500,3.985451416015625,3.6269209384918213,-7.043572425842285,-1.9968105554580688
1789324730900301000,4.004301025390625,4.2281174659729,-8.089534759521484,-1.1922239065170288
1789324730919150300,4.023150390625,7.670791149139404,-10.770992279052734,-2.5857439041137695
1789324730937999600,4.04199951171875,7.514958381652832,-13.995918273925781,-2.4227328300476074
1789324730956849200,4.06084912109375,6.514459609985352,-13.991132736206055,-3.0667014122009277
1789324730975698400,4.079698486328125,5.520840167999268,-10.613065719604492,-2.9015965461730957
1789324730994548000,4.0985478515625,3.708575963973999,-8.09671401977539,-3.1148569583892822
1789324731013397200,4.117397216796875,3.1722846031188965,-7.8526458740234375,-3.0667014122009277
1789324731032246800,4.136246826171875,3.9574296474456787,-8.489435195922852,-2.379662036895752
1789324731051096000,4.155095947265625,5.425127029418945,-8.82233715057373,-3.270390272140503
1789324731069945600,4.173945556640625,6.722635269165039,-8.518149375915527,-3.4019956588745117
1789324731088795000,4.192794921875,7.402495861053467,-8.058428764343262,-3.9550366401672363
1789324731107644400,4.21164453125,6.971488952636719,-8.16401195526123,-3.9382870197296143
1789324731126493700,4.23049365234375,5.690730571746826,-8.089534759521484,-4.309473514556885
1789324731145343200,4.24934326171875,5.336592674255371,-7.321139812469482,-4.232903480529785
1789324731164192500,4.268192626953125,6.176772594451904,-5.90877628326416,-5.238187789916992
1789324731183042000,4.2870419921875,5.980561256408691,-5.736194133758545,-4.536791801452637
1789324731201891300,4.305891357421875,7.06271505355835,-5.266901969909668,-3.9957146644592285
1789324731220740600,4.32474072265625,7.0770721435546875,-5.0587263107299805,-5.080261707305908
1789324731239590100,4.343590087890625,6.634100914001465,-5.1783671379089355,-4.096213340759277
1789324731258439400,4.362439453125,7.634898662567139,-5.482554912567139,-4.026821613311768
1789324731277289000,4.3812890625,8.082356452941895,-6.665207386016846,-2.966202735900879
1789324731296138200,4.40013818359375,8.044071197509766,-6.763313293457031,-4.673182487487793
1789324731314987800,4.41898779296875,8.108677864074707,-6.521637916564941,-4.709074974060059
1789324731333837000,4.437837158203125,9.245866775512695,-6.320342063903809,-3.7372899055480957
1789324731352686600,4.4566865234375,8.345866203308105,-5.3940205574035645,-1.378864049911499
1789324731371536000,4.475535888671875,6.581458568572998,-2.8848466873168945,-3.2368907928466797
1789324731390385400,4.494385498046875,7.826324462890625,-3.294318675994873,-4.457828521728516
1789324731409234700,4.513234619140625,7.421638488769531,-3.3134610652923584,-3.2919256687164307
1789324731428084200,4.532084228515625,4.122534275054932,-3.7277185916900635,-2.645564556121826
1789324731446933500,4.55093359375,5.695516109466553,-2.738884687423706,1.5490535497665405
1789324731465783000,4.569782958984375,5.5830535888671875,-1.86729896068573,-0.27038896083831787
1789324731484632300,4.58863232421875,5.4179487228393555,-2.011167526245117,0.9170492887496948
1789324731503481900,4.60748193359375,5.846263885498047,-2.3461625576019287,-1.0701899528503418
1789324731522331100,4.6263310546875,5.999703884124756,-3.263211965560913,-0.38793638348579407
1789324731541180700,4.6451806640625,6.990631580352783,-3.1387851238250732,-1.1539387702941895
1789324731560030000,4.664030029296875,7.409674644470215,-2.3126630783081055,-0.39990049600601196
1789324731578879500,4.68287939453125,6.799205780029297,-2.549851655960083,-1.9776679277420044
1789324731597728800,4.701728759765625,5.911169052124023,-2.652743101119995,-3.0499515533447266
1789324731616578300,4.720578369140625,7.270890712738037,-2.769991397857666,-3.0092735290527344
1789324731635427600,4.739427490234375,7.2732834815979,-2.540280342102051,-2.676671266555786
1789324731654277000,4.758277099609375,7.440781116485596,-3.085843801498413,-3.4570305347442627
1789324731673126400,4.77712646484375,7.445566654205322,-4.110570430755615,-3.0957143306732178
1789324731691976000,4.795975830078125,6.028417587280273,-4.563112735748291,-3.691826343536377
1789324731710825200,4.8148251953125,6.188736438751221,-5.049154758453369,-4.033999919891357
1789324731729674800,4.8336748046875,6.756134510040283,-5.4179487228393555,-2.8752756118774414
1789324731748524000,4.85252392578125,6.99541711807251,-4.907978534698486,-3.308675527572632
1789324731767373600,4.87137353515625,6.2413787841796875,-5.614160060882568,-3.5479576587677
1789324731786222800,4.890222900390625,7.287640571594238,-6.7417778968811035,-2.6551358699798584
1789324731805072400,4.909072265625,5.609374523162842,-7.929215908050537,-3.507279872894287
1789324731823921700,4.927921630859375,3.945465326309204,-8.09671401977539,-3.4881372451782227
1789324731842771200,4.946771240234375,7.316354274749756,-8.673683166503906,-3.2991042137145996
1789324731861620500,4.965620361328125,5.923133373260498,-9.332307815551758,-3.4642090797424316
1789324731880470000,4.984469970703125,6.921239376068115,-10.706385612487793,-5.6069817543029785
1789324731899319300,5.0033193359375,5.78644323348999,-13.581661224365234,-4.936692237854004
1789324731918168800,5.0221689453125,6.408876419067383,-13.249058723449707,-3.631706476211548
1789324731937018000,5.04101806640625,6.8518476486206055,-10.481460571289062,-3.1866414546966553
1789324731955867600,5.05986767578125,6.296413898468018,-9.344271659851074,-3.833002805709839
1789324731974717000,5.078717041015625,5.944668769836426,-9.107083320617676,-2.872882604598999
1789324731993566500,5.09756640625,7.0531439781188965,-9.389735221862793,-2.5307090282440186
1789324732012415700,5.116415771484375,6.186343669891357,-10.191629409790039,-2.7915267944335938
1789324732031265300,5.135265380859375,6.428019046783447,-10.330413818359375,-3.200998544692993
1789324732050114600,5.154114501953125,6.550352096557617,-10.526924133300781,-3.1100711822509766
1789324732068964000,5.172964111328125,5.762515068054199,-10.522138595581055,-3.9095730781555176
1789324732087813400,5.1918134765625,4.158426761627197,-9.279664993286133,-4.412364959716797
1789324732106663000,5.210662841796875,2.7412774562835693,-7.349853992462158,-3.356531858444214
1789324732125512200,5.22951220703125,3.5048868656158447,-5.896812438964844,-2.2743778228759766
1789324732144361700,5.24836181640625,4.936692237854004,-5.800800323486328,-3.0571300983428955
1789324732163211000,5.2672109375,5.5998029708862305,-6.9930243492126465,-2.652743101119995
1789324732182060500,5.286060546875,7.330711364746094,-8.072785377502441,-4.240081787109375
1789324732200909800,5.304909912109375,8.324331283569336,-9.001798629760742,-5.06590461730957
1789324732229184000,5.33318408203125,7.065107822418213,-9.885348320007324,-7.412067413330078
1789324732266882800,5.3708828125,6.21984338760376,-8.060821533203125,-5.776872158050537
1789324732285732400,5.389732421875,7.213462829589844,-7.199106216430664,-4.620540618896484
1789324732304581600,5.40858154296875,7.1799635887146,-7.309175968170166,-4.280759811401367
1789324732323431200,5.42743115234375,7.251748085021973,-7.943572998046875,-3.911965847015381
1789324732342280400,5.446280517578125,6.21984338760376,-8.319544792175293,-4.646861553192139
1789324732361130000,5.4651298828125,4.429114818572998,-7.52931547164917,-2.128415822982788
1789324732379979300,5.483979248046875,8.247760772705078,-2.676671266555786,-0.2273181527853012
1789324732398828800,5.502828857421875,8.879764556884766,-4.01246452331543,-1.0773683786392212
1789324732417678000,5.521677978515625,4.369294166564941,-4.321437835693359,-1.2544373273849487
1789324732436527600,5.540527587890625,4.46979284286499,-1.2137593030929565,-3.0092735290527344
1789324732455377000,5.559376953125,7.462316513061523,-0.6942176818847656,-1.592124342918396
1789324732474226400,5.578226318359375,6.057131290435791,-2.434697151184082,-2.2097716331481934
1789324732493075700,5.59707568359375,2.9327032566070557,-1.532303810119629,-0.1579262912273407
1789324732511925200,5.61592529296875,2.6623141765594482,-1.9366908073425293,-0.9074779748916626
1789324732530774500,5.6347744140625,9.581160545349121,-0.9936196208000183,1.5107684135437012
1789324732549624000,5.6536240234375,6.384948253631592,-1.4988043308258057,-1.8888343572616577
1789324732568473600,5.6724736328125,7.426424026489258,-1.6423736810684204,-1.6926229000091553
1789324732587323000,5.691322998046875,8.64496898651123,-2.6551358699798584,-2.190629243850708
1789324732606172400,5.71017236328125,10.443175315856934,-2.92073917388916,-2.0303099155426025
1789324732625021700,5.729021728515625,7.1010003089904785,-2.8752756118774414,-3.675076484680176
1789324732643871200,5.747871337890625,7.189534664154053,-4.433900356292725,-3.6269209384918213
1789324732662720500,5.766720458984375,7.697112083435059,-4.771587371826172,-4.721039295196533
1789324732681570000,5.785570068359375,6.195915222167969,-4.591826438903809,-3.4809587001800537
1789324732700419300,5.80441943359375,5.738586902618408,-4.163212299346924,-3.2177481651306152
1789324732719268900,5.823268798828125,5.1544389724731445,-3.8210387229919434,-2.0039889812469482
1789324732738118400,5.842118408203125,5.334199905395508,-3.0427730083465576,-2.2791635990142822
1789324732756967700,5.8609677734375,5.6069817543029785,-2.6001009941101074,-2.540280342102051
1789324732775817200,5.879817138671875,4.479363918304443,-3.2201411724090576,-2.8513472080230713
1789324732794666500,5.89866650390625,4.3788652420043945,-5.0826544761657715,-3.0738797187805176
1789324732813516000,5.91751611328125,4.295116424560547,-7.890930652618408,-4.362115859985352
1789324732832365300,5.936365234375,5.461019515991211,-11.225927352905273,-4.634897232055664
1789324732851214800,5.95521484375,6.112166404724121,-15.24317741394043,-5.309972763061523
1789324732870064000,5.974064208984375,5.197509765625,-16.243974685668945,-4.77876615524292
1789324732888913700,5.99291357421875,6.679564476013184,-14.486746788024902,-3.91914439201355
1789324732907763000,6.011762939453125,7.6636128425598145,-11.221141815185547,-2.999702215194702
1789324732926612500,6.030612548828125,7.06271505355835,-10.517353057861328,-4.498506546020508
1789324732945462000,6.0494619140625,6.504888534545898,-10.359127044677734,-4.383651256561279
1789324732964311300,6.068311279296875,8.053643226623535,-10.150951385498047,-4.055535316467285
1789324732983160800,6.087160888671875,7.630113124847412,-10.79013442993164,-3.576671600341797
1789324733011435000,6.11543505859375,5.702694416046143,-9.351449966430664,-2.3533411026000977
1789324733030284300,6.1342841796875,5.099404335021973,-7.914859294891357,-2.2480568885803223
1789324733049133800,6.1531337890625,4.240081787109375,-7.5101728439331055,-3.334996461868286
1789324733067983000,6.171983154296875,3.476173162460327,-8.051250457763672,-3.7971103191375732
1789324733086832600,6.19083251953125,3.8473596572875977,-8.855836868286133,-2.9805595874786377
1789324733105682200,6.20968212890625,5.951847076416016,-8.633005142211914,-2.8704898357391357
1789324733124531500,6.228531494140625,7.191927433013916,-8.692825317382812,-3.119642496109009
1789324733143381000,6.247381103515625,7.804789066314697,-8.963513374328613,-4.2592244148254395
1789324733162230300,6.266230224609375,7.079464912414551,-9.447162628173828,-5.712265968322754
1789324733181079800,6.285079833984375,5.920740604400635,-8.889336585998535,-6.67717170715332
1789324733199929300,6.303929443359375,5.168796062469482,-7.007380962371826,-4.912764072418213
1789324733218778600,6.322778564453125,5.530411243438721,-5.635695457458496,-5.214259624481201
1789324733237628200,6.341628173828125,6.839883327484131,-6.112166404724121,-4.5583271980285645
1789324733256477400,6.3604775390625,8.882157325744629,-5.532804012298584,-5.683551788330078
1789324733275327000,6.379326904296875,9.585947036743164,-5.877370834350586,-5.362913608551025
1789324733294176300,6.39817626953125,8.745766639709473,-7.256533622741699,-5.470590591430664
1789324733313025800,6.41702587890625,7.754539966583252,-6.1695942878723145,-4.541577339172363
1789324733331875300,6.435875244140625,6.215057849884033,-4.666004180908203,-3.7061831951141357
1789324733350724600,6.454724609375,4.366901397705078,-4.656432628631592,-1.55623197555542
1789324733369574100,6.47357421875,2.557030200958252,-2.0159530639648438,-1.2592228651046753
1789324733388423400,6.49242333984375,5.585446357727051,-1.2065808773040771,-1.7979071140289307
1789324733407273000,6.51127294921875,6.411269187927246,-3.263211965560913,-2.365305185317993
1789324733426122500,6.53012255859375,6.205486297607422,-3.81864595413208,-0.12203395366668701
1789324733444971800,6.5489716796875,6.420840263366699,-3.3469607830047607,1.407876968383789
1789324733463821300,6.5678212890625,7.435995578765869,-2.5283162593841553,-0.25363919138908386
1789324733482670600,6.586670654296875,4.814658164978027,-2.7101707458496094,-0.9122636318206787
1789324733501520100,6.60552001953125,5.745765209197998,-2.676671266555786,-1.3286148309707642
1789324733520369700,6.62436962890625,8.29561710357666,-1.843370795249939,-1.40279221534729
1789324733539219000,6.643218994140625,6.973881721496582,-1.8026927709579468,-2.533101797103882
1789324733558068500,6.662068359375,6.267699718475342,-2.2791635990142822,-2.645564556121826
1789324733576917800,6.680917724609375,4.218546390533447,-2.9877381324768066,-3.277568817138672
1789324733595767300,6.699767333984375,5.614160060882568,-2.6575286388397217,-1.3549357652664185
1789324733614616800,6.718616943359375,7.340282440185547,-1.7835501432418823,-1.0247262716293335
1789324733633466000,6.737466064453125,6.485745906829834,-1.8409779071807861,-1.8146568536758423
1789324733652315600,6.756315673828125,6.1695942878723145,-2.5232315063476562,-2.731706142425537
1789324733680589800,6.78458984375,7.165606498718262,-4.065106391906738,-3.0403802394866943
1789324733699439000,6.803439208984375,7.821538925170898,-5.463412284851074,-4.9175496101379395
1789324733718288600,6.82228857421875,5.959025859832764,-8.53729248046875,-4.9965128898620605
1789324733737138200,6.84113818359375,4.1129631996154785,-9.142974853515625,-4.326223373413086
1789324733755987500,6.859987548828125,6.432804584503174,-9.322735786437988,-3.3924243450164795
1789324733774837000,6.8788369140625,7.227819919586182,-8.863015174865723,-4.295116424560547
1789324733793686500,6.8976865234375,6.698707103729248,-8.784051895141602,-5.647659778594971
1789324733812535800,6.916535888671875,6.904489517211914,-10.763813972473145,-5.932704448699951
1789324733831385300,6.93538525390625,6.555137634277344,-13.074084281921387,-7.0531439781188965
1789324733850234600,6.954234619140625,6.782455921173096,-14.582459449768066,-6.531209468841553
1789324733869084200,6.973084228515625,7.079464912414551,-12.06640625,-5.063511848449707
1789324733887933700,6.99193359375,7.043572425842285,-8.894122123718262,-2.9231319427490234
1789324733906783000,7.010782958984375,7.007380962371826,-7.749754428863525,-3.2584261894226074
1789324733925632500,7.029632568359375,6.432804584503174,-8.748159408569336,-3.521636724472046
1789324733944482000,7.04848193359375,4.970191955566406,-9.028120040893555,-3.061915636062622
1789324733963331300,7.067331298828125,4.278367042541504,-8.199904441833496,-1.6878372430801392
1789324733982180900,7.086180908203125,5.865406513214111,-8.293224334716797,-2.676671266555786
1789324734001030100,7.105030029296875,4.730610370635986,-9.47348403930664,-2.968595504760742
1789324734019879700,7.123879638671875,3.667897939682007,-9.430413246154785,-4.062713623046875
1789324734038729200,7.142729248046875,4.350151538848877,-9.190832138061523,-2.262413740158081
1789324734057578500,7.16157861328125,6.7345991134643555,-8.841479301452637,-3.7971103191375732
1789324734076428000,7.180427978515625,6.768098831176758,-9.509376525878906,-3.7683966159820557
1789324734095277600,7.199277587890625,8.240582466125488,-9.229117393493652,-5.913562297821045
1789324734114126800,7.218126953125,8.479864120483398,-9.265308380126953,-6.6149582862854
1789324734132976400,7.236976318359375,6.99541711807251,-8.898907661437988,-6.689135551452637
1789324734151826000,7.255825927734375,5.980561256408691,-7.416852951049805,-5.9662041664123535
1789324734170675200,7.27467529296875,6.509674072265625,-6.803991317749023,-5.372485160827637
1789324734189524700,7.293524658203125,7.747361660003662,-7.172784805297852,-4.967798709869385
1789324734208374300,7.312374267578125,7.409674644470215,-7.7353973388671875,-5.039583683013916
1789324734227223600,7.3312236328125,6.583851337432861,-7.153642177581787,-5.317151069641113
1789324734246073000,7.350072998046875,5.365306377410889,-6.277271270751953,-3.9071803092956543
1789324734264922600,7.368922607421875,5.068297386169434,-2.693420886993408,-1.9199410676956177
1789324734283772000,7.38777197265625,4.864907741546631,-2.1643080711364746,-0.2874378263950348
1789324734302621400,7.406621337890625,5.037190914154053,-1.170688509941101,0.16031911969184875
1789324734321470700,7.425470703125,6.8997039794921875,-1.7548363208770752,-2.2791635990142822
1789324734340320300,7.4443203125,6.21984338760376,-3.6460635662078857,-3.7205400466918945
1789324734359169800,7.463169677734375,4.084249019622803,-4.079463481903076,-1.043868899345398
1789324734378019000,7.48201904296875,4.9893341064453125,-2.6240291595458984,-0.45972105860710144
1789324734396868600,7.50086865234375,4.898406982421875,-2.307877540588379,-0.15553347766399384
1789324734415718100,7.51971826171875,7.321139812469482,-1.9055840969085693,0.4286143481731415
1789324734443992300,7.547992431640625,7.036394119262695,-2.2241287231445312,-1.3334003686904907
1789324734462841600,7.566841552734375,6.356234073638916,-2.6240291595458984,-1.3549357652664185
1789324734481691100,7.585691162109375,7.72104024887085,-3.1387851238250732,-2.0853450298309326
1789324734500540700,7.604540771484375,4.479363918304443,-4.089034557342529,-2.839383125305176
1789324734519390000,7.623389892578125,3.555136203765869,-2.9566314220428467,-1.292722463607788
1789324734538239500,7.642239501953125,5.707480430603027,-2.2025933265686035,-0.5889334678649902
1789324734557089000,7.661089111328125,6.457031726837158,-1.8218353986740112,-0.9314061999320984
1789324734575938300,7.679938232421875,5.7888360023498535,-1.7261223793029785,-1.5418751239776611
1789324734594787800,7.698787841796875,6.806384086608887,-1.165902853012085,-2.6001009941101074
1789324734613637400,7.717637451171875,5.8944196701049805,-1.7572290897369385,-4.35254430770874
1789324734641911600,7.74591162109375,7.270890712738037,-5.338985443115234,-5.235795021057129
1789324734660760800,7.7647607421875,7.773682594299316,-9.614660263061523,-6.090631008148193
1789324734679610400,7.7836103515625,6.830312252044678,-13.857134819030762,-8.029714584350586
1789324734698460000,7.8024599609375,5.590231895446777,-16.962121963500977,-7.7593255043029785
1789324734717309400,7.821309326171875,5.819942951202393,-15.49950885772705,-5.377270698547363
1789324734736158700,7.84015869140625,7.677969455718994,-12.693625450134277,-3.895216226577759
1789324734755008300,7.85900830078125,8.93958568572998,-12.253046989440918,-4.443471431732178
1789324734773857500,7.877857421875,7.299604415893555,-11.862717628479004,-5.520840167999268
1789324734792707000,7.89670703125,6.423233509063721,-10.13180923461914,-5.453841209411621
1789324734811556600,7.915556640625,5.496912002563477,-9.22433090209961,-3.91914439201355
1789324734830406100,7.93440625,5.01086950302124,-8.522934913635254,-2.0829520225524902
1789324734849255400,7.95325537109375,4.584648132324219,-7.041179656982422,-1.4003994464874268
1789324734868105000,7.97210498046875,4.951049327850342,-6.1935224533081055,-1.6974085569381714
1789324734886954500,7.99095458984375,4.527220249176025,-6.143272876739502,-2.513660192489624
1789324734905803800,8.0098037109375,3.8473596572875977,-6.612565517425537,-2.8776683807373047
1789324734924653300,8.0286533203125,4.5822553634643555,-7.380960464477539,-3.617349624633789
1789324734943502800,8.0475029296875,5.132903575897217,-8.724231719970703,-2.755634307861328
1789324734962352000,8.06635205078125,6.859025955200195,-10.409675598144531,-2.9327032566070557
1789324734981201700,8.08520166015625,8.717052459716797,-13.155439376831055,-3.7683966159820557
1789324735000051200,8.10405126953125,8.015357971191406,-14.996716499328613,-6.669992923736572
1789324735018900500,8.122900390625,7.977072715759277,-12.667304039001465,-8.305188179016113
1789324735037750000,8.14175,8.242975234985352,-8.515756607055664,-6.964310169219971
1789324735056599600,8.160599609375,7.785646915435791,-6.279664039611816,-5.590231895446777
1789324735075448800,8.17944873046875,7.345067977905273,-4.915156841278076,-5.458626747131348
1789324735094298400,8.19829833984375,6.401698112487793,-4.766502857208252,-5.700301647186279
1789324735113148000,8.21714794921875,5.597410202026367,-5.616552829742432,-5.5998029708862305
1789324735131997400,8.23599755859375,5.041976451873779,-6.349055767059326,-4.491328239440918
1789324735150846700,8.2548466796875,5.415555953979492,-4.4243292808532715,-2.4873390197753906
1789324735169696300,8.2736962890625,4.689932346343994,-3.79471755027771,-1.9486548900604248
1789324735188545800,8.2925458984375,4.295116424560547,-2.5833511352539062,-1.0773683786392212
1789324735207395300,8.311395263671875,4.91037130355835,-0.521934449672699,-2.159522533416748
1789324735235669200,8.339669189453126,6.023632049560547,-2.628814697265625,-1.80508553981781
1789324735254518800,8.358518798828126,8.707481384277344,-1.86729896068573,-0.7899305820465088
1789324735273368300,8.377368408203125,7.1249284744262695,-3.91914439201355,-1.6854444742202759
1789324735292217900,8.3962177734375,5.640480995178223,-3.586242914199829,-1.9606190919876099
1789324735311067100,8.415067138671875,5.56151819229126,-2.496910333633423,-1.9486548900604248
1789324735329916700,8.433916748046874,6.145665645599365,-1.2496516704559326,-1.407876968383789
1789324735348766200,8.45276611328125,5.041976451873779,-1.4892330169677734,-0.6056832075119019
1789324735367615700,8.47161572265625,6.3131632804870605,-1.922333836555481,-0.732502818107605
1789324735386465000,8.490465087890625,3.7372899055480957,-1.9896320104599,-1.2137593030929565
1789324735405314600,8.509314453125,4.292723655700684,-1.9366908073425293,-0.8835497498512268
1789324735424164000,8.5281640625,6.99541711807251,-1.92951238155365,0.11964113265275955
1789324735443013400,8.547013427734376,7.237390995025635,-2.6790640354156494,-1.5346965789794922
1789324735461863000,8.56586279296875,4.8074798583984375,-3.1722846031188965,-2.4849462509155273
1789324735480712400,8.58471240234375,6.133701801300049,-3.059522867202759,-4.240081787109375
1789324735499562000,8.60356201171875,6.949953556060791,-5.461019515991211,-4.091427803039551
1789324735518411300,8.622411376953124,6.439982891082764,-7.538887023925781,-3.890430450439453
1789324735537260800,8.6412607421875,5.051547527313232,-8.494221687316895,-5.00369119644165
1789324735556110300,8.6601103515625,4.766502857208252,-9.509376525878906,-4.589433670043945
1789324735574959600,8.678959716796875,6.260521411895752,-9.774979591369629,-4.093820571899414
1789324735603233800,8.70723388671875,6.720242500305176,-9.435198783874512,-6.327520370483398
1789324735622083300,8.726083251953124,7.498208999633789,-10.96032428741455,-6.602993965148926
1789324735640932900,8.744932861328126,7.555636405944824,-12.207582473754883,-7.223034381866455
1789324735659782400,8.763782470703125,6.442375659942627,-11.381461143493652,-6.148058891296387
1789324735678631700,8.782631591796875,7.816753387451172,-9.897313117980957,-4.376472473144531
1789324735697481200,8.801481201171875,7.340282440185547,-10.668100357055664,-3.02123761177063
1789324735716330800,8.820330810546874,5.410770416259766,-11.01296615600586,-2.722134828567505
1789324735735180000,8.839179931640626,6.660421848297119,-9.600303649902344,-3.3278181552886963
1789324735754029600,8.858029541015625,6.152844429016113,-9.150154113769531,-4.610969066619873
1789324735772879000,8.876879150390625,5.408377170562744,-9.774979591369629,-4.524827480316162
1789324735791728600,8.895728759765625,4.620540618896484,-9.667302131652832,-4.752145767211914
1789324735810578000,8.914577880859374,5.092225551605225,-9.430413246154785,-3.864109516143799
1789324735829427500,8.933427490234376,5.432305812835693,-9.346664428710938,-3.2129626274108887
1789324735848277000,8.952277099609375,4.833800792694092,-8.781659126281738,-4.206283092498779
1789324735867126500,8.97112646484375,5.3557353019714355,-7.938787460327148,-3.7516467571258545
1789324735885975800,8.989975830078125,7.469494819641113,-7.385746002197266,-5.108975410461426
1789324735904825300,9.008825439453124,8.113463401794434,-8.152048110961914,-5.899205207824707
1789324735923675000,9.0276748046875,8.908478736877441,-8.242975234985352,-6.416054725646973
1789324735942524200,9.046524169921875,9.07119083404541,-7.919644832611084,-7.761718273162842
1789324735961373700,9.065373779296875,7.464709281921387,-9.631410598754883,-6.916453838348389
1789324735980223200,9.08422314453125,6.097809314727783,-9.274879455566406,-6.435197353363037
1789324735999072800,9.10307275390625,6.112166404724121,-4.7473602294921875,-4.78594446182251
1789324736017922000,9.121922119140624,7.826324462890625,-3.363710403442383,-3.804288864135742
1789324736036771600,9.140771484375,7.857431411743164,-4.915156841278076,-3.1028928756713867
1789324736055621000,9.15962109375,6.346662998199463,-3.1268210411071777,-2.276770830154419
1789324736074470400,9.178470458984375,5.254937648773193,-2.8848466873168945,-2.1260228157043457
1789324736093320000,9.19731982421875,5.379663467407227,-3.16749906539917,-2.276770830154419
1789324736121594000,9.225593994140626,4.038785457611084,-2.975774049758911,-1.6304094791412354
1789324736140443600,9.244443603515625,4.59421968460083,-2.1260228157043457,2.942274570465088
1789324736168717800,9.2727177734375,4.457828521728516,-1.2687941789627075,1.678265929222107
1789324736187567400,9.2915673828125,5.207081317901611,-1.292722463607788,0.04785645380616188
1789324736206417000,9.3104169921875,4.3788652420043945,-2.0925233364105225,-2.7125635147094727
1789324736234690800,9.33869091796875,7.177570819854736,-1.8505492210388184,0.3640081584453583
1789324736253540400,9.357540283203125,5.745765209197998,-2.722134828567505,-2.580958366394043
1789324736272390000,9.376389892578125,4.761716842651367,-3.122035264968872,-1.8768702745437622
1789324736291239400,9.395239501953125,3.3469607830047607,-3.373281717300415,-2.39401912689209
1789324736310088700,9.414088623046876,6.270092487335205,-3.2608189582824707,-2.533101797103882
1789324736328938200,9.432938232421876,7.244569778442383,-2.6503500938415527,-2.676671266555786
1789324736347787800,9.451787841796875,6.681957244873047,-2.942274570465088,-3.1579277515411377
1789324736366637300,9.47063720703125,5.7409796714782715,-4.515256404876709,-4.54636287689209
1789324736385486600,9.489486572265625,5.405984401702881,-6.971488952636719,-5.018048286437988
1789324736404336000,9.508336181640624,7.223034381866455,-10.112667083740234,-6.093023777008057
1789324736423185700,9.527185546875,6.6149582862854,-12.822837829589844,-6.222236156463623
1789324736451459800,9.5554599609375,6.885347366333008,-14.948860168457031,-6.607779502868652
1789324736470309400,9.574309326171875,8.956335067749023,-15.267106056213379,-5.906383514404297
1789324736489158700,9.59315869140625,8.127820014953613,-13.265809059143066,-6.250949859619141
1789324736508008200,9.61200830078125,6.952346324920654,-10.514960289001465,-5.386841773986816
1789324736526857700,9.630857666015626,7.170392036437988,-9.159725189208984,-3.9478583335876465
1789324736545707000,9.64970703125,7.2182488441467285,-8.175975799560547,-3.79471755027771
1789324736564556500,9.668556640625,5.283651351928711,-7.7832536697387695,-3.7109687328338623
1789324736583406000,9.687406005859375,5.326722145080566,-7.261319637298584,-3.552743434906006
1789324736602255600,9.706255615234374,5.099404335021973,-6.631708145141602,-3.7181472778320312
1789324736621105000,9.72510498046875,4.203890323638916,-7.132106781005859,-1.378864049911499
1789324736639954400,9.743954345703125,4.986941337585449,-7.7353973388671875,-3.145963668823242
1789324736658804000,9.762803955078125,4.2209391593933105,-8.55882740020752,-2.92073917388916
1789324736677653200,9.7816533203125,3.7899320125579834,-8.656932830810547,-3.1172497272491455
1789324736696502800,9.800502685546874,5.302793979644775,-8.482256889343262,-3.9789650440216064
1789324736715352300,9.819352294921876,7.287640571594238,-9.078369140625,-3.9717864990234375
1789324736734201600,9.83820166015625,9.614660263061523,-11.146964073181152,-5.731408596038818
1789324736753051100,9.857051025390625,9.097511291503906,-13.833207130432129,-7.0770721435546875
1789324736771900700,9.875900634765625,7.814360618591309,-12.379866600036621,-6.990631580352783
1789324736790750200,9.894750244140624,6.387341022491455,-9.20279598236084,-5.6859450340271
1789324736809599500,9.913599609375,6.562315940856934,-6.4304118156433105,-4.108177185058594
1789324736828449000,9.932448974609375,6.830312252044678,-5.516054630279541,-4.634897232055664
1789324736847298600,9.951298583984375,6.294020652770996,-4.551148891448975,-3.866502285003662
1789324736866147800,9.97014794921875,7.301997184753418,-1.6878372430801392,-3.373281717300415
1789324736884997400,9.988997314453124,8.350651741027832,-3.500101327896118,-3.006880760192871
1789324736903847000,10.007846923828126,5.5830535888671875,-4.845765113830566,-2.99013090133667
1789324736922696400,10.026696533203125,4.194318771362305,-3.1004998683929443,-1.5634105205535889
1789324736941545700,10.045545654296875,4.429114818572998,-1.4294124841690063,-2.444268226623535
1789324736960395300,10.064395263671875,4.884049892425537,-2.3437697887420654,-2.6503500938415527
1789324736979244800,10.083244873046874,8.075178146362305,0.02871387079358101,1.4892330169677734
1789324736998094300,10.10209423828125,8.293224334716797,-2.856132984161377,-1.5275181531906128
1789324737016943600,10.120943603515625,3.990929126739502,-2.33180570602417,-1.5801602602005005
1789324737035793200,10.139793212890625,4.409972190856934,-1.6375880241394043,-1.651944875717163
1789324737054642700,10.158642578125,6.081059455871582,-2.0398812294006348,-2.8441689014434814
1789324737073492000,10.177491943359374,3.866502285003662,-2.7819554805755615,0.34725838899612427
1789324737092341500,10.196341552734374,5.889334678649902,-2.011167526245117,-0.21296121180057526
1789324737111191000,10.21519091796875,4.522434711456299,-2.489732027053833,-0.33529427647590637
1789324737130040300,10.234040283203125,5.616552829742432,-2.417947292327881,-1.0247262716293335
1789324737148889900,10.252889892578125,4.649254322052002,-2.365305185317993,-1.8744773864746094
1789324737167739400,10.271739501953125,4.235296249389648,-2.4610180854797363,-2.3461625576019287
1789324737186588700,10.290588623046874,7.72104024887085,-2.39401912689209,-2.8154549598693848
1789324737205438200,10.309438232421876,5.379663467407227,-3.5886356830596924,-4.41475772857666
1789324737233712400,10.33771240234375,6.521637916564941,-8.060821533203125,-6.593422889709473
1789324737252562000,10.35656201171875,4.802694320678711,-11.280961990356445,-6.770491600036621
1789324737271411500,10.375411376953124,5.379663467407227,-12.925728797912598,-6.62213659286499
1789324737299685600,10.403685546875,7.46710205078125,-13.878670692443848,-5.9566330909729
1789324737318535000,10.422534912109375,9.861420631408691,-14.132309913635254,-5.616552829742432
1789324737337384400,10.441384521484375,8.927620887756348,-13.5242338180542,-6.930810928344727
1789324737356234000,10.46023388671875,7.2661051750183105,-9.902098655700684,-5.978168487548828
1789324737375083300,10.479083251953124,7.5341010093688965,-7.718647480010986,-4.014857292175293
1789324737393932800,10.497932861328126,6.890132904052734,-8.357830047607422,-3.8473596572875977
1789324737412782300,10.5167822265625,5.978168487548828,-9.20997428894043,-4.381258487701416
1789324737431631600,10.535631591796875,5.456233978271484,-8.52054214477539,-3.342175006866455
1789324737450481200,10.554481201171875,6.583851337432861,-8.235795974731445,-3.9239299297332764
1789324737469330700,10.57333056640625,5.810371398925781,-9.353842735290527,-3.990929126739502
1789324737488180000,10.592179931640626,4.991727352142334,-9.07119083404541,-4.974977493286133
1789324737507029500,10.611029541015625,5.015655517578125,-8.472685813903809,-4.067499160766602
1789324737525879000,10.629879150390625,5.302793979644775,-8.52772045135498,-3.8449668884277344
1789324737544728300,10.648728271484375,4.845765113830566,-8.805587768554688,-3.859323740005493
1789324737563577900,10.667577880859374,5.413163185119629,-8.599505424499512,-4.350151538848877
1789324737582427400,10.686427490234376,7.3043904304504395,-8.391329765319824,-4.802694320678711
1789324737601276700,10.705276611328125,7.773682594299316,-8.015357971191406,-5.496912002563477
1789324737620126200,10.724126220703125,7.957930088043213,-8.207082748413086,-6.128916263580322
1789324737638975700,10.742975830078125,9.339486122131348,-7.316354274749756,-6.701099872589111
1789324737657825000,10.761824951171874,8.173583030700684,-7.385746002197266,-6.696314334869385
1789324737676674600,10.780674560546874,6.188736438751221,-7.201498985290527,-7.134500026702881
1789324737695524000,10.799524169921876,5.085047245025635,-5.959025859832764,-5.348556995391846
1789324737714373400,10.818373291015625,4.634897232055664,-4.211368083953857,-3.11246395111084
1789324737733223000,10.837222900390625,5.1305108070373535,-3.2105698585510254,-1.2616157531738281
1789324737752072400,10.856072509765625,5.07308292388916,-2.317448616027832,-0.37836506962776184
1789324737770921700,10.874921630859374,7.110571384429932,-2.9327032566070557,-2.152343988418579
1789324737789771300,10.893771240234376,6.3131632804870605,-3.943072557449341,-1.410269856452942
1789324737808620800,10.912620849609375,4.673182487487793,-1.9606190919876099,0.10289137065410614
1789324737827470000,10.931469970703125,6.732206344604492,-1.7548363208770752,-0.5482555031776428
1789324737846319600,10.950319580078125,5.175974369049072,-3.119642496109009,-0.5195416212081909
1789324737865169200,10.969169189453124,0.9026923179626465,-1.8481563329696655,-2.5618157386779785
1789324737884018400,10.988018310546876,4.543970108032227,-0.5937191247940063,1.446162223815918
1789324737902868000,11.006867919921875,2.2743778228759766,-1.158724308013916,0.34247273206710815
1789324737921717500,11.025717529296875,4.022035598754883,-0.5171487927436829,0.701396107673645
1789324737940566800,11.04456689453125,5.669195175170898,-1.3142578601837158,1.043868899345398
1789324737959416300,11.063416259765624,8.298009872436523,-1.8290138244628906,-1.4892330169677734
1789324737978265600,11.082265625,6.911668300628662,-2.011167526245117,-3.4785659313201904
1789324737997115100,11.101115234375,5.07308292388916,-3.5814573764801025,-3.8210387229919434
1789324738015964700,11.119964599609375,6.772884368896484,-4.939085006713867,-6.358626842498779
1789324738034814000,11.13881396484375,6.15045166015625,-8.755337715148926,-6.444768905639648
1789324738053663500,11.15766357421875,6.377769470214844,-11.350354194641113,-6.174379825592041
1789324738072513000,11.176512939453126,6.564708709716797,-10.562816619873047,-4.843372344970703
1789324738091362300,11.1953623046875,7.680362701416016,-8.831908226013184,-5.07308292388916
1789324738110211800,11.2142119140625,6.08823823928833,-7.83111047744751,-5.590231895446777
1789324738129061400,11.233061279296875,5.238187789916992,-7.821538925170898,-5.767300605773926
1789324738147910700,11.25191064453125,6.593422889709473,-8.343473434448242,-5.626124382019043
1789324738166760200,11.27076025390625,9.588339805603027,-9.260522842407227,-5.9662041664123535
1789324738185609500,11.289609375,7.756932735443115,-11.91296672821045,-6.964310169219971
1789324738204459000,11.308458984375,6.1695942878723145,-13.81645679473877,-6.461817741394043
1789324738232733200,11.336733154296875,6.2892351150512695,-10.272985458374023,-2.1379871368408203
1789324738251582500,11.35558251953125,6.174379825592041,-10.416853904724121,-4.261617183685303
1789324738270432000,11.374431884765626,6.16480827331543,-11.78136157989502,-5.140082359313965
1789324738289281300,11.39328125,6.894918441772461,-10.806884765625,-4.7401814460754395
1789324738308130800,11.412130859375,6.121737480163574,-8.446364402770996,-4.805087089538574
1789324738326980400,11.43098046875,4.907978534698486,-6.744170665740967,-4.7234320640563965
1789324738345829600,11.44982958984375,3.653541088104248,-6.109773635864258,-4.3788652420043945
1789324738364679200,11.46867919921875,3.325425386428833,-6.116951942443848,-2.635993242263794
1789324738383528700,11.48752880859375,4.170390605926514,-6.638886451721191,-2.0614166259765625
1789324738402378000,11.5063779296875,5.2477593421936035,-6.961917400360107,-3.3541390895843506
1789324738421227500,11.5252275390625,6.820741176605225,-7.536494255065918,-4.675575256347656
1789324738440076800,11.544076904296874,8.599505424499512,-7.840681552886963,-6.033203125
1789324738458926300,11.56292626953125,9.600303649902344,-8.635397911071777,-7.146463871002197
1789324738477775600,11.581775634765625,9.09990406036377,-9.463912963867188,-8.886942863464355
1789324738496625200,11.600625244140625,7.723433494567871,-8.82951545715332,-7.742575645446777
1789324738515474700,11.619474609375,6.5527448654174805,-7.127321243286133,-6.205486297607422
1789324738534324000,11.638323974609374,5.899205207824707,-6.305984973907471,-5.25254487991333
1789324738553173500,11.657173583984376,5.463412284851074,-4.893621444702148,-2.5112674236297607
1789324738572022800,11.676022705078125,4.462614059448242,-1.8529419898986816,-2.1236300468444824
1789324738590872300,11.694872314453125,7.385746002197266,-1.8792630434036255,-1.1994023323059082
1789324738609721600,11.7137216796875,6.002096652984619,-4.35254430770874,-2.386840581893921
1789324738628571100,11.732571044921874,2.966202735900879,-5.1305108070373535,-1.7021942138671875
1789324738647420700,11.751420654296876,6.128916263580322,-1.319043517112732,2.090130567550659
1789324738675694800,11.77969482421875,6.308377742767334,-4.4410786628723145,-1.6758731603622437
1789324738694544100,11.798544189453125,2.17627215385437,-1.1563315391540527,-0.5338985323905945
1789324738713393700,11.8173935546875,3.6631124019622803,-0.646361231803894,-1.477268934249878
1789324738732243000,11.836242919921874,2.863311290740967,-0.6272186636924744,1.0869396924972534
1789324738751092500,11.855092529296876,1.2233306169509888,0.3640081584453583,0.6678966283798218
1789324738769941800,11.873941650390625,3.397209882736206,0.5315057039260864,2.3748764991760254
1789324738788791300,11.892791259765625,7.443173885345459,1.4940186738967896,-0.9074779748916626
1789324738807640600,11.911640625,5.796014785766602,0.0933200865983963,-1.8505492210388184
1789324738826490000,11.930489990234374,10.01456069946289,-1.2759727239608765,-4.141676902770996
1789324738845339600,11.949339599609376,6.847062110900879,-3.6966118812561035,-8.800801277160645
1789324738864189000,11.96818896484375,10.165308952331543,-14.486746788024902,-11.956037521362305
1789324738883038200,11.9870380859375,6.660421848297119,-21.87488555908203,-13.71805191040039
1789324738901887700,12.0058876953125,6.2892351150512695,-18.211772918701172,-10.048060417175293
1789324738920737300,12.0247373046875,6.126523494720459,-12.18365478515625,-4.2281174659729
1789324738939586600,12.043586669921876,6.305984973907471,-7.416852951049805,-0.5123631358146667
1789324738958436000,12.06243603515625,7.46710205078125,-4.213760852813721,-2.0853450298309326
1789324738977285400,12.081285400390625,4.491328239440918,-3.8162529468536377,-2.8274190425872803
1789324738996135000,12.100135009765625,4.7473602294921875,-2.942274570465088,-4.393222332000732
1789324739014984200,12.118984130859374,4.309473514556885,-3.0643084049224854,-3.2991042137145996
1789324739033833700,12.137833740234376,6.483353137969971,-4.029214382171631,-2.9542386531829834
1789324739052683000,12.15668310546875,9.818050384521484,-9.463912963867188,-5.867799282073975
1789324739071532500,12.175532470703125,7.120142936706543,-18.48006820678711,-12.698410987854004
1789324739090381800,12.1943818359375,9.061619758605957,-21.73131561279297,-7.287640571594238
1789324739109231400,12.2132314453125,8.376973152160645,-13.263416290283203,-3.2416765689849854
1789324739128080600,12.23208056640625,5.578267574310303,-8.8438720703125,-1.8481563329696655
1789324739146930200,12.25093017578125,4.6301116943359375,-9.463912963867188,-4.2209391593933105
1789324739165779500,12.269779541015625,4.455435752868652,-8.989834785461426,-3.507279872894287
1789324739184629000,12.28862890625,6.085845470428467,-7.72104024887085,-4.100998878479004
1789324739203478300,12.307478271484374,5.855835437774658,-7.043572425842285,-4.9725847244262695
1789324739222327800,12.326327880859376,5.968596935272217,-6.262914180755615,-5.06590461730957
1789324739241177000,12.345177001953125,7.014858722686768,-6.004489421844482,-5.793622016906738
1789324739260026600,12.364026611328125,6.701099872589111,-6.3514485359191895,-6.471388816833496
1789324739278876000,12.3828759765625,5.2716875076293945,-7.074679374694824,-6.672386169433594
1789324739297725400,12.401725341796874,4.72582483291626,-7.108178615570068,-5.90877628326416
1789324739316574700,12.42057470703125,4.443471431732178,-7.981858253479004,-4.8792643547058105
1789324739335424300,12.43942431640625,5.774479389190674,-7.337889671325684,-4.295116424560547
1789324739354273500,12.4582734375,7.618149280548096,-6.28205680847168,-4.165605068206787
1789324739373123000,12.477123046875,9.123832702636719,-5.307579517364502,-3.4713873863220215
1789324739401397000,12.50539697265625,9.49501895904541,-6.073881149291992,-2.9063823223114014
1789324739420246500,12.52424658203125,4.314259052276611,-4.553541660308838,-3.7899320125579834
1789324739439095800,12.543095703125,0.6391827464103699,0.064606212079525,-2.5594229698181152
1789324739457945300,12.5619453125,3.7995033264160156,0.2273181527853012,-0.6008976101875305
1789324739476794600,12.580794677734374,6.708278179168701,-1.5251253843307495,1.3668999671936035
1789324739495644200,12.59964404296875,5.413163185119629,1.1108678579330444,0.4573282301425934
1789324739514493400,12.618493408203125,5.242973327636719,-2.2265214920043945,0
1789324739533343000,12.637343017578125,5.920740604400635,-1.6016956567764282,-1.3549357652664185
1789324739552192300,12.656192138671875,6.937989234924316,-1.9752750396728516,-2.26959228515625
1789324739571041800,12.675041748046874,5.913562297821045,-2.252842426300049,-3.5264222621917725
1789324739589891000,12.69389111328125,5.688337802886963,-3.239283561706543,-2.4131617546081543
1789324739618165000,12.7221650390625,3.1962127685546875,-2.872882604598999,-2.705385208129883
1789324739637014500,12.7410146484375,4.7835516929626465,-2.918346405029297,-2.1619153022766113
1789324739655863800,12.75986376953125,5.714658737182617,-2.810669183731079,-2.1571295261383057
1789324739674713300,12.77871337890625,4.371686935424805,-4.120141506195068,-2.3365912437438965
1789324739693562600,12.797562744140626,8.197511672973633,-5.276473045349121,-2.231307029724121
1789324739712412200,12.816412109375,7.45992374420166,-7.225427150726318,-4.067499160766602
1789324739731261400,12.835261474609375,5.892026424407959,-10.388140678405762,-7.108178615570068
1789324739750110700,12.85411083984375,5.219045162200928,-13.217952728271484,-9.332307815551758
1789324739768960300,12.872960205078124,5.415555953979492,-14.527424812316895,-9.439984321594238
1789324739787809500,12.8918095703125,7.368996620178223,-12.43968677520752,-7.402495861053467
1789324739806659000,12.9106591796875,7.05553674697876,-8.345866203308105,-4.845765113830566
1789324739825508400,12.92950830078125,7.979465484619141,-6.49770975112915,-4.845765113830566
1789324739844357600,12.948357666015625,7.0531439781188965,-7.031608581542969,-4.891228675842285
1789324739863207200,12.967207275390624,6.679564476013184,-8.180761337280273,-4.951049327850342
1789324739882056400,12.986056396484376,8.20229721069336,-10.081560134887695,-5.2956156730651855
1789324739900906000,13.004906005859375,8.314759254455566,-11.759825706481934,-5.063511848449707
1789324739919755300,13.02375537109375,8.142476081848145,-10.979466438293457,-6.294020652770996
1789324739938604800,13.042604736328125,7.022037029266357,-9.432806015014648,-5.293222904205322
1789324739957454000,13.0614541015625,6.030810356140137,-9.023334503173828,-5.00369119644165
1789324739976303400,13.080303466796876,5.408377170562744,-8.927620887756348,-5.43709135055542
1789324739995153000,13.09915283203125,4.943870544433594,-9.011369705200195,-4.781158924102783
1789324740014002200,13.118002197265625,5.865406513214111,-8.570791244506836,-4.649254322052002
1789324740032851500,13.1368515625,6.138487339019775,-8.556434631347656,-4.5822553634643555
1789324740051701000,13.155700927734374,5.9183478355407715,-8.506185531616211,-4.874478816986084
1789324740070550300,13.17455029296875,5.90877628326416,-7.550850868225098,-5.0587263107299805
1789324740089399800,13.19339990234375,6.3993048667907715,-6.4304118156433105,-4.115355968475342
1789324740108249000,13.2122490234375,6.866204738616943,-7.036394119262695,-5.3318071365356445
1789324740127098400,13.231098388671874,6.186343669891357,-8.666504859924316,-5.944668769836426
1789324740145948000,13.249947998046874,5.480162143707275,-6.715456962585449,-6.610172748565674
1789324740164797200,13.268797119140626,5.954239845275879,-5.290830135345459,-5.281258583068848
1789324740183646500,13.287646484375,7.215855598449707,-4.323830604553223,-3.7253258228302
1789324740202496000,13.30649609375,8.051250457763672,-3.9311084747314453,-2.9877381324768066
1789324740221345300,13.32534521484375,8.55882740020752,-2.801098108291626,-2.746062994003296
1789324740240194600,13.344194580078126,6.401698112487793,-3.054737091064453,-2.944667339324951
1789324740259044000,13.363044189453126,4.376472473144531,-2.95902419090271,-2.379662036895752
1789324740277893400,13.381893310546875,2.252842426300049,-0.6415755748748779,-2.6312077045440674
1789324740296742700,13.40074267578125,4.455435752868652,-1.0390832424163818,-1.3022937774658203
1789324740315592200,13.41959228515625,6.179165363311768,-2.458625316619873,-0.7707880139350891
1789324740334441500,13.43844140625,3.7253258228302,-3.1339993476867676,-0.5267201066017151
1789324740353291000,13.457291015625,6.322734832763672,-0.8500502705574036,-0.0023928226437419653
1789324740372140300,13.476140380859375,3.653541088104248,-2.128415822982788,-1.970489501953125
1789324740390989600,13.494989501953125,6.085845470428467,-1.4629119634628296,-0.45254257321357727
1789324740409838800,13.5138388671875,4.369294166564941,-1.3836497068405151,-1.0271191596984863
1789324740428688400,13.5326884765625,5.8944196701049805,-1.103689432144165,-1.434198021888733
1789324740447537700,13.55153759765625,3.0092735290527344,-0.8524430394172668,-2.3748764991760254
1789324740466387000,13.570386962890625,3.9622151851654053,-1.5251253843307495,-1.4676976203918457
1789324740485236500,13.589236572265625,4.970191955566406,-2.035095691680908,-1.6854444742202759
1789324740504085800,13.608085693359374,5.420341491699219,-4.1297125816345215,-3.79471755027771
1789324740522935000,13.62693505859375,8.482256889343262,-7.953144073486328,-4.84815788269043
1789324740541784600,13.64578466796875,8.4200439453125,-10.646565437316895,-8.17119026184082
1789324740560633900,13.6646337890625,7.392924785614014,-13.974383354187012,-11.491530418395996
1789324740579483100,13.683483154296875,4.8792643547058105,-16.270296096801758,-11.826825141906738
1789324740598332700,13.702332763671874,5.853442192077637,-12.839587211608887,-6.818347930908203
1789324740617182000,13.721181884765626,9.739087104797363,-7.471887588500977,-2.975774049758911
1789324740636031200,13.74003125,9.286844253540039,-7.041179656982422,-3.2057840824127197
1789324740654880500,13.758880615234375,6.128916263580322,-6.662814617156982,-5.681159019470215
1789324740673730000,13.77772998046875,6.2174506187438965,-5.973382472991943,-6.502495765686035
1789324740692579300,13.796579345703124,7.1010003089904785,-7.666005611419678,-6.3753767013549805
1789324740711428600,13.8154287109375,6.093023777008057,-11.240283966064453,-4.979763031005859
1789324740730278100,13.834278076171875,4.979763031005859,-12.918550491333008,-5.937490463256836
1789324740749127400,13.85312744140625,5.932704448699951,-11.647363662719727,-4.737788677215576
1789324740767976700,13.871976806640625,6.27487850189209,-11.740683555603027,-4.026821613311768
1789324740786826000,13.890825927734374,6.586244106292725,-11.068000793457031,-4.7401814460754395
1789324740805675300,13.90967529296875,6.7345991134643555,-9.406484603881836,-6.238986015319824
1789324740824524800,13.92852490234375,4.8074798583984375,-8.199904441833496,-5.209474086761475
1789324740843374000,13.9473740234375,4.512863636016846,-7.292426109313965,-4.6372904777526855
1789324740862223400,13.966223388671875,3.684647798538208,-5.925526142120361,-3.6029927730560303
1789324740881072600,13.98507275390625,3.5503506660461426,-5.286044120788574,-2.6551358699798584
1789324740899922200,14.003922119140626,3.7277185916900635,-4.7401814460754395,-2.674278497695923
1789324740918771500,14.022771484375,4.510470867156982,-4.946263313293457,-2.6312077045440674
1789324740937620700,14.041620849609375,9.294022560119629,-5.446662425994873,-4.2209391593933105
1789324740956470000,14.060469970703124,13.318450927734375,-9.353842735290527,-7.2349982261657715
1789324740975319600,14.079319580078124,12.43250846862793,-14.29980754852295,-11.668898582458496
1789324740994168800,14.0981689453125,9.095118522644043,-11.908181190490723,-12.652947425842285
1789324741013018000,14.11701806640625,6.543173313140869,-7.938787460327148,-7.730611801147461
1789324741031867400,14.135867431640625,5.7170515060424805,-4.9486565589904785,-3.8856449127197266
1789324741050717000,14.154717041015624,3.476173162460327,-0.9625129103660583,-2.652743101119995
1789324741069566200,14.173566162109376,1.3956137895584106,0.8739784955978394,-1.4820544719696045
1789324741088415500,14.19241552734375,4.400400638580322,-0.7301099896430969,0.059820566326379776
1789324741107264800,14.2112646484375,5.056333541870117,-1.7955143451690674,1.280758261680603
1789324741126114000,14.230114013671875,5.015655517578125,-2.204986095428467,0.5817549824714661
1789324741144963600,14.248963623046874,3.8617167472839355,-1.103689432144165,2.9063823223114014
1789324741163812900,14.267812744140626,2.880061149597168,-0.7085745930671692,-0.43100717663764954
1789324741182662100,14.286662109375,3.6966118812561035,-0.7899305820465088,-2.9566314220428467
1789324741201511400,14.305511474609375,5.700301647186279,-1.776371717453003,-1.8577276468276978
1789324741220360700,14.324360595703125,6.473781585693359,-1.8290138244628906,-2.386840581893921
1789324741239210200,14.343210205078124,4.165605068206787,-1.970489501953125,-1.6328023672103882
1789324741258059500,14.3620595703125,6.176772594451904,-1.3046865463256836,-1.6734803915023804
1789324741276908800,14.38090869140625,6.380162239074707,-1.5083755254745483,-1.934298038482666
1789324741295758000,14.399758056640625,5.147260665893555,-1.8768702745437622,-3.6870405673980713
1789324741314607400,14.418607421875,7.268497943878174,-4.560719966888428,-5.19033145904541
1789324741333457000,14.437456787109374,6.909275531768799,-6.602993965148926,-6.119344711303711
1789324741352306200,14.45630615234375,4.493721008300781,-8.740981101989746,-7.2732834815979
1789324741371155500,14.475155517578125,5.535196781158447,-10.768599510192871,-7.170392036437988
1789324741390004700,14.494004638671875,5.819942951202393,-11.3240327835083,-5.4658050537109375
1789324741408854000,14.51285400390625,4.991727352142334,-10.481460571289062,-5.4658050537109375
1789324741427703300,14.531703369140626,6.049952983856201,-9.38016414642334,-4.754538536071777
1789324741446552800,14.550552734375,8.134998321533203,-8.180761337280273,-5.030012130737305
1789324741465402000,14.569402099609375,7.780860900878906,-8.599505424499512,-5.836692810058594
1789324741484251400,14.58825146484375,6.28205680847168,-9.219545364379883,-7.4862446784973145
1789324741503100700,14.6071005859375,5.90877628326416,-10.115059852600098,-6.792026996612549
1789324741521950000,14.625949951171876,5.886941909790039,-10.660922050476074,-4.543970108032227
1789324741540799200,14.64479931640625,6.002096652984619,-10.265807151794434,-3.4570305347442627
1789324741559648500,14.6636484375,5.784050464630127,-10.083952903747559,-4.096213340759277
1789324741578497800,14.682497802734375,6.770491600036621,-9.52612590789795,-5.702694416046143
1789324741597347300,14.701347412109374,7.230212688446045,-8.204689979553223,-5.31475830078125
1789324741616196600,14.720196533203126,7.225427150726318,-7.658827304840088,-5.195116996765137
1789324741635046000,14.7390458984375,6.3131632804870605,-8.015357971191406,-5.638088226318359
1789324741653895200,14.757895263671875,4.326223373413086,-7.58943510055542,-4.491328239440918
1789324741672744400,14.776744384765625,4.266402721405029,-7.215855598449707,-4.213760852813721
1789324741691593700,14.79559375,3.8473596572875977,-6.844669342041016,-3.2919256687164307
1789324741710443000,14.814443115234376,4.8792643547058105,-6.909275531768799,-3.6487553119659424
1789324741738717200,14.84271728515625,8.147261619567871,-8.55164909362793,-5.836692810058594
1789324741757566500,14.86156640625,9.159725189208984,-9.942776679992676,-7.661220073699951
1789324741776415700,14.880415771484374,9.559625625610352,-10.720743179321289,-7.670791149139404
1789324741795265000,14.89926513671875,9.226723670959473,-11.259427070617676,-7.572386264801025
1789324741814114300,14.9181142578125,7.3522467613220215,-10.110274314880371,-7.670791149139404
1789324741832963600,14.936963623046875,5.38205623626709,-5.762515068054199,-5.638088226318359
1789324741851812900,14.955812744140625,4.084249019622803,-3.3445677757263184,-4.536791801452637
1789324741870662100,14.974662109375,6.451947212219238,-1.7261223793029785,-2.17627215385437
1789324741889511400,14.993511474609376,6.160022735595703,-2.2648067474365234,-2.2480568885803223
1789324741908360700,15.012360595703125,6.531209468841553,-2.7173492908477783,-1.9848463535308838
1789324741927210000,15.0312099609375,5.628517150878906,-1.5155540704727173,-1.9390836954116821
1789324741946059500,15.0500595703125,4.508078098297119,-3.191427230834961,-2.465803623199463
1789324741964908800,15.06890869140625,3.911965847015381,-3.9717864990234375,-0.9672985672950745
1789324741983758000,15.087758056640626,3.3828530311584473,-0.035892341285943985,1.6806588172912598
1789324742002607400,15.106607421875,4.716253280639648,-0.6870391964912415,-0.6966105103492737
1789324742021456600,15.12545654296875,4.170390605926514,-0.8811569213867188,0.062213387340307236
1789324742040306000,15.144305908203124,4.6061835289001465,-1.043868899345398,-0.5482555031776428
1789324742059155200,15.1631552734375,5.604588985443115,-1.3860424757003784,-1.807478427886963
1789324742078004500,15.18200439453125,5.896812438964844,-1.83619225025177,-0.4142574071884155
1789324742096853800,15.200853759765625,5.78644323348999,-1.5777673721313477,-2.504088878631592
1789324742115703000,15.219703125,6.054738521575928,-2.4538395404815674,-2.4873390197753906
1789324742134552300,15.23855224609375,6.291627883911133,-3.045166015625,-3.833002805709839
1789324742153401600,15.257401611328126,4.536791801452637,-5.9183478355407715,-5.01086950302124
1789324742172251000,15.2762509765625,5.872584819793701,-7.287640571594238,-4.634897232055664
1789324742191100200,15.29510009765625,6.504888534545898,-8.094321250915527,-5.923133373260498
1789324742209949400,15.313949462890625,6.126523494720459,-10.050453186035156,-6.353841304779053
1789324742228798700,15.332798828125,6.564708709716797,-11.070393562316895,-7.584649562835693
1789324742247648000,15.35164794921875,7.182356357574463,-12.087942123413086,-6.930810928344727
1789324742266497300,15.370497314453125,7.438388347625732,-11.527722358703613,-6.483353137969971
1789324742285346600,15.3893466796875,7.725826263427734,-8.678468704223633,-6.121737480163574
1789324742304195800,15.40819580078125,7.333104133605957,-8.56600570678711,-6.564708709716797
1789324742323045400,15.42704541015625,6.341877460479736,-9.71515941619873,-6.713063716888428
1789324742341894700,15.445894775390625,6.267699718475342,-9.839884757995605,-5.939883232116699
1789324742360743700,15.46474365234375,6.7345991134643555,-8.623434066772461,-4.134498596191406
1789324742379593000,15.483593017578125,6.540780544281006,-8.65214729309082,-3.9311084747314453
1789324742398442200,15.502442138671874,7.146463871002197,-9.607481956481934,-4.237689018249512
1789324742417291800,15.521291748046876,6.8518476486206055,-9.37059211730957,-3.9717864990234375
1789324742436141000,15.54014111328125,6.296413898468018,-8.140083312988281,-3.82582426071167
1789324742454990000,15.558989990234375,5.089832782745361,-7.450352191925049,-4.1991047859191895
1789324742473839400,15.57783935546875,4.797908306121826,-7.270890712738037,-4.551148891448975
1789324742492688600,15.596688720703124,5.379663467407227,-7.613363265991211,-4.768895626068115
1789324742511538000,15.615537841796876,6.392126560211182,-8.796015739440918,-5.089832782745361
1789324742530387200,15.63438720703125,7.368996620178223,-9.770194053649902,-6.356234073638916
1789324742549236500,15.653236572265625,7.668398380279541,-10.639387130737305,-7.2182488441467285
1789324742568085800,15.672085693359374,6.775277137756348,-10.402497291564941,-6.799205780029297
1789324742586935000,15.69093505859375,6.1241302490234375,-8.767302513122559,-6.15045166015625
1789324742605784300,15.709784423828125,5.372485160827637,-6.686742782592773,-5.063511848449707
1789324742624633600,15.728633544921875,6.112166404724121,-5.405984401702881,-5.161617755889893
1789324742643483000,15.74748291015625,6.0834527015686035,-6.49770975112915,-5.571089267730713
1789324742662332200,15.766332275390624,6.449554443359375,-5.640480995178223,-5.528018474578857
1789324742681181400,15.785181396484376,7.115357398986816,-5.4514479637146,-4.6995038986206055
1789324742700030700,15.80403076171875,7.807182312011719,-5.712265968322754,-3.256033420562744
1789324742718880000,15.8228798828125,6.363412857055664,-4.651647090911865,-3.2344980239868164
1789324742737729300,15.841729248046875,5.432305812835693,-3.684647798538208,-2.4681966304779053
1789324742756578600,15.86057861328125,3.952643871307373,-1.8337994813919067,-2.20737886428833
1789324742775427800,15.879427734375,4.709074974060059,-1.2161520719528198,-3.6340994834899902
1789324742794277000,15.898277099609375,6.030810356140137,0.12921242415905,-1.3453645706176758
1789324742813126400,15.91712646484375,5.123332500457764,-1.92951238155365,-0.9122636318206787
1789324742831975700,15.9359755859375,5.266901969909668,-1.1060823202133179,-0.6224330067634583
1789324742850825000,15.954824951171876,3.78753924369812,-2.056631088256836,-0.45972105860710144
1789324742869674200,15.97367431640625,6.3131632804870605,-1.654337763786316,0.04307080805301666
1789324742888523300,15.992523193359375,5.25972318649292,-1.3860424757003784,-1.7117655277252197
1789324742907372500,16.01137255859375,4.369294166564941,-1.5035899877548218,-1.7237296104431152
1789324742926221800,16.030221923828126,5.959025859832764,-1.3716856241226196,-1.8768702745437622
1789324742945071000,16.049071044921874,5.618945598602295,-1.9079769849777222,-1.6423736810684204
1789324742963920400,16.06792041015625,4.534399032592773,-1.3908281326293945,-3.01405930519104
1789324742982769700,16.086769775390625,5.831906795501709,-2.8680970668792725,-3.11246395111084
1789324743001619000,16.105618896484376,5.810371398925781,-4.491328239440918,-4.1297125816345215
1789324743020468200,16.12446826171875,4.60857629776001,-6.602993965148926,-5.4514479637146
1789324743039317500,16.1433173828125,6.3442702293396,-9.61944580078125,-6.866204738616943
1789324743058166800,16.162166748046875,5.884549140930176,-11.235498428344727,-6.49770975112915
1789324743077016000,16.18101611328125,5.50648307800293,-11.266605377197266,-7.7593255043029785
1789324743095865000,16.199864990234374,7.325925827026367,-11.968001365661621,-7.065107822418213
1789324743114714400,16.21871435546875,8.027321815490723,-11.884252548217773,-6.028417587280273
1789324743133563600,16.237563720703125,6.547959327697754,-9.547661781311035,-5.688337802886963
1789324743152413000,16.256412841796877,6.238986015319824,-7.826324462890625,-5.43709135055542
1789324743171262200,16.27526220703125,7.050751209259033,-9.049654960632324,-5.164010524749756
1789324743190111500,16.294111572265624,5.8749775886535645,-9.51176929473877,-4.857728958129883
1789324743208960800,16.312960693359376,6.8997039794921875,-8.348258972167969,-4.66361141204834
1789324743227809800,16.331809814453123,7.771289825439453,-10.668100357055664,-6.303592205047607
1789324743246659000,16.3506591796875,5.769693374633789,-10.476675033569336,-5.18315315246582
1789324743265508400,16.36950830078125,6.145665645599365,-7.764111042022705,-4.275974273681641
1789324743284357600,16.388357666015626,6.531209468841553,-6.892525672912598,-3.8712878227233887
1789324743303207000,16.40720703125,5.855835437774658,-9.200403213500977,-5.980561256408691
1789324743322056200,16.42605615234375,4.093820571899414,-9.442377090454102,-5.2956156730651855
1789324743340905200,16.4449052734375,5.408377170562744,-7.673183917999268,-5.266901969909668
1789324743359754500,16.46375439453125,6.238986015319824,-7.254140853881836,-5.077868938446045
1789324743378603800,16.482603759765624,6.15045166015625,-9.154939651489258,-4.515256404876709
1789324743397453000,16.501453125,6.894918441772461,-10.378270149230957,-5.899205207824707
1789324743416302300,16.52030224609375,7.2182488441467285,-9.825528144836426,-6.909275531768799
1789324743435151600,16.539151611328126,6.524031162261963,-8.53729248046875,-6.2653069496154785
1789324743454001000,16.5580009765625,6.8279194831848145,-7.76889705657959,-5.96381139755249
1789324743472850000,16.576849853515625,7.395317554473877,-7.682755470275879,-6.439982891082764
1789324743491699200,16.59569921875,6.7106709480285645,-7.658827304840088,-6.104988098144531
1789324743510548500,16.614548583984377,5.671587944030762,-6.310770511627197,-4.893621444702148
1789324743529397800,16.633397705078124,5.324329376220703,-4.685146808624268,-3.552743434906006
1789324743557671400,16.66167138671875,5.3940205574035645,-3.459423303604126,-2.142772674560547
1789324743576520700,16.680520751953125,4.572684288024902,-1.438983678817749,-1.9920248985290527
1789324743595370000,16.699369873046876,4.67078971862793,-0.6511468887329102,-1.709372639656067
1789324743614219300,16.71821923828125,7.5652079582214355,-0.7875377535820007,-0.6415755748748779
1789324743633068500,16.737068603515624,5.278865814208984,-2.590529680252075,-0.732502818107605
1789324743651917600,16.75591748046875,3.983750581741333,-1.8888343572616577,-1.6184453964233398
1789324743670766800,16.774766845703127,5.664409637451172,-3.5120654106140137,-0.42382872104644775
1789324743689616100,16.7936162109375,5.370092391967773,-2.441875457763672,-2.4921247959136963
1789324743708465400,16.81246533203125,4.16799783706665,-2.4227328300476074,-1.8912272453308105
1789324743727314700,16.831314697265626,4.572684288024902,-2.2719850540161133,-1.158724308013916
1789324743746163700,16.850163818359373,5.477769374847412,-1.4485549926757812,-0.5602195858955383
1789324743765013000,16.869012939453125,3.3206396102905273,-1.4174482822418213,-1.1108678579330444
1789324743783862300,16.8878623046875,4.72582483291626,-1.4557334184646606,-1.5442678928375244
1789324743802711600,16.906711669921876,7.237390995025635,-0.9864411354064941,-1.3956137895584106
1789324743821560600,16.925560546875,4.829015254974365,-0.8548358678817749,-3.490530014038086
1789324743840409900,16.944409912109375,5.006083965301514,-3.5647075176239014,-5.346164226531982
1789324743859259100,16.963259033203126,8.20229721069336,-8.886942863464355,-6.976274490356445
1789324743878108400,16.9821083984375,5.00369119644165,-13.35434341430664,-8.920442581176758
1789324743906382000,17.010382080078124,6.284449577331543,-15.949358940124512,-10.217950820922852
1789324743934656000,17.038656005859377,8.64496898651123,-12.54736328125,-6.069095611572266
1789324743953505300,17.05750537109375,7.675576686859131,-7.9244303703308105,-5.915955066680908
1789324743972354300,17.076354248046876,6.985845565795898,-6.729813575744629,-5.257330417633057
1789324743991203600,17.09520361328125,7.2661051750183105,-6.820741176605225,-4.405186653137207
1789324744010052900,17.114052978515623,5.458626747131348,-6.859025955200195,-3.4474592208862305
1789324744028902100,17.132902099609375,5.84147834777832,-7.045965194702148,-4.309473514556885
1789324744047751200,17.151751220703126,5.142475128173828,-8.254939079284668,-5.566303730010986
1789324744066600400,17.170600341796874,4.187140464782715,-9.516554832458496,-4.836193561553955
1789324744085449700,17.18944970703125,5.468197822570801,-8.884550094604492,-3.7540395259857178
1789324744104298800,17.208298828125,7.857431411743164,-9.62901782989502,-5.439484119415283
1789324744123148000,17.22714794921875,7.024429798126221,-10.534102439880371,-6.830312252044678
1789324744141997300,17.245997314453124,5.31475830078125,-9.09990406036377,-5.370092391967773
1789324744160846600,17.2648466796875,5.621338367462158,-7.402495861053467,-5.7792649269104
1789324744179695600,17.283695556640627,5.831906795501709,-7.618149280548096,-4.457828521728516
1789324744198545000,17.302544921875,5.886941909790039,-8.391329765319824,-3.9406797885894775
1789324744217394200,17.321394287109374,5.937490463256836,-8.53729248046875,-4.833800792694092
1789324744236243200,17.3402431640625,6.27487850189209,-8.216653823852539,-5.621338367462158
1789324744255092500,17.359092529296873,6.425626277923584,-8.5731840133667,-5.07308292388916
1789324744273941800,17.377941650390625,7.450352191925049,-8.391329765319824,-4.924727916717529
1789324744292790800,17.396790771484376,8.647361755371094,-8.101499557495117,-6.763313293457031
1789324744311640000,17.41564013671875,9.145368576049805,-8.623434066772461,-7.874181270599365
1789324744330489300,17.4344892578125,8.345866203308105,-8.429615020751953,-8.231010437011719
1789324744349338400,17.45333837890625,6.116951942443848,-6.064310073852539,-6.744170665740967
1789324744368187600,17.472187744140626,5.528018474578857,-3.497708559036255,-3.6966118812561035
1789324744387037000,17.491036865234374,6.7657060623168945,-2.9398818016052246,-1.4916257858276367
1789324744405886200,17.50988623046875,3.555136203765869,-1.9824535846710205,-2.8465616703033447
1789324744424735200,17.5287353515625,1.7333009243011475,-0.9984052777290344,-3.169891834259033
1789324744443584500,17.54758447265625,5.250152111053467,-2.4873390197753906,-1.505982756614685
1789324744462433800,17.566433837890624,5.611767292022705,-0.6008976101875305,0.22492532432079315
1789324744481282800,17.58528271484375,5.046761989593506,-0.3975076675415039,1.5586248636245728
1789324744509556700,17.613556640625,4.742574691772461,-3.5479576587677,-1.0079765319824219
1789324744528405800,17.63240576171875,5.595017433166504,-1.537089467048645,0.33050861954689026
1789324744547255000,17.651255126953124,6.880561351776123,-0.8763712644577026,-2.149951219558716
1789324744566104300,17.670104248046876,5.714658737182617,-2.635993242263794,-1.970489501953125
1789324744584953300,17.688953369140624,4.184747695922852,-2.832204818725586,-1.9247267246246338
1789324744603802600,17.707802734375,5.544768333435059,-1.9510477781295776,-1.8337994813919067
1789324744622652000,17.72665185546875,5.707480430603027,-1.8290138244628906,-3.617349624633789
1789324744641501000,17.7455009765625,4.515256404876709,-3.1962127685546875,-2.674278497695923
1789324744660350200,17.76435009765625,5.061119079589844,-3.5407793521881104,-3.16749906539917
1789324744679199500,17.783199462890625,7.6013994216918945,-4.065106391906738,-5.743372440338135
1789324744698048500,17.802048583984377,6.866204738616943,-5.487340450286865,-4.685146808624268
1789324744716897800,17.820897705078124,4.713860511779785,-6.634100914001465,-6.337091445922852
1789324744735747000,17.8397470703125,4.208974838256836,-9.463912963867188,-6.332305908203125
1789324744754596000,17.85859619140625,6.4666032791137695,-10.883454322814941,-6.708278179168701
1789324744782870000,17.8868701171875,5.762515068054199,-12.104691505432129,-7.079464912414551
1789324744801719000,17.905718994140624,6.93320369720459,-11.0775728225708,-5.456233978271484
1789324744820568300,17.924568359375,9.547661781311035,-10.677672386169434,-5.927918910980225
1789324744839417300,17.943417236328123,7.795217990875244,-11.661720275878906,-5.566303730010986
1789324744858266600,17.9622666015625,6.964310169219971,-10.83559799194336,-6.480959892272949
1789324744877116000,17.981115966796875,6.87816858291626,-9.538089752197266,-5.508875846862793
1789324744895965000,17.99996484375,6.612565517425537,-8.027321815490723,-4.4961137771606445
1789324744914814200,18.018814208984374,5.537590026855469,-7.673183917999268,-4.46979284286499
1789324744933663500,18.03766357421875,5.906383514404297,-7.65164852142334,-4.271188259124756
1789324744952512500,18.056512451171876,5.638088226318359,-8.525327682495117,-3.5958142280578613
1789324744971361800,18.07536181640625,5.413163185119629,-8.839086532592773,-4.491328239440918
1789324744990210800,18.0942109375,5.346164226531982,-8.920442581176758,-5.204688549041748
1789324745009060000,18.11306005859375,5.528018474578857,-9.62901782989502,-6.188736438751221
1789324745027909000,18.1319091796875,5.745765209197998,-10.337592124938965,-6.085845470428467
1789324745046758400,18.15075830078125,5.49930477142334,-9.068798065185547,-6.555137634277344
1789324745065607700,18.169607666015626,4.800301551818848,-7.52931547164917,-5.700301647186279
1789324745084456700,18.188456787109374,5.743372440338135,-5.197509765625,-4.876871585845947
1789324745103306000,18.207305908203125,5.094618320465088,-5.07308292388916,-3.990929126739502
1789324745122155000,18.226155029296876,6.502495765686035,-5.652445316314697,-4.280759811401367
1789324745141004300,18.24500439453125,8.817551612854004,-4.900799751281738,-4.668396949768066
1789324745159853300,18.263853271484376,12.698410987854004,-6.849454879760742,-6.250949859619141
1789324745178702600,18.28270263671875,11.958430290222168,-10.99143123626709,-10.435997009277344
1789324745197551900,18.3015517578125,7.855038642883301,-10.70399284362793,-9.320343017578125
1789324745216401000,18.32040087890625,7.428816795349121,-6.471388816833496,-6.042774677276611
1789324745235250200,18.339250244140626,8.451150894165039,-4.953442096710205,-5.384449005126953
1789324745254099200,18.35809912109375,5.4658050537109375,-3.2919256687164307,-4.201497554779053
1789324745272948500,18.376948486328125,3.452244758605957,-2.6264219284057617,-3.866502285003662
1789324745291797500,18.395797607421876,2.4155545234680176,-2.228914260864258,-1.8816559314727783
1789324745310646800,18.414646728515624,1.2783654928207397,-1.3645070791244507,0.1818545162677765
1789324745329496000,18.43349609375,2.7029922008514404,-0.06939185410737991,5.283651351928711
1789324745348345000,18.452344970703123,2.8920252323150635,-1.2472587823867798,2.1164517402648926
1789324745367194400,18.4711943359375,3.318246841430664,-0.5817549824714661,1.3932210206985474
1789324745386043400,18.49004345703125,3.2895328998565674,-1.5945172309875488,0.9601200819015503
1789324745404892700,18.508892578125,4.872086048126221,-1.434198021888733,-1.0462616682052612
1789324745423741700,18.52774169921875,4.316651821136475,-1.0414760112762451,-1.3142578601837158
1789324745442591000,18.546591064453125,6.579065799713135,-0.8210372924804688,-1.970489501953125
1789324745461440000,18.56543994140625,7.72104024887085,-1.2903295755386353,-2.698206663131714
1789324745480289300,18.584289306640624,4.661218643188477,-1.505982756614685,-3.4642090797424316
1789324745499138300,18.60313818359375,5.389235019683838,-1.8888343572616577,-4.970191955566406
1789324745517987600,18.621987548828123,5.678766250610352,-6.3514485359191895,-7.0770721435546875
1789324745536836600,18.640836669921875,6.540780544281006,-9.260522842407227,-6.030810356140137
1789324745555686000,18.659685791015626,7.790432453155518,-9.274879455566406,-6.5527448654174805
1789324745574535000,18.678534912109374,9.035298347473145,-9.229117393493652,-9.008976936340332
1789324745593384200,18.69738427734375,5.776872158050537,-10.119845390319824,-8.185546875
1789324745612233200,18.716233154296877,5.415555953979492,-8.731410026550293,-6.607779502868652
1789324745631082500,18.73508251953125,6.689135551452637,-9.741479873657227,-5.140082359313965
1789324745649931500,18.753931640625,8.067999839782715,-10.620244026184082,-4.986941337585449
1789324745668780800,18.77278076171875,6.133701801300049,-9.298808097839355,-5.269294738769531
1789324745687629800,18.7916298828125,5.923133373260498,-7.677969455718994,-4.685146808624268
1789324745706479000,18.81047900390625,7.718647480010986,-7.967501163482666,-5.089832782745361
1789324745734752800,18.838752685546876,4.809872627258301,-9.547661781311035,-5.041976451873779
1789324745753602000,18.85760205078125,5.755336761474609,-9.150154113769531,-4.735395908355713
1789324745772451000,18.876451171875,7.246962547302246,-10.000204086303711,-4.5391845703125
1789324745791300400,18.89530029296875,6.21984338760376,-10.363913536071777,-4.572684288024902
1789324745810149400,18.9141494140625,5.140082359313965,-7.850253105163574,-2.9374887943267822
1789324745828998700,18.93299853515625,6.7345991134643555,-6.535995006561279,-4.5583271980285645
1789324745847847700,18.95184765625,5.556732177734375,-7.6013994216918945,-5.2166523933410645
1789324745876121300,18.980121337890626,5.626124382019043,-10.153345108032227,-5.453841209411621
1789324745894970600,18.998970703125,5.657230854034424,-8.494221687316895,-5.187938690185547
1789324745913819600,19.017819580078125,5.872584819793701,-7.785646915435791,-4.666004180908203
1789324745932669000,19.0366689453125,5.6548380851745605,-8.597112655639648,-3.9885363578796387
1789324745951518000,19.05551806640625,6.114559173583984,-9.004191398620605,-4.953442096710205
1789324745970367200,19.0743671875,6.705885410308838,-7.756932735443115,-6.1002020835876465
1789324745989216300,19.09321630859375,7.531708240509033,-6.705885410308838,-6.006882190704346
1789324746008065500,19.1120654296875,8.956335067749023,-6.957131862640381,-6.758527755737305
1789324746026914600,19.13091455078125,8.43440055847168,-7.1488566398620605,-7.034001350402832
1789324746045763600,19.149763671875,7.251748085021973,-6.272485256195068,-6.416054725646973
1789324746064612900,19.16861279296875,5.961418628692627,-5.434698581695557,-4.658825874328613
1789324746083462000,19.1874619140625,5.370092391967773,-3.6125640869140625,-2.9159533977508545
1789324746102311200,19.206311279296877,5.683551788330078,-3.1004998683929443,-2.066202402114868
1789324746121160200,19.22516015625,6.832705020904541,-2.99013090133667,-1.8768702745437622
1789324746140009500,19.244009521484376,5.362913608551025,-2.1092731952667236,-2.839383125305176
1789324746158858500,19.2628583984375,5.863013744354248,0.031106693670153618,-2.001596212387085
1789324746177707800,19.281707763671875,4.960620403289795,-2.4993033409118652,-0.857228696346283
1789324746196556800,19.300556884765626,4.050749778747559,-1.0606186389923096,0.11006984114646912
1789324746215405800,19.31940576171875,5.180759906768799,-0.579362154006958,-1.4605190753936768
1789324746234255000,19.338255126953126,5.269294738769531,-2.30069899559021,-0.6894320249557495
1789324746253104000,19.357104248046873,4.9893341064453125,-2.056631088256836,-0.6631109714508057
1789324746271953400,19.375953369140625,3.617349624633789,-1.8864415884017944,-0.7947162389755249
1789324746290802400,19.394802490234376,5.504090309143066,-1.4796617031097412,-1.6304094791412354
1789324746309651500,19.4136513671875,5.877370834350586,-1.781157374382019,-1.0271191596984863
1789324746328500700,19.432500732421875,3.974179267883301,-2.2121646404266357,-1.6064813137054443
1789324746347349800,19.451349853515627,4.919942378997803,-2.2337000370025635,-3.1244282722473145
1789324746375623400,19.47962353515625,5.633302688598633,-3.9622151851654053,-3.476173162460327
1789324746394472700,19.49847265625,5.077868938446045,-4.874478816986084,-4.929513931274414
1789324746413321700,19.51732177734375,6.5527448654174805,-7.89332389831543,-5.975775241851807
1789324746432171000,19.5361708984375,6.928418159484863,-10.222736358642578,-7.1799635887146
1789324746451020000,19.55502001953125,4.6540398597717285,-12.092727661132812,-8.379365921020508
1789324746469869000,19.573869140625,4.632504463195801,-12.286545753479004,-7.912466049194336
1789324746498143000,19.60214306640625,9.186046600341797,-10.902597427368164,-5.578267574310303
1789324746516992000,19.620991943359375,7.634898662567139,-10.443175315856934,-6.21266508102417
1789324746535841000,19.639841064453126,6.918846607208252,-9.837491989135742,-6.420840263366699
1789324746554690300,19.658690185546874,7.65164852142334,-10.28734302520752,-5.8944196701049805
1789324746573539300,19.677539306640625,6.502495765686035,-10.354341506958008,-4.845765113830566
1789324746592388600,19.696388671875,6.341877460479736,-9.810872077941895,-5.020441055297852
1789324746611237600,19.715237548828124,7.285247802734375,-8.506185531616211,-6.365805625915527
1789324746630086700,19.734086669921876,5.676373481750488,-7.9627156257629395,-5.3748779296875
1789324746648936000,19.75293603515625,6.28205680847168,-7.007380962371826,-5.290830135345459
1789324746667785000,19.771784912109375,5.604588985443115,-6.954739093780518,-4.153641223907471
1789324746686634000,19.790634033203126,5.199902534484863,-8.063214302062988,-4.534399032592773
1789324746705483300,19.809483154296874,4.386044025421143,-8.774480819702148,-4.433900356292725
1789324746733757000,19.8377568359375,5.137689113616943,-9.337093353271484,-3.6221351623535156
1789324746752606000,19.85660595703125,6.116951942443848,-11.65693473815918,-3.75643253326416
1789324746771455000,19.875455078125,6.952346324920654,-11.704791069030762,-5.360520839691162
1789324746790304300,19.89430419921875,7.562815189361572,-10.25623607635498,-6.492924213409424
1789324746809153300,19.9131533203125,7.878966808319092,-8.503792762756348,-6.485745906829834
1789324746828002600,19.93200244140625,7.538887023925781,-7.6636128425598145,-7.189534664154053
1789324746846851600,19.9508515625,6.736992359161377,-6.957131862640381,-6.6484575271606445
1789324746865700600,19.96970068359375,6.004489421844482,-5.508875846862793,-5.611767292022705
1789324746884550000,19.9885498046875,5.480162143707275,-4.474578380584717,-4.5200419425964355
1789324746903399000,20.00739892578125,6.926024913787842,-4.299902439117432,-4.163212299346924
1789324746922248000,20.026248046875,6.439982891082764,-3.8473596572875977,-4.115355968475342
1789324746941097200,20.04509716796875,6.646064758300781,-2.4155545234680176,-2.142772674560547
1789324746959946200,20.0639462890625,7.680362701416016,-1.7644076347351074,-0.6320042610168457
1789324746978795300,20.082795166015625,8.063214302062988,-2.3054845333099365,-3.569493293762207
1789324746997644500,20.10164453125,5.266901969909668,-3.277568817138672,-3.2823543548583984
1789324747016493600,20.12049365234375,5.544768333435059,-1.0247262716293335,-2.5761725902557373
1789324747035342600,20.139342529296876,5.595017433166504,-2.8776683807373047,-1.9390836954116821
1789324747054191900,20.15819189453125,5.865406513214111,-2.8274190425872803,-0.9170492887496948
1789324747073041000,20.177041015625,5.712265968322754,-1.9824535846710205,-1.350150227546692
1789324747091890000,20.195889892578126,5.396413326263428,-1.4222339391708374,-0.9433703422546387
1789324747110739200,20.2147392578125,3.492922782897949,-1.8337994813919067,-2.0997018814086914
1789324747129588200,20.233588134765625,3.2656047344207764,-2.1379871368408203,0.2560320198535919
1789324747148437200,20.252437255859373,4.225724697113037,-1.8744773864746094,-0.5961119532585144
1789324747167286500,20.27128662109375,3.0332016944885254,-1.6567305326461792,-0.9720842242240906
1789324747186135600,20.290135498046876,4.694717884063721,-1.378864049911499,-1.3884353637695312
1789324747204984600,20.308984619140624,5.8821563720703125,-1.9007984399795532,-1.2616157531738281
1789324747233258200,20.33725830078125,4.998905658721924,-3.6655051708221436,-3.6966118812561035
1789324747252107500,20.356107421875,5.477769374847412,-5.386841773986816,-5.530411243438721
1789324747270956500,20.37495654296875,4.450650215148926,-8.872586250305176,-6.844669342041016
1789324747289805600,20.3938056640625,5.156831741333008,-11.178071022033691,-7.536494255065918
1789324747308654800,20.41265478515625,6.5288166999816895,-13.138689994812012,-8.393722534179688
1789324747327504000,20.43150390625,7.881359577178955,-15.834504127502441,-8.865407943725586
1789324747346353000,20.450352783203126,8.453543663024902,-13.629517555236816,-7.649255752563477
1789324747365202000,20.469201904296874,9.075976371765137,-9.990633010864258,-6.28205680847168
1789324747384051200,20.48805126953125,7.89332389831543,-9.159725189208984,-5.590231895446777
1789324747402900200,20.506900146484377,6.784848690032959,-8.221439361572266,-5.731408596038818
1789324747421749200,20.525749267578124,6.035595893859863,-8.19511890411377,-5.556732177734375
1789324747440598300,20.544598388671876,6.662814617156982,-8.915657043457031,-5.702694416046143
1789324747459447600,20.563447509765624,5.899205207824707,-9.676874160766602,-5.628517150878906
1789324747478296600,20.582296630859375,6.1935224533081055,-8.738588333129883,-4.6372904777526855
1789324747497145600,20.6011455078125,5.860620975494385,-7.167999267578125,-4.1129631996154785
1789324747515995000,20.619994873046874,5.269294738769531,-6.653243541717529,-3.952643871307373
1789324747534844000,20.638843994140625,5.298008441925049,-8.029714584350586,-4.888835906982422
1789324747553693000,20.65769287109375,4.884049892425537,-9.21715259552002,-4.742574691772461
1789324747572542000,20.6765419921875,5.635695457458496,-8.640183448791504,-4.591826438903809
1789324747591391200,20.69539111328125,5.5136613845825195,-8.091927528381348,-4.977370262145996
1789324747610240300,20.714240234375,5.97098970413208,-7.689933776855469,-5.288437366485596
1789324747629089300,20.73308935546875,7.285247802734375,-7.902894973754883,-6.0762739181518555
1789324747647938600,20.7519384765625,8.12542724609375,-8.707481384277344,-6.598208427429199
1789324747666787600,20.77078759765625,7.883752346038818,-8.913264274597168,-7.45274543762207
1789324747685636600,20.78963671875,7.1488566398620605,-8.30997371673584,-7.074679374694824
1789324747704485600,20.808485595703125,7.110571384429932,-7.668398380279541,-6.449554443359375
1789324747742184000,20.846183837890624,5.4658050537109375,-5.911169052124023,-5.389235019683838
1789324747761033000,20.865032958984376,4.163212299346924,-3.9885363578796387,-4.350151538848877
1789324747779882000,20.883882080078124,5.997310638427734,-3.270390272140503,-1.9414764642715454
1789324747798731000,20.90273095703125,6.502495765686035,-2.729313373565674,-1.6878372430801392
1789324747817580300,20.921580322265626,5.810371398925781,-4.117748737335205,-1.158724308013916
1789324747836429300,20.94042919921875,5.774479389190674,-2.913560628890991,-2.17627215385437
1789324747855278300,20.9592783203125,5.831906795501709,-4.266402721405029,-3.4067811965942383
1789324747874127400,20.97812744140625,5.609374523162842,-2.1547367572784424,-2.7987051010131836
1789324747892976600,20.9969765625,4.9893341064453125,-3.122035264968872,0.8548358678817749
1789324747911825700,21.01582568359375,5.748157978057861,-0.524327278137207,-1.3334003686904907
1789324747930674700,21.0346748046875,3.8784663677215576,-0.5386841893196106,-0.04307080805301666
1789324747949523700,21.053523681640623,3.8306100368499756,-0.21296121180057526,-0.15074782073497772
1789324747968372700,21.072372802734375,3.897608995437622,-0.15553347766399384,-0.27756741642951965
1789324747987222000,21.091221923828126,3.054737091064453,-1.1778669357299805,-1.4940186738967896
1789324748006071000,21.110071044921874,4.711467742919922,-1.2735798358917236,-0.8330013751983643
1789324748024920000,21.128920166015625,5.276473045349121,-0.9002995491027832,-1.072582721710205
1789324748043769300,21.147769287109377,9.037691116333008,-0.7253243923187256,-2.355733871459961
1789324748062618400,21.166618408203124,8.846264839172363,-1.3046865463256836,-6.097809314727783
1789324748081467400,21.18546728515625,7.642077445983887,-4.098606109619141,-7.093822002410889
1789324748100316400,21.20431640625,7.105785846710205,-7.323532581329346,-9.52612590789795
1789324748119165400,21.22316552734375,4.340580463409424,-15.310176849365234,-9.875777244567871
1789324748138014500,21.242014404296874,5.791228771209717,-16.648662567138672,-8.577970504760742
1789324748156863700,21.26086376953125,5.470590591430664,-13.18415355682373,-5.298008441925049
1789324748175712800,21.279712646484374,5.585446357727051,-7.8454670906066895,-1.6112669706344604
1789324748194561800,21.298561767578125,7.692326545715332,-4.936692237854004,-3.239283561706543
1789324748213410800,21.317410888671876,8.09671401977539,-5.116153717041016,-5.281258583068848
1789324748232259800,21.336259765625,7.167999267578125,-6.365805625915527,-6.957131862640381
1789324748251109000,21.355109130859375,5.774479389190674,-7.2349982261657715,-7.76889705657959
1789324748269958100,21.373958251953123,5.8343000411987305,-8.247760772705078,-6.768098831176758
1789324748288807200,21.39280712890625,4.014857292175293,-10.026525497436523,-4.78594446182251
1789324748307656200,21.41165625,4.395615100860596,-10.450353622436523,-3.2895328998565674
1789324748326505200,21.430505126953125,5.8749775886535645,-11.132607460021973,-4.196712017059326
1789324748345354500,21.4493544921875,7.275676250457764,-11.400603294372559,-6.047560214996338
1789324748364203500,21.46820361328125,6.672386169433594,-9.71515941619873,-5.305186748504639
1789324748383052500,21.487052490234376,6.066702842712402,-7.201498985290527,-5.461019515991211
1789324748401901600,21.505901611328124,5.935097694396973,-7.325925827026367,-5.2166523933410645
1789324748420750600,21.52475048828125,5.815157413482666,-8.154440879821777,-4.754538536071777
1789324748439599600,21.543599609375,5.8821563720703125,-9.724730491638184,-4.704289436340332
1789324748458448600,21.56244873046875,6.2892351150512695,-9.344271659851074,-6.0523457527160645
1789324748477298000,21.5812978515625,6.665207386016846,-8.889336585998535,-6.73938512802124
1789324748496147000,21.60014697265625,6.971488952636719,-8.647361755371094,-7.022037029266357
1789324748514996000,21.618995849609377,6.55992317199707,-8.915657043457031,-6.727420806884766
1789324748533845000,21.637844970703124,6.461817741394043,-7.4479594230651855,-5.975775241851807
1789324748552694000,21.656694091796876,5.9183478355407715,-7.007380962371826,-5.863013744354248
1789324748571543000,21.67554296875,5.870192050933838,-6.985845565795898,-5.5758748054504395
1789324748590392300,21.694392333984375,6.859025955200195,-6.006882190704346,-5.142475128173828
1789324748609241300,21.713241455078126,6.823133945465088,-6.662814617156982,-5.092225551605225
1789324748628090400,21.73209033203125,6.071488380432129,-6.016453266143799,-3.1411778926849365
1789324748646936300,21.750936279296877,6.097809314727783,-1.5442678928375244,-2.0446670055389404
1789324748665783600,21.769783447265624,6.432804584503174,-2.475374937057495,-1.8481563329696655
1789324748684632600,21.788632568359375,5.896812438964844,-3.2201411724090576,-1.0869396924972534
1789324748703481900,21.80748193359375,4.742574691772461,-0.7588238716125488,-2.1643080711364746
1789324748731755300,21.83575537109375,4.208974838256836,-0.24167509377002716,-3.492922782897949
1789324748750604300,21.854604248046876,4.223331928253174,-1.9007984399795532,-2.20737886428833
1789324748769453600,21.87345361328125,5.587839126586914,-2.307877540588379,0.8353942036628723
1789324748788302600,21.892302490234375,4.872086048126221,-0.4334000051021576,0.1052841991186142
1789324748807151600,21.911151611328126,6.86381196975708,-1.5131611824035645,-0.28983065485954285
1789324748826000600,21.930000732421874,4.187140464782715,-2.1403799057006836,-0.732502818107605
1789324748844849700,21.948849609375,5.614160060882568,-2.1308085918426514,-1.8266209363937378
1789324748863698700,21.96769873046875,6.363412857055664,-2.6240291595458984,-2.355733871459961
1789324748882547700,21.986547607421876,5.286044120788574,-2.6551358699798584,-2.834597587585449
1789324748901396700,22.005396728515624,4.158426761627197,-2.8752756118774414,-2.0279171466827393
1789324748920246000,22.02424609375,6.545566558837891,-3.177070379257202,-2.863311290740967
1789324748939095000,22.043094970703127,6.902096748352051,-3.9023945331573486,-4.036392688751221
1789324748957944000,22.061944091796875,5.556732177734375,-4.014857292175293,-5.463412284851074
1789324748976793000,22.08079296875,3.969393730163574,-5.791228771209717,-5.609374523162842
1789324748995642000,22.09964208984375,4.639683246612549,-7.692326545715332,-6.16480827331543
1789324749014491100,22.1184912109375,6.262914180755615,-9.028120040893555,-6.286842346191406
1789324749033340200,22.137340087890625,5.4179487228393555,-11.568400382995605,-7.048357963562012
1789324749061613800,22.16561376953125,7.778468132019043,-15.372389793395996,-8.54447078704834
1789324749080462800,22.184462890625,8.075178146362305,-12.95205020904541,-7.11775016784668
1789324749099311900,22.203311767578125,7.438388347625732,-9.447162628173828,-6.191129684448242
1789324749118161000,22.222160888671876,7.189534664154053,-9.633803367614746,-6.396912097930908
1789324749137010000,22.241010009765624,6.155237197875977,-9.080761909484863,-6.464210510253906
1789324749155859000,22.25985888671875,6.08823823928833,-8.594719886779785,-5.518447399139404
1789324749174708000,22.2787080078125,7.807182312011719,-7.819146156311035,-5.372485160827637
1789324749193557000,22.297556884765626,6.420840263366699,-7.847859859466553,-4.706682205200195
1789324749212406000,22.316406005859374,6.057131290435791,-7.081857681274414,-5.618945598602295
1789324749231255300,22.33525537109375,4.790729999542236,-6.049952983856201,-4.967798709869385
1789324749250104300,22.354104248046873,3.8210387229919434,-6.1073808670043945,-5.238187789916992
1789324749268953300,22.372953369140625,3.864109516143799,-7.46710205078125,-5.556732177734375
1789324749287802400,22.39180224609375,4.359723091125488,-9.17886734008789,-4.479363918304443
1789324749306651400,22.4106513671875,6.0762739181518555,-10.476675033569336,-4.881657123565674
1789324749325500400,22.42950048828125,6.066702842712402,-10.837990760803223,-5.56869649887085
1789324749344349400,22.448349365234375,6.2413787841796875,-10.29452133178711,-6.231807708740234
1789324749363198500,22.467198486328126,6.509674072265625,-8.980263710021973,-6.0762739181518555
1789324749382047500,22.486047607421874,6.411269187927246,-7.445566654205322,-6.085845470428467
1789324749400896500,22.504896484375,6.308377742767334,-6.231807708740234,-5.707480430603027
1789324749419745500,22.52374560546875,6.971488952636719,-5.899205207824707,-5.748157978057861
1789324749438594600,22.542594482421876,6.916453838348389,-6.215057849884033,-6.4304118156433105
1789324749457443600,22.561443603515624,7.022037029266357,-6.602993965148926,-5.144867897033691
1789324749476292600,22.580292724609375,7.694719314575195,-6.404090881347656,-5.238187789916992
1789324749495141600,22.5991416015625,6.689135551452637,-6.921239376068115,-5.326722145080566
1789324749513990700,22.61799072265625,7.905287742614746,-6.023632049560547,-3.7540395259857178
1789324749532839700,22.636839599609374,6.483353137969971,-3.287140130996704,-4.141676902770996
1789324749551688700,22.655688720703125,5.1305108070373535,-2.4849462509155273,-4.7931227684021
1789324749570537700,22.674537841796877,4.876871585845947,-2.621636390686035,-2.6383860111236572
1789324749589386800,22.69338671875,5.405984401702881,-0.4381856322288513,-1.4796617031097412
1789324749608235800,22.71223583984375,2.5689942836761475,-1.745265007019043,-0.32572299242019653
1789324749627084800,22.731084716796875,6.894918441772461,-0.32572299242019653,-0.18903298676013947
1789324749645933800,22.749933837890627,4.577469825744629,-1.7596219778060913,2.0207388401031494
1789324749664782800,22.768782958984374,3.122035264968872,-0.8787640929222107,-0.9505487680435181
1789324749693056500,22.797056396484376,4.462614059448242,-2.98295259475708,-0.37836506962776184
1789324749711905500,22.815905517578123,5.889334678649902,-2.2671995162963867,-0.20338992774486542
1789324749730754600,22.834754638671875,7.249355316162109,-0.490827739238739,-1.7524434328079224
1789324749749603600,22.853603515625,7.855038642883301,-1.7476578950881958,-3.6966118812561035
1789324749768452600,22.87245263671875,4.275974273681641,-3.514458179473877,-3.5264222621917725
1789324749787301600,22.891301513671873,3.11246395111084,-3.459423303604126,-4.206283092498779
1789324749806150700,22.910150634765625,3.4570305347442627,-6.792026996612549,-6.358626842498779
1789324749824999700,22.928999755859376,6.133701801300049,-7.998608112335205,-6.389733791351318
1789324749843848700,22.9478486328125,5.528018474578857,-6.832705020904541,-5.523232936859131
1789324749862697700,22.96669775390625,7.833503246307373,-8.628219604492188,-7.455138206481934
1789324749881546800,22.985546630859375,8.183154106140137,-13.004692077636719,-7.548458099365234
1789324749900395800,23.004395751953126,7.041179656982422,-14.632708549499512,-8.015357971191406
1789324749919244800,23.023244873046874,6.787241458892822,-14.70210075378418,-7.910073280334473
1789324749938093800,23.04209375,8.187939643859863,-12.43968677520752,-4.069892406463623
1789324749956942800,23.06094287109375,8.980263710021973,-11.915359497070312,-3.73250412940979
1789324749975791900,23.0797919921875,8.515756607055664,-13.72762393951416,-4.271188259124756
1789324749994641000,23.098640869140624,6.1002020835876465,-14.479568481445312,-5.707480430603027
1789324750013490000,23.117489990234375,6.207879066467285,-12.473186492919922,-7.627720355987549
1789324750032339000,23.1363388671875,7.170392036437988,-7.960322856903076,-7.39053201675415
1789324750051188000,23.15518798828125,4.249652862548828,-7.548458099365234,-5.932704448699951
1789324750070037000,23.174037109375,3.05234432220459,-4.536791801452637,-4.264009952545166
1789324750088886000,23.192885986328125,4.1129631996154785,-2.612065076828003,-3.0957143306732178
1789324750107735000,23.211735107421877,1.8768702745437622,-1.0342975854873657,-2.913560628890991
1789324750126584000,23.230583984375,3.0164520740509033,0.23449662327766418,-3.4139597415924072
1789324750145433000,23.24943310546875,6.057131290435791,-0.2225325107574463,-4.737788677215576
1789324750164282000,23.2682822265625,6.574280261993408,-4.541577339172363,-6.471388816833496
1789324750183131100,23.287131103515627,6.9236321449279785,-5.973382472991943,-7.275676250457764
1789324750201980000,23.30597998046875,7.469494819641113,-7.677969455718994,-8.094321250915527
1789324750220829000,23.324828857421874,7.065107822418213,-8.350651741027832,-7.519744396209717
1789324750239678000,23.343677978515625,6.162415504455566,-9.48784065246582,-6.3825554847717285
1789324750258527000,23.36252685546875,4.829015254974365,-11.798110961914062,-6.519245147705078
1789324750277376000,23.3813759765625,5.326722145080566,-8.678468704223633,-5.676373481750488
1789324750296225000,23.40022509765625,5.156831741333008,-5.077868938446045,-6.6149582862854
1789324750315074000,23.419073974609375,5.480162143707275,-3.9646079540252686,-6.476174354553223
1789324750333923000,23.437923095703123,7.907680511474609,-3.4809587001800537,-7.024429798126221
1789324750352772000,23.456772216796875,8.341080665588379,-5.535196781158447,-7.886145114898682
1789324750371621000,23.47562109375,7.299604415893555,-7.462316513061523,-6.669992923736572
1789324750399894500,23.50389453125,5.985346794128418,-7.514958381652832,-5.508875846862793
1789324750418743600,23.52274365234375,5.508875846862793,-5.427519798278809,-4.079463481903076
1789324750437592600,23.541592529296874,5.250152111053467,-3.9239299297332764,-3.7253258228302
1789324750456441600,23.560441650390626,6.042774677276611,-3.7109687328338623,-3.945465326309204
1789324750475290600,23.57929052734375,6.911668300628662,-3.9861433506011963,-3.145963668823242
1789324750494139600,23.5981396484375,5.657230854034424,-2.6407787799835205,-2.8441689014434814
1789324750512988700,23.61698876953125,4.551148891448975,-3.2057840824127197,-2.365305185317993
1789324750531837700,23.635837646484376,4.46979284286499,-4.357329845428467,-2.2815563678741455
1789324750550686700,23.654686767578124,4.127319812774658,-6.602993965148926,-2.535494804382324
1789324750569535700,23.67353564453125,4.488935470581055,-6.408876419067383,-4.223331928253174
1789324750588384800,23.692384765625,6.67717170715332,-7.7832536697387695,-4.646861553192139
1789324750607233800,23.71123388671875,7.086643218994141,-10.153345108032227,-4.888835906982422
1789324750626082600,23.73008251953125,4.9654059410095215,-9.334700584411621,-6.418447494506836
1789324750644931600,23.748931640625,8.934800148010254,-8.168797492980957,-3.8712878227233887
1789324750663780600,23.767780517578124,12.753445625305176,-5.4179487228393555,-2.8058836460113525
1789324750682629600,23.786629638671876,12.97358512878418,-3.452244758605957,-3.9095730781555176
1789324750701478700,23.805478759765624,14.79542064666748,-2.8848466873168945,-3.7444684505462646
1789324750720327700,23.82432763671875,12.789338111877441,-2.4394826889038086,-3.9000017642974854
1789324750739176700,23.8431767578125,16.100406646728516,-1.2616157531738281,-5.403591632843018
1789324750758025700,23.862025634765626,15.518651008605957,-0.8162516355514526,-5.973382472991943
1789324750776874500,23.88087451171875,14.450854301452637,-0.37597227096557617,-7.1871418952941895
1789324750795723500,23.8997236328125,14.134702682495117,0.2153540402650833,-7.730611801147461
1789324750814572500,23.918572509765625,12.611969947814941,-0.8186444640159607,-7.294818878173828
1789324750833421600,23.937421630859376,11.108678817749023,-1.5203397274017334,-6.756134510040283
1789324750852270600,23.9562705078125,12.410972595214844,-2.4155545234680176,-6.1935224533081055
1789324750871119600,23.97511962890625,2.7269206047058105,-2.444268226623535,-4.884049892425537
1789324750889968600,23.99396875,1.0390832424163818,0.7923234105110168,-6.394519329071045
1789324750908817700,24.012817626953126,3.4857444763183594,1.4892330169677734,-7.414460182189941
1789324750927666400,24.03166650390625,6.634100914001465,-1.220937728881836,-5.973382472991943
1789324750946515500,24.050515380859373,7.378567695617676,-3.2823543548583984,-5.226223945617676
1789324750965364500,24.069364501953125,7.666005611419678,-2.042274236679077,-5.796014785766602
1789324750984213500,24.088213623046876,7.251748085021973,0.2946162819862366,-5.8944196701049805
1789324751003062500,24.1070625,8.479864120483398,-0.6966105103492737,-2.3988046646118164
1789324751021911600,24.12591162109375,7.77607536315918,0.43100717663764954,-1.3980066776275635
1789324751040760300,24.14476025390625,9.147761344909668,1.3860424757003784,-0.797109067440033
1789324751059609300,24.163609375,9.808479309082031,1.4820544719696045,0.2560320198535919
1789324751078458400,24.182458251953125,9.973882675170898,0.43579283356666565,0.7229315638542175
1789324751106731800,24.210731689453127,9.128618240356445,0.8018946647644043,-1.7069798707962036
1789324751125580800,24.229580810546874,8.530113220214844,2.1164517402648926,-3.339782238006592
1789324751144429800,24.248429931640626,8.357830047607422,4.0435709953308105,-3.7755749225616455
1789324751163278800,24.26727880859375,7.6636128425598145,4.974977493286133,-2.676671266555786
1789324751182127900,24.2861279296875,11.058429718017578,5.31475830078125,-3.0427730083465576
1789324751200977000,24.304976806640624,11.778968811035156,3.88803768157959,-1.9630118608474731
1789324751219825700,24.32382568359375,12.063714027404785,3.4570305347442627,-0.8620143532752991
1789324751238674700,24.3426748046875,10.99860954284668,2.9470601081848145,-0.15074782073497772
1789324751257523700,24.361523681640627,9.734301567077637,2.355733871459961,-0.09571290761232376
1789324751276372700,24.380372802734374,8.798408508300781,2.0398812294006348,1.0534402132034302
1789324751295221800,24.3992216796875,6.535995006561279,1.347757339477539,1.2089736461639404
1789324751314070500,24.418070556640625,8.503792762756348,4.438685894012451,-4.829015254974365
1789324751332919600,24.43691943359375,8.556434631347656,2.9877381324768066,-1.903191328048706
1789324751351768600,24.4557685546875,7.500601768493652,3.061915636062622,-0.7827520966529846
1789324751370617600,24.47461767578125,7.613363265991211,2.839383125305176,-1.0606186389923096
1789324751389466600,24.493466552734375,9.221938133239746,2.6312077045440674,-0.8811569213867188
1789324751408315400,24.5123154296875,9.926026344299316,2.643171787261963,-1.4318052530288696
1789324751427164400,24.531164306640626,9.207581520080566,2.604886531829834,-2.968595504760742
1789324751446013400,24.550013427734374,9.952347755432129,2.3988046646118164,-1.9968105554580688
1789324751464862500,24.568862548828125,9.389735221862793,2.7987051010131836,-1.1132607460021973
1789324751493136000,24.597135986328126,7.050751209259033,4.285545349121094,-0.08135596662759781
1789324751521409300,24.6254091796875,6.387341022491455,5.362913608551025,1.287936806678772
