time,seconds_elapsed,z,y,x
1789031091608256300,0.02625634765625,1.1858780097961426,-8.711302740478516,2.7109844673156736
1789031091618259200,0.03625927734375,1.1713631622314453,-8.553285430908202,2.4672248107910155
1789031091628263200,0.04626318359375,1.0954968971252441,-8.541613697814942,2.421585341644287
1789031091638267400,0.056267333984375,0.9032125762939452,-8.725368675231934,2.4986487075805663
1789031091648270000,0.06627001953125,0.7237970893859863,-8.860341793823242,2.560748313140869
1789031091658274000,0.076274169921875,0.7043442008972167,-8.742576999664307,2.657264567565918
1789031091668277200,0.08627734375,0.7215525253295898,-8.464101419067383,2.6913819412231446
1789031091678281200,0.09628125,0.722749626159668,-8.230966032409668,2.709338453674316
1789031091688285200,0.10628515625,0.9961375282287597,-8.279598253631592,2.5643396156311034
1789031091698288000,0.1162880859375,1.4992191520690916,-8.798990376281738,2.3177368446350095
1789031091708292400,0.126292236328125,2.299630694580078,-9.801861596679688,2.119018106842041
1789031091718296300,0.13629638671875,3.2713772933959957,-11.634622967529296,2.1727380065917967
1789031091728299300,0.14629931640625,3.33886385269165,-14.12204885482788,2.49640414352417
1789031091738303200,0.15630322265625,2.3772926109313963,-16.26845064315796,2.567781280517578
1789031091748306200,0.16630615234375,1.181688156890869,-17.055993351745606,2.5616461387634275
1789031091758310400,0.176310302734375,0.29358897857666016,-16.458191124725342,3.1196447631835937
1789031091768314000,0.186314208984375,0.11148001480102539,-14.714613765716551,3.732261112976074
1789031091778317600,0.196317626953125,0.6937199310302734,-12.550405102539061,3.902847981262207
1789031091788321500,0.206321533203125,1.9837457130432128,-10.417321060943603,3.9830537368774412
1789031091798325500,0.216325439453125,2.96207636642456,-8.534580730438233,4.6453497711181635
1789031091808328400,0.226328369140625,2.0400094520568848,-7.411550514221191,4.444835382080078
1789031091818332400,0.23633251953125,1.1789946800231932,-6.873304053497314,4.094533751678466
1789031091828336400,0.24633642578125,1.4425065002441406,-6.548740090942382,4.917989485168457
1789031091838339300,0.25633935546875,1.1984475685119629,-7.050624613952636,4.9729064857482905
1789031091848343300,0.26634326171875,1.0571896705627442,-8.051849820709228,4.107252947998047
1789031091858346500,0.276346435546875,0.5840355674743652,-8.918550821685791,3.0225299583435055
1789031091868350500,0.2863505859375,0.7332242584228515,-8.750956705474852,2.8272528854370114
1789031091878354400,0.2963544921875,0.8289923248291016,-8.086865019989013,3.006369097137451
1789031091888357400,0.306357421875,0.6941688438415526,-7.506720030212402,3.2459389007568356
1789031091898361300,0.316361328125,0.527322915649414,-7.640496047973633,3.8988077659606932
1789031091908365600,0.326365478515625,0.03666121292114258,-8.048857068634033,4.773289922332763
1789031091918368300,0.3363681640625,0.10863690032958984,-7.743596356964111,4.506336437225341
1789031091928372500,0.34637255859375,0.7010521736145019,-6.847117472839355,3.8347628715515136
1789031091938376400,0.35637646484375,1.887828009033203,-5.782745197296142,4.224419191741943
1789031091948379400,0.36637939453125,3.0946552833557126,-5.017199216461181,5.226093311309814
1789031091958383400,0.37638330078125,3.268085266113281,-4.8689083511352536,5.378125116729736
1789031091968387300,0.38638720703125,2.3406313980102538,-5.609315214538574,4.488978475189208
1789031091978390500,0.396390625,1.2318167541503906,-7.171831072998047,4.173841681671142
1789031091988394500,0.40639453125,-0.2109890213012695,-8.749759604644774,4.537461058807373
1789031091998398500,0.4163984375,-0.8267477607727051,-9.42926396331787,4.316147042846679
1789031092008401400,0.4264013671875,-0.5084685775756835,-9.368062183380127,4.248061933135986
1789031092018405400,0.4364052734375,-0.3597287994384765,-8.895805905914306,4.168305090332031
1789031092028409600,0.44640966796875,-0.5345055206298828,-8.055740398406982,3.846584242248535
1789031092038412300,0.456412353515625,-0.7866448829650878,-7.254879943084716,4.0906431739807125
1789031092048416300,0.466416259765625,-1.0194809944152832,-7.152827097320556,4.342183985900879
1789031092058420500,0.47642041015625,-1.2179004570007324,-8.015487882995606,3.769969789123535
1789031092068423400,0.48642333984375,-1.2464812393188476,-9.138069186401367,3.1316157714843746
1789031092078427600,0.496427734375,-1.4573206230163573,-9.557653027343749,3.222146521759033
1789031092088430300,0.506430419921875,-1.6929998489379883,-9.13552534713745,3.719541916656494
1789031092098434600,0.5164345703125,-1.84503165435791,-8.35112502822876,4.031237045288086
1789031092108438500,0.5264384765625,-1.8088193542480469,-8.093748349761963,4.478054930114745
1789031092118442500,0.5364423828125,-1.6632219657897949,-8.373121755981446,4.847061260986328
1789031092128445400,0.546445556640625,-1.4571709854125976,-8.965387391662597,5.1228433647155756
1789031092138449400,0.556449462890625,-1.5068506698608397,-9.631125090789794,5.294477696228027
1789031092148452600,0.56645263671875,-1.779340746307373,-9.622895022583007,5.174019425201416
1789031092158456300,0.576456298828125,-1.9188029930114745,-8.916755170440673,4.82027612991333
1789031092168460300,0.586460205078125,-1.6638205162048338,-8.05708713684082,4.868459438323974
1789031092178464500,0.596464599609375,-1.3447931449890136,-7.350947284698486,5.059097745513916
1789031092188467500,0.606467529296875,-1.2764087600708007,-7.0567597557067865,5.074211143493652
1789031092198471400,0.616471435546875,-1.352873575592041,-7.11227530670166,4.669142150115967
1789031092208475400,0.626475341796875,-1.4074913009643555,-7.593958753204345,4.199728987121582
1789031092218478300,0.636478271484375,-1.441608674621582,-8.39526812133789,4.20092608795166
1789031092228482600,0.646482666015625,-1.727566135406494,-9.09781667098999,4.116829754638672
1789031092238486500,0.656486572265625,-2.4453777206420897,-9.26406404876709,3.089567604827881
1789031092248489500,0.666489501953125,-2.1595698974609374,-8.851513175201415,2.682702960205078
1789031092258493400,0.676493408203125,-1.2176011817932129,-8.556128545379638,3.633500294494629
1789031092268497400,0.686497314453125,-1.4716858329772948,-8.213458432769775,3.8462849670410155
1789031092278500400,0.696500244140625,-1.69180274810791,-7.8429557258605955,3.7370495162963864
1789031092288504300,0.70650439453125,-2.2266075439453124,-8.222287051391602,4.408623081970215
1789031092298508300,0.71650830078125,-3.8186020103454585,-9.172036922454833,5.546467420959472
1789031092308511500,0.726511474609375,-5.2916345817565915,-10.252570059204102,5.9862523384094235
1789031092318515500,0.736515380859375,-5.815066919708252,-11.196334426116943,4.698022207641602
1789031092328519400,0.74651953125,-4.783166004180908,-11.340435438537597,3.831321206665039
1789031092338522400,0.7565224609375,-3.8524201087951657,-11.014973650360107,4.172046030426025
1789031092348526600,0.766526611328125,-3.881000891113281,-10.148871199798583,4.02255806427002
1789031092358530600,0.776530517578125,-3.7659295738220213,-8.986486293792725,3.9248447090148924
1789031092368533200,0.786533203125,-3.0980969482421874,-8.09464617538452,3.974823668670654
1789031092378537500,0.796537353515625,-2.6135703872680662,-7.710825721740722,3.9715316413879393
1789031092388541400,0.80654150390625,-2.627187409210205,-7.7976155319213865,4.001608799743652
1789031092398545400,0.81654541015625,-2.8757354690551757,-7.971644065093994,3.8049849884033202
1789031092408548400,0.82654833984375,-3.0832828254699707,-8.212710244750976,3.7768531188964842
1789031092418552300,0.83655224609375,-3.0400375579833985,-8.678532105255126,4.007444666290283
1789031092428556500,0.846556640625,-3.0080151107788082,-9.19971987915039,4.419845902252197
1789031092438559500,0.8565595703125,-3.28798706741333,-9.721805478668212,4.8226703315734865
1789031092448563500,0.8665634765625,-3.6106057411193846,-10.03005894241333,5.249586415100097
1789031092458567400,0.8765673828125,-3.806780639648437,-10.026916552734374,5.315726235961914
1789031092468570400,0.8865703125,-3.9453450607299803,-9.763554370117188,5.208436074066162
1789031092478574600,0.89657470703125,-3.954024041748047,-9.262567672729492,4.966322431182861
1789031092488578300,0.906578369140625,-3.74123936920166,-8.665812908935546,4.496460355377197
1789031092498581500,0.91658154296875,-3.505560143280029,-8.167669326019286,4.133738803863525
1789031092508585500,0.92658544921875,-3.308786694335937,-7.896376350402831,3.845237503814697
1789031092518589400,0.93658935546875,-3.155857063293457,-7.587823611450195,3.5776854682922363
1789031092528593700,0.94659375,-3.051110740661621,-7.368305246734619,3.407248237609863
1789031092538596400,0.956596435546875,-3.1850363960266113,-7.240514733123779,3.012204963684082
1789031092548600300,0.966600341796875,-3.3539772506713863,-7.323114690399169,2.56014976272583
1789031092558604500,0.9766044921875,-3.3174656753540037,-7.409305950164795,2.1538836685180662
1789031092568607200,0.986607177734375,-3.0021792442321775,-7.427861013031006,2.0986673927307127
1789031092578611500,0.996611572265625,-2.73896669921875,-7.471405555725097,2.1734861946105957
1789031092588615400,1.006615478515625,-2.861370259094238,-7.465420051574706,2.124704335784912
1789031092598619400,1.016619384765625,-3.1938650146484373,-7.376684952545165,2.079364141845703
1789031092608622600,1.02662255859375,-3.4356793823242184,-7.123947039794921,2.082656169128418
1789031092618626300,1.036626220703125,-3.656843760681152,-6.913556568908691,2.2281039199829102
1789031092628630300,1.04663037109375,-4.015225821685791,-7.003788043975829,2.5089737022399903
1789031092638633500,1.056633544921875,-4.580107775878906,-7.391050162506103,2.8567314933776853
1789031092648637400,1.066637451171875,-5.345504119110107,-7.861959701538085,3.1458313438415524
1789031092658641400,1.076641357421875,-5.82913285446167,-8.327781562042237,3.1829414695739744
1789031092668645400,1.086645263671875,-6.210259831237793,-8.619724526977539,3.3686417358398435
1789031092678648600,1.096648681640625,-6.564302401733398,-8.705915786743164,3.541473168182373
1789031092688652500,1.106652587890625,-6.601711802673339,-8.72731396408081,3.4205659843444822
1789031092698656300,1.11665625,-6.338199982452392,-8.812158485412597,3.221099058532715
1789031092708660500,1.126660400390625,-6.292859788513184,-8.827271883392333,3.136853087615967
1789031092718663400,1.136663330078125,-6.405387266540527,-8.882937071990966,3.0743045692443847
1789031092728667400,1.14666748046875,-6.375010832977295,-9.020154754638671,2.6479870361328124
1789031092738671600,1.156671630859375,-5.966799449920654,-9.096469932556152,1.650353131866455
1789031092748674300,1.16667431640625,-5.8259904647827145,-8.91929900970459,0.8421604339599609
1789031092758678500,1.176678466796875,-6.139331607055664,-8.661473418426514,0.47420156631469723
1789031092768682500,1.1866826171875,-6.139930157470703,-8.711452378082274,0.34820670394897457
1789031092778686200,1.196686279296875,-5.804293012237548,-8.90044467163086,0.4121019607543945
1789031092788689400,1.206689453125,-5.578489868164062,-8.92498523864746,0.5539584091186524
1789031092798693400,1.216693359375,-5.506514180755615,-8.808118270111084,0.7291840431213379
1789031092808697300,1.226697265625,-5.188683910369873,-8.684667247009276,1.1635820068359375
1789031092818700300,1.2367001953125,-4.6450504959106445,-8.609549169921875,1.673247685241699
1789031092828704300,1.246704345703125,-4.212448183441162,-8.656385739898681,2.1142297035217283
1789031092838708500,1.25670849609375,-3.9552211425781247,-8.827720796203613,2.4741081405639647
1789031092848712200,1.266712158203125,-3.854066122436523,-9.115473908233643,2.9863176582336424
1789031092858715400,1.27671533203125,-3.7562031295776364,-9.395745140075682,3.53054962310791
1789031092868719400,1.28671923828125,-3.5986347328186032,-9.350704221343994,3.722534668731689
1789031092878723300,1.296723388671875,-3.750067987823486,-8.955062397003173,3.79226579208374
1789031092888727600,1.3067275390625,-3.969137439727783,-8.385392039489746,4.058770364379883
1789031092898730200,1.316730224609375,-3.995772933197021,-7.843404638671874,4.0328830589294435
1789031092908734200,1.326734130859375,-3.6668694801330566,-7.409305950164795,3.605368424987793
1789031092918738400,1.336738525390625,-3.343053705596924,-6.9618895149230955,1.9141642272949217
1789031092928742400,1.346742431640625,-2.7889456588745114,-6.597372312164306,0.09831190567016601
1789031092938745300,1.356745361328125,-1.7702128524780272,-6.612186434936523,0.011821370697021483
1789031092948749300,1.366749267578125,-1.6090531532287597,-7.095515895080566,0.5193921226501464
1789031092958753300,1.376753173828125,-1.6162357582092284,-7.9661074737548825,0.8807669357299804
1789031092968757500,1.386757568359375,-1.4384662849426268,-8.824728044128417,1.0185831687927245
1789031092978760200,1.39676025390625,-1.4923358222961425,-9.368810371398926,1.4347253448486328
1789031092988764200,1.40676416015625,-1.9247884971618652,-9.586233809661865,2.230049208831787
1789031092998768400,1.416768310546875,-2.5981577140808105,-9.578751929473876,3.21765739364624
1789031093008771300,1.426771240234375,-3.0877719535827635,-9.510966094970703,3.5146880371093747
1789031093018775300,1.436775390625,-3.0023288818359375,-9.258976370239257,3.4065000495910644
1789031093028779300,1.446779296875,-2.944269491577148,-9.153481859588622,3.7792473205566406
1789031093038783200,1.456783203125,-3.322254078674316,-9.57635772781372,3.871274446868896
1789031093048786400,1.466786376953125,-3.785382462310791,-10.551695629119873,3.7550060287475584
1789031093058790100,1.4767900390625,-4.269609748077392,-11.608735662078857,2.609979084777832
1789031093068794400,1.48679443359375,-4.399195912933349,-11.984625322723389,0.7297825935363769
1789031093078798300,1.49679833984375,-3.4913445709228514,-11.569680247497558,0.4041711677551269
1789031093088801300,1.50680126953125,-2.305765836334228,-10.983549753570555,1.0808324119567871
1789031093098805500,1.516805419921875,-2.964171292877197,-10.285789607238769,0.9871592720031738
1789031093108809200,1.526809326171875,-3.1817443687438964,-9.467720827484131,1.5286977600097655
1789031093118813200,1.536813232421875,-2.43235924911499,-8.811859210205078,2.0916344253540036
1789031093128817400,1.5468173828125,-2.126649624633789,-8.347833000946045,2.3837270278930665
1789031093138820400,1.5568203125,-2.2182278381347653,-8.012195855712891,2.258779628753662
1789031093148824300,1.56682421875,-2.358587910461426,-7.6382514839172355,1.8276736923217773
1789031093158828300,1.576828369140625,-2.277035416412353,-7.521384515380859,1.2982558502197266
1789031093168832300,1.586832275390625,-2.0760721145629883,-7.818714434051513,1.035492218017578
1789031093178835500,1.59683544921875,-1.5925930168151854,-8.281842817687988,1.1091139190673827
1789031093188839200,1.606839111328125,-0.9286509689331054,-8.908525102233886,1.5206173294067382
1789031093198843100,1.616843017578125,-0.5711667335510253,-9.711031571197509,2.1185691940307616
1789031093208847400,1.626847412109375,-0.7212532501220703,-10.395174695587158,2.81543151473999
1789031093218850300,1.636850341796875,-1.089810668182373,-10.882095458221436,3.430741341400146
1789031093228854500,1.6468544921875,-1.4106336906433106,-11.02529864501953,3.872471547698974
1789031093238858200,1.656858154296875,-1.7362451164245605,-10.912172616577148,3.6674680305480956
1789031093248862200,1.6668623046875,-2.235885075378418,-10.37497361907959,3.132812872314453
1789031093258865400,1.676865478515625,-2.637961316680908,-9.528324057006836,2.7090391784667966
1789031093268869400,1.686869384765625,-2.868253588867187,-8.769811043548584,2.3804350006103516
1789031093278873000,1.696873046875,-2.9343934097290036,-8.378658347320556,1.8543091857910154
1789031093288877300,1.706877197265625,-2.6301801612854003,-8.489689449310303,0.8583212951660156
1789031093298880300,1.71688037109375,-2.161066273498535,-9.220369868469238,-0.2838625343322754
1789031093308884500,1.726884521484375,-1.7007810043334959,-10.409390267944335,-0.9864110839843749
1789031093318888400,1.736888427734375,-1.3804068946838377,-11.487678840637207,-1.096843635559082
1789031093328892200,1.74689208984375,-1.213560966491699,-11.82331598587036,-0.6094739601135254
1789031093338896400,1.756896484375,-1.3233949676513672,-11.10221237335205,0.06494272003173827
1789031093348899300,1.7668994140625,-2.000954037475586,-9.976488680267334,0.471807364654541
1789031093358903300,1.7769033203125,-2.624344294738769,-8.86812294921875,1.1700164237976074
1789031093368907300,1.7869072265625,-2.5631425148010254,-8.177096495056151,2.1630115623474118
1789031093378911200,1.7969111328125,-2.2463597076416013,-8.122179494476319,2.9695582466125487
1789031093388914400,1.80691455078125,-1.903091044616699,-8.559570210266113,3.2788591735839843
1789031093398918400,1.81691845703125,-1.5529390518188475,-9.064597122955321,3.33257907333374
1789031093408922000,1.826922119140625,-1.2463316017150878,-9.385420145416258,3.3138743728637694
1789031093418926300,1.83692626953125,-1.0519523544311522,-9.537152675628661,3.131915046691894
1789031093428930300,1.846930419921875,-0.9234136528015137,-9.63396820526123,2.890699229431152
1789031093438933200,1.856933349609375,-0.6872855140686035,-9.829095640563965,2.6506805130004882
1789031093448937500,1.8669375,-0.3929483474731445,-10.11924295425415,2.539649411010742
1789031093458941200,1.876941162109375,0.1954267105102539,-10.312125825500488,2.3995886138916016
1789031093468945200,1.886945068359375,0.9597755905151366,-10.269030195617676,2.1357775184631347
1789031093478948400,1.8969482421875,1.3257891693115234,-9.91558617553711,1.8896236602783203
1789031093488952300,1.906952392578125,1.1490671592712403,-9.317634310913085,1.739686781311035
1789031093498956300,1.916956298828125,0.607827946472168,-8.686163623046875,1.7696143020629882
1789031093508960300,1.926960205078125,0.05955576629638672,-8.321047869873047,1.732055263519287
1789031093518963500,1.93696337890625,-0.24630349578857422,-8.404994565582275,1.6394295867919921
1789031093528967400,1.946967529296875,-0.1767220100402832,-8.820238916015624,1.8104653678894043
1789031093538971400,1.956971435546875,-0.0948702407836914,-9.515155947875977,1.854758098602295
1789031093548975000,1.96697509765625,-0.31917700881958005,-10.295665689086913,1.6472107421875
1789031093558979300,1.976979248046875,-0.625036270904541,-10.76388175125122,1.7105074485778808
1789031093568982300,1.986982177734375,-0.6498761131286621,-10.893767191314696,2.1273978126525876
1789031093578986500,1.996986572265625,-0.6042366439819336,-10.845284607696533,2.4733599525451657
1789031093588990200,2.006990234375,-0.7650970680236816,-10.639233627319335,2.4999954460144043
1789031093598994200,2.016994140625,-1.0531494552612304,-10.21456210784912,2.3594857360839843
1789031093608998400,2.026998291015625,-1.0736498069763183,-9.639205521392821,2.3657705154418944
1789031093619001300,2.03700146484375,-0.9127893829345702,-9.249998114013671,2.3946505729675294
1789031093629005300,2.04700537109375,-0.919971987915039,-9.026289896392822,2.283020920562744
1789031093639009300,2.05700927734375,-0.8836100502014159,-8.846425496673584,2.309955689239502
1789031093649013200,2.06701318359375,-0.7938274879455566,-8.763675901794434,2.433855625152588
1789031093659017200,2.077017333984375,-0.8180687797546387,-8.678232830047607,2.5567080978393553
1789031093669020400,2.0870205078125,-0.7827543052673339,-8.525303199005126,2.757372124481201
1789031093679024000,2.097024169921875,-0.7261912910461426,-8.451232585144043,2.8386253433227537
1789031093689028400,2.1070283203125,-0.7854477821350098,-8.335861992645263,2.712181568145752
1789031093699032300,2.1170322265625,-0.5226841499328613,-8.168716789245606,2.3484125534057614
1789031093709035500,2.127035400390625,-0.7285854927062988,-8.39571703414917,1.7507599639892577
1789031093719039200,2.137039306640625,-1.2476783401489258,-9.102455436706542,1.4387655601501463
1789031093729043200,2.147043212890625,-1.1731588134765625,-10.003722724151611,1.5668553489685058
1789031093739047200,2.157047119140625,-0.7945756759643554,-10.449642783355712,1.7999907356262206
1789031093749051400,2.167051513671875,-0.5807435401916503,-10.437073224639892,1.6231190879821777
1789031093759054300,2.177054443359375,-0.680551821899414,-10.379612384796141,1.5216647926330567
1789031093769058300,2.187058349609375,-0.7992144416809082,-10.539574983215331,1.6885107208251953
1789031093779062300,2.197062255859375,-0.5995978782653808,-10.96753852996826,1.6958429634094236
1789031093789066200,2.207066162109375,-0.314089330291748,-11.490521955108642,1.4535796829223633
1789031093799070500,2.217070556640625,-0.49245735397338863,-11.610381675720214,0.9394248764038086
1789031093809073400,2.227073486328125,-0.5943605621337891,-11.234492015075682,0.7528267845153808
1789031093819077400,2.237077392578125,-0.2533364631652832,-10.614244147491455,0.9407716148376464
1789031093829081300,2.247081298828125,-0.10654197387695312,-10.025569814300537,1.050156703186035
1789031093839085300,2.257085205078125,-0.27129297561645505,-9.594613515472412,0.9897031112670898
1789031093849089300,2.26708935546875,-0.5175964714050293,-9.407416873168945,1.157446865081787
1789031093859092200,2.27709228515625,-0.7866448829650878,-9.563788169097899,1.4776713371276855
1789031093869096200,2.28709619140625,-1.0232219345092772,-9.92725790863037,1.9321207397460936
1789031093879100400,2.297100341796875,-1.2370540702819823,-10.111162523651123,2.0979192047119137
1789031093889104400,2.3071044921875,-1.2874819427490234,-9.913491249084473,2.073677912902832
1789031093899108400,2.3171083984375,-1.2204442962646485,-9.698761287689209,2.0397101768493653
1789031093909111300,2.327111328125,-1.234061318206787,-9.318681774139403,1.9551649307250976
1789031093919115300,2.337115234375,-1.2744634712219238,-8.748263228607177,2.019509100341797
1789031093929119200,2.347119140625,-1.1080664558410644,-8.2360537109375,2.150292366027832
1789031093939123500,2.35712353515625,-0.8074445098876952,-7.947702048492431,2.417694763946533
1789031093949127400,2.36712744140625,-0.4616320075988769,-7.974487179565429,2.620304079437256
1789031093959131100,2.377131103515625,0.06808510971069336,-8.45991156616211,2.553266432952881
1789031093969134300,2.38713427734375,0.4375403533935547,-9.375843338775635,2.301725621032715
1789031093979138300,2.39713818359375,0.47270519027709956,-10.659434703826904,1.9003975677490232
1789031093989142500,2.407142578125,0.4026747917175293,-11.684901202392577,1.5429133323669433
1789031093999146500,2.417146484375,0.2690484115600586,-11.915492749786376,1.1445780311584473
1789031094009150200,2.427150146484375,0.117465518951416,-11.563545105743408,0.9784802909851074
1789031094019153400,2.4371533203125,-0.051774610900878905,-10.790517244720458,1.114650510406494
1789031094029157400,2.447157470703125,-0.20530279235839843,-9.777171392059326,1.2122142280578612
1789031094039161300,2.457161376953125,-0.12000935821533203,-9.076867406463622,1.55772745513916
1789031094049165300,2.467165283203125,-0.025139117431640625,-8.79090994567871,1.821538550567627
1789031094059169300,2.477169189453125,0.013018471527099609,-8.984391367340088,2.2767361412048337
1789031094069172500,2.48717236328125,-0.131531453704834,-9.523685291290283,2.516156307220459
1789031094079176400,2.497176513671875,-0.4296095603942871,-9.900622415161132,2.67507144241333
1789031094089180400,2.507180419921875,-0.5503671066284179,-10.112060349273682,2.8221652069091796
1789031094099184400,2.517184326171875,-0.4041711677551269,-10.298957716369628,2.974346649932861
1789031094109188400,2.527188232421875,-0.2916436897277832,-10.34265189666748,3.0686183403015135
1789031094119192300,2.5371923828125,-0.36586394119262694,-10.082132828521727,3.1133599838256836
1789031094129195500,2.547195556640625,-0.47210663986206053,-9.846453602600096,3.05185892868042
1789031094139199200,2.55719921875,-0.5870283195495605,-9.829095640563965,2.963572742462158
1789031094149203200,2.567203125,-0.46686932373046874,-9.93952819213867,2.992452799987793
1789031094159207400,2.57720751953125,-0.3085527389526367,-9.98546693649292,2.637362766265869
1789031094169211400,2.58721142578125,-0.20051438903808594,-9.943119494628906,2.2367829010009763
1789031094179215400,2.59721533203125,-0.2180219886779785,-9.798719207000731,1.9285294372558592
1789031094189218300,2.60721826171875,-0.34237083740234375,-9.73063409729004,1.710357810974121
1789031094199222300,2.61722216796875,-0.49036242752075193,-9.8702459815979,1.5176245773315429
1789031094209226500,2.6272265625,-0.5931634613037109,-9.90900212097168,1.3922282653808593
1789031094219230500,2.63723046875,-0.6759130561828612,-9.759514154815673,1.4095862274169921
1789031094229234400,2.647234375,-0.8866028022766113,-9.661800799560547,1.60246909866333
1789031094239237400,2.6572373046875,-1.1246762298583983,-9.536404487609863,1.7663222747802734
1789031094249241300,2.667241455078125,-1.3316250358581543,-9.647136314392089,2.3331495178222657
1789031094259245300,2.677245361328125,-1.5155296508789062,-9.94102456817627,2.773233710479736
1789031094269249500,2.68724951171875,-1.4826093780517577,-10.08108536529541,3.180098355102539
1789031094279253200,2.697253173828125,-1.4528314949035643,-9.928006096649169,3.216460292816162
1789031094289257200,2.70725732421875,-1.5126865364074706,-9.680655137634277,3.1624411178588865
1789031094299260400,2.717260498046875,-1.595436131286621,-9.571868599700927,3.0373440811157226
1789031094309264400,2.727264404296875,-1.6907552848815917,-9.688585930633545,2.909852842712402
1789031094319268400,2.737268310546875,-1.9003975677490232,-9.878027136993408,2.5917232971191404
1789031094329272300,2.747272216796875,-1.9946692581176757,-9.808445651245117,2.2905028007507324
1789031094339276300,2.7572763671875,-2.005143890380859,-9.604040684509277,2.19623111038208
1789031094349280300,2.7672802734375,-2.0412065528869627,-9.5124624710083,1.9864391899108886
1789031094359283500,2.777283447265625,-2.0694880599975587,-9.576806640625,1.6262614776611328
1789031094369287200,2.787287109375,-1.9744681816101073,-9.805452899169921,1.645115815734863
1789031094379291400,2.79729150390625,-1.643320164489746,-10.046369441223144,2.1232079597473144
1789031094389295400,2.80729541015625,-1.8466776679992676,-9.962722020721435,2.116324629974365
1789031094399299300,2.81729931640625,-2.3446716133117675,-9.55720411453247,2.2198738517761227
1789031094409303600,2.827303466796875,-2.6280852348327635,-9.100360510253905,2.9076082786560056
1789031094419306200,2.83730615234375,-2.9789854156494138,-8.535328918457031,2.8884546653747556
1789031094429310200,2.847310302734375,-3.0639795745849607,-8.131157750701904,2.7971757270812985
1789031094439314400,2.857314453125,-2.7831097923278807,-8.09479581298828,2.9275100799560545
1789031094449318400,2.867318359375,-2.6957214317321774,-8.020425923919678,2.501940734863281
1789031094459322400,2.877322265625,-2.523787825012207,-7.946504947662353,2.5239374626159665
1789031094469326300,2.887326416015625,-2.690933028411865,-7.650970680236816,2.452261050415039
1789031094479329300,2.897329345703125,-3.152415398406982,-7.233930678558349,2.066644945526123
1789031094489333500,2.90733349609375,-3.5146880371093747,-6.88183339691162,1.5237597190856933
1789031094499337500,2.91733740234375,-3.634098844909668,-6.611887159729004,0.8735843307495117
1789031094509341200,2.927341064453125,-3.5998318336486816,-6.723367174530029,0.6126163497924805
1789031094519345400,2.937345458984375,-3.075800945281982,-7.376385677337646,0.3634697395324707
1789031094529349400,2.947349365234375,-1.6825252166748046,-8.450334759521484,-0.034715924072265626
1789031094539352300,2.957352294921875,-0.5301660301208496,-9.441384609222412,-0.12255319747924803
1789031094549356500,2.9673564453125,-1.307533381652832,-9.215282189941405,0.7442974411010742
1789031094559360300,2.9773603515625,-2.5034371109008786,-8.390180442810058,1.3504793739318848
1789031094569364200,2.9873642578125,-3.1203929512023922,-7.504924378967285,1.408987677001953
1789031094579368400,2.997368408203125,-3.10917013092041,-7.011718836975097,2.070834798431396
1789031094589372400,3.007372314453125,-3.5995325584411617,-6.7553896217346185,3.07729732131958
1789031094599376400,3.01737646484375,-4.46264225692749,-6.857741742706298,3.4982279006958006
1789031094609379300,3.02737939453125,-4.830152211761474,-7.857320935821533,3.5983354576110838
1789031094619383300,3.03738330078125,-4.815188451385498,-9.147645993041992,3.9133226135253905
1789031094629387300,3.04738720703125,-3.9917327178955078,-10.109067597198486,4.536263957977295
1789031094639391500,3.0573916015625,-3.822492588043213,-10.726173075103759,4.545840764617919
1789031094649395500,3.0673955078125,-4.467281022644043,-10.241796151733398,4.305672410583496
1789031094659399200,3.077399169921875,-5.494692810058593,-9.6028435836792,4.862174658966064
1789031094669402400,3.08740234375,-7.257723057556152,-10.543465560913086,5.13945313873291
1789031094679406300,3.09740625,-7.454346868896484,-12.838008576965331,4.377498460388184
1789031094689410600,3.10741064453125,-7.001543479919433,-13.842376173400877,3.8627451034545897
1789031094699414300,3.117414306640625,-5.799055696105957,-12.981211763763428,3.4483985786437987
1789031094709418200,3.127418212890625,-5.95018967590332,-11.367819120025635,2.720411636352539
1789031094719422500,3.13742236328125,-6.606350568389892,-9.44198315963745,2.3879168807983397
1789031094729425400,3.14742529296875,-6.265925019836425,-8.356063069152832,2.4506150367736814
1789031094739429000,3.15742919921875,-5.215618679046631,-7.070676052856445,2.3656208778381345
1789031094749433300,3.167433349609375,-4.33470210571289,-6.806864957427978,2.702604761505127
1789031094759437300,3.177437255859375,-3.9751229438781737,-8.124872971343994,2.8431144714355465
1789031094769441300,3.187441162109375,-4.099471792602539,-8.891915328216552,2.5767595367431637
1789031094779445500,3.197445556640625,-4.125059822845459,-8.005013250732421,2.294991928863525
1789031094789450000,3.207449951171875,-3.6070144386291503,-6.253654736328125,1.7733552421569823
1789031094799453000,3.217452880859375,-2.804507969665527,-5.2736780693054195,1.317110188293457
1789031094809457200,3.22745703125,-2.3458687141418455,-5.5446717697143555,1.1782464920043945
1789031094820087000,3.238087158203125,-2.688389189147949,-7.634211268615722,1.4668974296569823
1789031094830090000,3.248090087890625,-3.3077392311096188,-9.498097261047363,1.3902829765319824
1789031094840094200,3.25809423828125,-3.681833240509033,-10.190021540832518,1.235408056640625
1789031094850098000,3.268097900390625,-3.4849101539611813,-9.864559752655028,1.3254898941040039
1789031094860102000,3.278101806640625,-2.851194902038574,-8.865878385162352,1.061080248260498
1789031094870105900,3.28810595703125,-2.7033529495239255,-6.911910555267333,0.8981248977661133
1789031094880110000,3.298110107421875,-3.156006700897217,-5.856217260742187,1.2113164024353027
1789031094890114000,3.308114013671875,-3.834164321136474,-8.694094416046141,1.186775835418701
1789031094900117000,3.318116943359375,-3.7963060073852537,-12.37233635406494,1.2544120323181152
1789031094910121000,3.328120849609375,-3.395726142120361,-12.282404154205322,1.7137994758605957
1789031094920125000,3.338125,-2.909403929901123,-9.925761532592773,2.2560861518859863
1789031094930129200,3.348129150390625,-3.403507297515869,-8.098836028289794,2.4269722953796387
1789031094940133000,3.358133056640625,-5.065232887268066,-7.515548648834228,2.3220763351440428
1789031094950136800,3.36813671875,-5.812822355651855,-8.090306684875488,2.5163059448242184
1789031094960141000,3.37814111328125,-5.519831927490234,-9.711779759216308,2.29199917678833
1789031094970144000,3.38814404296875,-4.635473689270019,-10.353575441741942,1.5773299812316894
1789031094980148000,3.39814794921875,-3.867832781982422,-9.271545928955078,1.2957120109558105
1789031094990152000,3.40815185546875,-3.978564608764648,-8.033294757843016,1.3422493057250975
1789031095000156000,3.418156005859375,-4.59043277053833,-7.241262921142578,1.467645617675781
1789031095010159900,3.428159912109375,-5.048772750854492,-6.580912175750732,1.7443255470275878
1789031095020164000,3.4381640625,-4.942380414581298,-6.600365064239502,1.52585464553833
1789031095030168000,3.44816796875,-4.547935691070556,-8.245630517578125,1.1598410667419432
1789031095040171000,3.4581708984375,-4.304026396942138,-9.809493114471435,0.7751227874755859
1789031095050175000,3.468175048828125,-4.179527910614014,-9.577255553436279,0.5313631309509277
1789031095060179000,3.478178955078125,-4.286518797302246,-8.33227069015503,0.5835866546630859
1789031095070183000,3.488182861328125,-4.388571643066406,-7.209689386749267,0.6411971321105957
1789031095080187100,3.498187255859375,-4.2892122741699215,-6.196642809295654,0.9964368034362793
1789031095090190800,3.50819091796875,-4.3348517433166505,-5.915024839019775,1.2387000839233397
1789031095100194800,3.51819482421875,-4.120421057128906,-7.361721192169189,0.9460089309692382
1789031095110198000,3.528197998046875,-3.818302735137939,-9.043947133636474,0.3043628860473633
1789031095120202000,3.538201904296875,-3.762188633728027,-9.680954412841796,0.10115502014160156
1789031095130206000,3.5482060546875,-4.0815152801513666,-9.810839852905273,-0.014065934753417967
1789031095140210000,3.5582099609375,-4.615122975158691,-9.508272618103026,0.38037878875732417
1789031095150214000,3.5682138671875,-5.141398427581787,-8.49717132949829,1.1445780311584473
1789031095160218000,3.578218017578125,-4.9911622734069825,-8.52290899734497,1.942745009613037
1789031095170222000,3.58822216796875,-4.235941287231445,-9.872789820861815,1.635539009094238
1789031095180224800,3.598224853515625,-3.72193611831665,-10.517428617858886,0.9490016830444336
1789031095190229000,3.60822900390625,-4.142717060089111,-10.027664740753174,0.7984662536621093
1789031095200233000,3.61823291015625,-4.748001167297363,-9.377788627624511,1.0601824226379395
1789031095210237000,3.62823681640625,-4.817582653045654,-8.94383957672119,1.6452654533386228
1789031095220241200,3.6382412109375,-4.311657914733886,-8.710554552459715,1.9515736282348632
1789031095230244900,3.648244873046875,-3.793762168121338,-9.147047442626953,1.7507599639892577
1789031095240248800,3.658248779296875,-3.5453637458801266,-10.029161116790771,1.4221557861328125
1789031095250253000,3.668253173828125,-3.775057467651367,-10.373028330230712,1.3117232345581054
1789031095260256000,3.678256103515625,-4.314501029205322,-9.841964474487304,1.3329717742919922
1789031095270260000,3.688260009765625,-4.688744676208496,-8.685415435028075,1.641374875640869
1789031095280264000,3.698263916015625,-4.709993215942383,-7.830835079956055,1.8285715179443358
1789031095290268000,3.708267822265625,-4.322880735015869,-7.802254297637939,1.753004528045654
1789031095300271900,3.71827197265625,-3.668515493774414,-8.185476200866699,1.4648025032043457
1789031095310276000,3.728276123046875,-3.179948717498779,-8.599224175262451,1.3497311859130858
1789031095320280000,3.738280029296875,-3.1884780609130856,-8.68945565032959,1.3697826248168945
1789031095330283000,3.748282958984375,-3.46007031173706,-8.335113804626465,1.5822680221557617
1789031095340287000,3.758286865234375,-4.080467816925049,-7.951592626190185,2.2162825492858884
1789031095350291000,3.768291015625,-4.499752382659912,-8.047061417388916,2.4984990699768064
1789031095360295200,3.778295166015625,-4.382735776519775,-8.51018980102539,1.9412486335754393
1789031095370299000,3.788298828125,-3.9056910957336424,-9.20016879196167,1.2333131301879883
1789031095380302800,3.798302734375,-3.7683237754821777,-9.844807588958739,1.0262146865844726
1789031095390307000,3.80830712890625,-4.081964192962646,-9.992948816680908,1.0027215827941893
1789031095400311000,3.81831103515625,-3.8889316841125487,-9.522637828063964,1.4972738632202147
1789031095410314000,3.82831396484375,-3.4159272186279295,-9.182661192321778,1.5828665725708007
1789031095420318000,3.83831787109375,-3.2225954345703123,-9.245808261108397,1.096095447540283
1789031095430322000,3.848322021484375,-3.297563874053955,-9.58234323196411,0.41270051116943357
1789031095440326000,3.858325927734375,-3.8926726242065426,-9.843011937713623,0.448164623260498
1789031095450330000,3.868330078125,-4.612878411102295,-9.227402835845947,1.5075988578796387
1789031095460334000,3.878333984375,-4.649838899230957,-8.377012333679199,2.3081600379943845
1789031095470337800,3.888337890625,-4.535665407562256,-7.927351334381103,2.2480057212829587
1789031095480342000,3.898342041015625,-4.403535403442382,-7.943811470794677,1.984194625854492
1789031095490345000,3.908344970703125,-3.9094320358276367,-8.659378491973877,2.526182026672363
1789031095500349000,3.918348876953125,-3.659537237548828,-9.245957898712158,3.195959941101074
1789031095510353200,3.928353271484375,-4.674379466247558,-8.373720306396484,2.487276249694824
1789031095520356900,3.93835693359375,-4.789450783538818,-7.1121256690979,3.4210148971557617
1789031095530360800,3.94836083984375,-4.281131843566894,-6.581510726165771,4.219630788421631
1789031095540365000,3.958364990234375,-3.8335657707214352,-7.193378887939453,3.7581484184265133
1789031095550369000,3.968369140625,-3.74123936920166,-8.53562819366455,1.94723413772583
1789031095560373000,3.978373046875,-3.803787887573242,-9.823858324432372,0.3381809844970703
1789031095570376000,3.9883759765625,-3.99667075881958,-10.218602323150634,0.086191259765625
1789031095580380000,3.9983798828125,-4.726902265167236,-9.829694190979003,0.9778817405700683
1789031095590384000,4.008384033203125,-4.5802574134826655,-9.329306044006348,1.6704045707702635
1789031095600388000,4.01838818359375,-3.4062007743835445,-9.330054232025146,1.6300024177551269
1789031095610392000,4.02839208984375,-2.805256157684326,-9.72973627166748,1.0350433052062988
1789031095620395800,4.038395751953125,-2.2336405113220215,-9.587879823303222,1.1525088241577148
1789031095630400000,4.04839990234375,-2.632873638153076,-8.742726637268065,2.056469588470459
1789031095640404000,4.058404052734375,-5.068225639343261,-7.887547731781005,2.9141923332214352
1789031095650407200,4.0684072265625,-5.486612379455566,-8.481160105895995,3.183240744781494
1789031095660411000,4.078410888671875,-3.9471407119750976,-10.972626208496093,2.3535002319335936
1789031095670414800,4.088414794921875,-2.2417209419250486,-13.021913191986084,1.1773486663818358
1789031095680419000,4.098419189453125,-1.2228384979248046,-12.425308065795898,0.9739911628723144
1789031095690423000,4.108423095703125,-1.8062755149841307,-9.780014506530762,1.5004162528991698
1789031095700427000,4.118427001953125,-3.465606903076172,-7.611167077636718,1.7989432723999021
1789031095710431000,4.128430908203125,-4.777928688049316,-6.479308242797851,2.920776387786865
1789031095720435000,4.13843505859375,-4.762516014862061,-7.117063710021972,3.942950859069824
1789031095730438000,4.14843798828125,-3.284695040130615,-9.203610456848144,2.9869162086486813
1789031095740442000,4.158442138671875,-2.019359462738037,-10.36764137649536,0.8683470146179199
1789031095750446000,4.168446044921875,-2.338536471557617,-10.080337177276611,0.3660135787963867
1789031095760449800,4.17844970703125,-3.203142546081543,-9.363124142456055,0.7398083129882812
1789031095770454000,4.1884541015625,-4.04141240234375,-7.888295919799805,1.1872247482299805
1789031095780457500,4.19845751953125,-4.033780884552002,-6.885125424194335,2.1739351074218747
1789031095790461400,4.20846142578125,-3.3508348609924314,-7.273285368347167,2.4435820693969723
1789031095800465400,4.21846533203125,-2.6556185539245605,-8.58051947479248,1.7548001792907715
1789031095810468400,4.22846826171875,-2.698564546203613,-9.96571477279663,0.8022071937561035
1789031095820472600,4.23847265625,-3.316118936920166,-10.844985332489014,0.3806780639648437
1789031095830476500,4.2484765625,-4.187009790802001,-10.650905360412597,0.5810428153991699
1789031095840480300,4.258480224609375,-4.813093524932861,-9.414150565338135,1.2120645904541014
1789031095850484500,4.268484375,-4.169352553558349,-8.526949212646484,2.163460475158691
1789031095860488400,4.278488525390625,-3.0831331878662107,-8.430732233428955,2.7808652282714843
1789031095870492400,4.288492431640625,-2.412756723022461,-9.003544980621337,3.238307382965088
1789031095880496400,4.298496337890625,-2.7896938468933103,-9.752630825042724,3.2966660484313963
1789031095890500600,4.30850048828125,-3.930680575561523,-9.71073229598999,2.593967861175537
1789031095900503300,4.31850341796875,-4.438999515533447,-8.921543573760985,1.7630302474975585
1789031095910507500,4.328507568359375,-3.276464971923828,-9.380482104492186,2.4042273796081544
1789031095920511500,4.338511474609375,-2.54084651184082,-10.265289255523681,2.5480291168212887
1789031095930515500,4.348515380859375,-3.8093244789123535,-9.805153623962402,1.5044564682006836
1789031095940519400,4.35851953125,-5.00477929534912,-9.10470000076294,1.338807640838623
1789031095950523400,4.3685234375,-4.546888227844238,-9.286659326934814,2.391508183288574
1789031095960527400,4.37852734375,-3.7391444427490232,-9.59012438735962,3.2462381759643555
1789031095970531600,4.388531494140625,-3.0747534820556637,-9.919626390838623,3.2404023094177243
1789031095980534500,4.398534423828125,-3.0157962661743163,-10.43168627090454,3.061286097717285
1789031095990538200,4.408538330078125,-3.6762966491699216,-10.412383020019531,2.8043583320617675
1789031096000542500,4.41854248046875,-4.675277291870117,-9.428964688110351,2.4136545486450194
1789031096010546400,4.42854638671875,-5.2636523498535155,-8.515576754760742,2.3620295753479
1789031096020550400,4.43855029296875,-4.695927281188965,-8.507496324157714,2.7148750450134274
1789031096030554600,4.4485546875,-3.6975451889038085,-9.152135121154785,2.8664579376220702
1789031096040558300,4.458558349609375,-3.4911949333190915,-10.273519323730468,3.4413656112670896
1789031096050562300,4.468562255859375,-4.6627077331542965,-10.124629907989501,2.525134563446045
1789031096060566500,4.47856640625,-5.8092310531616205,-8.42115542678833,2.7156232330322263
1789031096070569500,4.488569580078125,-5.894973400115966,-7.288249128723144,3.666570204925537
1789031096080573400,4.498573486328125,-5.567416685485839,-6.859537393951416,3.7461774101257324
1789031096090577400,4.508577392578125,-4.186560877990723,-7.728183683776855,3.4802713882446286
1789031096100581400,4.518581298828125,-3.5324949119567868,-9.408913249206542,2.7187656227111816
1789031096110585300,4.52858544921875,-4.408473444366455,-10.06148283920288,1.732803451538086
1789031096120589600,4.538589599609375,-5.053860429382324,-9.888651406860351,1.872564973449707
1789031096130593500,4.548593505859375,-5.759551368713378,-8.658181391143799,2.1823148132324217
1789031096140597200,4.55859716796875,-6.6784758934021,-6.370521704864502,2.789244934082031
1789031096150600400,4.568600341796875,-6.399401762390136,-4.625447969818115,3.3714848503112793
1789031096160604400,4.5786044921875,-4.273201050567627,-5.251382066345214,3.4329859054565426
1789031096170608600,4.588608642578125,-2.906710453033447,-7.9183730781555175,2.219724214172363
1789031096180612400,4.5986123046875,-3.1352070739746094,-10.436773949432373,0.8360252922058105
1789031096190616300,4.6086162109375,-3.5965398063659664,-10.531943465423584,0.16759411621093748
1789031096200620300,4.618620361328125,-4.624849419403076,-6.904129399871826,0.39324762268066404
1789031096210624500,4.62862451171875,-5.228188237762451,-1.4885948822021484,1.8650830932617186
1789031096220628500,4.63862841796875,-3.6917093223571773,-0.11806406936645507,4.505139336395263
1789031096230632400,4.648632568359375,-1.284489190673828,-5.8357169090270995,3.299958075714111
1789031096240635400,4.658635498046875,-2.0109797569274903,-13.046753034210205,0.0857423469543457
1789031096250639400,4.668639404296875,-4.069693909454346,-15.57158832244873,-0.5734112976074218
1789031096260643600,4.6786435546875,-5.840954225158691,-11.302427487182616,0.797418790435791
1789031096270647600,4.6886474609375,-6.108955173492431,-3.201646170043945,3.0590415336608885
1789031096280651300,4.6986513671875,-3.658789049530029,-1.233462767791748,4.740519287109374
1789031096290655500,4.708655517578125,-1.3518261123657225,-10.143633883666991,3.0725089179992673
1789031096300659500,4.718659423828125,-4.354603907012939,-18.529624473571776,0.41060558471679687
1789031096310663400,4.728663330078125,-7.507019305419921,-19.29367407836914,-0.3302501914978027
1789031096320667400,4.73866748046875,-6.761824038696289,-9.845406139373779,2.5540146209716794
1789031096330670300,4.74867041015625,-5.361365705108642,-3.515735500335693,4.28412459564209
1789031096340674300,4.75867431640625,-4.220378976440429,-6.378901410675049,3.228580938720703
1789031096350678500,4.768678466796875,-5.3007624755859375,-12.51957975616455,1.067963578033447
1789031096360682500,4.7786826171875,-6.660669018554687,-13.077279105377196,0.7000047103881836
1789031096370686500,4.7886865234375,-6.60799658203125,-9.669432317352294,1.3896844261169432
1789031096380690400,4.7986904296875,-5.755211878204346,-6.96533117980957,1.817049422454834
1789031096390694400,4.8086943359375,-5.048623113250732,-6.125116034698486,2.1493945404052734
1789031096400698400,4.818698486328125,-4.775983399200439,-6.931064168548583,1.7980454467773437
1789031096410702600,4.82870263671875,-4.327669138336181,-8.51063871383667,1.4172177452087402
1789031096420705300,4.838705322265625,-4.163367049407959,-8.951920007324219,1.2479776153564452
1789031096430709200,4.848709228515625,-3.8079777404785156,-7.184849544525146,1.2234370483398436
1789031096440713500,4.85871337890625,-2.7584195877075195,-5.702389804077148,1.294664547729492
1789031096450717400,4.868717529296875,-1.9859902770996092,-5.957821193695068,1.107617543029785
1789031096460721400,4.878721435546875,-1.6768389877319334,-7.248295888519286,1.1745055519104004
1789031096470725600,4.8887255859375,-1.520168416595459,-8.525901749420166,1.4757260482788086
1789031096480729300,4.898729248046875,-1.692401298522949,-8.303390632629394,1.4879963317871092
1789031096490733300,4.9087333984375,-1.9536685546875,-6.846070009613037,1.253963119506836
1789031096500737500,4.918737548828125,-1.8034324005126952,-6.236147136688232,0.9888052856445312
1789031096510741500,4.928741455078125,-1.53857384185791,-7.107337265777588,1.3403040168762206
1789031096520744400,4.938744384765625,-1.6247651016235352,-7.7985133575439445,1.7386393180847166
1789031096530748400,4.94874853515625,-2.0847510955810544,-7.551312036132812,1.8861819953918455
1789031096540752400,4.95875244140625,-2.324320899200439,-7.1875430213928215,1.6422727012634277
1789031096550756400,4.96875634765625,-2.3609821121215817,-7.075464456176757,1.0567407577514647
1789031096560760600,4.978760498046875,-2.2617723808288575,-7.983764710998535,0.49470191802978514
1789031096570764500,4.9887646484375,-1.9850924514770507,-9.917082551574707,0.3598784370422363
1789031096580768300,4.998768310546875,-2.22151986541748,-11.386374182891846,0.06045359191894531
1789031096590772500,5.0087724609375,-3.2044892845153807,-11.489923404693602,-0.30840310134887694
1789031096600776400,5.0187763671875,-4.304475309753418,-10.24703346786499,0.18420389022827147
1789031096610779600,5.028779541015625,-4.530577729034423,-9.588179098510741,1.1953051788330078
1789031096620783400,5.038783447265625,-4.164115237426757,-10.382754774475098,1.458068811035156
1789031096630787300,5.048787353515625,-4.180874649047851,-11.678616423034667,1.2805986129760742
1789031096640791300,5.058791259765625,-4.962431853485107,-12.476334488677978,0.9273042304992676
1789031096650795500,5.06879541015625,-5.754613327789306,-12.37877077102661,1.294065997314453
1789031096660799500,5.078799560546875,-6.177489196014404,-11.930456510162353,1.6932991241455078
1789031096670803500,5.088803466796875,-5.746083984375,-11.714230172729492,1.8987515541076658
1789031096680807400,5.098807373046875,-5.033958628082275,-11.257985118865966,1.878400839996338
1789031096690811400,5.108811279296875,-4.440795166778564,-10.618583638000487,1.560271294403076
1789031096700814600,5.118814697265625,-4.237437663269043,-10.251971508789062,1.0422259101867675
1789031096710818600,5.128818603515625,-4.273350688171386,-10.173411766815185,1.1936591651916504
1789031096720822300,5.138822265625,-4.1115924385070795,-10.140192218780516,1.8561048370361326
1789031096730826500,5.148826416015625,-3.9236476081848144,-9.930101023101805,2.051681185150146
1789031096740830500,5.15883056640625,-3.689464758300781,-9.337087199401855,1.9966145469665526
1789031096750834400,5.16883447265625,-3.527407233428955,-8.478616266632079,1.943493197631836
1789031096760838400,5.17883837890625,-3.3919852020263668,-7.608623238372802,1.8592472267150877
1789031096770842600,5.188842529296875,-3.1413422157287596,-6.95844785003662,1.8423381774902343
1789031096780846000,5.19884619140625,-2.8886043029785156,-6.52464843673706,1.7890671905517577
1789031096790849300,5.208849365234375,-2.6767174560546874,-6.469581798553467,1.5942390304565428
1789031096800853200,5.218853271484375,-2.386570142364502,-6.790704096221924,1.0326491035461425
1789031096810857200,5.228857177734375,-2.4103625213623046,-7.192630699920654,0.49320554199218747
1789031096820861200,5.238861083984375,-3.152415398406982,-7.5905170883178705,0.5309142181396485
1789031096830865200,5.248865234375,-3.876062850189209,-7.721449991607666,0.8566752815246581
1789031096840869000,5.258869140625,-3.7653310234069823,-7.59066672592163,1.4194623092651366
1789031096850873300,5.268873291015625,-3.1624411178588865,-7.3855135711669915,1.564760422515869
1789031096860877300,5.278877197265625,-3.0371944435119627,-7.2541317550659175,1.3320739486694335
1789031096870881000,5.288881103515625,-3.417573232269287,-7.234080316162109,1.2451345008850097
1789031096880884200,5.29888427734375,-3.348590296936035,-7.410652688598632,1.7172411407470702
1789031096890888200,5.30888818359375,-2.3038205474853513,-8.033893308258056,2.1074960113525387
1789031096900892200,5.31889208984375,-1.3111246841430664,-9.217526753997802,1.71739077835083
1789031096910896400,5.328896484375,-1.3850456604003905,-10.73215857925415,1.158793603515625
1789031096920900000,5.338900146484375,-2.554463533782959,-11.505186440277098,1.2589011604309082
1789031096930904000,5.348904052734375,-2.9786861404418943,-10.792761808776854,1.951723265838623
1789031096940908300,5.358908203125,-2.092083338165283,-9.69756418685913,2.4250270065307618
1789031096950912300,5.368912353515625,-1.4149731811523436,-9.6779616607666,2.2225673286437986
1789031096960916200,5.378916259765625,-1.5445593460083007,-10.465504369354248,2.401234627532959
1789031096970919200,5.388919189453125,-2.177825685119629,-11.724704804992674,3.251475492095947
1789031096980923100,5.398923095703125,-2.7850550811767576,-13.157035948181152,3.5767876426696774
1789031096990927000,5.408927001953125,-3.1432875045776365,-13.721768264770507,3.0879215911865234
1789031097000931300,5.418931396484375,-3.4247558372497555,-13.282282622528076,2.014271784210205
1789031097010935000,5.42893505859375,-3.5625720703124997,-11.998691257476805,1.3097779457092285
1789031097020939000,5.43893896484375,-3.6822821533203123,-10.634594861602782,1.1177929000854492
1789031097030943200,5.448943115234375,-3.8883331336975093,-9.873538008880615,1.3217489540100096
1789031097040947200,5.458947265625,-3.778798407745361,-9.272892667388916,1.2298714653015137
1789031097050951200,5.468951171875,-3.0547020431518552,-9.042750032806396,1.291522158050537
1789031097060955400,5.478955322265625,-2.774430811309814,-8.939799361419677,1.5198691413879393
1789031097070958000,5.4889580078125,-3.5139398490905758,-8.048557793426513,1.364246033477783
1789031097080962300,5.49896240234375,-4.028842843627929,-6.919841348266601,1.4522329444885254
1789031097090966300,5.50896630859375,-3.7735610916137694,-6.5505357421875,1.8593968643188477
1789031097100970200,5.51897021484375,-3.2995091629028317,-7.003339131164551,1.628655679321289
1789031097110974000,5.528973876953125,-3.0940567329406736,-7.847893766784668,1.2865841171264647
1789031097120978200,5.538978271484375,-3.3852515098571776,-8.538172032928466,0.8348281913757324
1789031097130982100,5.548982177734375,-3.7174469902038574,-8.73958424758911,0.7404068634033203
1789031097140986000,5.558986083984375,-3.6578912239074706,-8.525003923797607,1.024718310546875
1789031097150990300,5.568990234375,-3.160944741821289,-8.39616594696045,1.2300211029052734
1789031097160993000,5.578992919921875,-2.900276036071777,-8.046013954162596,1.659181750488281
1789031097170997200,5.588997314453125,-3.136853087615967,-7.432799053955078,1.917156979370117
1789031097181001200,5.599001220703125,-3.1018378883361812,-7.5266218315124505,2.1282956382751466
1789031097191005200,5.609005126953125,-2.6497826873779293,-8.4406083152771,1.9381062438964842
1789031097201009200,5.619009033203125,-2.028487356567383,-9.380931017303466,1.2346598686218262
1789031097211013000,5.62901318359375,-1.8598457771301269,-9.794828629302978,1.0185831687927245
1789031097221017000,5.63901708984375,-2.4019828155517575,-9.534908111572266,1.1082160934448242
1789031097231021000,5.64902099609375,-2.8420670082092285,-9.112780431365966,1.4348749824523925
1789031097241025300,5.659025390625,-3.2344168052673337,-8.802282403564453,1.4362217208862305
1789031097251029200,5.669029296875,-3.358616016387939,-9.180117353057861,1.3154641746520996
1789031097261032200,5.6790322265625,-3.2900819938659667,-10.445752205657959,1.1668740341186523
1789031097271036200,5.6890361328125,-3.2576106338500974,-11.961581131744383,0.9822212310791015
1789031097281040100,5.6990400390625,-3.83685779800415,-12.772916219329833,0.673518854522705
1789031097291044400,5.70904443359375,-4.495712167358398,-12.791321644592285,0.6634931350708008
1789031097301048300,5.71904833984375,-5.266046551513671,-11.228955423736572,0.7577648254394531
1789031097311052000,5.729052001953125,-5.516689537811279,-9.239224206542968,0.9904512992858886
1789031097321056000,5.739055908203125,-4.8519993019104,-8.81724616394043,1.525256095123291
1789031097331060200,5.749060302734375,-4.4279263328552245,-10.057741899108887,1.7316063507080077
1789031097341064200,5.759064208984375,-4.357895934295654,-11.944223169708252,1.4246996253967283
1789031097351067400,5.7690673828125,-4.723610237884521,-13.139977261352538,0.5693710823059082
1789031097361071000,5.779071044921875,-6.127809511566162,-11.125705477142333,0.08304887008666992
1789031097371075000,5.789074951171875,-7.135469135284423,-8.150012088775634,1.472134745788574
1789031097381079300,5.799079345703125,-6.810007347106933,-7.274183193969726,2.931101382446289
1789031097391083300,5.809083251953125,-6.017227322387695,-7.772626052093505,3.029263650512695
1789031097401087200,5.819087158203125,-4.649389986419678,-8.921543573760985,2.2349872497558594
1789031097411091200,5.82909130859375,-3.9830537368774412,-9.058013068389892,1.2038345222473144
1789031097421095200,5.83909521484375,-4.555716846466064,-7.279270872497558,0.8725368675231933
1789031097431099100,5.84909912109375,-5.048473475646972,-4.983979668426513,1.8484733192443847
1789031097441102300,5.859102294921875,-4.091989912414551,-3.8717233596801757,2.48353530960083
1789031097451106000,5.86910595703125,-2.4431331565856933,-4.514416867828369,2.7301380805969235
1789031097461110000,5.879110107421875,-2.1059996353149413,-5.888987895965576,2.1068974609374997
1789031097471114200,5.8891142578125,-2.316988656616211,-7.069778227233886,1.3986626823425292
1789031097481118200,5.8991181640625,-2.924517327880859,-6.947973217773437,0.6548141540527344
1789031097491122200,5.9091220703125,-3.5621231575012207,-5.970690027618408,0.9843161575317382
1789031097501126400,5.91912646484375,-2.1856068405151365,-8.186374026489258,1.5614683952331543
1789031097511130000,5.929130126953125,-0.6233902572631835,-11.776928328704834,0.859967308807373
1789031097521134000,5.939134033203125,-0.8062474090576172,-13.288567401885986,-0.16340426330566404
1789031097531138300,5.94913818359375,-3.025073797607422,-9.616011692810059,-0.2059013427734375
1789031097541141200,5.959141357421875,-4.5970168251037595,-2.705148600769043,1.454926421356201
1789031097551145000,5.96914501953125,-2.067243495941162,-2.1345804176330567,2.5266309394836424
1789031097561149200,5.979149169921875,1.2641384765625,-9.762506906890868,1.0178349807739258
1789031097571153200,5.989153076171875,-0.40970775909423823,-15.690400579833984,-0.5909188972473144
1789031097581157000,5.9991572265625,-4.406977068328858,-14.525621472167968,-0.9650129066467285
1789031097591161300,6.009161376953125,-6.038326224517822,-9.445125549316407,0.5104138664245605
1789031097601165300,6.019165283203125,-4.7578772491455075,-6.642712506103515,1.4190133964538574
1789031097611169000,6.0291689453125,-3.47937356262207,-7.2641574745178215,1.4459481651306152
1789031097621173200,6.03917333984375,-2.8591256950378416,-9.782707983398437,0.7134720947265625
1789031097631176200,6.04917626953125,-3.9930794563293457,-11.586888571929931,0.09187748870849609
1789031097641180200,6.05918017578125,-5.62472788772583,-11.558607064819336,0.34820670394897457
1789031097651184000,6.06918408203125,-6.26921704711914,-10.510694925689696,0.7350199096679687
1789031097661188000,6.07918798828125,-5.646874253082275,-9.585485621643066,1.1336544860839843
1789031097671192000,6.089192138671875,-4.4644379081726075,-8.638878140258788,1.1053729789733886
1789031097681196300,6.0991962890625,-3.967790701293945,-7.2909426055908195,0.7797615531921386
1789031097691200300,6.1092001953125,-3.6424785507202144,-7.052420265197753,0.946757118988037
1789031097701204200,6.119204345703125,-3.1459809814453124,-8.179640334320068,1.5192705909729003
1789031097711208200,6.129208251953125,-2.64948341217041,-9.309853155517578,1.3093290328979492
1789031097721211100,6.139211181640625,-2.6508301506042478,-10.012551342773437,0.11207856521606445
1789031097731215400,6.14921533203125,-3.0086136611938477,-9.261669847106933,-0.41374797439575195
1789031097741219300,6.15921923828125,-3.210175513458252,-8.049455619049072,0.25947160491943355
1789031097751223000,6.16922314453125,-2.6976667205810547,-7.524526905059814,1.2936170845031738
1789031097761227000,6.17922705078125,-1.8644845428466796,-7.804199586486816,1.5843629486083983
1789031097771231200,6.189231201171875,-1.3643956710815428,-8.141782020568847,1.2865841171264647
1789031097781235500,6.1992353515625,-1.4245499877929686,-8.154800492095946,1.154304475402832
1789031097791239400,6.209239501953125,-1.5996259841918945,-7.843255001068115,1.070058504486084
1789031097801243600,6.21924365234375,-1.7495628631591795,-8.006659264373779,0.8176198669433593
1789031097811246600,6.22924658203125,-2.1582231590270995,-8.636334300994873,0.37828386230468747
1789031097821250600,6.23925048828125,-2.3684639923095703,-9.390058911132812,0.5312134933471679
1789031097831254500,6.249254638671875,-2.2111948707580567,-9.745747495269775,1.34718734664917
1789031097841258500,6.259258544921875,-2.257881803131103,-10.045920528411864,1.7287632362365721
1789031097851262500,6.269262451171875,-2.7316344566345214,-10.484807620239257,1.1037269653320312
1789031097861266700,6.2792666015625,-3.4120366409301757,-11.202619205474853,0.40925884628295894
1789031097871270700,6.289270751953125,-4.202272826385498,-12.159701319122314,0.31872809600830077
1789031097881274400,6.2992744140625,-5.201552744293212,-12.761394123840331,0.790385823059082
1789031097891278600,6.309278564453125,-5.810577791595459,-12.726079649353027,1.3275848205566405
1789031097901282600,6.319282470703125,-5.837961473083496,-12.124985395050048,1.6418237884521483
1789031097911285800,6.32928564453125,-5.59913985748291,-11.629236013793944,1.6380828483581542
1789031097921289500,6.33928955078125,-5.207538248443603,-11.722011328125,1.2786533241271971
1789031097931293400,6.34929345703125,-4.705803363037109,-11.564442931365965,1.1849801841735839
1789031097941297400,6.35929736328125,-4.283526045227051,-10.653449199676514,1.2137106040954588
1789031097951301600,6.369301513671875,-4.29011009979248,-9.600449382019042,1.3784616058349608
1789031097961305600,6.3793056640625,-4.263324968719482,-9.399635717773437,1.9610007972717285
1789031097971309600,6.3893095703125,-3.3647511581420897,-9.989656789398193,2.3992893386840817
1789031097981313500,6.3993134765625,-2.505831312561035,-10.072855297088623,2.3316531417846678
1789031097991317500,6.4093173828125,-2.3561937088012694,-9.206603208923338,1.8981530036926269
1789031098001320700,6.41932080078125,-2.6318261749267577,-8.117690366363524,1.8770541015625
1789031098011324700,6.42932470703125,-2.7795184898376464,-7.436839269256591,2.265214045715332
1789031098021328400,6.439328369140625,-2.3835773902893065,-7.149385432434082,2.5418939750671385
1789031098031332600,6.44933251953125,-1.4953285743713378,-7.198616204071045,2.6026468421936033
1789031098041336600,6.459336669921875,-0.6751648681640625,-7.604732660675048,2.251148110961914
1789031098051340500,6.469340576171875,-0.42227731781005856,-8.04361975250244,1.9981109230041503
1789031098061344500,6.479344482421875,-0.7085340538024902,-8.084470818328857,1.7690157516479492
1789031098071348700,6.4893486328125,-1.369333712005615,-7.770381488037109,1.3429974937438964
1789031098081352400,6.4993525390625,-2.2149358108520505,-7.243956398010253,1.430685129547119
1789031098091355600,6.509355712890625,-2.34960965423584,-6.785466780090331,2.1335329544067383
1789031098101359600,6.519359619140625,-2.1028572456359864,-7.229740825653076,2.0766706649780273
1789031098111363600,6.529363525390625,-2.242169854736328,-8.464101419067383,1.25770405960083
1789031098121367600,6.539367431640625,-2.7979239151000974,-9.706991355895996,0.7939771255493163
1789031098131371500,6.54937158203125,-3.308188143920898,-10.285639969635008,0.5376479103088379
1789031098141375500,6.55937548828125,-3.1057284660339355,-9.662100074768066,0.85547818069458
1789031098151379700,6.569379638671875,-2.339883209991455,-8.991125059509276,1.2184990074157713
1789031098161383700,6.5793837890625,-1.813757395172119,-9.41594621658325,1.0230722969055175
1789031098171387600,6.5893876953125,-1.515679288482666,-10.346093561553955,0.975487538909912
1789031098181390600,6.599390625,-1.751208876800537,-10.982203015136719,1.0519523544311522
1789031098191394600,6.60939453125,-2.385821954345703,-11.020809516906738,1.304390991973877
1789031098201398500,6.6193984375,-2.910002480316162,-10.538078607177734,1.903689595031738
1789031098211402800,6.62940283203125,-2.7501895195007324,-10.28534069442749,2.4167969383239747
1789031098221406500,6.639406494140625,-1.910872200012207,-10.733056404876708,2.7883471084594724
1789031098231410400,6.649410400390625,-1.1294646331787108,-11.39565171432495,3.0454245117187497
1789031098241414700,6.65941455078125,-1.1436802055358886,-11.49845274810791,3.0713118171691893
1789031098251418600,6.669418701171875,-2.1109376762390135,-10.486603271484375,3.051110740661621
1789031098261422600,6.679422607421875,-3.031208939361572,-9.2580785446167,2.7174188842773437
1789031098271425500,6.689425537109375,-2.606687057495117,-9.042001844787597,2.543390351104736
1789031098281429500,6.699429443359375,-1.8668787445068358,-9.702202952575684,2.371157469177246
1789031098291433500,6.70943359375,-2.076221752166748,-10.102483542633056,2.284367658996582
1789031098301437700,6.719437744140625,-2.845508673095703,-9.662100074768066,1.9933225196838378
1789031098311441700,6.729441650390625,-2.76425545425415,-9.215731102752684,1.8088193542480469
1789031098321445400,6.7394453125,-2.2144868980407715,-8.808267907714843,1.894262425994873
1789031098331449600,6.74944970703125,-1.9096750991821287,-8.522609722137451,2.03043264541626
1789031098341453600,6.75945361328125,-2.058564514923096,-8.441955053710936,1.956810944366455
1789031098351457500,6.76945751953125,-2.3549966079711915,-8.77834038696289,1.7559972801208494
1789031098361460500,6.77946044921875,-3.1516672103881835,-8.782380602264404,1.6780360885620116
1789031098371464400,6.78946435546875,-3.8220436752319333,-8.448389470672607,1.6578350120544432
1789031098381468400,6.799468505859375,-3.7333085762023925,-8.379406535339355,1.679682102203369
1789031098391472600,6.80947265625,-3.3411084167480465,-8.554183256530761,1.6690578323364256
1789031098401476600,6.8194765625,-3.135356711578369,-9.16156229019165,1.6877625328063963
1789031098411480600,6.82948046875,-3.3602620300292965,-9.800963771057129,1.5981296081542968
1789031098421484500,6.839484619140625,-4.0143279960632325,-9.92217023010254,0.9048585899353027
1789031098431488500,6.849488525390625,-4.237587300872803,-9.233537977600097,0.1304839904785156
1789031098441492500,6.859492431640625,-4.107701860809326,-8.706215061950683,0.4352957893371582
1789031098451495700,6.86949560546875,-3.505560143280029,-9.581894319152832,1.4263456390380858
1789031098461499400,6.87949951171875,-3.0916625312805173,-11.220575717926025,1.8652327308654784
1789031098471503600,6.889503662109375,-3.2290298515319824,-12.150423787689208,1.09804073638916
1789031098481507600,6.899507568359375,-4.189703267669677,-11.220874993133544,1.0654197387695312
1789031098491511600,6.909511474609375,-5.4501008041381835,-9.027786272430419,1.609502066040039
1789031098501515500,6.919515625,-5.645527514648437,-7.530362771606445,2.277185054016113
1789031098511519700,6.929519775390625,-4.930708681488037,-7.319673025512695,2.297086855316162
1789031098521523500,6.9395234375,-3.790320503234863,-8.402899639129638,1.988085203552246
1789031098531527400,6.94952734375,-3.3934815780639647,-9.819818109130859,1.1001356628417969
1789031098541530600,6.959530517578125,-4.267814096832275,-9.395745140075682,0.5446808776855468
1789031098551534600,6.96953466796875,-5.581781895446777,-5.802946273803711,0.5798457145690917
1789031098561538600,6.97953857421875,-4.321384358978271,-3.1022868011474607,1.9279308868408203
1789031098571542500,6.98954248046875,-2.3157915557861326,-4.467281022644043,3.8509237327575683
1789031098581546500,6.99954638671875,-3.2906805442810056,-10.695347728729248,3.1892262489318846
1789031098591550500,7.009550537109375,-5.186140071105957,-16.129437309265136,1.4528314949035643
1789031098601554700,7.0195546875,-4.948216281127929,-15.905280178833006,0.8687959274291992
1789031098611558700,7.02955859375,-3.6873698318481445,-11.245565197753905,1.8679262077331542
1789031098621562400,7.039562255859375,-4.282927494812012,-5.213523752593994,2.599055539703369
1789031098631565600,7.049565673828125,-3.539378241729736,-3.182043643951416,2.579901926422119
1789031098641569500,7.059569580078125,-1.4137760803222656,-7.007528984069824,0.8487444885253905
1789031098651573800,7.06957373046875,-0.6079775840759277,-11.004050105285645,-0.2647089210510254
1789031098661577500,7.079577392578125,-1.432031867980957,-10.85351467590332,0.02977788314819336
1789031098671581400,7.08958154296875,-2.1461025131225586,-8.053944747161864,0.8958803337097168
1789031098681585700,7.099585693359375,-2.5495254928588866,-6.5023524337768555,1.258302610015869
1789031098691589600,7.109589599609375,-3.809623754119873,-3.3653497085571287,1.4794669883728027
1789031098701593600,7.119593505859375,-3.277961347961426,-1.5842133110046386,1.0582371337890624
1789031098711596500,7.129596435546875,-1.160738892364502,-3.865139305114746,-0.03681085052490234
1789031098721600500,7.1396005859375,-0.43200376205444335,-8.722375923156738,-0.9536404487609863
1789031098731604500,7.1496044921875,-1.273116732788086,-12.620285863494873,-0.9892541984558105
1789031098741608700,7.159608642578125,-2.2878093238830566,-13.87963593673706,-0.8237550086975097
1789031098751612700,7.16961279296875,-3.563619533538818,-12.39822365951538,-0.03067570877075195
1789031098761616400,7.179616455078125,-4.5230958488464355,-9.216778565979004,1.601271997833252
1789031098771620600,7.18962060546875,-3.6553473846435547,-8.654889363861084,2.6607062324523922
1789031098781625000,7.199625,-2.6960207069396973,-9.865008665466307,2.299630694580078
1789031098791629000,7.209629150390625,-3.3068414054870603,-9.867103591918944,1.69823716506958
1789031098801632300,7.21963232421875,-4.527884252166748,-9.278878171539306,1.446097802734375
1789031098811636000,7.229635986328125,-5.1702784851074215,-8.851513175201415,1.3067851936340331
1789031098821640000,7.239639892578125,-4.5121723037719725,-10.013449168395995,0.754622435760498
1789031098831644200,7.24964404296875,-3.8729204605102536,-12.060641225433349,-0.1236006607055664
1789031098841648000,7.259648193359375,-4.419546627044677,-12.744036161804198,-1.183633445739746
1789031098851652000,7.269652099609375,-4.659415705871582,-13.27225690307617,-1.7308581626892088
1789031098861656000,7.279656005859375,-4.482992971038818,-13.856142832946777,-1.5514426757812498
1789031098871660000,7.289659912109375,-4.803965631103515,-13.300538410186768,-1.0735001693725585
1789031098881663000,7.2996630859375,-5.130175607299805,-11.681908450317382,-0.1785176612854004
1789031098891667200,7.309667236328125,-4.601655590820312,-9.482385312652587,0.45025954971313475
1789031098901671200,7.319671142578125,-3.718344815826416,-7.9372274162292475,1.1739070014953612
1789031098911675000,7.3296748046875,-2.751087345123291,-7.476942147064208,2.460640756225586
1789031098921679000,7.33967919921875,-2.399139701080322,-7.589170349884033,3.688267657470703
1789031098931683000,7.34968310546875,-3.1747114013671873,-7.857320935821533,3.4843116035461423
1789031098941687000,7.35968701171875,-4.221875352478027,-7.908048083496094,2.142062297821045
1789031098951691300,7.369691162109375,-4.950161569976807,-7.602488096618652,0.9528922607421875
1789031098961695000,7.379695068359375,-4.934000708770752,-7.005583695220947,0.6570587181091309
1789031098971698000,7.389697998046875,-4.6627077331542965,-6.564003126525878,0.6670844375610351
1789031098981702100,7.3997021484375,-3.9912838050842283,-6.301987682342529,0.622492431640625
1789031098991706000,7.4097060546875,-3.1893758865356445,-6.114491764831542,0.476895043182373
1789031099001710000,7.4197099609375,-2.724302214050293,-5.833023432159424,0.5117606048583984
1789031099011714000,7.429714111328125,-2.6780641944885253,-5.4698529678344725,0.994641152191162
1789031099021718000,7.439718017578125,-2.7398645248413085,-5.275473720550536,1.8896236602783203
1789031099031722000,7.449721923828125,-2.4756045166015626,-5.427954438781738,2.3279122016906735
1789031099041726200,7.459726318359375,-2.207154655456543,-6.232406196594238,2.3986907882690427
1789031099051729000,7.46972900390625,-3.0961516593933105,-7.682095301818848,1.369333712005615
1789031099061733000,7.479733154296875,-5.002834006500244,-9.865008665466307,0.15861585998535155
1789031099071737000,7.489737060546875,-7.050624613952636,-12.473790649414061,0.031872809600830075
1789031099081741000,7.499740966796875,-7.996783182525634,-14.896124179077148,0.5135562561035156
1789031099091745000,7.5097451171875,-7.365611769866943,-16.499640740966797,-0.011372457885742187
1789031099101749000,7.5197490234375,-5.535992788696289,-17.003919465637207,-0.5315127685546874
1789031099111753000,7.5297529296875,-3.150470109558105,-15.646257486724853,-0.21862053909301757
1789031099121757000,7.5397568359375,-2.020706201171875,-12.673107937622069,1.0899603057861327
1789031099131761200,7.54976123046875,-2.6803087585449217,-9.632022916412353,2.2432173179626465
1789031099141764000,7.55976416015625,-2.6397569679260253,-8.000524122619629,3.395726142120361
1789031099151768000,7.56976806640625,-1.9954174461364744,-8.020126648712157,3.919308117675781
1789031099161772000,7.57977197265625,-1.4431050506591796,-9.113678256988525,3.7490205245971677
1789031099171776000,7.58977587890625,-1.8959084396362305,-9.792733702850342,3.057245882415771
1789031099181780200,7.5997802734375,-2.666841374206543,-9.341725965118407,2.2474071708679197
1789031099191784200,7.6097841796875,-2.740313437652588,-8.240243563842773,1.9838953506469725
1789031099201788000,7.619787841796875,-2.610727272796631,-7.099855385589599,2.043451116943359
1789031099211792000,7.6297919921875,-2.5692776565551756,-6.200234111785888,2.160018810272217
1789031099221795000,7.639795166015625,-2.756623936462402,-5.365405920410156,2.136675344085693
1789031099231799000,7.649799072265625,-3.028515462493896,-4.913500357055664,1.8887258346557616
1789031099241803300,7.65980322265625,-3.2665888900756834,-5.336076950073242,1.3260884445190428
1789031099251807000,7.669806884765625,-3.4017116462707517,-5.935824465942383,0.8011597305297851
1789031099261811000,7.67981103515625,-3.1358056243896484,-6.273257262420654,0.964713631439209
1789031099271815200,7.689815185546875,-2.4123078102111815,-6.873603328704833,1.2424410240173338
1789031099281819100,7.699819091796875,-1.8896236602783203,-8.051550545501708,0.9539397239685058
1789031099291823000,7.709822998046875,-1.7776947326660155,-9.65895768508911,0.3429693878173828
1789031099301827000,7.7198271484375,-2.335244444274902,-11.03816747894287,0.06584054565429687
1789031099311830000,7.729830078125,-3.4310406166076657,-11.854141332244872,0.6162076522827148
1789031099321834000,7.739833984375,-3.6152445068359373,-12.14324118270874,0.9569324760437011
1789031099331838200,7.749838134765625,-2.982576718139648,-12.112266198730469,1.3935750038146972
1789031099341842200,7.75984228515625,-2.300378882598877,-12.343306658935546,1.988085203552246
1789031099351846000,7.769845947265625,-2.4869769744873045,-12.445359504699706,3.292476195526123
1789031099361850000,7.77985009765625,-3.1337106979370115,-12.521973957824706,4.239831864929199
1789031099371854000,7.78985400390625,-3.826532803344726,-12.146233934783934,4.131943152618408
1789031099381858000,7.799858154296875,-4.412364022064208,-11.499500211334228,3.0268694488525387
1789031099391861000,7.809861083984375,-4.162918136596679,-11.294646331787108,2.1040543464660644
1789031099401865000,7.819864990234375,-3.812766143798828,-11.234791290283203,1.605012937927246
1789031099411869000,7.829868896484375,-4.179078997802734,-10.54660795059204,0.7544727981567383
1789031099421873200,7.839873046875,-4.163965599822998,-9.491812481689452,0.802506468963623
1789031099431877000,7.849877197265625,-3.4822166770935055,-8.653991538238525,1.355417414855957
1789031099441881000,7.859881103515625,-3.45393516998291,-8.116792540740967,1.3103764961242674
1789031099451885000,7.869885009765625,-4.529230990600586,-7.472153743743896,0.7532756973266601
1789031099461889000,7.879888916015625,-5.037549930572509,-7.131728195190429,1.006163247680664
1789031099471892200,7.889892333984375,-4.376750272369384,-7.382221543884277,1.9424457344055175
1789031099481896200,7.899896240234375,-3.216310655212402,-8.011597305297851,2.1256021614074707
1789031099491900000,7.90989990234375,-2.6816554969787596,-8.838345066070556,1.8695722213745116
1789031099501904100,7.919904052734375,-3.0672716018676756,-9.408913249206542,1.4586673614501953
1789031099511908000,7.929908203125,-3.2282816635131835,-9.50572877883911,1.1279682571411132
1789031099521912000,7.939912109375,-3.245041075134277,-9.102305799102783,1.0357914932250976
1789031099531916000,7.949916015625,-4.297591979980469,-7.212682138824462,0.3342904067993164
1789031099541920000,7.959919921875,-5.864447328948974,-4.008492129516601,-0.28101941986083984
1789031099551923000,7.9699228515625,-3.8744168365478515,-3.4733880584716794,1.3944728294372557
1789031099561927200,7.97992724609375,-0.7781155395507812,-7.641693148803711,3.4332851806640625
1789031099571931100,7.98993115234375,-0.81073653717041,-14.204199899291991,2.4684219116210935
1789031099581935000,7.99993505859375,-2.659209856414795,-18.32402240600586,0.6926724678039551
1789031099591939000,8.00993896484375,-3.9107787742614746,-16.053720681762695,-0.20231004028320312
1789031099601943000,8.019943115234375,-6.7374331092834465,-7.572111663055419,0.2554313896179199
1789031099611947000,8.029947021484375,-7.524077992248535,-1.1489175216674803,2.5406968742370606
1789031099621951000,8.039950927734376,-3.0564976943969726,-1.5165771141052244,6.188712016296386
1789031099631954000,8.049953857421874,0.17836802368164062,-10.039336473846435,3.981856636047363
1789031099641958000,8.0599580078125,-3.456030096435547,-16.25932274932861,-0.7993640792846679
1789031099651962000,8.069962158203126,-7.503278365325928,-12.810774533081053,0.20560206756591795
1789031099661966000,8.079966064453124,-7.064241635894775,-5.738153191375732,2.3145944549560546
1789031099671970000,8.089969970703125,-3.423109823608398,-2.9637223800659176,2.3980922378540037
1789031099681974300,8.099974365234376,-1.1592425163269042,-4.07343484954834,1.3133692481994628
1789031099691978000,8.10997802734375,-1.6766893501281737,-8.604012578582763,0.5877765075683593
1789031099701982000,8.11998193359375,-1.9587562332153319,-12.584522476196287,0.8271966735839843
1789031099711985200,8.129985107421875,-2.7865514572143555,-12.575843495178223,0.5526116706848144
1789031099721989000,8.139989013671874,-4.045003704833984,-9.086743488311766,1.009455274963379
1789031099731992800,8.149992919921875,-2.291250988769531,-7.099107197570801,1.5973814201354979
1789031099741997000,8.1599970703125,-0.38845921936035155,-7.74419490737915,1.1417349166870117
1789031099752001000,8.1700009765625,-0.2976291938781738,-8.77205560760498,0.47330374069213865
1789031099762005000,8.1800048828125,-1.6002245346069335,-8.840589630126953,0.02124853973388672
1789031099772009200,8.19000927734375,-3.4735376960754394,-7.6744637840270995,0.280271231842041
1789031099782013000,8.200012939453124,-3.6330513816833494,-5.772869115447998,0.8628104232788085
1789031099792016100,8.21001611328125,-2.412158172607422,-3.928136736297607,0.8017582809448242
1789031099802020000,8.22002001953125,-0.9364321243286132,-3.1905729873657225,0.8270470359802246
1789031099812023800,8.23002392578125,0.34177228698730466,-4.685452648925781,1.261444999694824
1789031099822028000,8.240028076171875,0.8337807281494141,-9.235782541656494,1.6668132682800292
1789031099832032000,8.250031982421875,0.0383072265625,-13.512425257110595,0.9789292037963867
1789031099842036000,8.260035888671876,-3.113060708618164,-15.288025063323973,-1.1905167755126953
1789031099852040000,8.2700400390625,-7.481730550384521,-14.951340454864502,-2.6613047828674317
1789031099862044200,8.280044189453125,-8.05723677444458,-13.562254579162596,-1.3340192375183104
1789031099872046800,8.290046875,-5.72618218307495,-11.274295617675781,0.7939771255493163
1789031099882051000,8.300051025390625,-3.914968627166748,-9.721356565856933,1.7363947540283202
1789031099892055000,8.310054931640625,-3.4063504119873045,-9.603741409301758,2.657264567565918
1789031099902059000,8.32005908203125,-3.587411912536621,-10.287884533691406,3.3146225608825683
1789031099912063000,8.33006298828125,-4.235941287231445,-10.819546939849852,2.7410616256713864
1789031099922067000,8.34006689453125,-4.758625437164306,-10.90439146118164,1.76841720123291
1789031099932071000,8.35007080078125,-4.614674062347412,-11.007791045379639,1.4110826034545898
1789031099942075100,8.3600751953125,-4.181024286651611,-11.106402226257323,1.305588092803955
1789031099952077800,8.370077880859375,-3.7716158027648925,-10.696844104766845,1.3705308128356932
1789031099962081800,8.380081787109376,-3.6734535346984862,-9.760112705230712,1.0158896919250489
1789031099972086000,8.3900859375,-3.449894954681396,-8.82996536026001,0.6578069061279297
1789031099982090000,8.400090087890625,-2.920327474975586,-8.24144066467285,0.9543886367797851
1789031099992094000,8.410093994140626,-2.4307132354736325,-7.804498861694335,1.5363292778015136
1789031100002098200,8.42009814453125,-2.014720697021484,-7.180061141204834,1.6738462356567383
1789031100012102000,8.430101806640625,-1.824680940246582,-6.498611493682861,1.5447089836120604
1789031100022105000,8.44010498046875,-2.014720697021484,-6.279093128967284,1.584512586212158
1789031100032109000,8.450109130859374,-2.4136545486450194,-6.568192979431152,1.5182231277465819
1789031100042113000,8.460113037109375,-2.8860604637145992,-7.136666236114501,1.0785878479003905
1789031100052117000,8.470116943359375,-3.4295442405700682,-8.048707431030273,0.9615712417602539
1789031100062121000,8.480120849609374,-4.041562039947509,-9.136572810363768,1.1164461616516113
1789031100072125000,8.490125,-4.30896443786621,-9.773131176757811,1.042525185394287
1789031100082129000,8.50012890625,-4.4011412017822265,-9.95898108062744,1.0811316871643066
1789031100092133000,8.510133056640624,-4.26422279434204,-10.30419503250122,1.5318401496887206
1789031100102135800,8.5201357421875,-3.577236555480957,-11.074529416656494,1.892317137145996
1789031100112140000,8.53014013671875,-2.441936055755615,-11.637316444396973,2.1812673500061033
1789031100122144000,8.54014404296875,-1.6959926010131834,-11.664700125885009,2.233341236114502
1789031100132148000,8.55014794921875,-1.560869844818115,-11.397597003173827,1.7037737564086912
1789031100142152200,8.560152099609375,-1.1985972061157226,-10.817900926208495,1.740434969329834
1789031100152156000,8.570156005859374,-0.5734112976074218,-10.206182402038573,2.273593751525879
1789031100162159900,8.580159912109375,-0.9235632904052734,-10.183886399078368,1.7485153999328613
1789031100172163000,8.5901630859375,-1.7675193756103516,-10.398017810058594,1.107767180633545
1789031100182167000,8.6001669921875,-1.65992993850708,-9.935936889648437,1.568052449798584
1789031100192171000,8.6101708984375,-1.455674609375,-9.51919616317749,1.908178723144531
1789031100202175000,8.620175048828125,-1.684769780731201,-9.565134907531737,1.5955857688903807
1789031100212179000,8.630178955078126,-2.175880396270752,-9.669133042144775,1.250072541809082
1789031100222183000,8.640182861328125,-2.3211785095214843,-9.228599936676025,1.3672387855529784
1789031100232187100,8.650187255859375,-2.0127754081726072,-8.464699969482421,1.7000328163146972
1789031100242191000,8.660191162109374,-2.0976199295043942,-7.827692690277099,1.3027449783325196
1789031100252194000,8.670194091796875,-2.8850130004882812,-7.3457099685668945,0.5403413871765136
1789031100262198000,8.680197998046875,-3.164087131500244,-7.275529932403564,0.6793547210693359
1789031100272202000,8.690201904296876,-2.553266432952881,-8.026112152862549,0.8659528129577636
1789031100282206000,8.7002060546875,-1.914014589691162,-9.478045822143555,0.5451297904968262
1789031100292210000,8.7102099609375,-1.8936638755798338,-10.881496907806396,0.39489363632202146
1789031100302214000,8.7202138671875,-2.507028413391113,-11.455207480621338,0.5626373901367188
1789031100312217900,8.7302177734375,-2.9385832626342774,-11.187505807495116,0.9304466201782225
1789031100322221000,8.740220947265625,-3.3451486320495603,-10.357316381835936,1.316362000274658
1789031100332225000,8.75022509765625,-3.7478234237670898,-9.52518166732788,1.8285715179443358
1789031100342229000,8.76022900390625,-3.3877953491210935,-9.122506875610352,2.346317626953125
1789031100352233000,8.77023291015625,-2.1806687995910643,-9.758167416381836,2.8470050491333008
1789031100362237000,8.78023681640625,-1.3543699516296386,-10.64970825958252,3.1604958290100096
1789031100372241000,8.790240966796874,-1.6825252166748046,-10.940903036499023,2.867655038452148
1789031100382245000,8.8002451171875,-2.618807703399658,-10.351330877685546,1.677736813354492
1789031100392248800,8.810248779296876,-2.8685528640747067,-10.129119036102294,1.1206360145568848
1789031100402252000,8.820251953125,-2.9032687881469723,-10.29820952835083,0.9792284790039062
1789031100412256000,8.830256103515625,-3.1266777305603024,-10.104279193878174,1.004217958831787
1789031100422260000,8.840260009765625,-3.4720413200378415,-9.2963857711792,1.1170447120666502
1789031100432264200,8.85026416015625,-3.1133599838256836,-8.5432597114563,1.2687772422790526
1789031100442268000,8.860267822265625,-2.8734909049987793,-7.926004595947266,1.6395792243957519
1789031100452271900,8.87027197265625,-3.107374479675293,-7.385663208770752,1.6274585784912108
1789031100462276000,8.880276123046874,-2.915090158843994,-7.413944715881347,1.4449007019042968
1789031100472279000,8.890279052734375,-2.495506317901611,-8.736890770721436,1.6811784782409667
1789031100482282800,8.90028271484375,-2.5499744056701656,-10.498574279785156,1.692401298522949
1789031100492287000,8.910286865234376,-3.182043643951416,-11.656470057678222,1.4199112220764158
1789031100502291000,8.920291015625,-4.22666375579834,-10.630105733489989,1.0431237358093262
1789031100512295000,8.930294921875,-4.784063829803467,-8.000973035430908,1.4212579605102538
1789031100522299100,8.940299072265624,-3.8634932914733886,-6.118980892944336,2.3267151008605955
1789031100532303000,8.95030322265625,-1.9921254188537596,-6.470479624176025,3.2640450508117675
1789031100542306000,8.96030615234375,-1.0945990715026854,-9.013720337677002,2.692279766845703
1789031100552310000,8.97031005859375,-1.7612345962524414,-10.70657054901123,0.7728782234191894
1789031100562314000,8.98031396484375,-2.5864859809875487,-10.338910956573486,-0.0032920272827148436
1789031100572318000,8.99031787109375,-3.3961750549316405,-8.866476935577392,0.8601169464111328
1789031100582322000,9.000322021484376,-4.828955110931396,-6.7462617279052735,1.1375450637817381
1789031100592326000,9.010325927734375,-4.351012604522705,-6.49965895690918,2.1351789680480957
1789031100602329900,9.020329833984375,-2.2819734573364254,-10.305242495727539,2.765602192687988
1789031100612333000,9.0303330078125,-1.9624971733093262,-15.15634397201538,1.5601216567993164
1789031100622336800,9.040336669921874,-4.1003696182250975,-15.5014082862854,-0.09561842880249023
1789031100632341000,9.050341064453125,-6.610091508483887,-9.93429087600708,1.0637737251281738
1789031100642345000,9.060344970703126,-6.38443800201416,-5.316324786376953,2.932298483276367
1789031100652349000,9.070348876953124,-3.890577697753906,-4.535665407562256,2.957138325500488
1789031100662353200,9.080353271484375,-2.711433380126953,-4.607491457366943,1.4627075767517088
1789031100672357000,9.090357177734376,-2.335394081878662,-5.270834954833984,1.80672442779541
1789031100682359800,9.10035986328125,-1.8830396057128904,-8.697835356140136,2.184110464477539
1789031100692364000,9.110364013671875,-2.609979084777832,-11.162815602874755,0.6127659873962402
1789031100702368000,9.120367919921875,-4.2031706520080565,-9.114127169799804,0.6922235549926757
1789031100712372000,9.1303720703125,-3.524564118957519,-7.294384270477295,2.129642376708984
1789031100722376000,9.1403759765625,-1.805377689361572,-7.9958853569030754,2.0115783073425293
1789031100732380000,9.1503798828125,-2.447622284698486,-8.168417514038085,1.1373954261779784
1789031100742383900,9.1603837890625,-3.2433950614929197,-8.265233043670653,1.2484265281677245
1789031100752387000,9.170386962890625,-1.798494359588623,-10.646116957092284,1.5831658477783201
1789031100762391000,9.18039111328125,-1.7197849800109861,-12.860454217529297,1.384746385192871
1789031100772395000,9.19039501953125,-5.210082087707519,-11.054328340148926,1.486200680541992
1789031100782397700,9.200397705078124,-5.595398917388915,-8.722974473571776,3.03270531539917
1789031100792401700,9.210401611328125,-3.749319799804687,-8.80332986679077,3.3870471611022945
1789031100802406000,9.220406005859376,-4.73722725982666,-8.411428982543946,2.1992238624572753
1789031100812409900,9.230409912109375,-5.917269403076172,-7.521234877777099,1.7717092285156248
1789031100822412800,9.240412841796875,-4.214094197082519,-8.994117811584472,2.198176399230957
1789031100832416800,9.250416748046876,-3.1286230194091793,-11.340136163330078,1.3709797256469727
1789031100842420700,9.260420654296874,-4.623053768157959,-10.761936462402343,0.11462240447998046
1789031100852425000,9.270425048828125,-6.066458094024658,-9.075071755218506,1.3404536544799803
1789031100862429000,9.280428955078126,-5.77795679397583,-10.984597216796875,3.254617881774902
1789031100872432600,9.2904326171875,-5.347449407958984,-14.643086991119384,2.6226982810974118
1789031100882436900,9.300436767578125,-6.206069978332519,-14.150779274749755,0.7538742477416992
1789031100892439800,9.310439697265625,-5.858012911987305,-10.043975239562988,1.1703156990051269
1789031100902443800,9.32044384765625,-4.509478826904297,-7.100154660797119,2.3555951583862305
1789031100912448000,9.330447998046875,-3.8226422256469723,-5.687575681304931,2.5067291381835934
1789031100922451700,9.34045166015625,-3.425204750061035,-5.143942266845703,1.9876362907409666
1789031100932455700,9.35045556640625,-2.533813544464111,-6.523900248718261,1.981052236175537
1789031100942460000,9.3604599609375,-1.9150620529174804,-9.39813934173584,2.025195329284668
1789031100952464000,9.3704638671875,-1.9470845001220702,-11.247360848999023,-0.13856442108154296
1789031100962466800,9.380466796875,-3.3454479072570797,-9.845855052185058,-2.392106733703613
1789031100972470800,9.390470703125,-3.9996635108947753,-6.781426564788818,-0.22355858001708984
1789031100982474800,9.400474853515625,-2.5483283920288082,-5.848136830139159,1.9632453613281249
1789031100992478700,9.410478759765626,-1.3404536544799803,-6.366331851959228,2.4631845954895017
1789031101002483000,9.42048291015625,-0.845901374053955,-8.221389225769043,1.7266683097839355
1789031101012486700,9.430486572265625,-1.051503441619873,-10.11894367904663,0.4752490295410156
1789031101022490600,9.44049072265625,-2.1794716987609863,-11.056123991394042,-0.6130652626037597
1789031101032493800,9.450493896484375,-3.719093003845215,-11.247660124206542,-0.5166986457824707
1789031101042497800,9.460497802734375,-4.188655804443359,-11.719317851257324,0.8622118728637694
1789031101052502000,9.470501953125,-3.6911107719421383,-12.649614833831786,1.3090297576904295
1789031101062505700,9.480505615234375,-3.989488153839111,-12.588113778686523,0.9591770401000976
1789031101072509700,9.490509765625,-5.003282919311523,-11.189301458740234,1.0492588775634766
1789031101082514000,9.500513916015626,-5.3883004737854,-9.498995086669922,1.477372061920166
1789031101092518000,9.510517822265625,-4.43720386428833,-8.947730154418945,2.188001042175293
1789031101102520800,9.520520751953125,-2.8438626594543455,-11.053430514526367,2.3617303001403807
1789031101112524800,9.53052490234375,-2.8015152175903317,-13.657573732757568,0.8526350662231444
1789031101122528800,9.54052880859375,-4.2211271644592285,-15.045761782836912,-0.22565350646972654
1789031101132532700,9.55053271484375,-5.658246710968017,-15.250914937591553,-0.027533319091796873
1789031101142537000,9.560536865234376,-6.329820276641845,-13.902380852508545,1.1465233200073242
1789031101152541000,9.570541015625,-6.2313587333679195,-11.383979981231688,1.8142063079833983
1789031101162544600,9.580544677734375,-5.508908382415771,-9.092130442047118,1.8761562759399413
1789031101172547800,9.5905478515625,-4.744110589599609,-7.302165425872802,1.7248726585388183
1789031101182551800,9.6005517578125,-4.097825778961181,-6.037278761291503,1.492036547088623
1789031101192556000,9.61055615234375,-3.5978865447998043,-5.417330168914795,1.635539009094238
1789031101202559700,9.620559814453125,-3.4193688835144043,-5.129277781677246,1.6919523857116698
1789031101212563700,9.630563720703124,-3.395726142120361,-4.995202488708496,1.4642039527893065
1789031101222567700,9.640567626953125,-3.440467785644531,-4.961833303070068,1.1719617126464843
1789031101232571000,9.65057080078125,-3.7199908294677733,-4.986822782897949,0.9329904594421387
1789031101242574800,9.660574951171874,-3.9733272926330563,-5.042338333892822,0.5521627578735351
1789031101252578800,9.670578857421875,-3.5283050590515135,-5.24180525970459,0.6100725105285644
1789031101262582800,9.680582763671875,-2.3943512977600094,-5.915024839019775,1.5260042831420897
1789031101272586800,9.690586669921874,-1.9508254402160643,-6.6714429260253905,1.3549685020446776
1789031101282591000,9.700591064453125,-1.7949030570983886,-7.16285281677246,0.8659528129577636
1789031101292595000,9.710594970703125,-1.9994576614379882,-7.208492285919189,0.8363245674133301
1789031101302598000,9.720597900390626,-2.27927998046875,-7.013065575408935,1.1180921752929687
1789031101312601900,9.730601806640625,-2.176329309082031,-7.39928023071289,1.670853483581543
1789031101322605800,9.740605712890625,-2.0883423980712887,-8.661473418426514,1.8472762184143066
1789031101332609800,9.75060986328125,-2.4589947425842285,-10.286388157653809,1.5200187789916992
1789031101342613800,9.76061376953125,-3.4549826332092284,-11.346570580291747,0.7638999671936034
1789031101352617700,9.77061767578125,-4.90302572479248,-10.611550670623778,0.06584054565429687
1789031101362621700,9.78062158203125,-5.27966357345581,-8.813804499053955,0.9485527702331542
1789031101372625000,9.790625,-3.704129243469238,-8.822333842468261,1.5426140571594238
1789031101382628900,9.80062890625,-2.562095051574707,-9.828796365356444,0.8719383171081543
1789031101392632800,9.8106328125,-2.804059056854248,-9.875034384918212,-0.2232593048095703
1789031101402636800,9.82063671875,-4.070292459869385,-8.378209434509277,-0.24690204620361328
1789031101412640800,9.830640869140625,-4.1760862457275385,-7.410503050994873,0.22834698333740233
1789031101422644700,9.840644775390626,-3.0992940490722654,-7.569418186187744,0.6534674156188964
1789031101432647700,9.850647705078124,-2.586785256195068,-7.792677490997314,0.39160160903930663
1789031101442651600,9.860651611328125,-3.1022868011474607,-6.847716023254394,-0.17268179473876952
1789031101452655900,9.87065576171875,-3.439719597625732,-5.5659203094482415,0.2127846725463867
1789031101462659800,9.880659912109374,-2.9587843391418454,-4.976198513031005,1.2312182037353514
1789031101472663800,9.890663818359375,-1.9912275932312011,-5.493944622039795,1.8746598999023436
1789031101482668000,9.90066796875,-1.0736498069763183,-7.329549107360839,1.4845546669006346
1789031101492670700,9.910670654296876,-1.4682441680908203,-8.93875189819336,0.5889736083984375
1789031101502675000,9.920675048828125,-2.8178257164001463,-9.420584982299804,-0.013766659545898436
1789031101512679000,9.930678955078125,-4.055478337097168,-8.902988510894774,0.20231004028320312
1789031101522683000,9.940682861328124,-4.14316597290039,-8.284985207366942,0.982520506286621
1789031101532686600,9.9506865234375,-3.5227684677124023,-8.220940312957763,2.009333743286133
1789031101542690800,9.96069091796875,-2.8930934310913083,-9.211690887451171,2.2532430374145505
1789031101552694800,9.97069482421875,-3.5046623176574707,-10.211569355773925,1.535431452178955
1789031101562698000,9.980697998046875,-4.745906240844726,-10.428094968414307,1.2282254516601563
1789031101572702000,9.990701904296875,-5.350741435241699,-10.289979460144043,2.0298340950012204
1789031101582705700,10.00070556640625,-5.640888748931885,-10.822689329528808,2.8502970764160156
1789031101592710000,10.0107099609375,-6.085761344909668,-11.79802723083496,2.647687760925293
1789031101602713900,10.0207138671875,-6.767809542846679,-12.60906304321289,2.3279122016906735
1789031101612717800,10.0307177734375,-7.204900983428955,-12.920309259033202,2.34946001663208
1789031101622720800,10.040720703125,-6.745214264678955,-12.534693154144286,2.2559365142822263
1789031101632724700,10.050724853515625,-6.037129123687744,-11.399691929626464,1.90892691116333
1789031101642728700,10.060728759765626,-5.4779333984375,-9.756970315551758,1.8341081092834473
1789031101652733000,10.07073291015625,-4.613626599121093,-8.404695290374756,1.8736124366760252
1789031101662737000,10.08073681640625,-4.473565802001953,-6.926275765228271,1.241692835998535
1789031101672740600,10.09074072265625,-4.899434422302246,-4.996100314331055,1.0139444030761717
1789031101682743800,10.100743896484374,-4.556764309692382,-3.521122454071045,1.7429788085937499
1789031101692747800,10.110747802734375,-3.3277906700134277,-3.258059546661377,2.1269488998413086
1789031101702752000,10.120751953125,-2.232443410491943,-3.923946883392334,1.9542671051025389
1789031101712756000,10.130755859375,-2.092681888580322,-4.144961624145507,1.7995418228149413
1789031101722759700,10.140759765625,-2.5980080764770506,-3.838803086853027,1.6786346389770508
1789031101732763600,10.150763671875,-2.5469816535949708,-3.6762966491699216,1.4420575874328612
1789031101742767900,10.160767822265624,-2.058414877319336,-3.7755063804626463,0.9371803123474121
1789031101752770800,10.170770751953125,-1.6564882736206055,-4.160374297332764,0.2932897033691406
1789031101762774800,10.18077490234375,-1.313219610595703,-5.0495209388732905,-0.0718260498046875
1789031101772778800,10.19077880859375,-1.2464812393188476,-5.985204875183105,0.12330138549804687
1789031101782784000,10.200783935546875,-1.4456488899230957,-6.425887618255615,-0.056114101409912104
1789031101792788000,10.2107880859375,-1.547552098083496,-6.436511888122558,0.01601122360229492
1789031101802792200,10.220792236328125,-1.3654431343078612,-6.5859998542785645,0.3865139305114746
1789031101812795000,10.230794921875,-1.1324573852539062,-7.416787830352782,0.5066729263305664
1789031101822798800,10.240798828125,-1.174056639099121,-9.24371333465576,0.24735095901489257
1789031101832803000,10.250802978515624,-1.3901333389282227,-12.676699240112304,0.48243163452148435
1789031101842807000,10.26080712890625,-2.305915473937988,-18.09821926193237,0.5636848533630371
1789031101852810800,10.270810791015625,-3.8040871627807613,-24.47053661804199,-1.30873048248291
1789031101862815000,10.28081494140625,-5.3670519340515135,-28.522722927856442,-3.182642194366455
1789031101872818000,10.29081787109375,-7.068431488800049,-26.562171043395995,-1.6967407890319823
1789031101882822100,10.300822265625,-9.033023588562012,-20.083311713409422,0.6127659873962402
1789031101892826000,10.310826171875,-8.642469442749023,-16.26066948776245,3.0060698219299313
1789031101902829800,10.320829833984375,-8.093748349761963,-14.672266323852538,4.876539868927002
1789031101912834000,10.330833984375,-7.364265031433105,-12.805836492156981,4.927117378997803
1789031101922838000,10.340838134765624,-5.729923123168945,-10.552294179534911,2.882618798828125
1789031101932842000,10.350842041015625,-4.387524179840088,-8.681973770141601,1.8623896163940428
1789031101942845000,10.360844970703125,-3.4427123497009275,-7.33568424911499,2.726546778106689
1789031101952849000,10.370848876953126,-2.721010186767578,-6.32084202041626,3.8194998359680175
1789031101962852900,10.380852783203125,-2.493710666656494,-5.4984337501525875,3.4472014778137203
1789031101972857000,10.390857177734375,-2.646939572906494,-4.839878656005859,2.1294927391052245
1789031101982861000,10.400861083984376,-2.9300539192199704,-4.489876300811767,0.656909080505371
1789031101992865000,10.410864990234375,-3.1082723052978514,-4.309862263488769,-0.43514615173339843
1789031102002868000,10.420867919921875,-3.0684687026977535,-4.187009790802001,-0.8741828811645508
1789031102012872000,10.430871826171876,-2.659060218811035,-4.1383775695800775,-0.5717652839660644
1789031102022876000,10.4408759765625,-1.9122189384460448,-4.160224659729003,-0.14260463638305662
1789031102032880000,10.450880126953125,-0.956333925628662,-4.343231449127197,0.21308394775390624
1789031102042883800,10.4608837890625,-0.16460136413574217,-4.866663787078857,0.8611644096374511
1789031102052887800,10.4708876953125,-0.14993687896728514,-5.431845016479492,1.8523638969421385
1789031102062891000,10.48089111328125,-0.7359177352905273,-5.837961473083496,1.7524059776306151
1789031102072895000,10.49089501953125,-1.3805565322875977,-6.469581798553467,1.7606360458374022
1789031102082899200,10.500899169921874,-2.1685481536865234,-7.532308060455322,1.846976943206787
1789031102092903000,10.51090283203125,-3.208230224609375,-8.710554552459715,1.4621090263366698
1789031102102907000,10.520906982421875,-4.114285915374755,-10.156951630401611,0.7481880187988281
1789031102112911000,10.5309111328125,-4.446032482910156,-11.93928512878418,0.5303156677246094
1789031102122914000,10.5409140625,-4.952106858825683,-13.999794932556151,-0.019303250885009764
1789031102132917800,10.550917724609375,-6.092943949890136,-15.84662223815918,0.2738368148803711
1789031102142922000,10.560921875,-6.367080039978027,-16.241515874481202,1.7366940292358397
1789031102152926000,10.570926025390625,-5.22863715057373,-15.579219840240478,2.6952725189208984
1789031102162930000,10.580929931640625,-3.688267657470703,-14.910190113830566,2.996193740081787
1789031102172934100,10.59093408203125,-2.816030065155029,-13.56045892791748,3.941753758239746
1789031102182936800,10.600936767578125,-2.905513352203369,-11.580005242156982,4.580107775878906
1789031102192941000,10.610941162109375,-3.416974681854248,-9.671676881408692,3.7165491645812985
1789031102202945000,10.620945068359376,-3.2468367263793945,-8.316109828948974,3.2254385490417476
1789031102212949000,10.630948974609375,-2.488174075317383,-7.134720947265625,3.3550247138977047
1789031102222953000,10.640952880859375,-1.5406687683105469,-6.087257720947266,3.0282161872863766
1789031102232957000,10.65095703125,-0.8813654861450195,-5.606621737670898,1.9610007972717285
1789031102242960000,10.6609599609375,-0.5283703788757323,-6.097433078002929,0.042945992279052735
1789031102252964000,10.670964111328125,-0.040402153015136714,-6.569090805053711,-0.8316858016967773
1789031102262968000,10.680968017578126,0.1758241844177246,-6.750152305603027,-0.8117840003967285
1789031102272971800,10.6909716796875,-0.006284779357910156,-7.245303136444091,0.34057518615722654
1789031102282976000,10.70097607421875,-1.0170867927551268,-7.932588650512695,0.6458358978271485
1789031102292980000,10.71097998046875,-1.3626000198364256,-8.215254084014893,0.3320458427429199
1789031102302983200,10.720983154296874,-1.373224289703369,-8.453776424407959,0.2932897033691406
1789031102312987100,10.730987060546875,-1.9393033447265624,-8.784026615905761,0.5626373901367188
1789031102322990800,10.740990966796875,-3.0261212608337402,-9.138967012023926,1.1143512351989746
1789031102332994800,10.750994873046874,-4.014627271270752,-9.374795875549315,2.054374662017822
1789031102342999000,10.7609990234375,-4.967818807220459,-9.855282221221923,3.1292215698242187
1789031102353003000,10.7710029296875,-5.598840582275391,-11.0953290435791,3.9363668045043942
1789031102363006000,10.781005859375,-4.771194995880126,-12.436081973266601,3.8001965850830075
1789031102373010000,10.791010009765625,-3.9368157173156737,-13.152397182464599,3.484760516357422
1789031102383014000,10.801013916015625,-4.0918402748107905,-13.18352180404663,3.4961329742431637
1789031102393018000,10.81101806640625,-4.556614672088623,-13.100772209167479,3.4790742874145506
1789031102403022000,10.82102197265625,-4.230853608703613,-13.250110537719726,3.253271143341064
1789031102413025000,10.83102490234375,-3.4994250015258785,-13.347674255371093,2.2424691299438475
1789031102423029000,10.841029052734376,-3.2181063064575195,-13.15060153121948,1.5806220085144043
1789031102433033000,10.851032958984375,-3.481917401885986,-12.667870621490477,1.1116577583312988
1789031102443037000,10.861036865234375,-4.131344602203369,-11.334150659179686,0.7772177139282226
1789031102453041200,10.871041259765626,-4.30282929611206,-9.890746333312988,0.9998784683227538
1789031102463044900,10.881044921875,-3.642179275512695,-8.806771531677246,1.2228384979248046
1789031102473048000,10.891048095703125,-2.7035025871276854,-8.057984962463378,1.5240589942932128
1789031102483052000,10.901052001953126,-2.6102783599853514,-7.11197603149414,1.333719962310791
1789031102493056000,10.911055908203124,-2.409464695739746,-6.507290474700928,1.1405378158569335
1789031102503060000,10.92106005859375,-2.1531354804992673,-6.444592318725586,1.143380930328369
1789031102513064000,10.93106396484375,-2.3597850112915038,-6.348973889923095,1.3160627250671386
1789031102523068000,10.94106787109375,-3.140444390106201,-5.965901624298096,1.1990461189270019
1789031102533071000,10.951071044921875,-3.611653204345703,-5.7249850822448725,1.2439374000549315
1789031102543075000,10.961074951171875,-3.291578369903564,-6.430825659179687,1.5997756217956542
1789031102553078800,10.971078857421874,-3.056796969604492,-7.676708348083496,1.5080477706909179
1789031102563083000,10.9810830078125,-3.376722166442871,-7.983166160583496,0.9964368034362793
1789031102573087000,10.9910869140625,-3.7351042274475095,-7.357381701660156,1.1686696853637695
1789031102583091000,11.001091064453124,-2.8700492401123046,-7.250540452575684,1.571194839477539
1789031102593094000,11.011093994140625,-2.175730758666992,-7.926303871154785,1.9826982498168944
1789031102603097900,11.021097900390625,-2.034772135925293,-9.102305799102783,2.0618565422058106
1789031102613102000,11.03110205078125,-1.4803648139953614,-10.773458557891844,1.9228432083129883
1789031102623106000,11.04110595703125,-1.4698901817321777,-12.809278157043456,1.9080290855407713
1789031102633110000,11.051110107421875,-1.7515081520080564,-13.763068243408203,1.140238540649414
1789031102643113000,11.061113037109376,-4.5970168251037595,-10.911873341369628,0.8539818046569824
1789031102653117000,11.071116943359375,-5.1994578178405755,-8.414272097015381,1.1264718811035155
1789031102663121000,11.081120849609375,-3.592349953460693,-7.777414455413818,0.6139630882263183
1789031102673125000,11.091125,-2.01112939453125,-7.030124262237549,0.18704700469970703
1789031102683129000,11.101129150390625,-1.783081686401367,-6.086509532928466,0.00014963760375976562
1789031102693132800,11.1111328125,-2.6013001037597654,-6.555024870300293,0.280271231842041
1789031102703136000,11.121135986328126,-3.652653907775879,-7.270142978668212,0.7077858657836914
1789031102713140000,11.131139892578124,-3.744531396484375,-7.3460092437744136,1.1875240234375
1789031102723144000,11.14114404296875,-3.008164748382568,-9.344269804382323,1.721879906463623
1789031102733148200,11.151148193359376,-2.5200468849182127,-12.425308065795898,1.4059949249267578
1789031102743151900,11.16115185546875,-4.378845198822021,-12.537386631011962,0.7603086647033691
1789031102753155800,11.17115576171875,-5.269637854003906,-10.054000959014893,1.4363713584899902
1789031102763159000,11.181158935546875,-4.2211271644592285,-8.850615349578858,1.502960092163086
1789031102773163000,11.1911630859375,-3.5146880371093747,-9.08434928665161,1.5493477493286132
1789031102783166200,11.201166259765625,-3.8007951354980465,-8.378957622528075,1.4272434646606444
1789031102793170200,11.211170166015625,-3.892522986602783,-7.90999337234497,1.4567220726013184
1789031102803174100,11.221174072265624,-3.2926258331298826,-9.18759923324585,1.2575544219970702
1789031102813177000,11.231177001953125,-3.406051136779785,-10.070610733032225,0.37229835815429685
1789031102823181000,11.24118115234375,-4.210951807403564,-8.875155916595459,-0.003142389678955078
1789031102833185300,11.251185302734376,-4.171896392822266,-7.557447177886963,0.31064766540527344
1789031102843189200,11.261189208984375,-3.6412814498901365,-8.073696910858153,1.1598410667419432
1789031102853193200,11.271193115234375,-3.1603461914062496,-9.476699083709716,1.5059528442382812
1789031102863197200,11.281197265625,-3.3156700241088863,-9.427767587280274,1.2548609451293944
1789031102873200000,11.2912001953125,-3.6734535346984862,-9.026140258789061,0.7609072151184082
1789031102883204000,11.3012041015625,-3.641131812286377,-9.009530484771728,0.6687304512023925
1789031102893208300,11.311208251953126,-3.1624411178588865,-8.891616053009033,1.3646949462890625
1789031102903212000,11.3212119140625,-2.514659931182861,-8.59353794631958,1.7640777107238768
1789031102913216000,11.331216064453125,-2.0787655914306638,-8.783876978302002,1.7375918548583984
1789031102923219200,11.34121923828125,-2.2171803749084473,-9.160365189361572,1.5318401496887206
1789031102933223200,11.35122314453125,-2.698564546203613,-9.156474611663818,1.3500304611206053
1789031102943227400,11.361227294921875,-3.065625588226318,-8.605359317016601,1.8263269538879394
1789031102953231000,11.371231201171875,-3.264793238830566,-8.149263900756836,1.912667851257324
1789031102963235000,11.381235107421874,-3.4920927589416504,-8.148515712738037,1.0179846183776855
1789031102973239300,11.3912392578125,-3.610306465911865,-8.565256439208984,0.1249473991394043
1789031102983242200,11.4012421875,-3.732261112976074,-9.341576327514648,-0.09561842880249023
1789031102993246000,11.411245849609376,-3.580827857971191,-10.390835205078124,0.1044470474243164
1789031103003250200,11.421250244140625,-3.3113305335998535,-11.168950744628905,0.6254851837158203
1789031103013254100,11.431254150390625,-3.4000656326293943,-11.486781015014648,1.2033856094360351
1789031103023258000,11.441258056640624,-3.7496190750122067,-11.634922242736815,1.3226467796325683
1789031103033261300,11.45126123046875,-4.299387631225586,-11.597213566589355,0.8843582382202148
1789031103043265000,11.46126513671875,-4.623652318572998,-11.424980684661865,0.5672761558532714
1789031103053269200,11.471269287109376,-4.54599040222168,-11.090540640258789,1.0856208152770996
1789031103063273200,11.481273193359375,-3.9694367149353025,-10.68711766052246,1.7066168708801268
1789031103073277200,11.491277099609375,-2.733130832672119,-10.534936217498778,2.1877017669677734
1789031103083281200,11.50128125,-2.201318788909912,-10.760739361572265,2.0311808334350583
1789031103093284000,11.5112841796875,-2.3870190551757813,-10.659883616638183,1.605611488342285
1789031103103288000,11.5212880859375,-3.0502129150390624,-9.958232892608642,1.5198691413879393
1789031103113292300,11.531292236328126,-3.1937153770446773,-8.856301578521729,1.763928073120117
1789031103123296300,11.541296142578124,-2.576011348724365,-8.014889332580566,2.3413795860290527
1789031103133300200,11.55130029296875,-1.73654439163208,-7.668777555084228,2.6720786903381346
1789031103143303200,11.56130322265625,-1.6629226905822754,-8.007108177185058,2.1933879959106446
1789031103153307100,11.57130712890625,-2.473808865356445,-8.358606908416748,1.5910966407775877
1789031103163311400,11.581311279296875,-2.703801862335205,-7.935431764984131,2.0579659645080564
1789031103173315300,11.5913154296875,-2.708141352844238,-7.375787126922607,2.1672014152526855
1789031103183319000,11.601319091796874,-2.8725930793762204,-7.362768655395508,1.5891513519287108
1789031103193323000,11.611322998046875,-2.8098949234008788,-7.770381488037109,1.2687772422790526
1789031103203326200,11.621326171875,-2.491765377807617,-8.351723578643798,1.0932523330688475
1789031103213330200,11.631330078125,-2.280327443695068,-9.007884471130371,0.8857049766540527
1789031103223334100,11.641334228515625,-2.2384289146423337,-9.590722937774657,0.6961141326904297
1789031103233338000,11.651338134765625,-2.0617069046020506,-9.832537305450439,0.3995324020385742
1789031103243342000,11.661342041015626,-1.814954496002197,-9.784054721832275,0.07855974197387695
1789031103253345300,11.67134521484375,-1.7278654106140137,-9.553762449645996,0.3338414939880371
1789031103263349200,11.681349365234375,-2.211943058776855,-9.16754779434204,0.7426514274597168
1789031103273353200,11.691353271484376,-2.7922376861572262,-8.601319101715088,1.2352584190368652
1789031103283357200,11.701357177734375,-2.8464064987182613,-8.258948264312744,1.274313833618164
1789031103293361200,11.711361083984375,-2.329857490539551,-8.59982272567749,1.3772645050048826
1789031103303364400,11.7213642578125,-1.9288287124633787,-9.494954871368408,1.4372691841125487
1789031103313368000,11.7313681640625,-2.037914525604248,-10.651354273223877,1.378311968231201
1789031103323372000,11.7413720703125,-2.3751976844787595,-11.74759935836792,1.0896610305786132
1789031103333376300,11.751376220703126,-2.821267381286621,-12.842647342681884,0.6232406196594238
1789031103343380200,11.761380126953124,-3.395277229309082,-13.088651563262939,0.36062662506103516
1789031103353384200,11.77138427734375,-3.6873698318481445,-12.028469140624999,0.6913257293701172
1789031103363387100,11.78138720703125,-3.5672108360290524,-10.982203015136719,1.374571028137207
1789031103373391000,11.79139111328125,-3.3110312583923336,-10.447547856903075,2.134281142425537
1789031103383395000,11.80139501953125,-3.5193268028259275,-9.894038360595703,2.574963885498047
1789031103393399300,11.8113994140625,-4.299088356018066,-9.062202921295166,2.1972785736083984
1789031103403403300,11.8214033203125,-4.2971430671691895,-9.166201055908203,2.0958242782592773
1789031103413406200,11.83140625,-3.7693712387084957,-9.760112705230712,1.8535609977722167
1789031103423410200,11.84141015625,-3.697245913696289,-9.75547393951416,1.6871639823913573
1789031103433414100,11.8514140625,-3.8922237113952636,-9.043947133636474,1.3147159866333007
1789031103443418400,11.86141845703125,-4.104260195922851,-8.21675046005249,0.9050082275390624
1789031103453422000,11.871422119140625,-4.294000677490234,-7.535749725341796,0.5572504364013672
1789031103463425300,11.88142529296875,-4.121917433166503,-7.296479196929932,0.2563292152404785
1789031103473429200,11.89142919921875,-3.312078721618652,-7.9761331932067865,0.4918588035583496
1789031103483433200,11.90143310546875,-2.597858438873291,-9.126846366119384,0.4421791191101074
1789031103493437200,11.911437255859376,-3.1024364387512207,-8.958055149078369,-0.3010708587646484
1789031103503441200,11.921441162109375,-4.537909971618652,-7.082796698760986,-0.18779519271850584
1789031103513444000,11.931444091796875,-4.224269554138183,-5.775412954711913,1.3637971206665038
1789031103523448300,11.9414482421875,-2.0687398719787597,-6.379350323486328,2.527678402709961
1789031103533452300,11.951452392578124,-1.599925259399414,-7.322216864776611,2.618209152984619
1789031103543456000,11.9614560546875,-2.906560815429687,-6.997652902221679,2.265214045715332
1789031103553460200,11.971460205078126,-3.524713756561279,-6.6319385986328125,2.060809078979492
1789031103563463200,11.981463134765624,-2.724302214050293,-8.564807526397704,2.818274629211426
1789031103573467100,11.991467041015625,-1.6557400856018065,-12.949488591766357,2.6556185539245605
1789031103583471400,12.001471435546875,-1.8854338073730468,-16.21069052810669,1.0295067138671874
1789031103593475000,12.01147509765625,-4.969015908050537,-14.525920747375487,-0.3869628433227539
1789031103603479000,12.02147900390625,-8.211513143920898,-8.347833000946045,1.8960580772399902
1789031103613483300,12.031483154296875,-6.175543907165527,-5.355380200958252,4.4762592788696285
1789031103623486200,12.041486328125,-1.5182231277465819,-8.050503082275391,3.7574002304077148
1789031103633490200,12.051490234375,-0.5591957252502441,-11.973552140045165,1.1959037292480468
1789031103643494100,12.061494140625,-3.807379190063476,-11.337143411254882,0.32306758651733397
1789031103653498000,12.071498046875,-6.642263593292236,-7.685536966705322,1.6880618080139158
1789031103663502300,12.08150244140625,-6.579565437316894,-4.851400751495361,2.2604256423950195
1789031103673505300,12.09150537109375,-4.694580542755126,-3.7346553146362305,2.20251588973999
1789031103683509000,12.101509033203126,-2.1110873138427735,-4.722413137054443,2.4979005195617674
1789031103693513200,12.11151318359375,-0.44547114639282226,-8.579771286773681,2.3521534934997557
1789031103703517200,12.12151708984375,-1.706467233276367,-11.350910070800781,0.3821744400024414
1789031103713521200,12.131521240234376,-4.474014714813232,-9.924863706970214,-0.43783962860107417
1789031103723524000,12.141524169921874,-5.163245517730712,-6.988824283599853,1.5155296508789062
1789031103733528000,12.151528076171875,-2.999934680175781,-7.208791561126708,2.403179916381836
1789031103743532300,12.1615322265625,-1.0733505317687988,-9.739911628723144,1.7878700897216795
1789031103753536300,12.171536376953124,-1.1513117233276366,-11.987618074798583,1.4041992736816404
1789031103763540200,12.181540283203125,-2.682553322601318,-13.595474127197265,0.9319429962158202
1789031103773543200,12.191543212890625,-5.776610055541992,-12.233771932983398,-0.06913257293701172
1789031103783547100,12.201547119140624,-7.115417696380614,-7.801805384826659,1.0938508834838867
1789031103793551000,12.211551025390625,-5.067627088928222,-5.595698192596435,3.1088708557128903
1789031103803555000,12.22155517578125,-2.6179098777770995,-7.875576723480224,3.7300165489196777
1789031103813559000,12.23155908203125,-2.524236737823486,-11.691335619354247,1.3839981971740722
1789031103823562200,12.241562255859375,-4.8698061767578125,-11.871050381469725,-0.17866729888916014
1789031103833566200,12.251566162109375,-6.366930402374267,-9.558251577758789,0.87463179397583
1789031103843570000,12.26156982421875,-5.904550206756592,-8.125172246551513,2.314295179748535
1789031103853574100,12.27157421875,-4.564246189880371,-8.252064934539794,2.8739398178100584
1789031103863578000,12.281578125,-3.7439328460693355,-8.886378736877441,2.2334908737182615
1789031103873581000,12.2915810546875,-4.022857339477539,-9.03332286376953,1.3617021942138672
1789031103883585300,12.301585205078124,-4.519504546356201,-8.158242156982421,0.8379705810546875
1789031103893589000,12.311589111328125,-4.0906431739807125,-7.302165425872802,1.4501380180358885
1789031103903593000,12.321593017578126,-2.8857611885070797,-8.166621862792969,3.036745530700683
1789031103913597200,12.33159716796875,-2.1390695457458495,-10.275464612579345,2.738218511199951
1789031103923600100,12.34160009765625,-3.0157962661743163,-9.833584768676758,0.4599859939575195
1789031103933604000,12.35160400390625,-4.0991725173950195,-6.59497811050415,0.47809214401245115
1789031103943608000,12.361608154296874,-3.558831130218506,-5.4707507934570305,1.8947113388061523
1789031103953612000,12.371612060546875,-2.2321441352844236,-7.362020467376708,1.7437269966125488
1789031103963616300,12.3816162109375,-1.9587562332153319,-9.037811991882323,0.5826888290405273
1789031103973619200,12.391619140625,-2.6473884857177734,-9.457246195220947,1.0229226593017577
1789031103983623000,12.401622802734375,-3.05185892868042,-10.056395160675049,1.53857384185791
1789031103993627100,12.411627197265625,-3.9477392623901366,-9.566780921173095,0.9817723182678222
1789031104003631000,12.421631103515624,-4.564246189880371,-8.264784130859374,1.5408184059143066
1789031104013635000,12.431635009765625,-3.7366006034851074,-9.393949488830566,2.490568276977539
1789031104023638000,12.441637939453125,-2.8262054222106934,-12.38535482559204,1.7747019805908202
1789031104033642000,12.45164208984375,-4.152144229125977,-11.979836919403075,0.41539398803710936
1789031104043646200,12.461646240234375,-4.85843371887207,-9.408015423583985,1.4226046989440917
1789031104053650200,12.471650146484375,-3.9240965209960934,-8.782979152679443,2.0970213790893553
1789031104063654100,12.481654052734376,-3.903296894073486,-8.37012900390625,1.0806827743530272
1789031104073657000,12.491656982421874,-4.731989943695068,-6.75464143371582,0.8405144203186035
1789031104083661000,12.5016611328125,-4.414010035705566,-6.863876884460449,2.048688433074951
1789031104093665000,12.5116650390625,-3.045873424530029,-10.241796151733398,2.0292355445861814
1789031104103669200,12.521669189453124,-4.034529072570801,-10.634445223999023,0.2747346405029297
1789031104113673200,12.531673095703125,-5.549460173034667,-7.273734281158447,1.0752958206176757
1789031104123676200,12.54167626953125,-4.164713787841797,-6.426186893463134,2.8788778587341306
1789031104133680000,12.55168017578125,-2.3000796073913574,-9.234286165618895,2.618059515380859
1789031104143684000,12.56168408203125,-2.6521768890380857,-11.49156941833496,0.7270891166687011
1789031104153688300,12.571688232421875,-4.228309769439697,-10.116100564575195,0.17223288192749023
1789031104163692000,12.581692138671874,-4.613626599121093,-7.8438535514831536,1.7622820594787596
1789031104173695000,12.591695068359375,-3.8516719207763668,-6.999149278259277,1.8403928886413574
1789031104183699200,12.60169921875,-3.3687913734436035,-7.001244204711914,1.5418658691406248
1789031104193703200,12.611703125,-3.080439710998535,-7.598597518920898,1.5206173294067382
1789031104203707100,12.62170703125,-3.503165941619873,-8.23560479812622,1.2216413970947264
1789031104213711000,12.631711181640625,-4.288464086151123,-8.31296743927002,1.0480617767333984
1789031104223714000,12.641714111328126,-3.879205239868164,-9.298331060028076,1.333121411895752
1789031104233718300,12.65171826171875,-2.982127805328369,-11.793987015533446,1.2841899154663086
1789031104243722200,12.66172216796875,-3.242497235870361,-12.81242054672241,0.23642741394042968
1789031104253726000,12.671725830078126,-3.9996635108947753,-10.74532668838501,-0.1375169578552246
1789031104263730200,12.681730224609375,-4.2791865547180175,-8.488342710876465,1.093701245880127
1789031104273733000,12.691733154296875,-4.108450048828125,-7.723096005249023,1.195155541229248
