time,seconds_elapsed,z,y,x
1789115777351900700,0.217900634765625,8.633005142211914,3.428316593170166,-0.3616153299808502
1789115777370749400,0.23674951171875,8.958727836608887,4.584648132324219,-1.0223335027694702
1789115777389598500,0.255598388671875,9.562018394470215,4.711467742919922,-1.651944875717163
1789115777408447200,0.274447265625,9.37298583984375,4.045963764190674,-1.036690354347229
1789115777427296300,0.293296142578125,10.24905776977539,3.6125640869140625,-0.5721837282180786
1789115777446145300,0.312145263671875,10.84277629852295,3.6197423934936523,-0.41186460852622986
1789115777464994000,0.330994140625,10.435997009277344,3.200998544692993,0.30658039450645447
1789115777483843000,0.349843017578125,8.896514892578125,2.966202735900879,0.43579283356666565
1789115777512116200,0.3781162109375,8.68325424194336,3.0475587844848633,0.40707895159721375
1789115777530965200,0.39696533203125,9.559625625610352,3.859323740005493,-0.2273181527853012
1789115777549814300,0.415814208984375,9.135796546936035,3.5336008071899414,-0.7995018362998962
1789115777568663000,0.4346630859375,8.970691680908203,2.5857439041137695,-0.11724831163883209
1789115777587512000,0.453511962890625,7.895716667175293,2.8944180011749268,0.4453641176223755
1789115777606360800,0.47236083984375,7.39771032333374,2.7987051010131836,1.347757339477539
1789115777625209900,0.4912099609375,7.160820960998535,3.660719633102417,0.8620143532752991
1789115777644059000,0.510058837890625,7.785646915435791,3.6364922523498535,0.579362154006958
1789115777662907600,0.52890771484375,7.098607540130615,3.3589248657226562,-0.004785645287483931
1789115777681756700,0.547756591796875,7.64447021484375,2.9949166774749756,0.12203395366668701
1789115777700605700,0.566605712890625,9.767801284790039,3.3852458000183105,-0.2922234535217285
1789115777719454500,0.585454345703125,10.318449020385742,3.421138286590576,-0.31854450702667236
1789115777738303500,0.604303466796875,10.452746391296387,2.652743101119995,0.8811569213867188
1789115777757152500,0.623152587890625,9.894919395446777,2.6312077045440674,1.0773683786392212
1789115777776001300,0.642001220703125,9.672088623046875,3.1483564376831055,0.2584248483181
1789115777794850300,0.660850341796875,9.90688419342041,3.363710403442383,-0.9577272534370422
1789115777813699300,0.67969921875,9.72233772277832,3.315854072570801,-1.0390832424163818
1789115777832548400,0.69854833984375,8.93958568572998,3.4163525104522705,-0.19381862878799438
1789115777851397000,0.717397216796875,9.21715259552002,3.660719633102417,-0.035892341285943985
1789115777870246100,0.73624609375,9.741479873657227,3.373281717300415,-0.275174617767334
1789115777889095200,0.75509521484375,9.76062297821045,3.318246841430664,-0.27756741642951965
1789115777907944200,0.773944091796875,9.090332984924316,3.61017107963562,0.02871387079358101
1789115777926793000,0.79279296875,8.539685249328613,4.115355968475342,0.8330013751983643
1789115777945642000,0.81164208984375,8.393722534179688,3.9406797885894775,1.2305090427398682
1789115777964491000,0.830490966796875,9.332307815551758,3.6125640869140625,0.07178468257188797
1789115777983340000,0.849340087890625,9.308379173278809,3.2297122478485107,-0.732502818107605
1789115778002188800,0.868188720703125,8.913264274597168,3.2416765689849854,-1.1515458822250366
1789115778021037800,0.887037841796875,9.47348403930664,3.466601848602295,-1.0199406147003174
1789115778039886800,0.905886962890625,9.849455833435059,3.4378879070281982,-0.40229329466819763
1789115778058735900,0.92473583984375,8.805587768554688,3.3445677757263184,-0.22013968229293823
1789115778077585000,0.9435849609375,7.433602809906006,3.2656047344207764,-0.4956133961677551
1789115778096434000,0.962433837890625,7.950751304626465,3.411566972732544,-0.02632104977965355
1789115778115283000,0.981282958984375,8.975478172302246,3.9478583335876465,-0.4286143481731415
1789115778134131700,1.000131591796875,9.430413246154785,3.78753924369812,-0.8548358678817749
1789115778152980700,1.018980712890625,8.772088050842285,3.3302109241485596,-0.6655037999153137
1789115778171829800,1.037829833984375,7.953144073486328,3.483351469039917,-0.02153540402650833
1789115778190678800,1.0566787109375,6.971488952636719,3.6125640869140625,-0.24646073579788208
1789115778209527800,1.07552783203125,8.223832130432129,3.2991042137145996,-0.45972105860710144
1789115778228376800,1.094376953125,9.6433744430542,3.500101327896118,-0.6535396575927734
1789115778247225900,1.113225830078125,9.36341381072998,3.387638568878174,-0.4094717800617218
1789115778266075000,1.132074951171875,9.21715259552002,3.380460262298584,-0.23449662327766418
1789115778284924000,1.150923828125,9.652945518493652,3.7109687328338623,-0.5338985323905945
1789115778303773000,1.16977294921875,9.313164710998535,3.2129626274108887,-0.49322056770324707
1789115778322622000,1.1886220703125,9.253045082092285,2.8441689014434814,-0.4549354016780853
1789115778341471000,1.207470947265625,9.6433744430542,3.7372899055480957,0.035892341285943985
1789115778360320000,1.226320068359375,10.076774597167969,3.945465326309204,-0.2632105052471161
1789115778379169000,1.2451689453125,9.957133293151855,3.9023945331573486,0.05024927482008934
1789115778398018000,1.26401806640625,9.05444049835205,3.9813578128814697,0.5721837282180786
1789115778416867000,1.2828671875,8.331509590148926,3.708575963973999,0.7755736112594604
1789115778435716000,1.301716064453125,8.274081230163574,3.2895328998565674,0.36640095710754395
1789115778454565000,1.320565185546875,8.973084449768066,3.70139741897583,-0.007178467698395252
1789115778473414100,1.3394140625,9.253045082092285,3.4378879070281982,-0.3041875660419464
1789115778492263200,1.35826318359375,9.918848037719727,3.2895328998565674,-0.4214358925819397
1789115778511112200,1.3771123046875,10.744670867919922,3.73250412940979,0.37118661403656006
1789115778529961200,1.395961181640625,10.13898754119873,4.096213340759277,0.6702894568443298
1789115778548810200,1.414810302734375,8.762516975402832,3.8473596572875977,0.6918248534202576
1789115778567659300,1.4336591796875,7.847859859466553,2.588136672973633,1.5227324962615967
1789115778586508500,1.452508544921875,8.183154106140137,2.1858434677124023,1.8577276468276978
1789115778605357600,1.471357666015625,8.479864120483398,2.533101797103882,1.7979071140289307
1789115778624206600,1.49020654296875,8.587541580200195,2.621636390686035,3.1866414546966553
1789115778643055600,1.5090556640625,8.173583030700684,3.3780672550201416,3.4139597415924072
1789115778661904600,1.527904541015625,4.60857629776001,0.3209373354911804,5.1305108070373535
1789115778680753700,1.546753662109375,6.579065799713135,-0.41904306411743164,3.224926710128784
1789115778699603000,1.56560302734375,10.174880027770996,1.5705889463424683,1.1635099649429321
1789115778718452000,1.584451904296875,6.985845565795898,1.4988043308258057,0.41904306411743164
1789115778737301000,1.603301025390625,5.3318071365356445,0.035892341285943985,1.572981834411621
1789115778756150000,1.62214990234375,4.6372904777526855,-0.24167509377002716,1.1419745683670044
1789115778774999000,1.6409990234375,5.405984401702881,-1.5777673721313477,3.0020952224731445
1789115778793848000,1.65984814453125,6.389733791351318,-3.2512478828430176,1.0534402132034302
1789115778812697300,1.678697265625,7.407281398773193,-3.349353551864624,-1.3573286533355713
1789115778831546400,1.69754638671875,6.396912097930908,-3.9646079540252686,1.8888343572616577
1789115778850395400,1.7163955078125,2.6336004734039307,-8.369794845581055,2.5088746547698975
1789115778869244400,1.735244384765625,5.396413326263428,-7.948358535766602,1.3142578601837158
1789115778888093700,1.75409375,8.628219604492188,-8.568398475646973,1.5849459171295166
1789115778906942700,1.772942626953125,11.170892715454102,-10.050453186035156,1.596909999847412
1789115778925791700,1.791791748046875,7.627720355987549,-9.279664993286133,-0.1866401731967926
1789115778944641000,1.81064111328125,5.855835437774658,-11.417353630065918,-0.8524430394172668
1789115778963490000,1.829489990234375,7.52213716506958,-12.82762336730957,-4.050749778747559
1789115778982339000,1.848339111328125,8.709874153137207,-12.959228515625,-5.829514026641846
1789115779001188400,1.867188232421875,11.125429153442383,-13.117155075073242,-8.106285095214844
1789115779020037400,1.886037353515625,10.210772514343262,-11.582756996154785,-10.375877380371094
1789115779038886400,1.904886474609375,10.57956600189209,-11.213963508605957,-11.309676170349121
1789115779057735700,1.923735595703125,17.05783462524414,-7.630113124847412,-13.040584564208984
1789115779076584700,1.942584716796875,17.85284996032715,-5.4179487228393555,-16.47368621826172
1789115779095433700,1.961433837890625,16.70608901977539,-3.1890344619750977,-14.783456802368164
1789115779114283000,1.980282958984375,20.01715850830078,-0.7923234105110168,-13.05972671508789
1789115779133132000,1.999132080078125,17.04108428955078,-0.12921242415905,-14.266307830810547
1789115779161405700,2.02740576171875,7.764111042022705,-0.7301099896430969,-9.74387264251709
1789115779180255000,2.0462548828125,9.411270141601562,-1.0701899528503418,-13.627124786376953
1789115779199104000,2.06510400390625,6.4375901222229,-2.98295259475708,-5.937490463256836
1789115779217953000,2.083953125,6.598208427429199,-2.722134828567505,-3.952643871307373
1789115779236802300,2.10280224609375,5.602196216583252,-4.319045066833496,1.407876968383789
1789115779255651300,2.1216513671875,5.906383514404297,-3.983750581741333,2.6623141765594482
1789115779274500600,2.14050048828125,6.7417778968811035,-5.458626747131348,-0.7875377535820007
1789115779293349600,2.159349609375,7.438388347625732,-9.554840087890625,-5.528018474578857
1789115779331048000,2.1970478515625,0.9696913957595825,-8.714659690856934,-9.080761909484863
1789115779359321900,2.22532177734375,4.362115859985352,-4.625326156616211,-4.776372909545898
1789115779378171000,2.2441708984375,4.172783374786377,-3.959822416305542,-5.659623622894287
1789115779397020200,2.263020263671875,2.0303099155426025,-5.3748779296875,-8.211868286132812
1789115779415869200,2.281869140625,2.3844478130340576,-5.573482036590576,-10.90738296508789
1789115779434718500,2.300718505859375,4.045963764190674,-4.383651256561279,-9.92124080657959
1789115779453567500,2.3195673828125,7.294818878173828,-3.6221351623535156,-6.55992317199707
1789115779472416800,2.338416748046875,7.261319637298584,-4.287938117980957,-5.633302688598633
1789115779491265800,2.357265869140625,5.647659778594971,-4.390829563140869,-8.01057243347168
1789115779510115000,2.376114990234375,6.519245147705078,-2.403590440750122,-7.883752346038818
1789115779528964400,2.39496435546875,3.531208038330078,-1.5035899877548218,-6.392126560211182
1789115779547813400,2.4138134765625,3.239283561706543,-2.4227328300476074,-8.3267240524292
1789115779566662700,2.43266259765625,2.7436702251434326,-4.429114818572998,-8.851051330566406
1789115779585511700,2.45151171875,6.73938512802124,-3.85693097114563,-6.930810928344727
1789115779604361000,2.47036083984375,5.324329376220703,-2.427518606185913,-5.319543838500977
1789115779623210200,2.489210205078125,4.431507587432861,-0.41186460852622986,-4.54636287689209
1789115779642059300,2.508059326171875,1.3094722032546997,-1.7620147466659546,-8.271688461303711
1789115779660908500,2.526908447265625,4.642076015472412,-3.277568817138672,-10.36630630493164
1789115779679757800,2.5457578125,5.307579517364502,-1.958226203918457,-7.752147197723389
1789115779698606800,2.56460693359375,5.472983360290527,-0.7444669604301453,-4.084249019622803
1789115779717456100,2.5834560546875,3.7827534675598145,-0.4621138870716095,-3.507279872894287
1789115779736305400,2.602305419921875,0.701396107673645,-3.0810582637786865,-8.338687896728516
1789115779755154400,2.621154541015625,6.2413787841796875,-0.6966105103492737,-8.64496898651123
1789115779774003700,2.640003662109375,2.5450658798217773,-2.1882362365722656,-3.8617167472839355
1789115779802277600,2.668277587890625,2.0757737159729004,-9.315557479858398,-9.688838005065918
1789115779821126700,2.687126708984375,5.317151069641113,-11.929716110229492,-9.095118522644043
1789115779839976000,2.705975830078125,4.077070713043213,-16.715660095214844,-13.646267890930176
1789115779858825200,2.7248251953125,6.588637351989746,-14.627923011779785,-0.7396813035011292
1789115779877674500,2.743674560546875,1.4940186738967896,-12.672089576721191,-3.3278181552886963
1789115779896523500,2.7625234375,2.1164517402648926,-11.702398300170898,-4.146462440490723
1789115779915372800,2.781372802734375,5.554339408874512,-9.157332420349121,-2.9709885120391846
1789115779934222000,2.80022216796875,4.390829563140869,-8.4200439453125,-1.3884353637695312
1789115779953071400,2.8190712890625,2.286342144012451,-8.180761337280273,-2.944667339324951
1789115779971920400,2.83792041015625,-1.8266209363937378,-6.061916828155518,-4.196712017059326
1789115779990769700,2.856769775390625,2.1619153022766113,-7.086643218994141,-5.408377170562744
1789115780009619000,2.875618896484375,9.09272575378418,-4.685146808624268,-7.790432453155518
1789115780028468200,2.89446826171875,9.36341381072998,-4.838586330413818,-7.333104133605957
1789115780047317500,2.9133173828125,5.041976451873779,-8.616254806518555,-5.932704448699951
1789115780066166800,2.932166748046875,5.2477593421936035,-11.173285484313965,-9.176474571228027
1789115780085015800,2.951015869140625,8.841479301452637,-8.216653823852539,-8.546863555908203
1789115780103865000,2.969864990234375,9.233902931213379,-10.500602722167969,-9.198010444641113
1789115780122714400,2.98871435546875,2.0997018814086914,-8.484649658203125,-7.553243637084961
1789115780141563600,3.007563720703125,1.5107684135437012,-2.7173492908477783,-3.2727832794189453
1789115780160413000,3.026412841796875,6.763313293457031,-2.1930220127105713,-8.127820014953613
1789115780179262200,3.04526220703125,12.154940605163574,-14.824134826660156,-8.365009307861328
1789115780198111500,3.064111572265625,5.013262748718262,-18.716957092285156,-7.610970497131348
1789115780216960500,3.08296044921875,0.9218349456787109,-11.168499946594238,-1.6112669706344604
1789115780235809800,3.101809814453125,4.500899314880371,-7.474280834197998,1.1324033737182617
1789115780254659000,3.1206591796875,6.526423931121826,-7.835896015167236,1.8170497417449951
1789115780273508400,3.13950830078125,3.880859136581421,-3.2512478828430176,1.2951152324676514
1789115780292357600,3.158357666015625,4.2281174659729,-4.929513931274414,-1.678265929222107
1789115780311207000,3.17720703125,1.5203397274017334,-2.848954439163208,-6.665207386016846
1789115780330056200,3.19605615234375,5.209474086761475,-5.987739562988281,-5.358128070831299
1789115780348905500,3.214905517578125,8.975478172302246,-6.634100914001465,-3.256033420562744
1789115780367754800,3.233754638671875,-3.4857444763183594,8.345866203308105,-6.643671989440918
1789115780386604000,3.25260400390625,9.533304214477539,-1.8026927709579468,-4.122534275054932
1789115780405453300,3.271453369140625,5.508875846862793,-5.762515068054199,-6.136094570159912
1789115780424302600,3.290302490234375,4.455435752868652,-8.56600570678711,-6.7657060623168945
1789115780443152000,3.30915185546875,5.736194133758545,-5.925526142120361,-5.334199905395508
1789115780462001200,3.328001220703125,6.210271835327148,-2.9398818016052246,-3.586242914199829
1789115780480850400,3.346850341796875,7.471887588500977,-7.469494819641113,-0.9768698215484619
1789115780499699700,3.36569970703125,8.168797492980957,-7.519744396209717,-3.037987470626831
1789115780518549000,3.384549072265625,4.117748737335205,-6.784848690032959,-5.173581600189209
1789115780537398300,3.403398193359375,7.850253105163574,-6.346662998199463,-2.7987051010131836
1789115780556247600,3.42224755859375,5.092225551605225,-7.65164852142334,-4.120141506195068
1789115780575096800,3.441096923828125,4.984548568725586,-8.022536277770996,-4.29033088684082
1789115780593946000,3.459946044921875,4.53200626373291,-6.961917400360107,-2.5112674236297607
1789115780612795400,3.47879541015625,7.476673603057861,-11.692827224731445,-2.4227328300476074
1789115780631644700,3.497644775390625,4.9654059410095215,-7.136892795562744,-5.140082359313965
1789115780650494000,3.516493896484375,4.565505504608154,0.07178468257188797,-6.751348972320557
1789115780669343200,3.53534326171875,8.472685813903809,1.3860424757003784,-0.9337990283966064
1789115780688192800,3.55419287109375,2.5474588871002197,6.389733791351318,7.103393077850342
1789115780707042000,3.5730419921875,7.857431411743164,6.8757758140563965,3.833002805709839
1789115780725891300,3.591891357421875,7.45992374420166,-5.472983360290527,-2.8585257530212402
1789115780744740600,3.61074072265625,9.282057762145996,-11.259427070617676,-0.7061817646026611
1789115780763590000,3.62958984375,6.329913139343262,-10.26341438293457,1.678265929222107
1789115780782439200,3.648439208984375,5.760122299194336,-12.477972030639648,4.175176620483398
1789115780801288400,3.667288330078125,7.548458099365234,-12.171690940856934,4.548755645751953
1789115780820137700,3.6861376953125,4.29033088684082,-8.487042427062988,3.160320520401001
1789115780838987300,3.7049873046875,5.760122299194336,-6.176772594451904,2.39401912689209
1789115780857836500,3.72383642578125,7.333104133605957,-4.761716842651367,0.9768698215484619
1789115780876685800,3.742685791015625,5.796014785766602,-5.061119079589844,-0.27756741642951965
1789115780895535000,3.76153515625,4.986941337585449,-7.6013994216918945,0.6535396575927734
1789115780914384400,3.78038427734375,6.667600154876709,-10.806884765625,2.001596212387085
1789115780942658600,3.808658447265625,6.588637351989746,-12.166905403137207,4.527220249176025
1789115780961507800,3.8275078125,6.286842346191406,-12.30808162689209,4.687539577484131
1789115780980357000,3.846357177734375,5.075475692749023,-10.622636795043945,5.219045162200928
1789115780999206400,3.865206298828125,5.144867897033691,-8.099106788635254,4.60857629776001
1789115781018055700,3.8840556640625,4.84815788269043,-9.449555397033691,4.857728958129883
1789115781036905200,3.9029052734375,5.544768333435059,-9.823135375976562,5.683551788330078
1789115781055754500,3.92175439453125,6.780063152313232,-8.496614456176758,3.0427730083465576
1789115781074603800,3.940603759765625,6.248557090759277,-8.415258407592773,2.549851655960083
1789115781093453000,3.959453125,5.767300605773926,-10.323235511779785,2.1643080711364746
1789115781121727200,3.987727294921875,4.271188259124756,-10.237093925476074,4.194318771362305
1789115781140576500,4.006576416015625,4.431507587432861,-8.819944381713867,4.584648132324219
1789115781159425800,4.02542578125,4.54636287689209,-7.232605457305908,3.8832521438598633
1789115781178275300,4.044275390625,4.527220249176025,-6.329913139343262,2.3605196475982666
1789115781197124600,4.06312451171875,4.563112735748291,-6.49770975112915,1.2376874685287476
1789115781215974000,4.081973876953125,4.067499160766602,-6.284449577331543,1.0941181182861328
1789115781234823200,4.1008232421875,4.66361141204834,-6.363412857055664,0.5889334678649902
1789115781253672700,4.119672607421875,6.21266508102417,-7.034001350402832,0.064606212079525
1789115781272522000,4.13852197265625,7.524529933929443,-7.656434059143066,-0.17946170270442963
1789115781291371300,4.157371337890625,8.381758689880371,-8.446364402770996,0.11964113265275955
1789115781310220800,4.176220703125,10.069596290588379,-9.652945518493652,-1.2616157531738281
1789115781329070000,4.195070068359375,10.708778381347656,-9.832706451416016,-0.7803592681884766
1789115781347919400,4.21391943359375,9.954740524291992,-9.238688468933105,1.292722463607788
1789115781366769000,4.232768798828125,7.874181270599365,-8.28843879699707,0.8401798605918884
1789115781385618200,4.2516181640625,6.583851337432861,-6.856633186340332,1.3668999671936035
1789115781404467500,4.270467529296875,6.356234073638916,-5.453841209411621,2.6192433834075928
1789115781423317000,4.28931689453125,7.359425067901611,-5.7649078369140625,2.341377019882202
1789115781442166300,4.308166259765625,8.137690544128418,-7.464709281921387,2.358126640319824
1789115781461015800,4.327015869140625,6.418447494506836,-6.634100914001465,1.8744773864746094
1789115781479865000,4.345864990234375,5.652445316314697,-4.929513931274414,0.5386841893196106
1789115781498714400,4.36471435546875,7.146463871002197,-3.749253988265991,-0.1579262912273407
1789115781517564000,4.38356396484375,9.755837440490723,-2.729313373565674,-0.6918248534202576
1789115781536413200,4.4024130859375,8.678468704223633,-2.6264219284057617,-0.8138588070869446
1789115781555262700,4.4212626953125,5.06590461730957,-2.8202404975891113,-0.6702894568443298
1789115781574112000,4.440112060546875,5.132903575897217,-3.1316065788269043,0.9984052777290344
1789115781592961300,4.458961181640625,5.221437931060791,-3.722932815551758,2.1619153022766113
1789115781611810800,4.477810791015625,7.6013994216918945,-3.1004998683929443,1.83619225025177
1789115781630660000,4.49666015625,7.057929515838623,-3.3278181552886963,0.45972105860710144
1789115781649509600,4.515509521484375,6.389733791351318,-3.3780672550201416,-0.12921242415905
1789115781668359000,4.53435888671875,7.290033340454102,-2.614457845687866,0.6702894568443298
1789115781687208400,4.55320849609375,6.457031726837158,-1.9680966138839722,0.612861692905426
1789115781706057700,4.5720576171875,6.4375901222229,-1.599302887916565,0.4980062246322632
1789115781724907300,4.5909072265625,8.012965202331543,-2.0614166259765625,0.33529427647590637
1789115781743756500,4.609756591796875,7.941180229187012,-3.2727832794189453,-0.3113660514354706
1789115781762605800,4.628605712890625,7.498208999633789,-4.285545349121094,-0.9266205430030823
1789115781781455400,4.647455322265625,8.108677864074707,-4.903192520141602,-0.9625129103660583
1789115781800305000,4.666304931640625,8.211868286132812,-5.5830535888671875,-0.8138588070869446
1789115781819154200,4.685154296875,7.658827304840088,-6.286842346191406,-0.2153540402650833
1789115781838003700,4.704003662109375,6.8757758140563965,-6.758527755737305,0.4453641176223755
1789115781856853000,4.72285302734375,6.6915283203125,-6.849454879760742,0.5578267574310303
1789115781875702500,4.74170263671875,6.794419765472412,-5.978168487548828,0.5482555031776428
1789115781894551800,4.7605517578125,6.286842346191406,-4.819443702697754,-0.10289137065410614
1789115781913401300,4.7794013671875,5.6548380851745605,-4.836193561553955,0.26081767678260803
1789115781932250600,4.798250732421875,7.52931547164917,-6.595815658569336,1.0701899528503418
1789115781951100200,4.81710009765625,7.890930652618408,-9.38734245300293,1.7691932916641235
1789115781969949400,4.835949462890625,5.2477593421936035,-11.558829307556152,2.104487419128418
1789115781988799000,4.854799072265625,5.266901969909668,-12.978370666503906,2.2241287231445312
1789115782007648300,4.873648193359375,6.669992923736572,-12.245867729187012,2.159522533416748
1789115782026497800,4.892497802734375,7.026822566986084,-9.973882675170898,2.6192433834075928
1789115782045347300,4.911347412109375,7.309175968170166,-11.4652099609375,3.801896095275879
1789115782064196600,4.930196533203125,6.023632049560547,-12.588041305541992,4.843372344970703
1789115782083046100,4.949046142578125,4.744967460632324,-9.89013385772705,4.031607151031494
1789115782101895400,4.9678955078125,4.311866283416748,-7.239784240722656,3.0236306190490723
1789115782120745000,4.986744873046875,5.274080276489258,-7.223034381866455,2.3054845333099365
1789115782139594500,5.005594482421875,5.774479389190674,-8.140083312988281,2.573779821395874
1789115782158443800,5.02444384765625,5.3940205574035645,-8.02492904663086,2.2193429470062256
1789115782177293300,5.043293212890625,5.202295303344727,-8.443971633911133,2.2480568885803223
1789115782196142800,5.062142822265625,5.132903575897217,-9.48784065246582,2.6790640354156494
1789115782214992100,5.0809921875,4.124927043914795,-9.784550666809082,4.264009952545166
1789115782233841700,5.099841552734375,3.7851462364196777,-9.700801849365234,4.9654059410095215
1789115782252691000,5.11869091796875,4.977370262145996,-9.147761344909668,4.079463481903076
1789115782271540500,5.13754052734375,5.7720866203308105,-9.018548965454102,2.659921407699585
1789115782290390000,5.15639013671875,5.254937648773193,-8.884550094604492,1.7979071140289307
1789115782309239300,5.1752392578125,5.44426965713501,-9.37059211730957,1.3310075998306274
1789115782328088800,5.1940888671875,6.488138675689697,-9.856635093688965,1.3597214221954346
1789115782346938400,5.2129384765625,7.215855598449707,-9.535696983337402,1.7021942138671875
1789115782365787600,5.23178759765625,7.227819919586182,-9.07119083404541,1.1467602252960205
1789115782384637200,5.25063720703125,6.526423931121826,-8.714659690856934,0.009571290574967861
1789115782403486700,5.26948681640625,5.84147834777832,-8.398508071899414,-0.7516453862190247
1789115782422336300,5.288336181640625,5.652445316314697,-7.797610759735107,-1.6375880241394043
1789115782441185500,5.307185546875,7.146463871002197,-7.3283185958862305,-1.1084750890731812
1789115782460035000,5.32603515625,7.979465484619141,-7.471887588500977,-0.7540382146835327
1789115782478884600,5.344884521484375,6.945167541503906,-7.469494819641113,-0.23449662327766418
1789115782497734100,5.363734130859375,6.478567123413086,-6.4375901222229,0.4286143481731415
1789115782516583400,5.38258349609375,7.761718273162842,-5.504090309143066,1.1324033737182617
1789115782535433000,5.401432861328125,8.134998321533203,-5.415555953979492,1.4557334184646606
1789115782554282500,5.420282470703125,8.305188179016113,-6.5527448654174805,0.6918248534202576
1789115782573131800,5.4391318359375,8.530113220214844,-5.884549140930176,0.1579262912273407
1789115782591981300,5.457981201171875,7.749754428863525,-5.700301647186279,0.7564310431480408
1789115782610830800,5.476830810546875,6.550352096557617,-5.5998029708862305,-0.1052841991186142
1789115782629680400,5.495680419921875,7.026822566986084,-4.328616142272949,-1.7859430313110352
1789115782648530000,5.514530029296875,6.495316982269287,-3.9143588542938232,-0.9026923179626465
1789115782667379500,5.53337939453125,6.0834527015686035,-2.2337000370025635,-0.20578274130821228
1789115782686228700,5.552228759765625,4.884049892425537,-1.415055513381958,0.6631109714508057
1789115782705078300,5.571078369140625,5.370092391967773,-2.14516544342041,0.6032904386520386
1789115782723927800,5.589927734375,5.463412284851074,-2.7987051010131836,0.6990033388137817
1789115782742777300,5.60877734375,6.550352096557617,-3.208176851272583,0.13160525262355804
1789115782761626600,5.627626708984375,7.790432453155518,-3.349353551864624,-0.05742774158716202
1789115782780476200,5.64647607421875,7.591827869415283,-2.4777679443359375,0.07896314561367035
1789115782799325700,5.66532568359375,6.983452796936035,-2.769991397857666,-0.5817549824714661
1789115782818175200,5.68417529296875,7.740182876586914,-3.088535785675049,-0.29700911045074463
1789115782837024800,5.703024658203125,6.914061069488525,-3.3996028900146484,-0.9649057388305664
1789115782855874300,5.721874267578125,7.483851909637451,-3.6293137073516846,-0.9409775137901306
1789115782874723600,5.7407236328125,8.271688461303711,-3.943072557449341,-1.0103694200515747
1789115782893573000,5.759572998046875,7.380960464477539,-4.922335147857666,-0.5697908997535706
1789115782912422700,5.778422607421875,7.06271505355835,-6.035595893859863,0.11724831163883209
1789115782931272200,5.797272216796875,7.139285564422607,-6.80877685546875,0.5769693851470947
1789115782950121700,5.816121826171875,7.163213729858398,-6.667600154876709,0.8330013751983643
1789115782968971300,5.83497119140625,6.349055767059326,-6.401698112487793,0.5123631358146667
1789115782987820800,5.85382080078125,6.758527755737305,-6.231807708740234,0.45254257321357727
1789115783006670300,5.87267041015625,6.516852378845215,-6.545566558837891,0.4334000051021576
1789115783034944500,5.900944580078125,5.164010524749756,-8.250153541564941,1.8026927709579468
1789115783053794000,5.9197939453125,3.952643871307373,-8.987442016601562,2.5378875732421875
1789115783072643600,5.9386435546875,5.175974369049072,-9.585947036743164,2.6168506145477295
1789115783091493000,5.9574931640625,7.153642177581787,-9.566803932189941,2.056631088256836
1789115783110342700,5.9763427734375,6.128916263580322,-11.429317474365234,2.4059832096099854
1789115783129192200,5.995192138671875,6.464210510253906,-13.548161506652832,2.6192433834075928
1789115783148041700,6.014041748046875,7.3283185958862305,-12.406187057495117,2.9255247116088867
1789115783166891000,6.03289111328125,6.483353137969971,-10.107880592346191,3.2297122478485107
1789115783185740500,6.051740478515625,5.659623622894287,-9.693623542785645,3.325425386428833
1789115783204590000,6.070590087890625,6.325127601623535,-9.882955551147461,3.3756744861602783
1789115783223439600,6.089439697265625,5.831906795501709,-9.159725189208984,2.9949166774749756
1789115783242289200,6.1082890625,6.176772594451904,-8.8438720703125,2.4394826889038086
1789115783261138700,6.127138671875,6.942774772644043,-10.234700202941895,3.0403802394866943
1789115783279988200,6.14598828125,5.683551788330078,-10.074381828308105,3.974179267883301
1789115783298837800,6.164837646484375,4.3310089111328125,-9.310771942138672,3.9382870197296143
1789115783317687300,6.183687255859375,3.73250412940979,-8.633005142211914,3.0933215618133545
1789115783336536800,6.202536865234375,3.6053855419158936,-8.120641708374023,2.9877381324768066
1789115783355386400,6.221386474609375,3.8162529468536377,-7.8765740394592285,2.8130621910095215
1789115783374236000,6.24023583984375,4.311866283416748,-7.555636405944824,2.444268226623535
1789115783393085400,6.25908544921875,4.8792643547058105,-7.855038642883301,1.8026927709579468
1789115783411935000,6.27793505859375,5.429912567138672,-8.11824893951416,1.165902853012085
1789115783430784500,6.296784423828125,6.255735874176025,-8.446364402770996,0.797109067440033
1789115783449634000,6.315634033203125,6.787241458892822,-8.779266357421875,-0.37597227096557617
1789115783468483600,6.334483642578125,7.538887023925781,-8.925228118896484,-1.2711870670318604
1789115783487333000,6.3533330078125,7.764111042022705,-9.27009391784668,-0.5554339289665222
1789115783506182700,6.3721826171875,8.980263710021973,-10.012167930603027,-1.067797064781189
1789115783534457000,6.40045703125,8.214261054992676,-9.990633010864258,0.39990049600601196
1789115783553306600,6.419306640625,8.381758689880371,-8.238189697265625,1.6351951360702515
1789115783572156200,6.43815625,8.11824893951416,-7.349853992462158,2.097309112548828
1789115783591005700,6.457005615234375,7.017251491546631,-6.73938512802124,1.098903775215149
1789115783609855200,6.475855224609375,6.909275531768799,-5.829514026641846,0.37597227096557617
1789115783628704800,6.494704833984375,7.965108394622803,-5.231009483337402,0.07896314561367035
1789115783647554300,6.51355419921875,7.301997184753418,-5.8821563720703125,0.7899305820465088
1789115783666404000,6.532404052734375,5.00369119644165,-4.958227634429932,1.3932210206985474
1789115783685253400,6.55125341796875,5.1783671379089355,-3.318246841430664,0.3329014480113983
1789115783704103200,6.570103271484375,7.579864025115967,-3.739682674407959,-0.9218349456787109
1789115783722952700,6.58895263671875,7.785646915435791,-4.211368083953857,-1.5107684135437012
1789115783741802200,6.60780224609375,5.843871116638184,-2.944667339324951,-1.2448660135269165
1789115783760651800,6.62665185546875,5.518447399139404,-2.755634307861328,-0.8787640929222107
1789115783779501300,6.645501220703125,6.602993965148926,-2.777169704437256,0.49322056770324707
1789115783798350800,6.664350830078125,5.760122299194336,-3.098107099533081,0.6320042610168457
1789115783817200400,6.683200439453125,6.066702842712402,-3.1244282722473145,0.28983065485954285
1789115783836050200,6.70205029296875,8.0081787109375,-3.0810582637786865,-0.040677983313798904
1789115783854899700,6.720899658203125,6.509674072265625,-3.13639235496521,0.5171487927436829
1789115783873749200,6.739749267578125,6.195915222167969,-2.4538395404815674,0.7277171611785889
1789115783892598800,6.758598876953125,6.9690961837768555,-1.7333009243011475,0.23688943684101105
1789115783911448300,6.7774482421875,6.612565517425537,-1.4940186738967896,-0.4334000051021576
1789115783930297900,6.7962978515625,7.004988193511963,-2.9470601081848145,-0.8811569213867188
1789115783949147400,6.8151474609375,7.323532581329346,-4.0196428298950195,-1.2305090427398682
1789115783967997200,6.8339970703125,6.567101955413818,-4.41475772857666,-1.4581263065338135
1789115783986846700,6.8528466796875,7.507780075073242,-5.389235019683838,-1.197009563446045
1789115784005696300,6.8716962890625,7.656434059143066,-6.703492641448975,-0.5386841893196106
1789115784024545800,6.8905458984375,7.337889671325684,-7.3522467613220215,-0.059820566326379776
1789115784043395300,6.909395263671875,6.825526714324951,-7.4479594230651855,0.11246266216039658
1789115784062245000,6.9282451171875,6.339484691619873,-7.366603374481201,0.3568296730518341
1789115784081094700,6.9470947265625,6.512066841125488,-6.988238334655762,0.6990033388137817
1789115784099944200,6.965944091796875,5.9901323318481445,-7.115357398986816,1.7285152673721313
1789115784118793700,6.984793701171875,6.679564476013184,-8.769695281982422,2.441875457763672
1789115784137643500,7.0036435546875,7.057929515838623,-10.42642593383789,1.970489501953125
1789115784156493000,7.0224931640625,6.370591163635254,-11.321640014648438,1.3525429964065552
1789115784175342600,7.041342529296875,5.7170515060424805,-11.731112480163574,1.446162223815918
1789115784194192100,7.060192138671875,6.329913139343262,-12.116655349731445,2.4155545234680176
1789115784213041700,7.079041748046875,5.6859450340271,-10.653743743896484,4.225724697113037
1789115784231891500,7.097891357421875,4.764110088348389,-9.442377090454102,3.88803768157959
1789115784250741000,7.116740966796875,5.001298427581787,-8.226224899291992,2.3700907230377197
1789115784269590500,7.135590576171875,5.053940296173096,-8.589934349060059,1.6447664499282837
1789115784288440300,7.1544404296875,4.455435752868652,-9.52612590789795,2.434697151184082
1789115784316714500,7.182714599609375,6.203093528747559,-9.344271659851074,2.784348249435425
1789115784344989000,7.210989013671875,6.643671989440918,-10.81406307220459,5.180759906768799
1789115784363838700,7.229838623046875,6.136094570159912,-9.866206169128418,4.268795490264893
1789115784382688300,7.248688232421875,4.036392688751221,-8.522934913635254,2.911167860031128
1789115784401537800,7.267537841796875,3.921537160873413,-8.338687896728516,0.924227774143219
1789115784420387600,7.2863876953125,3.9789650440216064,-8.685647010803223,1.3860424757003784
1789115784439237000,7.305237060546875,4.646861553192139,-10.244272232055664,4.057928085327148
1789115784458086700,7.324086669921875,5.932704448699951,-10.225129127502441,5.36769962310791
1789115784476936200,7.342936279296875,6.305984973907471,-8.508578300476074,3.935894250869751
1789115784495786000,7.361785888671875,6.291627883911133,-7.512565612792969,1.342971682548523
1789115784514635500,7.380635498046875,5.980561256408691,-7.019644260406494,-0.612861692905426
1789115784533485000,7.399485107421875,5.774479389190674,-7.560422420501709,-1.7883358001708984
1789115784552334800,7.4183349609375,7.45992374420166,-8.81515884399414,-2.808276414871216
1789115784571184400,7.437184326171875,8.2788667678833,-9.904491424560547,-3.0475587844848633
1789115784590034200,7.4560341796875,7.800003528594971,-10.148558616638184,-1.8577276468276978
1789115784608883700,7.4748837890625,7.330711364746094,-10.18445110321045,-0.646361231803894
1789115784627733200,7.493733154296875,6.882954120635986,-8.817551612854004,1.067797064781189
1789115784656007700,7.522007568359375,7.2589263916015625,-5.700301647186279,1.3573286533355713
1789115784674857500,7.540857421875,6.792026996612549,-6.171987056732178,1.80508553981781
1789115784693707000,7.55970703125,6.598208427429199,-6.727420806884766,1.1682956218719482
1789115784712556800,7.578556884765625,7.120142936706543,-6.188736438751221,1.6040884256362915
1789115784731406300,7.59740625,8.084749221801758,-5.173581600189209,2.645564556121826
1789115784750255900,7.616255859375,5.688337802886963,-4.862514495849609,2.5618157386779785
1789115784769105700,7.635105712890625,5.697908878326416,-4.134498596191406,-0.3161516785621643
1789115784787955200,7.653955078125,8.886942863464355,-4.026821613311768,-3.2512478828430176
1789115784806804700,7.6728046875,7.898109436035156,-3.770789384841919,-2.1954147815704346
1789115784825654500,7.691654541015625,3.5647075176239014,-1.7955143451690674,-1.098903775215149
1789115784844504000,7.710504150390625,3.5886356830596924,-2.094916343688965,-0.02153540402650833
1789115784863353900,7.729353759765625,5.288437366485596,-1.9680966138839722,0.9170492887496948
1789115784882203400,7.748203369140625,6.669992923736572,-2.1882362365722656,0.8258228898048401
1789115784901053200,7.76705322265625,6.586244106292725,-2.645564556121826,-0.5650052428245544
1789115784919902700,7.78590283203125,8.238189697265625,-2.9159533977508545,-0.9601200819015503
1789115784938752500,7.80475244140625,8.123034477233887,-3.4235310554504395,-1.1276177167892456
1789115784957602000,7.82360205078125,6.2653069496154785,-3.8162529468536377,-0.035892341285943985
1789115784976451600,7.84245166015625,10.148558616638184,-3.739682674407959,0.3233301639556885
1789115784995301400,7.86130126953125,7.788039684295654,-4.843372344970703,-0.5099703073501587
1789115785014151000,7.88015087890625,7.132106781005859,-6.267699718475342,-0.6367899179458618
1789115785033000700,7.899000732421875,6.964310169219971,-6.543173313140869,-0.3161516785621643
1789115785051850200,7.917850341796875,4.960620403289795,-5.709873199462891,0.007178467698395252
1789115785070700000,7.936699951171875,5.978168487548828,-4.788337230682373,0.41904306411743164
1789115785089549600,7.955549560546875,6.593422889709473,-3.5671002864837646,-0.11246266216039658
1789115785108399400,7.9743994140625,6.200700759887695,-3.1100711822509766,-0.643968403339386
1789115785127249000,7.993248779296875,6.255735874176025,-4.041178226470947,-0.9984052777290344
1789115785146098700,8.0120986328125,6.009274959564209,-5.590231895446777,-1.0893324613571167
1789115785164948200,8.0309482421875,5.853442192077637,-6.794419765472412,-0.24406790733337402
1789115785183798000,8.049798095703125,6.593422889709473,-8.870193481445312,1.4003994464874268
1789115785202647600,8.0686474609375,8.460721969604492,-11.929716110229492,2.9398818016052246
1789115785221497300,8.087497314453126,6.284449577331543,-14.388640403747559,3.890430450439453
1789115785240347000,8.106346923828125,6.519245147705078,-15.425031661987305,3.617349624633789
1789115785259196700,8.12519677734375,6.62213659286499,-12.320045471191406,3.6583266258239746
1789115785278046200,8.144046142578125,6.435197353363037,-9.710372924804688,2.9853453636169434
1789115785296896000,8.16289599609375,6.550352096557617,-8.930013656616211,2.7125635147094727
1789115785315745800,8.181745849609374,6.439982891082764,-9.042476654052734,2.128415822982788
1789115785334595300,8.20059521484375,4.268795490264893,-8.796015739440918,1.3214362859725952
1789115785353445000,8.219445068359375,4.216153621673584,-8.764909744262695,1.1252248287200928
1789115785372294700,8.238294677734375,5.06590461730957,-9.581160545349121,1.6854444742202759
1789115785391144400,8.25714453125,5.547161102294922,-9.004191398620605,1.3597214221954346
1789115785409994200,8.275994140625,6.277271270751953,-8.542078018188477,2.3676979541778564
1789115785428843800,8.29484375,6.579065799713135,-9.087940216064453,2.896811008453369
1789115785447693600,8.313693603515626,5.353342533111572,-9.322735786437988,3.0475587844848633
1789115785466543000,8.332543212890625,4.252045631408691,-9.006584167480469,2.8274190425872803
1789115785485393000,8.351392822265625,3.7827534675598145,-8.353044509887695,3.028416156768799
1789115785504242700,8.37024267578125,4.256831645965576,-7.917252063751221,3.2201411724090576
1789115785523092200,8.38909228515625,4.946263313293457,-8.587541580200195,3.1651060581207275
1789115785541942000,8.40794189453125,5.104189872741699,-9.337093353271484,2.8920252323150635
1789115785560791600,8.42679150390625,6.339484691619873,-9.569196701049805,1.7021942138671875
1789115785579641300,8.445641357421875,7.069893836975098,-9.485447883605957,0.6678966283798218
1789115785598491000,8.464490966796875,7.227819919586182,-8.927620887756348,0.06939185410737991
1789115785617340700,8.483340576171875,7.057929515838623,-8.592327117919922,0.019142581149935722
1789115785636190500,8.5021904296875,6.9930243492126465,-8.599505424499512,0.12681959569454193
1789115785655040000,8.5210400390625,6.772884368896484,-8.305188179016113,0.2273181527853012
1789115785673889800,8.539889892578126,6.054738521575928,-7.766504287719727,0.4453641176223755
1789115785692739600,8.558739501953125,5.537590026855469,-6.966702938079834,0.579362154006958
1789115785711589000,8.577589111328125,5.542375564575195,-5.827121257781982,0.8739784955978394
1789115785730439000,8.59643896484375,7.167999267578125,-5.00369119644165,1.3716856241226196
1789115785749288700,8.615288818359375,8.580363273620605,-5.461019515991211,1.40279221534729
1789115785768138500,8.634138427734374,9.291629791259766,-6.353841304779053,0.46450668573379517
1789115785786988000,8.652988037109376,9.428020477294922,-7.199106216430664,0.8476574420928955
1789115785805837800,8.671837890625,8.290831565856934,-7.531708240509033,1.1491531133651733
1789115785824687600,8.6906875,6.705885410308838,-7.481459140777588,0.064606212079525
1789115785843537200,8.709537109375,6.909275531768799,-6.171987056732178,-0.9098708033561707
1789115785862387000,8.728386962890625,6.842276573181152,-5.429912567138672,-0.8210372924804688
1789115785881236700,8.74723681640625,5.456233978271484,-3.3134610652923584,-0.40707895159721375
1789115785900086300,8.766086181640626,6.267699718475342,-1.012762188911438,0.30179476737976074
1789115785918936000,8.78493603515625,5.78644323348999,-0.6559324860572815,0.490827739238739
1789115785937785900,8.803785888671875,5.982954025268555,-1.6304094791412354,-0.23688943684101105
1789115785956635600,8.8226357421875,4.689932346343994,-2.942274570465088,-0.8258228898048401
1789115785975485200,8.841485107421875,6.569494724273682,-2.9853453636169434,0.275174617767334
1789115785994335000,8.8603349609375,11.233105659484863,-2.5378875732421875,0.09571290761232376
1789115786013184800,8.879184814453126,7.3043904304504395,-3.7420754432678223,-1.5442678928375244
1789115786032034600,8.89803466796875,6.892525672912598,-3.708575963973999,-1.3597214221954346
1789115786050884000,8.916884033203125,5.748157978057861,-4.024428367614746,-0.9840483069419861
1789115786069734000,8.93573388671875,5.4179487228393555,-3.1746773719787598,-0.18424734473228455
1789115786088583700,8.954583740234375,6.229414463043213,-2.1068804264068604,-0.031106693670153618
1789115786107433500,8.97343359375,6.667600154876709,-2.6096723079681396,-0.33529427647590637
1789115786126283000,8.992282958984376,6.768098831176758,-4.0435709953308105,-0.31854450702667236
1789115786145132800,9.0111328125,6.653243541717529,-6.447161674499512,-0.4142574071884155
1789115786163982600,9.029982666015625,6.152844429016113,-9.212367057800293,0.1339980661869049
1789115786182832400,9.048832275390625,6.837490558624268,-9.157332420349121,1.3956137895584106
1789115786201682000,9.067681884765625,9.997811317443848,-7.309175968170166,0.2632105052471161
1789115786220531700,9.08653173828125,8.384151458740234,-6.760920524597168,-1.5203397274017334
1789115786239381500,9.105381591796874,4.934299468994141,-7.859824180603027,-0.6535396575927734
1789115786258231300,9.124231201171876,4.445864677429199,-8.494221687316895,0.4405784606933594
1789115786277081000,9.1430810546875,3.6436707973480225,-8.611469268798828,1.92951238155365
1789115786295930600,9.1619306640625,5.446662425994873,-8.276473999023438,3.9263229370117188
1789115786314780400,9.180780517578125,4.347758769989014,-9.576375007629395,4.905585289001465
1789115786333630200,9.199630126953124,5.257330417633057,-9.691230773925781,1.55623197555542
1789115786352480000,9.21847998046875,8.127820014953613,-11.587542533874512,0.610468864440918
1789115786371329800,9.237329833984376,7.278069019317627,-15.90868091583252,2.245664119720459
1789115786390179300,9.256179443359375,6.887740135192871,-17.4505558013916,2.3988046646118164
1789115786409029000,9.275029052734375,6.3825554847717285,-12.29133129119873,4.9725847244262695
1789115786427879000,9.29387890625,5.719444274902344,-7.294818878173828,5.0347981452941895
1789115786446728700,9.312728759765625,5.07308292388916,-4.795515537261963,2.094916343688965
1789115786465578500,9.33157861328125,4.591826438903809,-6.224628925323486,1.0295119285583496
1789115786484428300,9.35042822265625,5.302793979644775,-8.16401195526123,0.9337990283966064
1789115786503277800,9.36927783203125,4.744967460632324,-8.874979019165039,2.753241539001465
1789115786531552500,9.397552490234375,4.400400638580322,-8.707481384277344,3.1244282722473145
1789115786550402300,9.41640234375,4.3070807456970215,-7.3522467613220215,2.966202735900879
1789115786569252000,9.435252197265624,5.420341491699219,-7.194320201873779,2.23848557472229
1789115786588102000,9.454101806640624,5.097011566162109,-7.871788501739502,2.9925239086151123
1789115786606951700,9.47295166015625,6.564708709716797,-9.801301002502441,2.8202404975891113
1789115786625801500,9.491801513671875,8.108677864074707,-12.121440887451172,1.9920248985290527
1789115786644651300,9.5106513671875,7.627720355987549,-11.843574523925781,1.5753746032714844
1789115786663500800,9.529500732421875,8.211868286132812,-11.312068939208984,0.41186460852622986
1789115786682350600,9.5483505859375,8.503792762756348,-10.308877944946289,-0.5338985323905945
1789115786701200400,9.567200439453124,8.051250457763672,-9.207581520080566,-1.5083755254745483
1789115786720050200,9.58605029296875,6.686742782592773,-7.989036560058594,-0.9744769930839539
1789115786738900000,9.60489990234375,6.634100914001465,-7.867002487182617,-0.11964113265275955
1789115786757749800,9.623749755859375,6.294020652770996,-7.9627156257629395,1.7907286882400513
1789115786776599600,9.642599609375,6.471388816833496,-7.237390995025635,1.9319051504135132
1789115786795449300,9.661449462890625,5.712265968322754,-6.0834527015686035,2.39401912689209
1789115786814299100,9.680299072265624,7.654041290283203,-4.905585289001465,0.7540382146835327
1789115786833149000,9.69914892578125,8.336295127868652,-5.638088226318359,0.490827739238739
1789115786851998500,9.71799853515625,7.974679470062256,-4.517649173736572,0.5410770177841187
1789115786870848300,9.73684814453125,7.115357398986816,-3.9000017642974854,-1.9800606966018677
1789115786889698000,9.755697998046875,6.310770511627197,-6.0523457527160645,-1.3549357652664185
1789115786908547800,9.7745478515625,8.298009872436523,-5.6859450340271,1.2424731254577637
1789115786927397600,9.793397705078124,7.63729190826416,-4.563112735748291,0.9050851464271545
1789115786946247400,9.812247314453124,6.27487850189209,-2.786741018295288,0.5913262963294983
1789115786965097200,9.83109716796875,10.55803108215332,-2.2241287231445312,-1.5634105205535889
1789115786983947000,9.849947021484375,5.870192050933838,-5.030012130737305,-1.1754741668701172
1789115787002796800,9.868796875,5.477769374847412,-5.180759906768799,0.062213387340307236
1789115787031071500,9.897071533203125,6.066702842712402,-3.1172497272491455,2.386840581893921
1789115787049921300,9.91592138671875,7.333104133605957,0.22492532432079315,1.6016956567764282
1789115787068771000,9.93477099609375,3.569493293762207,-1.690230131149292,-0.7899305820465088
1789115787087620900,9.953620849609376,6.531209468841553,-1.0630114078521729,0.34247273206710815
1789115787106470700,9.972470703125,12.140583992004395,-0.4668995141983032,-1.572981834411621
1789115787125320400,9.991320556640625,4.194318771362305,-1.450947880744934,-3.6029927730560303
1789115787144170200,10.010170166015625,6.705885410308838,-3.8617167472839355,-3.2967114448547363
1789115787163020000,10.02902001953125,7.857431411743164,-6.186343669891357,-1.5131611824035645
1789115787181869800,10.047869873046874,6.5527448654174805,-7.050751209259033,0.8330013751983643
1789115787200719600,10.0667197265625,7.874181270599365,-8.697610855102539,1.572981834411621
1789115787219569400,10.0855693359375,8.496614456176758,-9.878170013427734,2.1475582122802734
1789115787238419200,10.104419189453125,9.265308380126953,-8.589934349060059,0.6391827464103699
1789115787257269000,10.12326904296875,6.732206344604492,-8.623434066772461,-0.9074779748916626
1789115787276118800,10.142118896484375,6.069095611572266,-9.585947036743164,-0.062213387340307236
1789115787294968600,10.160968505859374,6.049952983856201,-10.44796085357666,1.3908281326293945
1789115787313818400,10.179818359375,5.118546962738037,-9.669695854187012,1.8912272453308105
1789115787332668200,10.198668212890626,4.093820571899414,-6.610172748565674,1.3692927360534668
1789115787351518000,10.21751806640625,5.25254487991333,-5.290830135345459,1.194616675376892
1789115787370367700,10.23636767578125,7.811967849731445,-7.031608581542969,1.599302887916565
1789115787389217500,10.255217529296875,6.880561351776123,-12.387044906616211,2.403590440750122
1789115787408067300,10.2740673828125,4.218546390533447,-14.074881553649902,2.3748764991760254
1789115787426917000,10.292917236328124,6.045167446136475,-11.78136157989502,2.8441689014434814
1789115787445767000,10.311766845703126,6.191129684448242,-11.956037521362305,4.7401814460754395
1789115787464616700,10.33061669921875,7.692326545715332,-12.743874549865723,2.169093608856201
1789115787483466500,10.349466552734375,7.771289825439453,-11.321640014648438,1.1515458822250366
1789115787502316300,10.36831640625,8.190332412719727,-9.468698501586914,1.0510473251342773
1789115787521166000,10.387166015625,5.31475830078125,-7.048357963562012,1.4868401288986206
1789115787540015900,10.406015869140624,2.6001009941101074,-5.906383514404297,2.573779821395874
1789115787558865700,10.42486572265625,3.301496982574463,-8.056035995483398,3.7827534675598145
1789115787577715500,10.443715576171876,4.057928085327148,-9.926026344299316,4.872086048126221
1789115787596565200,10.462565185546875,4.893621444702148,-9.040083885192871,3.976572036743164
1789115787615415000,10.4814150390625,6.574280261993408,-9.248259544372559,0.7851449251174927
1789115787634264800,10.500264892578125,5.884549140930176,-9.50459098815918,0.6272186636924744
1789115787653114600,10.519114501953124,6.380162239074707,-9.243474006652832,0.524327278137207
1789115787671964700,10.537964599609374,6.87816858291626,-8.83669376373291,0.5697908997535706
1789115787690814500,10.556814453125,5.688337802886963,-8.029714584350586,1.1084750890731812
1789115787709664300,10.575664306640626,5.2956156730651855,-8.09671401977539,0.35922250151634216
1789115787728514000,10.59451416015625,5.214259624481201,-8.039285659790039,-0.016749758273363113
1789115787747363800,10.61336376953125,6.653243541717529,-7.7114691734313965,-1.1204391717910767
1789115787766213600,10.632213623046875,8.673683166503906,-8.65214729309082,-0.7301099896430969
1789115787785063400,10.6510634765625,9.432806015014648,-10.316056251525879,-0.3329014480113983
1789115787803913200,10.669913330078124,8.982656478881836,-9.032905578613281,-0.1746760457754135
1789115787822763000,10.688762939453126,10.064809799194336,-7.349853992462158,0.9912267923355103
1789115787841612800,10.70761279296875,8.348258972167969,-7.833503246307373,1.4820544719696045
1789115787860462600,10.726462646484375,5.626124382019043,-6.787241458892822,0.9577272534370422
1789115787879312600,10.745312744140625,6.605386734008789,-4.675575256347656,0.4692923426628113
1789115787898162400,10.764162353515625,7.526922702789307,-5.276473045349121,1.8888343572616577
1789115787917012200,10.78301220703125,8.089534759521484,-5.683551788330078,0.7755736112594604
1789115787935862000,10.801862060546876,9.40169906616211,-5.944668769836426,-0.6080760359764099
1789115787954711800,10.8207119140625,9.145368576049805,-5.573482036590576,-0.19142581522464752
1789115787973561600,10.8395615234375,4.998905658721924,-4.503292083740234,-0.41186460852622986
1789115787992411400,10.858411376953125,2.1858434677124023,-1.9510477781295776,-0.0933200865983963
1789115788011261200,10.87726123046875,5.197509765625,-0.6367899179458618,0.062213387340307236
1789115788030111200,10.896111328125,4.646861553192139,-0.8548358678817749,0.41904306411743164
1789115788048961000,10.9149609375,4.264009952545166,0.6535396575927734,-0.12203395366668701
1789115788067810800,10.933810791015626,6.028417587280273,-1.9486548900604248,-1.079761266708374
1789115788086660600,10.95266064453125,9.59073257446289,-2.8585257530212402,-1.1371889114379883
1789115788105510400,10.971510498046875,7.948358535766602,-2.731706142425537,-1.5418751239776611
1789115788124360200,10.990360107421875,8.228617668151855,-3.5407793521881104,-1.3357932567596436
1789115788143210000,11.0092099609375,12.051750183105469,-4.287938117980957,-1.3908281326293945
1789115788162060000,11.02806005859375,8.688039779663086,-5.781657695770264,-1.7356936931610107
1789115788180909800,11.046909912109374,6.447161674499512,-7.366603374481201,-0.39990049600601196
1789115788199759600,11.065759521484376,6.176772594451904,-6.320342063903809,0.5602195858955383
1789115788218609400,11.084609375,5.774479389190674,-4.196712017059326,0.7995018362998962
1789115788237459200,11.103459228515625,5.745765209197998,-3.555136203765869,0.6726822853088379
1789115788256309000,11.12230908203125,4.826622486114502,-4.271188259124756,0.9768698215484619
1789115788275159000,11.141158935546875,4.268795490264893,-4.850550651550293,0.8186444640159607
1789115788294008800,11.1600087890625,6.847062110900879,-5.681159019470215,0.21296121180057526
1789115788312858600,11.178858642578126,9.09990406036377,-6.341877460479736,-1.776371717453003
1789115788331708400,11.19770849609375,5.7409796714782715,-9.190832138061523,-1.83619225025177
1789115788350558200,11.21655810546875,8.274081230163574,-12.042179107666016,-0.7875377535820007
1789115788369408000,11.235407958984375,5.571089267730713,-13.936098098754883,1.6615161895751953
1789115788388258000,11.254258056640625,6.15045166015625,-13.004692077636719,5.585446357727051
1789115788407107800,11.27310791015625,7.263712406158447,-11.182856559753418,7.6013994216918945
1789115788425957600,11.29195751953125,6.380162239074707,-9.806086540222168,2.365305185317993
1789115788444807400,11.310807373046876,7.7353973388671875,-9.655338287353516,1.3405789136886597
1789115788463657200,11.3296572265625,7.771289825439453,-13.047762870788574,3.380460262298584
1789115788482507300,11.34850732421875,6.423233509063721,-11.721540451049805,0.21296121180057526
1789115788501357000,11.367357177734375,2.542673110961914,-8.003393173217773,0.5458626747131348
1789115788520206800,11.386206787109375,3.9382870197296143,-6.830312252044678,1.9872392416000366
1789115788539056600,11.405056640625,4.634897232055664,-8.609076499938965,2.6024937629699707
1789115788557906700,11.42390673828125,4.812265396118164,-8.376973152160645,2.9614171981811523
1789115788576756500,11.442756591796876,6.727420806884766,-9.399306297302246,2.9853453636169434
1789115788595606300,11.461606201171875,8.065607070922852,-12.274581909179688,3.0571300983428955
1789115788614456000,11.4804560546875,6.2413787841796875,-11.496315956115723,2.564208507537842
1789115788633305900,11.499305908203125,4.534399032592773,-8.290831565856934,2.3509483337402344
1789115788652156000,11.518156005859375,4.649254322052002,-6.294020652770996,2.090130567550659
1789115788671005700,11.537005615234374,4.721039295196533,-6.8757758140563965,2.3844478130340576
1789115788689855500,11.55585546875,3.777967929840088,-8.056035995483398,3.8234314918518066
1789115788708705300,11.574705322265626,4.701896667480469,-8.286046028137207,2.5184457302093506
1789115788727555300,11.593555419921875,6.057131290435791,-9.20997428894043,-0.059820566326379776
1789115788746405000,11.612405029296875,7.301997184753418,-9.423234939575195,-1.0654042959213257
1789115788765255000,11.6312548828125,8.65932559967041,-9.748658180236816,-1.8481563329696655
1789115788793529900,11.65952978515625,9.827920913696289,-10.849955558776855,-2.777169704437256
1789115788812379600,11.678379638671874,7.89332389831543,-8.86780071258545,-0.7492526173591614
1789115788831229400,11.6972294921875,6.6245293617248535,-8.666504859924316,0.4692923426628113
1789115788850079200,11.716079345703125,5.518447399139404,-7.677969455718994,1.596909999847412
1789115788868929300,11.73492919921875,5.578267574310303,-5.556732177734375,0.9481559991836548
1789115788887779000,11.753779052734375,5.456233978271484,-4.951049327850342,0.8042874932289124
1789115788906628900,11.77262890625,7.007380962371826,-4.800301551818848,0.6798607110977173
1789115788925479000,11.79147900390625,8.10389232635498,-4.8314080238342285,0.6248258352279663
1789115788944328700,11.81032861328125,8.333902359008789,-5.544768333435059,0.7420741319656372
1789115788963178500,11.829178466796876,5.927918910980225,-5.616552829742432,0.7133602499961853
1789115788982028300,11.8480283203125,3.552743434906006,-3.943072557449341,0.368793785572052
1789115789000878300,11.86687841796875,7.871788501739502,-1.6710875034332275,-1.0821540355682373
1789115789019728100,11.88572802734375,13.655838966369629,-2.458625316619873,-4.907978534698486
1789115789038578000,11.904577880859375,4.7931227684021,-6.631708145141602,-2.5307090282440186
1789115789057428000,11.923427978515624,5.8944196701049805,-3.4881372451782227,-0.5458626747131348
1789115789076277800,11.94227783203125,8.724231719970703,-4.4721856117248535,1.561017632484436
1789115789095127600,11.96112744140625,5.726622581481934,-3.9335012435913086,2.918346405029297
1789115789113977600,11.9799775390625,6.267699718475342,-2.755634307861328,1.048654556274414
1789115789132827400,11.998827392578125,5.930311679840088,-3.119642496109009,-0.34247273206710815
1789115789151677200,12.01767724609375,5.461019515991211,-1.6016956567764282,-0.7755736112594604
1789115789170527200,12.03652734375,4.951049327850342,-1.7309080362319946,-0.9457631707191467
1789115789189377000,12.055376953125,5.006083965301514,-2.20737886428833,-0.1698904037475586
1789115789208226800,12.074226806640626,8.147261619567871,-1.1515458822250366,0.6008976101875305
1789115789227076900,12.093076904296876,9.557232856750488,-1.572981834411621,-1.6639090776443481
1789115789245926700,12.1119267578125,4.984548568725586,-4.014857292175293,-0.9744769930839539
1789115789264776400,12.1307763671875,8.819944381713867,-5.472983360290527,-1.5945172309875488
1789115789283626500,12.14962646484375,6.911668300628662,-5.221437931060791,-1.77397882938385
1789115789302476300,12.168476318359374,8.621041297912598,-5.7720866203308105,-0.9960124492645264
1789115789321326000,12.187326171875,7.531708240509033,-7.108178615570068,-0.9026923179626465
1789115789340176100,12.206176025390626,5.657230854034424,-7.788039684295654,0.46450668573379517
1789115789359026000,12.22502587890625,6.361020088195801,-7.630113124847412,2.063809633255005
1789115789377876000,12.2438759765625,6.6149582862854,-8.82951545715332,3.4785659313201904
1789115789396725800,12.262725830078125,7.2182488441467285,-9.961918830871582,3.4235310554504395
1789115789415575600,12.281575439453125,7.05553674697876,-9.322735786437988,1.1060823202133179
1789115789434425600,12.300425537109374,7.857431411743164,-9.731908798217773,0.08374879509210587
1789115789453275400,12.319275390625,8.31715202331543,-11.884252548217773,-0.09810572862625122
1789115789472125200,12.338125244140626,5.84147834777832,-13.318450927734375,0.35443684458732605
1789115789490975200,12.356975341796876,4.963013172149658,-9.789336204528809,1.7931214570999146
1789115789509825000,12.375824951171875,5.343770980834961,-6.49770975112915,2.614457845687866
1789115789528674800,12.3946748046875,5.614160060882568,-6.485745906829834,1.4318052530288696
1789115789547524900,12.41352490234375,4.335794448852539,-6.832705020904541,0.37836506962776184
1789115789566374700,12.432374755859374,4.057928085327148,-7.6875410079956055,1.4892330169677734
1789115789585224700,12.451224609375,5.609374523162842,-11.039287567138672,2.863311290740967
1789115789604074500,12.470074462890626,5.463412284851074,-11.67129135131836,4.505684852600098
1789115789622924300,12.48892431640625,7.225427150726318,-10.428818702697754,4.177569389343262
1789115789641774300,12.5077744140625,7.433602809906006,-11.197213172912598,2.7484560012817383
1789115789660624100,12.5266240234375,6.04038143157959,-11.218749046325684,1.7309080362319946
1789115789679474200,12.54547412109375,4.242474555969238,-9.514162063598633,1.2448660135269165
1789115789698324000,12.564323974609374,3.397209882736206,-7.804789066314697,1.5586248636245728
1789115789717173800,12.583173828125,4.742574691772461,-7.526922702789307,1.7069798707962036
1789115789736023800,12.60202392578125,5.156831741333008,-8.772088050842285,2.4227328300476074
1789115789754873600,12.62087353515625,5.175974369049072,-8.927620887756348,2.98295259475708
1789115789773723600,12.6397236328125,7.093822002410889,-10.016953468322754,0.7875377535820007
1789115789792573400,12.658573486328125,7.646862983703613,-9.985847473144531,0.02632104977965355
1789115789811423200,12.67742333984375,8.71226692199707,-10.402497291564941,-1.8816559314727783
1789115789830273300,12.696273193359374,8.475078582763672,-10.098309516906738,-2.698206663131714
1789115789849123000,12.715123046875,6.521637916564941,-8.17119026184082,-1.6998014450073242
1789115789867973000,12.73397314453125,5.262115955352783,-7.613363265991211,-1.256830096244812
1789115789886823000,12.752822998046875,5.544768333435059,-7.043572425842285,-0.10767702013254166
1789115789905673000,12.7716728515625,6.669992923736572,-6.612565517425537,1.1156535148620605
1789115789924522800,12.790522705078125,7.498208999633789,-6.492924213409424,0.9768698215484619
1789115789943372800,12.809372802734375,7.378567695617676,-7.512565612792969,0.4956133961677551
1789115789962222600,12.82822265625,7.766504287719727,-8.28843879699707,0.48843491077423096
1789115789981072600,12.84707275390625,8.343473434448242,-7.536494255065918,1.3621143102645874
1789115789999922400,12.86592236328125,8.369794845581055,-6.555137634277344,1.3932210206985474
1789115790018772500,12.8847724609375,5.944668769836426,-5.949454307556152,0.766002357006073
1789115790037622300,12.903622314453125,6.15762996673584,-3.6822550296783447,-0.35922250151634216
1789115790056472000,12.92247216796875,7.773682594299316,-3.849752426147461,-0.8353942036628723
1789115790075322000,12.941322021484375,7.666005611419678,-3.6631124019622803,-1.1443674564361572
1789115790094172000,12.960171875,4.704289436340332,-2.4394826889038086,-0.5865406394004822
1789115790113022000,12.97902197265625,4.184747695922852,-1.9752750396728516,0.9505487680435181
1789115790131871700,12.997871826171876,6.531209468841553,-1.529910922050476,1.4003994464874268
1789115790150721800,13.0167216796875,8.187939643859863,-2.753241539001465,1.3980066776275635
1789115790169571600,13.035571533203125,7.673183917999268,-4.275974273681641,-0.7157530784606934
1789115790188421600,13.054421630859375,6.200700759887695,-5.592624664306641,-1.3932210206985474
1789115790207271400,13.073271484375,6.787241458892822,-3.967000722885132,0.09571290761232376
1789115790226121500,13.09212158203125,8.52772045135498,-2.341377019882202,0.3640081584453583
1789115790244971300,13.11097119140625,5.7409796714782715,-1.7356936931610107,-0.3041875660419464
1789115790263821300,13.1298212890625,6.756134510040283,-1.4294124841690063,-1.7620147466659546
1789115790282671000,13.148671142578126,5.755336761474609,-1.9657038450241089,-1.9752750396728516
1789115790301521200,13.167521240234375,5.2166523933410645,-1.9486548900604248,-1.6567305326461792
1789115790320371000,13.186370849609375,6.818347930908203,-1.7189439535140991,-1.2089736461639404
1789115790339221000,13.205220947265625,6.62931489944458,-1.776371717453003,-1.958226203918457
1789115790358070800,13.22407080078125,7.682755470275879,-3.75643253326416,-2.389233350753784
1789115790376920800,13.2429208984375,7.630113124847412,-7.438388347625732,-2.4705893993377686
1789115790395770600,13.2617705078125,6.636493682861328,-10.148558616638184,-1.5394822359085083
1789115790414620700,13.28062060546875,7.225427150726318,-11.594720840454102,0.6152545213699341
1789115790433470500,13.299470458984375,6.87099027633667,-11.211570739746094,2.355733871459961
1789115790452320500,13.318320556640625,5.776872158050537,-10.378270149230957,3.5742788314819336
1789115790471170300,13.33717041015625,6.1002020835876465,-9.174081802368164,3.6436707973480225
1789115790490020400,13.356020263671875,7.0531439781188965,-8.992227554321289,2.451446771621704
1789115790508870100,13.3748701171875,5.812764644622803,-8.077570915222168,1.252044439315796
1789115790527720200,13.39372021484375,5.377270698547363,-7.9866437911987305,1.1108678579330444
1789115790546570000,13.412570068359376,5.408377170562744,-8.451150894165039,1.1754741668701172
1789115790565420000,13.431419921875,5.504090309143066,-8.386544227600098,0.766002357006073
1789115790584269800,13.450269775390625,5.235795021057129,-8.903693199157715,0.6080760359764099
1789115790603119900,13.469119873046875,4.929513931274414,-10.251450538635254,2.4466612339019775
1789115790621970000,13.487969970703125,5.911169052124023,-12.640982627868652,4.175176620483398
1789115790640819700,13.50681982421875,7.4862446784973145,-12.207582473754883,2.5112674236297607
1789115790659669800,13.525669677734374,6.145665645599365,-8.147261619567871,2.427518606185913
1789115790678519600,13.54451953125,8.123034477233887,-9.274879455566406,1.695015788078308
1789115790697369600,13.56336962890625,7.144071102142334,-10.799705505371094,2.9709885120391846
1789115790716219400,13.582219482421875,6.21984338760376,-12.023036003112793,4.240081787109375
1789115790735069400,13.6010693359375,5.336592674255371,-12.162118911743164,3.9000017642974854
1789115790753919200,13.619919189453125,4.417150497436523,-9.533304214477539,2.942274570465088
1789115790772769300,13.638769287109374,4.73300313949585,-7.778468132019043,2.0542383193969727
1789115790791619000,13.657619140625,4.213760852813721,-6.820741176605225,2.1547367572784424
1789115790810469000,13.67646923828125,4.591826438903809,-6.8757758140563965,1.2233306169509888
1789115790829319000,13.69531884765625,4.852943420410156,-7.414460182189941,-0.038285162299871445
1789115790848169000,13.7141689453125,4.642076015472412,-7.514958381652832,0.1866401731967926
1789115790867019000,13.73301904296875,5.597410202026367,-7.850253105163574,-1.1084750890731812
1789115790885868800,13.751868896484375,6.679564476013184,-8.154440879821777,-1.3310075998306274
1789115790904718800,13.77071875,8.700303077697754,-8.83669376373291,-1.3956137895584106
1789115790923568600,13.789568603515624,9.61226749420166,-9.988240242004395,-2.355733871459961
1789115790942418700,13.808418701171876,8.81515884399414,-9.72233772277832,-1.8290138244628906
1789115790961268500,13.8272685546875,6.672386169433594,-8.17119026184082,0.3041875660419464
1789115790980118500,13.846118408203125,6.698707103729248,-7.206284523010254,1.7644076347351074
1789115790998968600,13.864968505859375,7.699504852294922,-6.262914180755615,2.0685951709747314
1789115791017818400,13.883818359375,8.391329765319824,-6.837490558624268,2.30069899559021
1789115791036668400,13.90266845703125,8.889336585998535,-8.432007789611816,1.7165511846542358
1789115791055518500,13.9215185546875,6.94038200378418,-8.20947551727295,0.6966105103492737
1789115791074368300,13.9403681640625,7.435995578765869,-6.243771553039551,-0.36640095710754395
1789115791093218300,13.95921826171875,8.336295127868652,-4.170390605926514,-0.47168517112731934
1789115791112068000,13.978068115234375,6.593422889709473,-3.061915636062622,-1.6998014450073242
1789115791130918100,13.996918212890625,3.6340994834899902,-2.7269206047058105,-2.472982168197632
1789115791149768000,14.015767822265625,3.5359935760498047,-3.0164520740509033,-1.6064813137054443
1789115791168618000,14.034617919921875,4.460221290588379,-1.6663018465042114,-0.6631109714508057
1789115791187468000,14.053468017578124,7.476673603057861,-1.438983678817749,1.9438693523406982
1789115791206317800,14.07231787109375,4.572684288024902,-3.6798620223999023,0.3281157910823822
1789115791225168000,14.09116796875,4.47697114944458,-3.2057840824127197,0.0023928226437419653
1789115791244017700,14.110017578125,8.290831565856934,-2.3461625576019287,0.7516453862190247
1789115791262867700,14.12886767578125,10.292128562927246,-2.372483730316162,0.004785645287483931
1789115791281717800,14.1477177734375,6.128916263580322,-4.189533233642578,-1.1611171960830688
1789115791300567600,14.166567626953125,6.806384086608887,-5.50648307800293,0.07896314561367035
1789115791319417600,14.18541748046875,6.550352096557617,-4.208974838256836,0.5434698462486267
1789115791338267600,14.204267578125,5.7409796714782715,-2.8226335048675537,0.5889334678649902
1789115791357117400,14.223117431640626,7.778468132019043,-1.1060823202133179,-1.0534402132034302
1789115791375967500,14.241967529296875,6.86381196975708,-0.3448655605316162,-2.8202404975891113
1789115791394817500,14.260817626953125,7.70668363571167,-1.079761266708374,-3.2057840824127197
1789115791413667300,14.279667236328125,6.0762739181518555,-3.653541088104248,-3.6870405673980713
1789115791432517400,14.298517333984375,5.807978630065918,-7.819146156311035,-1.8481563329696655
1789115791451367200,14.3173671875,8.532505989074707,-11.668898582458496,0.15074782073497772
1789115791470217200,14.33621728515625,7.455138206481934,-13.473984718322754,1.592124342918396
1789115791489067300,14.3550673828125,5.867799282073975,-12.554542541503906,1.8290138244628906
1789115791507917000,14.3739169921875,8.594719886779785,-10.390533447265625,2.14516544342041
1789115791526767000,14.39276708984375,6.68435001373291,-10.069596290588379,2.379662036895752
1789115791545617200,14.4116171875,4.881657123565674,-9.310771942138672,1.9558334350585938
1789115791564467000,14.430467041015625,5.525625705718994,-9.05444049835205,1.9438693523406982
1789115791583317000,14.44931689453125,6.451947212219238,-9.334700584411621,2.6886353492736816
1789115791602167000,14.4681669921875,5.84865665435791,-10.320842742919922,1.7691932916641235
1789115791621016800,14.487016845703126,4.833800792694092,-9.557232856750488,-0.02632104977965355
1789115791639867000,14.505866943359376,4.919942378997803,-7.747361660003662,0.32572299242019653
1789115791658716700,14.524716552734375,4.651647090911865,-9.38016414642334,3.006880760192871
1789115791677566700,14.543566650390625,4.840979099273682,-9.028120040893555,2.8824539184570312
1789115791696416800,14.562416748046875,4.9893341064453125,-6.768098831176758,1.7955143451690674
1789115791715266600,14.5812666015625,6.394519329071045,-6.478567123413086,1.0893324613571167
1789115791734116600,14.60011669921875,7.819146156311035,-10.339984893798828,1.1539387702941895
1789115791771816400,14.63781640625,6.361020088195801,-11.1373929977417,3.380460262298584
1789115791790666500,14.65666650390625,5.211866855621338,-10.416853904724121,3.145963668823242
1789115791809516500,14.6755166015625,4.041178226470947,-9.289237022399902,3.3062827587127686
1789115791828366300,14.694366455078125,5.587839126586914,-9.198010444641113,2.293520450592041
1789115791847216400,14.71321630859375,6.512066841125488,-10.706385612487793,1.0031908750534058
1789115791866066400,14.73206640625,8.065607070922852,-12.238689422607422,0.3640081584453583
1789115791884916500,14.75091650390625,7.670791149139404,-12.257832527160645,0.035892341285943985
1789115791903766300,14.769766357421876,5.49930477142334,-9.578767776489258,0.30658039450645447
1789115791922616300,14.7886162109375,4.850550651550293,-7.120142936706543,0.33050861954689026
1789115791941466400,14.80746630859375,5.511268615722656,-6.179165363311768,-0.5051847100257874
1789115791960316200,14.826316162109375,5.62373161315918,-6.538387775421143,0.2874378263950348
1789115791979166200,14.845166259765625,6.155237197875977,-6.887740135192871,-0.28504499793052673
1789115791998016300,14.864016357421875,5.760122299194336,-6.792026996612549,-0.981655478477478
1789115792016866000,14.882865966796874,7.574779033660889,-6.751348972320557,-1.319043517112732
1789115792035716000,14.901716064453124,8.664112091064453,-6.504888534545898,0.13160525262355804
1789115792054566100,14.920566162109376,9.679266929626465,-5.870192050933838,1.0773683786392212
1789115792073416000,14.939416015625,9.07119083404541,-7.287640571594238,0.9266205430030823
1789115792092266000,14.958265869140625,6.394519329071045,-7.3283185958862305,1.1467602252960205
1789115792111116000,14.977115966796875,7.368996620178223,-5.152046203613281,0.5410770177841187
1789115792129965800,14.9959658203125,11.290534019470215,-5.324329376220703,-1.1467602252960205
1789115792148816000,15.01481591796875,8.020143508911133,-8.127820014953613,-0.031106693670153618
1789115792167666000,15.033666015625,3.9502511024475098,-6.064310073852539,0.2946162819862366
1789115792186516000,15.052515869140626,5.013262748718262,-2.286342144012451,0.3640081584453583
1789115792205365800,15.07136572265625,5.324329376220703,-0.24646073579788208,1.194616675376892
1789115792224215800,15.0902158203125,4.314259052276611,-0.46450668573379517,0.14356936514377594
1789115792243065900,15.10906591796875,4.144069671630859,-1.5083755254745483,-0.7827520966529846
1789115792261915600,15.12791552734375,6.3753767013549805,-2.9470601081848145,-1.0606186389923096
1789115792280765700,15.146765625,4.771587371826172,-3.8473596572875977,-0.7779664397239685
1789115792299615700,15.16561572265625,6.358626842498779,-2.3748764991760254,0.5961119532585144
1789115792318465800,15.1844658203125,9.001798629760742,-1.896012783050537,-0.3233301639556885
1789115792337315600,15.203315673828126,7.579864025115967,-1.8888343572616577,-1.0151549577713013
1789115792356165600,15.22216552734375,8.781659126281738,-3.193819999694824,-2.6862425804138184
1789115792375015700,15.241015625,5.97098970413208,-4.632504463195801,-2.9015965461730957
1789115792393865500,15.259865478515625,7.606184959411621,-4.986941337585449,-1.3381860256195068
1789115792412715500,15.278715576171875,5.903990745544434,-5.283651351928711,-0.3496512174606323
1789115792431565600,15.297565673828124,5.997310638427734,-5.563910961151123,0.17706887423992157
1789115792450415600,15.31641552734375,8.362615585327148,-5.781657695770264,1.1276177167892456
1789115792469265400,15.335265380859376,7.560422420501709,-6.892525672912598,0.6152545213699341
1789115792488115500,15.354115478515626,6.447161674499512,-7.917252063751221,-0.612861692905426
1789115792506965500,15.372965576171875,5.7792649269104,-7.991429328918457,-0.7707880139350891
1789115792525815600,15.391815673828125,7.654041290283203,-8.80798053741455,-0.06939185410737991
1789115792544665300,15.410665283203125,6.485745906829834,-9.624231338500977,0.0526420995593071
1789115792563515400,15.429515380859375,4.939085006713867,-9.957133293151855,0.8835497498512268
1789115792582365400,15.448365478515624,5.939883232116699,-10.148558616638184,2.4921247959136963
1789115792601215500,15.467215576171874,6.349055767059326,-10.040882110595703,3.935894250869751
1789115792620065300,15.486065185546876,6.030810356140137,-10.632207870483398,3.339782238006592
1789115792638915300,15.504915283203125,6.679564476013184,-10.385747909545898,2.403590440750122
1789115792657765400,15.523765380859375,6.701099872589111,-11.1373929977417,2.8130621910095215
1789115792676615200,15.542615234375,6.4064836502075195,-11.47956657409668,2.3461625576019287
1789115792695465200,15.56146533203125,5.822335720062256,-9.042476654052734,1.1180464029312134
1789115792714315300,15.580315185546874,6.329913139343262,-9.823135375976562,0.17706887423992157
1789115792733165300,15.599165283203124,6.502495765686035,-10.524531364440918,2.2480568885803223
1789115792752015000,15.61801513671875,6.0762739181518555,-9.430413246154785,3.7851462364196777
1789115792770865200,15.636865234375,5.824728488922119,-8.805587768554688,2.659921407699585
1789115792789715200,15.655715087890625,4.970191955566406,-8.791230201721191,1.3022937774658203
1789115792808565200,15.674565185546875,4.529613494873047,-9.516554832458496,1.4294124841690063
1789115792827415300,15.693415283203125,4.994120121002197,-10.412068367004395,2.1882362365722656
1789115792846265000,15.71226513671875,5.66201639175415,-9.432806015014648,2.5953152179718018
1789115792865115100,15.731115234375,5.997310638427734,-8.40329360961914,2.0303099155426025
1789115792883965200,15.749965087890626,5.90877628326416,-8.400900840759277,1.0630114078521729
1789115792902815000,15.76881494140625,5.738586902618408,-8.618648529052734,-0.3329014480113983
1789115792921665000,15.7876650390625,6.066702842712402,-8.539685249328613,-1.4003994464874268
1789115792940515000,15.80651513671875,7.536494255065918,-8.606683731079102,-2.817847728729248
1789115792959365000,15.825365234375,8.489435195922852,-9.147761344909668,-1.6112669706344604
1789115792978215000,15.84421484375,8.472685813903809,-9.48066234588623,-0.5937191247940063
1789115792997065000,15.86306494140625,8.534899711608887,-9.325128555297852,-0.34725838899612427
1789115793015915000,15.8819150390625,8.197511672973633,-8.391329765319824,0.4262215197086334
1789115793034765000,15.90076513671875,7.443173885345459,-7.349853992462158,0.44297128915786743
1789115793053615000,15.919614990234376,6.15045166015625,-6.3993048667907715,0.23210379481315613
1789115793072465000,15.93846484375,6.037988662719727,-5.731408596038818,0.22013968229293823
1789115793091315000,15.95731494140625,6.116951942443848,-5.410770416259766,0.7396813035011292
1789115793110165000,15.9761650390625,7.34267520904541,-4.800301551818848,0.8210372924804688
1789115793129015000,15.99501513671875,7.792825222015381,-3.5647075176239014,0.7995018362998962
1789115793147865000,16.013864990234374,8.827122688293457,-4.40757942199707,0.08853443711996078
1789115793166715000,16.03271484375,7.39771032333374,-5.4514479637146,-2.169093608856201
1789115793185565000,16.05156494140625,5.099404335021973,-4.84815788269043,-2.118844509124756
1789115793204415000,16.0704150390625,3.983750581741333,-2.1954147815704346,0.02153540402650833
1789115793223265000,16.08926513671875,5.671587944030762,-1.7285152673721313,1.1084750890731812
1789115793242114800,16.10811474609375,5.2166523933410645,-2.3916261196136475,1.6710875034332275
1789115793260964900,16.12696484375,5.231009483337402,-2.0303099155426025,0.8644071817398071
1789115793279815000,16.14581494140625,5.516054630279541,-1.8816559314727783,0.13639089465141296
1789115793298665000,16.1646650390625,6.3442702293396,-2.3461625576019287,-0.22971096634864807
1789115793317514800,16.1835146484375,6.7106709480285645,-1.9800606966018677,-0.38793638348579407
1789115793336364800,16.20236474609375,7.330711364746094,-1.6375880241394043,-1.158724308013916
1789115793355214800,16.22121484375,5.449055194854736,-2.451446771621704,-1.5107684135437012
1789115793374065000,16.24006494140625,6.803991317749023,-3.538386583328247,-0.8042874932289124
1789115793392915000,16.2589150390625,6.284449577331543,-4.474578380584717,-1.0103694200515747
1789115793411764700,16.2777646484375,6.856633186340332,-5.317151069641113,-0.4956133961677551
1789115793430614800,16.29661474609375,7.740182876586914,-5.678766250610352,-0.8524430394172668
1789115793449464800,16.31546484375,8.688039779663086,-6.006882190704346,-0.8955138921737671
1789115793468315000,16.33431494140625,7.256533622741699,-7.502994537353516,-0.7157530784606934
1789115793487165000,16.3531650390625,6.380162239074707,-8.81515884399414,0.2225325107574463
1789115793506014700,16.3720146484375,5.793622016906738,-9.018548965454102,1.6471593379974365
1789115793524864800,16.39086474609375,5.800800323486328,-8.86780071258545,1.8457635641098022
1789115793543714800,16.40971484375,5.257330417633057,-7.718647480010986,1.470090389251709
1789115793562564900,16.42856494140625,8.168797492980957,-7.445566654205322,0.643968403339386
1789115793581414700,16.44741455078125,7.814360618591309,-9.650552749633789,0.9170492887496948
1789115793600264700,16.4662646484375,5.018048286437988,-13.866705894470215,1.7596219778060913
1789115793619114800,16.48511474609375,4.764110088348389,-13.91217041015625,2.832204818725586
1789115793637964800,16.50396484375,6.818347930908203,-8.546863555908203,2.9374887943267822
1789115793656814800,16.52281494140625,6.914061069488525,-8.159226417541504,1.5251253843307495
1789115793675664600,16.54166455078125,6.270092487335205,-11.838788986206055,0.6702894568443298
1789115793694514700,16.5605146484375,5.911169052124023,-13.701302528381348,2.4921247959136963
1789115793713364700,16.57936474609375,7.050751209259033,-11.257034301757812,3.0427730083465576
1789115793732214800,16.59821484375,5.49930477142334,-8.036892890930176,2.769991397857666
1789115793751064800,16.61706494140625,6.495316982269287,-8.872586250305176,2.643171787261963
1789115793769915000,16.635914794921874,6.416054725646973,-10.833205223083496,2.927917718887329
1789115793788764700,16.6547646484375,5.362913608551025,-11.228320121765137,3.4019956588745117
1789115793807614700,16.67361474609375,5.657230854034424,-11.704791069030762,1.92951238155365
1789115793826464800,16.69246484375,3.6726837158203125,-8.64496898651123,2.245664119720459
1789115793845314800,16.711314697265625,3.8162529468536377,-6.368198394775391,2.4059832096099854
1789115793864164600,16.73016455078125,4.47697114944458,-5.094618320465088,2.2337000370025635
1789115793883014700,16.7490146484375,4.843372344970703,-6.195915222167969,1.043868899345398
1789115793901864700,16.76786474609375,5.405984401702881,-8.072785377502441,0.11246266216039658
1789115793920714800,16.78671484375,6.2174506187438965,-9.06401252746582,-0.13639089465141296
1789115793939564800,16.805564697265623,7.953144073486328,-9.451948165893555,-2.059023857116699
1789115793958414600,16.82441455078125,9.420842170715332,-9.949954986572266,-2.793919563293457
1789115793977264600,16.8432646484375,10.371091842651367,-10.332806587219238,-1.0007981061935425
1789115793996114700,16.86211474609375,9.317950248718262,-11.542078971862793,-0.5075774788856506
1789115794014964700,16.88096484375,6.389733791351318,-10.589137077331543,0.39990049600601196
1789115794033814800,16.899814697265626,5.468197822570801,-7.493422985076904,0.8018946647644043
1789115794052664600,16.91866455078125,7.287640571594238,-4.9893341064453125,1.3668999671936035
1789115794071514600,16.9375146484375,8.252546310424805,-5.554339408874512,1.5227324962615967
1789115794090364700,16.95636474609375,6.188736438751221,-6.780063152313232,0.0526420995593071
1789115794109214700,16.975214599609377,6.1313090324401855,-5.36769962310791,-0.34725838899612427
1789115794128064800,16.994064697265625,7.419245719909668,-3.5742788314819336,1.5825530290603638
1789115794146914800,17.012914794921876,5.973382472991943,-3.8856449127197266,0.8234301209449768
1789115794165764600,17.0317646484375,5.030012130737305,-3.521636724472046,-1.709372639656067
1789115794184614700,17.05061474609375,7.790432453155518,-3.559921979904175,-2.9925239086151123
1789115794203464700,17.069464599609375,4.491328239440918,-3.521636724472046,-1.6447664499282837
1789115794222314800,17.088314697265623,3.677469253540039,-3.421138286590576,-0.5195416212081909
1789115794241164800,17.107164794921875,7.0770721435546875,-2.0685951709747314,1.2233306169509888
1789115794260014600,17.1260146484375,5.587839126586914,-1.690230131149292,0.6535396575927734
1789115794278864600,17.14486474609375,4.864907741546631,-2.564208507537842,0.5123631358146667
1789115794297714700,17.163714599609374,8.173583030700684,-2.506481647491455,-0.031106693670153618
1789115794316564700,17.182564697265626,7.752147197723389,-2.667099952697754,-1.3022937774658203
1789115794335414800,17.201414794921874,6.042774677276611,-2.669492721557617,-1.7931214570999146
1789115794354264800,17.220264892578125,6.835097789764404,-2.698206663131714,-2.1714866161346436
1789115794373115000,17.239114990234373,8.999405860900879,-2.2193429470062256,-2.887239694595337
1789115794391964700,17.257964599609377,6.248557090759277,-2.252842426300049,-3.1028928756713867
1789115794410814700,17.276814697265625,5.635695457458496,-3.9478583335876465,-2.3772692680358887
1789115794429664800,17.295664794921876,6.447161674499512,-6.550352096557617,-1.6686947345733643
1789115794448514800,17.314514892578124,7.057929515838623,-8.245368003845215,-0.5099703073501587
1789115794467364900,17.33336474609375,7.409674644470215,-9.468698501586914,0.7803592681884766
1789115794486214700,17.352214599609376,8.063214302062988,-10.708778381347656,0.37118661403656006
1789115794505064700,17.371064697265624,6.471388816833496,-10.641779899597168,-0.19381862878799438
1789115794533339600,17.399339599609377,5.2716875076293945,-9.837491989135742,1.9992033243179321
1789115794552189700,17.418189697265625,4.934299468994141,-8.973084449768066,4.014857292175293
1789115794571039700,17.437039794921876,5.1209397315979,-7.519744396209717,4.3549370765686035
1789115794589889800,17.455889892578124,5.492125988006592,-7.5652079582214355,2.612065076828003
1789115794608739800,17.47473974609375,6.358626842498779,-8.429615020751953,1.350150227546692
1789115794627589600,17.493589599609376,6.696314334869385,-11.865110397338867,1.8218353986740112
1789115794646439700,17.512439697265624,6.2653069496154785,-13.849956512451172,1.5466607809066772
1789115794665289700,17.531289794921875,5.618945598602295,-10.878668785095215,0.610468864440918
1789115794684139800,17.550139892578127,5.611767292022705,-7.9866437911987305,2.753241539001465
1789115794702989800,17.56898974609375,5.547161102294922,-7.890930652618408,2.6647071838378906
1789115794721839900,17.58783984375,7.084250450134277,-10.325628280639648,2.1714866161346436
1789115794740689700,17.606689697265626,8.365009307861328,-13.371092796325684,2.255235433578491
1789115794759539700,17.625539794921874,6.935596466064453,-12.679267883300781,2.9231319427490234
1789115794778389800,17.6443896484375,5.628517150878906,-11.240283966064453,2.7987051010131836
1789115794797239800,17.66323974609375,5.006083965301514,-9.521340370178223,2.6958138942718506
1789115794816089900,17.68208984375,5.0347981452941895,-7.8526458740234375,1.896012783050537
1789115794834939600,17.700939697265625,4.53200626373291,-6.782455921173096,0.7396813035011292
1789115794853789700,17.719789794921876,4.038785457611084,-6.284449577331543,0.23449662327766418
1789115794872639700,17.7386396484375,3.7899320125579834,-6.4594244956970215,0.2105683982372284
1789115794891489800,17.75748974609375,5.242973327636719,-7.0531439781188965,-0.3113660514354706
1789115794910339800,17.77633984375,7.567600727081299,-8.762516975402832,0.40707895159721375
1789115794929190000,17.79518994140625,8.44157886505127,-10.25623607635498,0.7253243923187256
1789115794948039700,17.814039794921875,9.461520195007324,-10.768599510192871,-1.934298038482666
1789115794966889700,17.8328896484375,10.699207305908203,-10.878668785095215,-2.7915267944335938
1789115794985739800,17.85173974609375,9.303593635559082,-11.101500511169434,-0.20099709928035736
1789115795004589800,17.87058984375,6.16480827331543,-10.033703804016113,0.5027918815612793
1789115795023440000,17.88943994140625,4.694717884063721,-7.115357398986816,1.316650629043579
1789115795042290000,17.9082900390625,5.4658050537109375,-4.067499160766602,2.173879384994507
1789115795061139700,17.9271396484375,8.134998321533203,-2.5833511352539062,2.4370899200439453
1789115795079989800,17.94598974609375,9.109476089477539,-4.00528621673584,1.5251253843307495
1789115795098839800,17.96483984375,8.063214302062988,-5.36769962310791,-0.33529427647590637
1789115795117689900,17.98368994140625,6.904489517211914,-6.15762996673584,-2.0398812294006348
1789115795136540000,18.002539794921876,5.855835437774658,-5.539982795715332,-2.1714866161346436
1789115795155390000,18.021389892578124,4.127319812774658,-2.8154549598693848,-1.709372639656067
1789115795174239700,18.04023974609375,5.075475692749023,-1.0869396924972534,-1.1419745683670044
1789115795193089800,18.05908984375,6.073881149291992,-1.7787644863128662,0.7588238716125488
1789115795211939800,18.07793994140625,6.794419765472412,-3.02123761177063,0.2826521694660187
1789115795230790000,18.096789794921875,4.9893341064453125,-3.6221351623535156,-1.3142578601837158
1789115795249640000,18.115639892578123,4.675575256347656,-2.691028118133545,0.05503492057323456
1789115795268490000,18.134489990234375,10.888240814208984,-1.165902853012085,0.6008976101875305
1789115795287339800,18.15333984375,6.1313090324401855,-3.3780672550201416,-1.1515458822250366
1789115795306189800,18.17218994140625,5.319543838500977,-3.75643253326416,-0.8739784955978394
1789115795325039900,18.191039794921874,6.310770511627197,-3.1818559169769287,-0.6176473498344421
1789115795343890000,18.209889892578126,4.812265396118164,-2.0446670055389404,-0.031106693670153618
1789115795362740000,18.228739990234374,5.171188831329346,-1.438983678817749,-0.13160525262355804
1789115795381590000,18.247590087890625,7.074679374694824,-1.280758261680603,-0.8210372924804688
1789115795400439800,18.266439697265625,7.632505893707275,-1.415055513381958,-2.1092731952667236
1789115795419289900,18.285289794921876,6.411269187927246,-4.462614059448242,-2.8202404975891113
1789115795438140000,18.304139892578124,6.02602481842041,-9.430413246154785,-1.2855439186096191
1789115795456990000,18.322989990234376,8.798408508300781,-13.536197662353516,1.1994023323059082
1789115795475840000,18.341840087890624,7.797610759735107,-14.771492004394531,2.3461625576019287
1789115795494689800,18.360689697265624,6.983452796936035,-13.519448280334473,2.8465616703033447
1789115795513539800,18.379539794921875,6.835097789764404,-11.395817756652832,3.0427730083465576
1789115795532390000,18.398389892578123,5.1544389724731445,-8.470293045043945,2.839383125305176
1789115795551240000,18.417239990234375,5.2716875076293945,-6.579065799713135,1.9055840969085693
1789115795570090000,18.436090087890626,6.081059455871582,-6.930810928344727,0.7564310431480408
1789115795588940000,18.45493994140625,6.143272876739502,-8.424829483032227,0.981655478477478
1789115795607789800,18.473789794921874,6.018846035003662,-12.18365478515625,2.283949136734009
1789115795626640000,18.492639892578126,6.62931489944458,-13.974383354187012,2.0685951709747314
1789115795645490000,18.511489990234374,7.167999267578125,-11.45563793182373,1.4270195960998535
1789115795664340000,18.530340087890625,6.698707103729248,-8.575576782226562,1.0965110063552856
1789115795683190000,18.54918994140625,6.4594244956970215,-7.862216949462891,1.0462616682052612
1789115795702040000,18.5680400390625,7.153642177581787,-8.587541580200195,0.857228696346283
1789115795720889900,18.586889892578125,6.272485256195068,-9.337093353271484,1.7021942138671875
1789115795739740000,18.605739990234376,5.238187789916992,-9.887741088867188,1.9606190919876099
1789115795758590000,18.62458984375,4.390829563140869,-9.341878890991211,2.968595504760742
1789115795777440000,18.64343994140625,4.891228675842285,-10.06002426147461,3.833002805709839
1789115795796290000,18.6622900390625,5.688337802886963,-10.495817184448242,2.8585257530212402
1789115795815139800,18.681139892578123,4.8792643547058105,-9.006584167480469,2.135594129562378
1789115795833990000,18.699989990234375,5.401198863983154,-8.633005142211914,1.0103694200515747
1789115795852840000,18.71883984375,5.676373481750488,-8.81515884399414,0.4692923426628113
1789115795871690000,18.73768994140625,5.616552829742432,-8.362615585327148,0.9529415965080261
1789115795937665000,18.8036650390625,6.952346324920654,-6.80877685546875,-1.4294124841690063
1789115795956515000,18.82251513671875,7.752147197723389,-7.034001350402832,-1.2065808773040771
1789115795975364900,18.84136474609375,8.642576217651367,-8.053643226623535,-0.6894320249557495
1789115795994215000,18.86021484375,7.83111047744751,-8.479864120483398,-0.1866401731967926
1789115796013065000,18.87906494140625,9.011369705200195,-7.917252063751221,1.3597214221954346
1789115796031915000,18.8979150390625,9.969097137451172,-7.855038642883301,1.5945172309875488
1789115796050765000,18.91676513671875,7.929215908050537,-7.821538925170898,0.8428717851638794
1789115796069614800,18.93561474609375,7.199106216430664,-5.2645087242126465,-0.11246266216039658
1789115796088465000,18.95446484375,5.937490463256836,-4.515256404876709,-0.9002995491027832
1789115796107315000,18.97331494140625,5.664409637451172,-4.884049892425537,-0.8691928386688232
1789115796126165000,18.9921650390625,7.045965194702148,-4.9654059410095215,-0.0023928226437419653
1789115796145015000,19.01101513671875,5.803193092346191,-3.722932815551758,1.4844473600387573
1789115796163865000,19.029864990234376,3.81864595413208,-1.8457635641098022,0.5027918815612793
1789115796182715000,19.04871484375,5.602196216583252,-1.350150227546692,0.12921242415905
1789115796201565000,19.06756494140625,5.398806095123291,-1.1826525926589966,-1.1300104856491089
1789115796220415000,19.0864150390625,3.835395574569702,-2.149951219558716,-1.3334003686904907
1789115796239265000,19.10526513671875,5.1209397315979,-1.958226203918457,-0.579362154006958
1789115796258115000,19.124114990234375,5.932704448699951,-1.7380865812301636,-0.275174617767334
1789115796276964900,19.14296484375,5.257330417633057,-1.9824535846710205,-0.1866401731967926
1789115796295815000,19.16181494140625,6.439982891082764,-1.6112669706344604,0.17228323221206665
1789115796314665000,19.1806650390625,8.42722225189209,-1.7404793500900269,-0.9984052777290344
1789115796333515000,19.199514892578126,8.130212783813477,-2.9087750911712646,-1.6710875034332275
1789115796352365000,19.218364990234374,6.981060028076172,-4.852943420410156,-1.8026927709579468
1789115796371215000,19.237215087890625,6.1241302490234375,-6.990631580352783,-1.1395817995071411
1789115796390065000,19.25606494140625,8.084749221801758,-8.319544792175293,-0.031106693670153618
1789115796408915000,19.2749150390625,7.445566654205322,-8.319544792175293,0.8787640929222107
1789115796427765000,19.293764892578125,6.6915283203125,-8.700303077697754,1.1204391717910767
1789115796446615000,19.312614990234376,6.971488952636719,-8.369794845581055,0.46450668573379517
1789115796465465000,19.331465087890624,6.976274490356445,-8.393722534179688,-0.13160525262355804
1789115796484315000,19.35031494140625,6.006882190704346,-9.248259544372559,-0.36640095710754395
1789115796503165000,19.3691650390625,5.07308292388916,-10.100702285766602,-0.007178467698395252
1789115796531439900,19.39743994140625,6.732206344604492,-10.780563354492188,2.173879384994507
1789115796550290000,19.4162900390625,5.676373481750488,-10.608280181884766,2.7795627117156982
1789115796569140000,19.435139892578125,6.133701801300049,-9.298808097839355,2.049452543258667
1789115796587990000,19.453989990234376,7.220641613006592,-9.011369705200195,2.2169501781463623
1789115796606840000,19.472840087890624,6.291627883911133,-10.677672386169434,2.3844478130340576
1789115796625689900,19.49168994140625,5.731408596038818,-10.246665000915527,1.7428722381591797
1789115796644540000,19.510539794921876,6.6939215660095215,-10.589137077331543,1.5897315740585327
1789115796663390000,19.529389892578124,6.492924213409424,-10.375877380371094,2.0829520225524902
1789115796682240000,19.548239990234375,6.444768905639648,-9.703194618225098,2.417947292327881
1789115796701090000,19.567090087890627,6.751348972320557,-10.239486694335938,1.7931214570999146
1789115796719939800,19.58593994140625,5.752943992614746,-10.840383529663086,1.651944875717163
1789115796738790000,19.604789794921874,5.207081317901611,-10.16291618347168,1.0342975854873657
1789115796757640000,19.623639892578126,3.780360698699951,-8.589934349060059,0.9433703422546387
1789115796776490000,19.642489990234374,4.110570430755615,-7.526922702789307,0.37118661403656006
1789115796795340000,19.661340087890625,4.311866283416748,-6.94038200378418,0.9601200819015503
1789115796814189800,19.68018994140625,5.556732177734375,-7.749754428863525,1.800299882888794
1789115796833040000,19.699039794921877,6.9068827629089355,-10.009775161743164,3.7253258228302
1789115796851890000,19.717889892578125,9.255437850952148,-12.085549354553223,2.2815563678741455
1789115796870740000,19.736739990234376,9.138189315795898,-10.617851257324219,-0.646361231803894
1789115796889590000,19.755590087890624,7.855038642883301,-8.702695846557617,-2.1260228157043457
1789115796908439800,19.774439697265624,7.1871418952941895,-8.391329765319824,-2.0135602951049805
1789115796927289900,19.793289794921876,7.057929515838623,-8.71226692199707,-0.7899305820465088
1789115796946140000,19.812139892578124,6.171987056732178,-8.494221687316895,0.39990049600601196
1789115796964990000,19.830989990234375,6.643671989440918,-7.742575645446777,1.311864972114563
1789115796983839700,19.84983984375,8.621041297912598,-6.205486297607422,0.9170492887496948
1789115797002689800,19.868689697265626,8.695218086242676,-6.49770975112915,0.2826521694660187
1789115797021539800,19.887539794921874,8.479864120483398,-5.293222904205322,-0.9601200819015503
1789115797040390000,19.906389892578126,5.872584819793701,-3.7683966159820557,-2.2193429470062256
1789115797059240000,19.925239990234374,5.580660820007324,-5.2477593421936035,-1.3381860256195068
1789115797078089700,19.94408984375,5.652445316314697,-5.223830699920654,-0.3520440459251404
1789115797096939800,19.962939697265625,6.162415504455566,-4.323830604553223,1.0462616682052612
1789115797115789800,19.981789794921873,6.6939215660095215,-1.9319051504135132,1.072582721710205
1789115797134639900,20.000639892578125,5.2645087242126465,-2.8513472080230713,0.385543555021286
1789115797153490000,20.019489990234376,4.809872627258301,-3.82582426071167,-0.6008976101875305
1789115797172339700,20.038339599609376,5.628517150878906,-3.7899320125579834,-0.11724831163883209
1789115797191189800,20.057189697265624,3.528815269470215,-3.030808925628662,1.2161520719528198
1789115797210039800,20.076039794921876,5.84147834777832,-0.5578267574310303,0.6966105103492737
1789115797228889900,20.094889892578124,5.602196216583252,-0.3927220106124878,0.07417750358581543
1789115797247739600,20.11373974609375,6.9068827629089355,-0.7133602499961853,-0.8644071817398071
1789115797266589700,20.132589599609375,5.736194133758545,-1.5873386859893799,-2.104487419128418
1789115797285439700,20.151439697265626,5.274080276489258,-1.695015788078308,-2.142772674560547
1789115797304289800,20.170289794921874,9.114261627197266,-1.6160526275634766,-2.520838737487793
1789115797323139800,20.189139892578126,4.6301116943359375,-3.2656047344207764,-2.420340061187744
1789115797341989600,20.20798974609375,5.554339408874512,-6.346662998199463,-0.32572299242019653
1789115797360839700,20.226839599609374,10.613065719604492,-9.74387264251709,1.2376874685287476
1789115797379689700,20.245689697265625,7.8287177085876465,-11.977572441101074,1.6447664499282837
1789115797398539800,20.264539794921873,6.160022735595703,-12.018250465393066,0.9744769930839539
1789115797417389800,20.283389892578125,7.230212688446045,-10.117452621459961,-0.2679961323738098
1789115797436239600,20.302239501953125,5.896812438964844,-7.953144073486328,-0.3520440459251404
1789115797455089700,20.321089599609376,4.218546390533447,-7.156035423278809,0.6966105103492737
1789115797473939700,20.339939697265624,5.930311679840088,-7.531708240509033,1.2089736461639404
1789115797492789800,20.358789794921876,8.13260555267334,-8.219046592712402,1.6854444742202759
1789115797511639600,20.3776396484375,5.604588985443115,-11.398210525512695,1.3668999671936035
1789115797530489600,20.396489501953123,5.061119079589844,-12.379866600036621,0.0933200865983963
1789115797549339600,20.415339599609375,6.002096652984619,-10.495817184448242,-0.3448655605316162
1789115797568189700,20.434189697265627,6.4375901222229,-9.506983757019043,2.5929224491119385
1789115797587039500,20.45303955078125,6.729813575744629,-12.947264671325684,3.8162529468536377
1789115797605889500,20.4718896484375,5.647659778594971,-11.068000793457031,2.2743778228759766
1789115797624739600,20.490739501953126,6.80159854888916,-10.593923568725586,2.0925233364105225
1789115797643589600,20.509589599609374,8.66171932220459,-12.43968677520752,2.3054845333099365
1789115797662439400,20.528439453125,6.653243541717529,-10.483853340148926,3.1722846031188965
1789115797681289500,20.54728955078125,6.425626277923584,-9.588339805603027,1.599302887916565
1789115797700139500,20.566139404296877,3.9550366401672363,-8.216653823852539,0.9864411354064941
1789115797718989300,20.5849892578125,2.0207388401031494,-6.80877685546875,1.9558334350585938
1789115797737839400,20.60383935546875,2.4370899200439453,-6.1073808670043945,1.7380865812301636
1789115797756689400,20.622689453125,3.9861433506011963,-5.939883232116699,1.470090389251709
1789115797775539500,20.64153955078125,5.144867897033691,-6.902096748352051,1.434198021888733
1789115797794389500,20.660389404296875,6.820741176605225,-8.613862037658691,1.2975081205368042
1789115797813239300,20.6792392578125,8.365009307861328,-10.048060417175293,-0.12681959569454193
1789115797832089300,20.69808935546875,8.616254806518555,-10.383355140686035,-0.5985047817230225
1789115797850939400,20.716939453125,9.428020477294922,-10.390533447265625,-1.5131611824035645
1789115797869789400,20.73578955078125,8.357830047607422,-10.625029563903809,-2.0446670055389404
1789115797888639200,20.75463916015625,6.665207386016846,-9.428020477294922,-0.2560320198535919
1789115797907489300,20.7734892578125,7.756932735443115,-9.265308380126953,1.3453645706176758
1789115797926339300,20.79233935546875,9.698409080505371,-10.751849174499512,1.7476578950881958
1789115797945189400,20.811189453125,6.442375659942627,-8.997013092041016,0.7301099896430969
1789115797964039200,20.8300390625,6.255735874176025,-6.09541654586792,-0.11724831163883209
1789115797982889200,20.84888916015625,6.646064758300781,-4.675575256347656,0.8620143532752991
1789115798001739300,20.8677392578125,6.803991317749023,-3.07627272605896,1.6064813137054443
1789115798020589000,20.886589111328124,7.857431411743164,-2.944667339324951,-0.8763712644577026
1789115798039439000,20.905439208984376,5.719444274902344,-6.035595893859863,-1.709372639656067
1789115798058289200,20.9242890625,2.935096025466919,-5.769693374633789,-0.14835500717163086
1789115798077139200,20.94313916015625,8.190332412719727,0.38315072655677795,-0.97926265001297
1789115798095989200,20.9619892578125,6.284449577331543,-1.8601205348968506,-0.7420741319656372
1789115798114839000,20.980839111328127,5.2166523933410645,-4.625326156616211,-0.5602195858955383
1789115798133689000,20.999689208984375,6.183950901031494,-4.756931304931641,-0.23210379481315613
1789115798152539100,21.0185390625,8.372187614440918,-3.246462106704712,1.0510473251342773
1789115798171389000,21.037388916015626,7.39771032333374,-1.5777673721313477,-0.09571290761232376
1789115798190239000,21.056239013671874,5.896812438964844,-2.3844478130340576,-1.6088740825653076
1789115798209089000,21.075089111328126,4.852943420410156,-2.535494804382324,-1.80508553981781
1789115798227939000,21.09393896484375,6.057131290435791,-2.2025933265686035,-1.2544373273849487
1789115798246788900,21.112788818359373,5.776872158050537,-1.872084617614746,-0.8066803216934204
1789115798265639000,21.131638916015625,6.413661956787109,-1.80508553981781,-0.4094717800617218
1789115798284489000,21.150489013671876,6.768098831176758,-3.232105255126953,-0.9409775137901306
1789115798303338800,21.1693388671875,7.115357398986816,-6.191129684448242,-1.0055837631225586
1789115798322188800,21.188188720703124,7.067500591278076,-7.929215908050537,-1.012762188911438
1789115798341038800,21.207038818359376,8.343473434448242,-7.855038642883301,-1.7428722381591797
1789115798359889000,21.225888916015624,6.586244106292725,-8.319544792175293,-1.8505492210388184
1789115798378738700,21.24473876953125,4.002892971038818,-9.731908798217773,0.45972105860710144
1789115798397588700,21.263588623046875,4.8553361892700195,-9.514162063598633,2.525923490524292
1789115798416438800,21.282438720703126,5.592624664306641,-7.826324462890625,3.177070379257202
1789115798435288800,21.301288818359374,6.085845470428467,-7.2589263916015625,1.7237296104431152
1789115798454138600,21.320138671875,7.254140853881836,-7.948358535766602,0.11485548317432404
1789115798472988700,21.33898876953125,8.333902359008789,-10.17727279663086,-0.5913262963294983
1789115798491838700,21.357838623046874,5.137689113616943,-14.580066680908203,1.0031908750534058
1789115798510688500,21.3766884765625,4.668396949768066,-14.608780860900879,2.7101707458496094
1789115798529538600,21.39553857421875,7.4240312576293945,-8.616254806518555,2.6001009941101074
1789115798548388600,21.414388671875,5.3748779296875,-8.235795974731445,1.1515458822250366
1789115798567238400,21.43323828125,5.829514026641846,-11.582756996154785,0.8763712644577026
1789115798586088400,21.45208837890625,6.7417778968811035,-12.911372184753418,2.2671995162963867
1789115798604938500,21.4709384765625,7.093822002410889,-10.194023132324219,3.277568817138672
1789115798623788500,21.48978857421875,5.585446357727051,-7.0770721435546875,2.5618157386779785
1789115798642638300,21.508638427734375,4.388436794281006,-6.301199436187744,1.8792630434036255
1789115798661488400,21.52748828125,4.682754039764404,-8.489435195922852,0.9122636318206787
1789115798680338400,21.54633837890625,6.10259485244751,-11.3240327835083,0.6391827464103699
1789115798699188200,21.565188232421875,5.736194133758545,-11.86032485961914,1.6064813137054443
1789115798718038300,21.584038330078126,4.275974273681641,-8.479864120483398,1.7045869827270508
1789115798736888300,21.602888427734374,4.886443138122559,-6.768098831176758,1.2233306169509888
1789115798755738400,21.62173828125,6.329913139343262,-7.835896015167236,1.017547845840454
1789115798774588200,21.640588134765625,7.730611801147461,-9.89013385772705,2.389233350753784
1789115798793438200,21.659438232421873,9.451948165893555,-12.41575813293457,0.5195416212081909
1789115798812288300,21.678288330078125,7.0025954246521,-10.93848991394043,-0.8620143532752991
1789115798831138000,21.697137939453125,5.549553871154785,-8.300402641296387,-0.9505487680435181
1789115798849988000,21.715988037109376,7.132106781005859,-6.296413898468018,-0.44775694608688354
1789115798868838100,21.734838134765624,9.334700584411621,-7.347461223602295,0.7205387353897095
1789115798887688000,21.75368798828125,8.134998321533203,-8.93240737915039,1.1467602252960205
1789115798906538000,21.7725380859375,7.041179656982422,-8.700303077697754,-0.701396107673645
1789115798925388000,21.791387939453124,7.76889705657959,-7.562815189361572,-0.6583253145217896
1789115798944237800,21.81023779296875,7.943572998046875,-5.563910961151123,0.07896314561367035
1789115798963088000,21.829087890625,6.655636310577393,-3.935894250869751,-1.1802598237991333
1789115798991362800,21.85736279296875,6.81595516204834,-5.063511848449707,0.20578274130821228
1789115799010212900,21.876212890625,6.780063152313232,-6.370591163635254,0.5027918815612793
1789115799029062700,21.895062744140624,4.852943420410156,-5.159224510192871,1.1276177167892456
1789115799047912700,21.91391259765625,7.627720355987549,0.15074782073497772,-0.13639089465141296
1789115799066762800,21.9327626953125,6.0762739181518555,-0.5410770177841187,-1.0701899528503418
1789115799085612500,21.951612548828123,4.1608195304870605,-2.6647071838378906,-1.1611171960830688
1789115799104462600,21.970462646484375,8.621041297912598,-3.303889751434326,-1.287936806678772
1789115799123312600,21.989312744140626,4.4721856117248535,-4.273581027984619,-0.5099703073501587
1789115799142162400,22.008162353515626,3.3134610652923584,-2.825026273727417,0.02632104977965355
1789115799161012500,22.027012451171874,5.080261707305908,-1.1682956218719482,0.9170492887496948
1789115799179862500,22.045862548828126,9.758230209350586,-0.3281157910823822,-0.4501497745513916
1789115799198712300,22.06471240234375,6.002096652984619,-2.3676979541778564,-2.128415822982788
1789115799217562400,22.083562255859373,5.650052547454834,-3.9789650440216064,-1.8768702745437622
1789115799236412400,22.102412353515625,8.831908226013184,-4.589433670043945,-1.6304094791412354
1789115799255262200,22.12126220703125,3.904787540435791,-5.202295303344727,-1.4054841995239258
1789115799274112300,22.1401123046875,3.9167516231536865,-5.269294738769531,0.9050851464271545
1789115799292962300,22.15896240234375,7.7593255043029785,-4.845765113830566,1.1635099649429321
1789115799321237200,22.1872373046875,4.768895626068115,-5.302793979644775,-0.4501497745513916
1789115799340087000,22.206087158203125,5.523232936859131,-7.282855033874512,0.6248258352279663
1789115799358937000,22.22493701171875,7.158428192138672,-10.493424415588379,1.3549357652664185
1789115799377787100,22.243787109375,9.983454704284668,-14.199308395385742,1.2999008893966675
1789115799396637000,22.262636962890625,6.535995006561279,-16.12433433532715,1.7021942138671875
1789115799415487000,22.281487060546876,5.118546962738037,-13.61037540435791,2.2337000370025635
1789115799434336800,22.300336669921876,7.074679374694824,-7.910073280334473,1.572981834411621
1789115799453186800,22.319186767578124,7.457530975341797,-7.048357963562012,1.4605190753936768
1789115799472036900,22.338036865234375,6.610172748565674,-9.698409080505371,1.2161520719528198
1789115799490886700,22.35688671875,5.386841773986816,-11.22353458404541,0.890728235244751
1789115799509736700,22.37573681640625,5.087440013885498,-10.004989624023438,1.4605190753936768
1789115799528586800,22.394586669921875,6.540780544281006,-9.784550666809082,0.610468864440918
1789115799547436500,22.4134365234375,5.532804012298584,-9.765408515930176,1.4557334184646606
1789115799566286600,22.43228662109375,6.334698677062988,-10.522138595581055,1.800299882888794
1789115799585136600,22.45113671875,6.756134510040283,-9.650552749633789,1.3262219429016113
1789115799603986400,22.469986328125,5.439484119415283,-8.66171932220459,1.098903775215149
1789115799622836500,22.48883642578125,4.788337230682373,-8.731410026550293,1.407876968383789
1789115799641686300,22.507686279296873,4.240081787109375,-8.11824893951416,1.807478427886963
1789115799660536300,22.526536376953125,4.860121726989746,-7.917252063751221,1.9800606966018677
1789115799679386400,22.545386474609376,5.449055194854736,-8.298009872436523,2.149951219558716
1789115799698236200,22.564236083984376,5.585446357727051,-8.781659126281738,2.056631088256836
1789115799717086200,22.583086181640624,6.428019046783447,-9.339486122131348,0.797109067440033
1789115799735936300,22.601936279296876,7.1249284744262695,-10.103095054626465,-0.04546362906694412
1789115799754786000,22.6207861328125,7.299604415893555,-10.876276016235352,0.004785645287483931
1789115799773636000,22.639635986328123,7.022037029266357,-10.304092407226562,0.7947162389755249
1789115799792486000,22.65848583984375,6.854240417480469,-8.776873588562012,0.8186444640159607
1789115799811336000,22.6773359375,7.409674644470215,-7.823931694030762,-0.09571290761232376
1789115799830186000,22.69618603515625,8.219046592712402,-8.63061237335205,0.5721837282180786
1789115799849035800,22.715035888671874,7.469494819641113,-8.489435195922852,-0.4573282301425934
1789115799867885800,22.7338857421875,7.120142936706543,-7.421638488769531,-1.8601205348968506
1789115799886735600,22.752735595703125,7.112964630126953,-6.952346324920654,-0.6607181429862976
1789115799905585700,22.771585693359373,6.3993048667907715,-5.635695457458496,0.02153540402650833
1789115799924435700,22.790435791015625,5.487340450286865,-4.457828521728516,0.34247273206710815
1789115799943285500,22.809285400390625,8.005785942077637,-4.266402721405029,0.14835500717163086
1789115799962135600,22.828135498046876,9.823135375976562,-6.0140604972839355,-0.9936196208000183
1789115799999835400,22.86583544921875,5.870192050933838,-3.653541088104248,-0.5985047817230225
1789115800018685400,22.884685546875,5.774479389190674,-1.7548363208770752,-0.5817549824714661
1789115800037535200,22.90353515625,3.6269209384918213,-2.059023857116699,0.06699903309345245
1789115800056385300,22.92238525390625,3.7109687328338623,-2.7484560012817383,0.8258228898048401
1789115800075235000,22.941235107421875,6.250949859619141,-2.2265214920043945,1.1611171960830688
1789115800094085000,22.960085205078126,4.4482574462890625,-2.059023857116699,0.7707880139350891
1789115800122360000,22.988360107421876,8.506185531616211,-2.379662036895752,-0.2922234535217285
1789115800141209900,23.0072099609375,9.684052467346191,-2.1930220127105713,-1.7285152673721313
1789115800160060000,23.026059814453124,4.1057844161987305,-4.326223373413086,-2.825026273727417
1789115800178910000,23.044909912109375,8.649754524230957,-5.886941909790039,-0.06699903309345245
1789115800197759700,23.063759765625,7.558029651641846,-5.659623622894287,-0.11724831163883209
1789115800216609800,23.08260986328125,3.0355947017669678,-6.401698112487793,1.3142578601837158
1789115800235459600,23.10145947265625,5.650052547454834,-6.543173313140869,1.9127626419067383
1789115800254309600,23.1203095703125,8.372187614440918,-4.436293125152588,1.1443674564361572
1789115800273159400,23.139159423828126,7.251748085021973,-1.6256239414215088,-1.5777673721313477
1789115800292009500,23.158009521484374,5.872584819793701,-1.415055513381958,-4.232903480529785
1789115800310859500,23.176859619140625,5.286044120788574,-4.560719966888428,-2.944667339324951
1789115800329709300,23.195709228515625,8.381758689880371,-10.916954040527344,-1.0773683786392212
1789115800348559400,23.214559326171877,4.898406982421875,-16.72044563293457,1.2855439186096191
1789115800367409200,23.2334091796875,14.161023139953613,-21.02483558654785,4.567898273468018
1789115800386259200,23.25225927734375,7.550850868225098,-23.447866439819336,4.450650215148926
1789115800405109200,23.271109130859376,8.357830047607422,-14.338391304016113,1.2496516704559326
1789115800423959000,23.289958984375,7.52931547164917,-6.985845565795898,2.4083759784698486
1789115800442809000,23.30880908203125,4.488935470581055,-6.468996047973633,2.887239694595337
1789115800461659000,23.327658935546875,4.596612453460693,-6.926024913787842,0.6918248534202576
1789115800480509000,23.346509033203127,1.9414764642715454,-5.870192050933838,0.45972105860710144
1789115800499358700,23.365358642578126,3.8712878227233887,-5.425127029418945,-1.2113664150238037
1789115800518208800,23.384208740234374,4.730610370635986,-8.314759254455566,-1.1419745683670044
1789115800537058600,23.40305859375,4.7835516929626465,-10.512567520141602,2.8202404975891113
1789115800555908600,23.42190869140625,9.847063064575195,-15.348462104797363,3.5096726417541504
1789115800574758400,23.44075830078125,7.431210041046143,-13.457234382629395,4.002892971038818
1789115800593608400,23.4596083984375,7.979465484619141,-12.93529987335205,2.5857439041137695
1789115800612458200,23.478458251953125,5.484947681427002,-9.049654960632324,1.280758261680603
1789115800631308300,23.497308349609376,4.48414945602417,-6.033203125,1.2065808773040771
1789115800650158300,23.516158447265624,3.373281717300415,-4.694717884063721,2.6240291595458984
1789115800669008100,23.535008056640624,3.897608995437622,-5.283651351928711,2.6096723079681396
1789115800687858200,23.553858154296876,3.7181472778320312,-7.888537883758545,2.8752756118774414
1789115800706708000,23.5727080078125,6.160022735595703,-9.739087104797363,1.7356936931610107
1789115800725558000,23.59155810546875,9.40169906616211,-11.886645317077637,-2.214557409286499
1789115800744407800,23.61040771484375,9.578767776489258,-12.918550491333008,-2.525923490524292
1789115800763257900,23.6292578125,9.49501895904541,-11.383853912353516,-2.8896324634552
1789115800782107600,23.648107666015626,8.793622970581055,-10.45513916015625,-4.187140464782715
1789115800800957700,23.666957763671874,5.185545921325684,-8.791230201721191,-0.9074779748916626
1789115800819807500,23.685807373046874,4.1991047859191895,-5.307579517364502,1.470090389251709
1789115800838657500,23.704657470703125,6.880561351776123,-3.3684961795806885,1.2951152324676514
1789115800857507300,23.72350732421875,8.52772045135498,-5.5136613845825195,0.9290133714675903
1789115800885782300,23.7517822265625,10.179665565490723,-7.249355316162109,-0.2273181527853012
1789115800932907000,23.798906982421876,5.5591254234313965,-5.697908878326416,-0.6726822853088379
1789115800951757000,23.817757080078124,8.30279541015625,-5.223830699920654,-1.4724832773208618
1789115800970606800,23.83660693359375,4.915156841278076,-5.688337802886963,0.12921242415905
1789115800989457000,23.855456787109375,8.19272518157959,-1.3692927360534668,-0.2994019389152527
1789115801008306700,23.874306640625,5.913562297821045,-3.490530014038086,0.11485548317432404
1789115801027156700,23.89315673828125,4.781158924102783,-4.400400638580322,0.11964113265275955
1789115801046006500,23.912006591796874,6.533602237701416,-3.411566972732544,0.8186444640159607
1789115801074281500,23.940281494140624,3.119642496109009,-0.5362913608551025,-0.07178468257188797
1789115801093131500,23.959131591796876,5.159224510192871,-0.059820566326379776,0.23449662327766418
1789115801111981300,23.977981201171875,9.645767211914062,0.33050861954689026,-1.5873386859893799
1789115801130831400,23.996831298828123,3.01405930519104,-1.5275181531906128,-2.825026273727417
1789115801149681200,24.01568115234375,6.425626277923584,-2.9159533977508545,-1.9680966138839722
1789115801168531200,24.03453125,9.669695854187012,-3.263211965560913,-3.3206396102905273
1789115801187381000,24.053381103515626,6.284449577331543,-4.632504463195801,-2.3437697887420654
1789115801206231000,24.07223095703125,10.115059852600098,-9.243474006652832,-2.0374884605407715
1789115801225080800,24.091080810546874,7.77607536315918,-11.50857925415039,-0.48843491077423096
1789115801243931000,24.109930908203125,5.695516109466553,-10.186843872070312,0.5386841893196106
1789115801262780700,24.12878076171875,6.404090881347656,-7.898109436035156,0.6607181429862976
1789115801281630500,24.14763037109375,5.913562297821045,-6.794419765472412,0.7372884750366211
1789115801300480500,24.16648046875,5.697908878326416,-6.540780544281006,0.9002995491027832
1789115801319330300,24.185330322265624,5.484947681427002,-6.62931489944458,1.3022937774658203
1789115801338180400,24.204180419921876,6.504888534545898,-8.211868286132812,0.8401798605918884
1789115801357030400,24.223030517578124,5.386841773986816,-10.205986976623535,0.4142574071884155
1789115801375880200,24.241880126953124,7.153642177581787,-12.17647647857666,0.4956133961677551
1789115801394730000,24.26072998046875,8.343473434448242,-13.720444679260254,1.9414764642715454
1789115801413580000,24.279580078125,6.353841304779053,-13.165011405944824,2.533101797103882
1789115801432429800,24.298429931640626,5.72422981262207,-8.338687896728516,2.4227328300476074
1789115801451280000,24.31727978515625,4.977370262145996,-6.507281303405762,3.069094181060791
1789115801470129700,24.336129638671874,5.915955066680908,-7.778468132019043,1.252044439315796
1789115801488979700,24.354979736328126,4.7473602294921875,-8.834300994873047,1.134796142578125
1789115801507829500,24.37382958984375,5.803193092346191,-10.150951385498047,1.896012783050537
1789115801526679600,24.392679443359373,7.569993495941162,-12.095120429992676,2.4394826889038086
1789115801545529300,24.411529296875,6.059524059295654,-11.089536666870117,3.5359935760498047
1789115801564379400,24.43037939453125,6.500102519989014,-11.824432373046875,2.0279171466827393
1789115801583229200,24.449229248046876,4.9654059410095215,-10.337592124938965,1.3357932567596436
1789115801602079000,24.468078857421876,3.780360698699951,-8.865407943725586,1.505982756614685
1789115801620929000,24.486928955078124,5.044369220733643,-8.975478172302246,0.5530411601066589
1789115801639778800,24.50577880859375,4.622933387756348,-8.381758689880371,1.1084750890731812
1789115801658628900,24.52462890625,4.953442096710205,-7.692326545715332,1.1204391717910767
1789115801677478700,24.543478759765627,5.266901969909668,-7.34267520904541,0.8979067206382751
1789115801696328700,24.56232861328125,6.061916828155518,-7.199106216430664,-0.4262215197086334
