time,seconds_elapsed,z,y,x
1789324023100034300,0.175034423828125,0.08857285231351852,-0.5118899941444397,0.42637139558792114
1789324023118884900,0.193884765625,0.08979454636573792,-0.8112051486968994,0.45019441843032837
1789324023137735400,0.2127353515625,-0.007941014133393764,-0.8344173431396484,0.15393351018428802
1789324023156586000,0.2315859375,-0.0525328628718853,-0.43614494800567627,-0.12033691257238388
1789324023175436500,0.2504365234375,0.06902574002742767,0.33535513281822205,-0.08979454636573792
1789324023194287000,0.269287109375,0.20463383197784424,0.7837170362472534,-0.12033691257238388
1789324023213137700,0.2881376953125,0.2504473626613617,0.7507312893867493,-0.22051586210727692
1789324023231988200,0.30698828125,0.1435490995645523,0.4049917459487915,-0.02076880633831024
1789324023250838800,0.3258388671875,-0.0794101431965828,0.08490777015686035,0.2473931461572647
1789324023269689300,0.344689453125,-0.3897205591201782,-0.5033381581306458,0.2773246467113495
1789324023288540000,0.363539794921875,-0.47707170248031616,-1.1862653493881226,0.09834641218185425
1789324023307390500,0.382390380859375,-0.2357870489358902,-0.6963658928871155,-0.15454435348510742
1789324023326241000,0.401240966796875,0.37383851408958435,0.342074453830719,-0.3524588644504547
1789324023345091800,0.420091796875,0.3793361485004425,0.37383851408958435,-0.4679090082645416
1789324023363942400,0.4389423828125,0.2736595869064331,-0.26632940769195557,-0.13682979345321655
1789324023382793000,0.45779296875,0.21196399629116058,-1.165496587753296,0.4862344264984131
1789324023401643500,0.4766435546875,0.3939964771270752,-1.175881028175354,0.790436327457428
1789324023420494000,0.495494140625,0.5149442553520203,-0.393385648727417,0.29381752014160156
1789324023439344600,0.5143447265625,0.24494975805282593,-0.3897205591201782,-0.2522799074649811
1789324023458195200,0.5331953125,0.21807247400283813,0.07269082218408585,-0.45385950803756714
1789324023477045800,0.552045654296875,0.053143709897994995,0.004275931045413017,-0.5399889945983887
1789324023495896600,0.570896484375,-0.034818295389413834,-0.6224533319473267,-0.37200596928596497
1789324023514747100,0.5897470703125,0.14782503247261047,-0.7067502737045288,-0.01710372418165207
1789324023533597700,0.60859765625,0.3133646547794342,-0.26816195249557495,-0.11972606182098389
1789324023552448300,0.6274482421875,0.24372805655002594,-0.05986303091049194,-0.5558710098266602
1789324023571298800,0.646298828125,0.21257483959197998,-0.22845686972141266,-0.7128587365150452
1789324023590149400,0.6651494140625,0.09712471067905426,-0.45080527663230896,-0.36284327507019043
1789324023609000000,0.684,-0.2761029601097107,-0.36162158846855164,0.21685077250003815
1789324023627850800,0.702850830078125,-0.3139754831790924,0.2486148327589035,0.7385143637657166
1789324023646701300,0.721701416015625,0.15943112969398499,1.0537115335464478,1.054322361946106
1789324023665552000,0.7405517578125,0.8002098798751831,2.3542816638946533,1.161220669746399
1789324023684402400,0.75940234375,1.7244981527328491,3.778777599334717,1.1728267669677734
1789324023703253000,0.7782529296875,2.7360613346099854,2.555250406265259,0.9602518677711487
1789324023722103600,0.797103515625,2.205845832824707,0.8191461563110352,0.2877090573310852
1789324023740954400,0.815954345703125,1.2400199174880981,1.687847375869751,-0.7727217674255371
1789324023759805000,0.834804931640625,1.0427162647247314,3.8911733627319336,-2.313354969024658
1789324023778655500,0.853655517578125,1.0720369815826416,5.564971446990967,-3.61751389503479
1789324023797506000,0.872506103515625,0.8228112459182739,5.618725776672363,-3.9925739765167236
1789324023816356600,0.891356689453125,0.1435490995645523,3.1447179317474365,-3.0115532875061035
1789324023835207400,0.91020751953125,-0.5748072862625122,1.0671501159667969,-0.9364288449287415
1789324023854058000,0.92905810546875,-0.6719319820404053,0.883895993232727,-0.004886778071522713
1789324023872908500,0.947908447265625,-0.5063923597335815,2.272428274154663,-0.46485477685928345
1789324023891759000,0.966759033203125,-0.6029062271118164,2.41414475440979,-0.7812736630439758
1789324023920035000,0.99503515625,-0.8851176500320435,-1.1630531549453735,-1.1056334972381592
1789324023938885600,1.0138857421875,-1.077534556388855,0.48989951610565186,-2.6639811992645264
1789324023957736200,1.032736083984375,-1.3714284896850586,1.8204011917114258,-3.7225794792175293
1789324023976587000,1.0515869140625,-2.0079312324523926,1.5064257383346558,-3.3157553672790527
1789324023995437600,1.0704375,-2.4935548305511475,-0.14110571146011353,-2.274871587753296
1789324024023713500,1.098713623046875,-3.0463716983795166,-1.5497958660125732,-1.3041589260101318
1789324024042564000,1.117564208984375,-2.396430253982544,-1.3304253816604614,-1.5919443368911743
1789324024061414700,1.13641455078125,-1.6304277181625366,-0.25350162386894226,-2.326793670654297
1789324024080265200,1.15526513671875,-1.452060341835022,1.0286667346954346,-3.284602165222168
1789324024099116000,1.174115966796875,-1.7971889972686768,2.0458037853240967,-4.021971225738525
1789324024117966600,1.192966552734375,-1.7794743776321411,2.7256767749786377,-3.61751389503479
1789324024136817200,1.211817138671875,-1.5278053283691406,2.5888469219207764,-2.8411269187927246
1789324024155667700,1.230667724609375,-1.6395903825759888,2.34206485748291,-2.5057718753814697
1789324024174518500,1.2495185546875,-1.5571260452270508,2.4062037467956543,-2.4526281356811523
1789324024193369000,1.268369140625,-1.1679399013519287,2.8374619483947754,-2.240664005279541
1789324024212219600,1.2872197265625,-0.7091936469078064,2.498441696166992,-1.9987685680389404
1789324024240495600,1.31549560546875,0.15210096538066864,2.2247819900512695,-1.7959673404693604
1789324024268771600,1.343771484375,0.4159869849681854,1.2284138202667236,-2.1862986087799072
1789324024287622100,1.3626220703125,0.70308518409729,0.6529957056045532,-1.2870551347732544
1789324024306473000,1.381472900390625,0.569309651851654,1.92363440990448,-0.7195780873298645
1789324024325323500,1.400323486328125,0.5748072862625122,2.8405160903930664,-0.8411366939544678
1789324024344174000,1.419174072265625,1.220472812652588,1.7012859582901,-0.6554391384124756
1789324024363025000,1.43802490234375,1.1490037441253662,0.5906893014907837,-0.31031039357185364
1789324024381875500,1.45687548828125,1.6029396057128906,-0.3530697226524353,-0.08979454636573792
1789324024400726000,1.47572607421875,2.0763461589813232,-1.1722159385681152,-0.12094775587320328
1789324024419576800,1.494576904296875,1.64569890499115,-0.8826742768287659,-0.3903313875198364
1789324024438427400,1.513427490234375,1.2888877391815186,-0.291374146938324,-0.5131117105484009
1789324024457278000,1.53227783203125,0.896723747253418,0.15271180868148804,-0.5632011890411377
1789324024476128800,1.551128662109375,0.7159129977226257,0.3127537965774536,-0.27976804971694946
1789324024494979300,1.569979248046875,0.5308262705802917,0.1820324808359146,-0.1050657257437706
1789324024513830000,1.588829833984375,0.420873761177063,1.0011786222457886,-0.23823043704032898
1789324024532680700,1.6076806640625,-0.2107423096895218,1.5039823055267334,-0.3249707520008087
1789324024551531300,1.62653125,-0.45324867963790894,1.436178207397461,-0.11545012891292572
1789324024570381800,1.6453818359375,-0.47890424728393555,0.6499415040016174,-0.3970507085323334
1789324024589232600,1.664232666015625,-0.5943543910980225,-2.847846269607544,0.006108472589403391
1789324024608083200,1.683083251953125,-0.8863393664360046,-4.107489585876465,-0.03665083646774292
1789324024626933800,1.701933837890625,-1.0286667346954346,-2.503939151763916,-0.34573954343795776
1789324024645784600,1.72078466796875,-1.1764918565750122,-2.2186737060546875,0.09345962852239609
1789324024664635100,1.73963525390625,-1.045770525932312,-1.8533869981765747,0.7617265582084656
1789324024683486000,1.75848583984375,0.10873081535100937,-0.8796200752258301,1.7758092880249023
1789324024702336500,1.77733642578125,0.4227063059806824,-0.22662433981895447,2.197293996810913
1789324024721187000,1.79618701171875,-0.3518480062484741,0.37383851408958435,2.26387619972229
1789324024740038000,1.815037841796875,-0.9083298444747925,0.610236406326294,1.4477843046188354
1789324024758888400,1.833888427734375,-0.8619054555892944,0.47829338908195496,0.9455915689468384
1789324024777739000,1.852739013671875,-0.3243598937988281,-0.20096874237060547,0.46607646346092224
1789324024796589800,1.87158984375,0.1575985997915268,-0.31825143098831177,0.3414636254310608
1789324024815440400,1.8904404296875,-0.45141613483428955,0.5644228458404541,0.6731536984443665
1789324024834291000,1.909291015625,-1.3433294296264648,-0.7281299233436584,1.4215179681777954
1789324024853141800,1.928141845703125,-1.0243908166885376,-1.7116703987121582,1.3212625980377197
1789324024871992300,1.946992431640625,-1.2003148794174194,-2.017704963684082,0.7824953198432922
1789324024890843000,1.9658427734375,-0.36223241686820984,-0.6517740488052368,0.624896764755249
1789324024909693700,1.984693603515625,0.4691306948661804,0.3439069986343384,1.276059865951538
1789324024928544300,2.003544189453125,0.9229902029037476,0.19302773475646973,1.9480682611465454
1789324024947395000,2.02239501953125,1.5161992311477661,-0.32130566239356995,1.8827075958251953
1789324024966245600,2.04124560546875,1.9560092687606812,0.18936264514923096,1.8448350429534912
1789324024985096200,2.06009619140625,1.8087950944900513,-0.5540384650230408,1.7477103471755981
1789324025003947000,2.078947021484375,0.9749122262001038,-1.502760648727417,1.598052740097046
1789324025022797600,2.097797607421875,0.5112791657447815,-1.6426446437835693,2.1355984210968018
1789324025041648400,2.1166484375,0.5210527181625366,-0.8686248064041138,1.7318283319473267
1789324025060499000,2.1354990234375,0.6920899152755737,-0.7886037826538086,1.3549355268478394
1789324025079349800,2.154349853515625,0.8796200752258301,-0.4428642690181732,0.8796200752258301
1789324025098200300,2.173200439453125,0.8722898960113525,-0.27915719151496887,0.5277720093727112
1789324025117051000,2.19205078125,0.7244648337364197,-0.2901524603366852,0.4569137394428253
1789324025135901700,2.210901611328125,0.5717530250549316,-0.1423274129629135,0.3035911023616791
1789324025154752300,2.229752197265625,0.31092125177383423,0.13560809195041656,-0.014049487188458443
1789324025173603000,2.24860302734375,-0.02748812735080719,0.2858765125274658,-0.20585553348064423
1789324025192453600,2.26745361328125,-0.25594499707221985,0.3823903799057007,-0.40987852215766907
1789324025211304400,2.286304443359375,-0.5002838969230652,0.5619794726371765,-0.5906893014907837
1789324025230155000,2.305155029296875,-0.7104153633117676,0.6578825116157532,-0.7201889157295227
1789324025249005600,2.324005615234375,-0.8612946271896362,0.5851916670799255,-0.7953231334686279
1789324025267856400,2.3428564453125,-1.0396620035171509,0.5870242118835449,-0.9700254201889038
1789324025286707000,2.36170703125,-1.2003148794174194,0.6969767212867737,-1.1575555801391602
1789324025305557800,2.380557861328125,-1.5076473951339722,0.9284878373146057,-1.3860887289047241
1789324025324408300,2.399408203125,-1.692123293876648,0.9223793745040894,-1.474050760269165
1789324025343259100,2.418259033203125,-1.442286729812622,0.3640649616718292,-1.3799803256988525
1789324025362109700,2.437109619140625,-1.3934189081192017,0.09407047927379608,-1.2259705066680908
1789324025380960300,2.455960205078125,-1.1086877584457397,-0.055587101727724075,-1.1862653493881226
1789324025399811000,2.47481103515625,-0.8301414251327515,-0.14660334587097168,-1.5192534923553467
1789324025418661600,2.49366162109375,-0.962695300579071,-0.444085955619812,-1.6554723978042603
1789324025437512400,2.512512451171875,-1.4025816917419434,-0.9126058220863342,-1.9230235815048218
1789324025456363000,2.531363037109375,-1.3573789596557617,-0.8686248064041138,-2.3322911262512207
1789324025475213800,2.5502138671875,-1.2461284399032593,-1.7171679735183716,-2.431248426437378
1789324025494064400,2.569064453125,-1.0995250940322876,-2.4208641052246094,-2.4678993225097656
1789324025512915200,2.587915283203125,-1.2882769107818604,-2.5656347274780273,-2.5741868019104004
1789324025531765800,2.606765869140625,-1.5265836715698242,-1.192984700202942,-2.442243814468384
1789324025550616600,2.625616455078125,-0.9999569654464722,-0.791047215461731,-1.92363440990448
1789324025569467100,2.644467041015625,-0.04092676565051079,-0.29748260974884033,-1.105022668838501
1789324025588318000,2.66331787109375,0.26632940769195557,0.03298575058579445,-0.7715001106262207
1789324025607168500,2.68216845703125,0.18081079423427582,0.1954711228609085,-0.5711421966552734
1789324025626019300,2.701019287109375,0.23273280262947083,0.04092676565051079,-0.1716480851173401
1789324025644870000,2.719869873046875,0.2901524603366852,-0.030542362481355667,0.4049917459487915
1789324025663720700,2.738720703125,0.3164188861846924,0.1850867122411728,0.9718579649925232
1789324025682571300,2.7575712890625,0.4575245976448059,0.6688777208328247,1.3689850568771362
1789324025701422000,2.776422119140625,0.5522059202194214,0.837471604347229,1.5595693588256836
1789324025720272600,2.795272705078125,0.3054236173629761,0.6719319820404053,1.515588402748108
1789324025739123500,2.81412353515625,-0.1844758689403534,0.5344913601875305,1.3518813848495483
1789324025757974000,2.83297412109375,-0.5192201733589172,0.5033381581306458,1.087918996810913
1789324025776824800,2.851824951171875,-0.7623373866081238,0.18936264514923096,0.8832851648330688
1789324025795675400,2.87067529296875,-0.7458444833755493,0.0012216945178806782,1.165496587753296
1789324025814526200,2.889526123046875,-0.47829338908195496,-0.23884128034114838,1.6426446437835693
1789324025833376800,2.908376708984375,0.12583453953266144,-0.46485477685928345,1.9309645891189575
1789324025852227600,2.9272275390625,0.48073679208755493,-0.3158080279827118,1.8747665882110596
1789324025871078100,2.946078125,0.7482879161834717,0.03665083646774292,1.7489320039749146
1789324025889929000,2.964928955078125,1.183211088180542,0.16126367449760437,1.829563856124878
1789324025908779500,2.983779541015625,1.2577345371246338,-0.23090025782585144,1.9834973812103271
1789324025927630300,3.00263037109375,1.0866972208023071,-0.7214106321334839,1.98899507522583
1789324025946481000,3.02148095703125,0.8338065147399902,-0.9840749502182007,2.0305325984954834
1789324025965331700,3.040331787109375,0.6499415040016174,-0.9462023973464966,2.103834390640259
1789324025984182300,3.059182373046875,0.5485408306121826,-0.9663603901863098,2.0659618377685547
1789324026003033000,3.078033203125,0.4214846193790436,-1.49848473072052,2.0341978073120117
1789324026021883600,3.096883544921875,0.3042019307613373,-2.0097639560699463,1.886372685432434
1789324026040734500,3.115734375,0.365286648273468,-1.4404542446136475,1.5742297172546387
1789324026059585300,3.134585205078125,0.40010493993759155,-0.550373375415802,1.427626371383667
1789324026078435800,3.153435791015625,0.42514967918395996,-0.3561239540576935,1.2613996267318726
1789324026097286400,3.172286376953125,0.38849884271621704,-0.37322768568992615,1.132510781288147
1789324026116137200,3.19113720703125,0.34940463304519653,-0.14110571146011353,0.8765658140182495
1789324026134988000,3.209988037109375,0.2363978922367096,0.20219044387340546,0.5601469278335571
1789324026153838600,3.228838623046875,0.10262233763933182,0.32069480419158936,0.3695625960826874
1789324026172689400,3.247689453125,0.030542362481355667,0.3695625960826874,0.1447708010673523
1789324026191540000,3.2665400390625,0.06352811306715012,0.48012593388557434,-0.13805148005485535
1789324026210390800,3.285390869140625,0.07207997888326645,0.5289937257766724,-0.4844018816947937
1789324026229241300,3.304241455078125,0.006719320081174374,0.5992411375045776,-0.7763868570327759
1789324026248092200,3.323092041015625,-0.12522368133068085,0.8551861643791199,-1.0304993391036987
1789324026266943000,3.34194287109375,-0.23823043704032898,1.1636639833450317,-1.2491827011108398
1789324026285793500,3.36079345703125,-0.37078428268432617,1.3677634000778198,-1.4923762083053589
1789324026304644400,3.379644287109375,-0.5234960913658142,1.3372210264205933,-1.7525970935821533
1789324026323495000,3.398494873046875,-0.6365028619766235,1.2778924703598022,-1.9285211563110352
1789324026342345700,3.417345703125,-0.8851176500320435,1.3120999336242676,-2.0598533153533936
1789324026361196300,3.4361962890625,-1.1355650424957275,1.2601778507232666,-2.058020830154419
1789324026380047000,3.455047119140625,-1.1606098413467407,1.0280559062957764,-2.0396952629089355
1789324026398898000,3.47389794921875,-1.1807677745819092,0.7366818189620972,-2.070237636566162
1789324026417748500,3.49274853515625,-1.3353121280670166,0.4850127100944519,-2.2767040729522705
1789324026436599300,3.511599365234375,-1.5009280443191528,0.09529217332601547,-2.2296688556671143
1789324026455449900,3.530449951171875,-1.391586422920227,-0.08307522535324097,-2.2266147136688232
1789324026474300700,3.54930078125,-1.1349542140960693,-0.13988402485847473,-2.2394423484802246
1789324026493151200,3.568151123046875,-0.8777875304222107,-0.16553960740566254,-2.2504377365112305
1789324026512002000,3.587001953125,-0.7043069005012512,-0.10384403169155121,-2.194850444793701
1789324026530852600,3.6058525390625,-0.47951510548591614,-0.07452336698770523,-2.102001667022705
1789324026549703400,3.624703369140625,-0.15332266688346863,-0.0910162404179573,-1.9272994995117188
1789324026568554200,3.64355419921875,0.10017894953489304,-0.15149012207984924,-1.618821620941162
1789324026587404800,3.66240478515625,0.09956810623407364,-0.10078980028629303,-1.068982720375061
1789324026606255600,3.681255615234375,-0.010995250195264816,0.02870982140302658,-0.37322768568992615
1789324026625106200,3.700106201171875,0.02076880633831024,0.2632751762866974,0.130721315741539
1789324026643957000,3.71895703125,-0.036039989441633224,0.365286648273468,0.4324798583984375
1789324026662807800,3.737807861328125,-0.01588202826678753,0.18630841374397278,0.6688777208328247
1789324026681658400,3.756658447265625,0.07024743407964706,0.21318569779396057,0.9303203821182251
1789324026700509200,3.77550927734375,0.10811996459960938,0.1582094430923462,1.138619303703308
1789324026719359700,3.79435986328125,0.08307522535324097,0.13560809195041656,1.271173119544983
1789324026738210600,3.81321044921875,0.006719320081174374,0.04031591862440109,1.3573789596557617
1789324026757061400,3.832061279296875,-0.034818295389413834,-0.10934165865182877,1.3799803256988525
1789324026775912000,3.850911865234375,-0.024433890357613564,-0.20280128717422485,1.3334795236587524
1789324026794762800,3.8697626953125,0.11117420345544815,-0.16553960740566254,1.3647091388702393
1789324026813613300,3.88861328125,0.30603447556495667,-0.04947862774133682,1.5461307764053345
1789324026832464100,3.907464111328125,0.4984513521194458,0.05864133685827255,1.7483211755752563
1789324026851315000,3.92631494140625,0.5888567566871643,-0.07330167293548584,1.833839774131775
1789324026870165500,3.94516552734375,0.6652126908302307,-0.2779355049133301,1.8234554529190063
1789324026889016300,3.964016357421875,0.8356390595436096,-0.3524588644504547,1.797799825668335
1789324026907867000,3.982866943359375,1.0427162647247314,-0.5998520255088806,1.8643821477890015
1789324026926717700,4.0017177734375,1.0934165716171265,-0.6713211536407471,1.8937028646469116
1789324026954993700,4.02999365234375,0.8496885299682617,-0.5900784730911255,1.863160490989685
1789324026973844500,4.048844482421875,0.7458444833755493,-0.7299624681472778,1.8582737445831299
1789324026992695300,4.0676953125,0.6688777208328247,-1.1123528480529785,1.9547876119613647
1789324027011545900,4.0865458984375,0.5063923597335815,-1.5424656867980957,1.8491109609603882
1789324027030396700,4.105396728515625,0.4080459773540497,-1.690901517868042,1.5833925008773804
1789324027049247200,4.124247314453125,0.4330907166004181,-1.2601778507232666,1.3781477212905884
1789324027068098000,4.14309814453125,0.5595360994338989,-0.8283088803291321,1.4007490873336792
1789324027086948900,4.161948974609375,0.5796940326690674,-0.7061394453048706,1.2339115142822266
1789324027105799400,4.18079931640625,0.5326588153839111,-0.4049917459487915,0.869235634803772
1789324027124650200,4.199650146484375,0.30725616216659546,-0.15515519678592682,0.7244648337364197
1789324027143501000,4.2185009765625,0.17592400312423706,0.16248537600040436,0.6474980711936951
1789324027162351600,4.2373515625,0.21685077250003815,0.14965757727622986,0.3408527672290802
1789324027181202400,4.256202392578125,0.2522799074649811,0.1710372269153595,-0.02076880633831024
1789324027200053200,4.27505322265625,0.12400199472904205,0.33474430441856384,-0.25716668367385864
1789324027218903800,4.29390380859375,-0.056808795779943466,0.5992411375045776,-0.5442649126052856
1789324027237754600,4.312754638671875,-0.19302773475646973,0.9150491952896118,-0.9248227477073669
1789324027256605200,4.331605224609375,-0.3158080279827118,1.1826002597808838,-1.2601778507232666
1789324027275456000,4.3504560546875,-0.4679090082645416,1.4068576097488403,-1.5223077535629272
1789324027294306800,4.369306884765625,-0.6560499668121338,1.5235294103622437,-1.7324391603469849
1789324027313157400,4.388157470703125,-0.8081509470939636,1.511312484741211,-1.8723231554031372
1789324027332008200,4.40700830078125,-0.9602518677711487,1.3310362100601196,-1.8979787826538086
1789324027350858800,4.425858642578125,-1.1923738718032837,1.2143644094467163,-2.053133964538574
1789324027369709600,4.44470947265625,-1.3524922132492065,0.9504783153533936,-2.2760932445526123
1789324027388560400,4.463560302734375,-1.4630554914474487,0.5076140761375427,-2.2095108032226562
1789324027407411000,4.482410888671875,-1.4942086935043335,0.2993151545524597,-2.2541027069091797
1789324027426261800,4.50126171875,-1.4990955591201782,0.09529217332601547,-2.2327229976654053
1789324027445112600,4.520112548828125,-1.3414969444274902,-0.02870982140302658,-2.3377888202667236
1789324027463963100,4.538963134765625,-1.0702043771743774,-0.2492256760597229,-2.379937171936035
1789324027482814000,4.55781396484375,-0.832584798336029,-0.337798535823822,-2.3512275218963623
1789324027501664800,4.576664794921875,-0.6139014959335327,-0.29442837834358215,-2.312744140625
1789324027520515300,4.595515380859375,-0.3689517378807068,-0.19119518995285034,-2.2333338260650635
1789324027539366100,4.6143662109375,-0.22723518311977386,-0.06169557198882103,-1.9340187311172485
1789324027558217000,4.633217041015625,-0.12766708433628082,-0.12033691257238388,-1.4251830577850342
1789324027577067500,4.652067626953125,0.006719320081174374,-0.1172826737165451,-0.846023440361023
1789324027595918300,4.67091845703125,0.2492256760597229,-0.04153761267662048,-0.3176405727863312
1789324027614769000,4.689768798828125,0.29259583353996277,0.0030542362947016954,0.10384403169155121
1789324027633619700,4.70861962890625,0.2107423096895218,-0.17225892841815948,0.39888325333595276
1789324027652470500,4.727470458984375,0.28282228112220764,-0.16553960740566254,0.6468872427940369
1789324027671321000,4.746321044921875,0.4031592011451721,-0.07146912813186646,0.9565867781639099
1789324027690172000,4.765171875,0.46241137385368347,0.06352811306715012,1.2522368431091309
1789324027709022700,4.784022705078125,0.39827242493629456,0.12400199472904205,1.4251830577850342
1789324027727873300,4.802873291015625,0.29626092314720154,-0.11300674080848694,1.3983057737350464
1789324027746724000,4.82172412109375,0.16798299551010132,-0.1832541823387146,1.2968287467956543
1789324027765575000,4.840574951171875,0.06291726976633072,-0.2730487287044525,1.3084348440170288
1789324027784425500,4.859425537109375,0.08918370306491852,-0.25472331047058105,1.5003172159194946
1789324027803276300,4.8782763671875,0.33291175961494446,-0.2773246467113495,1.7318283319473267
1789324027831552300,4.90655224609375,0.730573296546936,-0.2742704153060913,1.831396460533142
1789324027850403000,4.925403076171875,0.8441908955574036,-0.1960819661617279,1.7923022508621216
1789324027869254000,4.94425390625,0.9223793745040894,-0.21501824259757996,1.8637713193893433
1789324027888104400,4.9631044921875,0.9999569654464722,-0.4978405237197876,1.9999902248382568
1789324027906955300,4.981955322265625,1.0347752571105957,-0.7470661997795105,1.974334716796875
1789324027925806000,5.00080615234375,1.0512681007385254,-0.7941014170646667,1.8796533346176147
1789324027944656600,5.01965673828125,0.896723747253418,-0.9236010313034058,1.9627286195755005
1789324027963507500,5.038507568359375,0.569309651851654,-1.419074535369873,2.083676338195801
1789324027982358300,5.057358154296875,0.4428642690181732,-1.6243191957473755,1.8283421993255615
1789324028001208800,5.076208740234375,0.5320479869842529,-1.2510151863098145,1.6224867105484009
1789324028020059600,5.0950595703125,0.5796940326690674,-0.7831062078475952,1.5088690519332886
1789324028038910500,5.113910400390625,0.601073682308197,-0.5027272701263428,1.4306806325912476
1789324028057761000,5.132760986328125,0.5943543910980225,-0.26755109429359436,1.1960389614105225
1789324028076611800,5.15161181640625,0.5216635465621948,-0.19241689145565033,0.8502993583679199
1789324028095462700,5.170462646484375,0.4086568057537079,-0.10811996459960938,0.6365028619766235
1789324028114313200,5.189313232421875,0.30603447556495667,-0.005497625097632408,0.41415444016456604
1789324028133164000,5.2081640625,0.312142938375473,0.15332266688346863,0.10201149433851242
1789324028152014800,5.227014892578125,0.2864873707294464,0.3408527672290802,-0.3042019307613373
1789324028170865400,5.245865478515625,0.12766708433628082,0.7134696245193481,-0.6426113247871399
1789324028189716200,5.26471630859375,-0.07085828483104706,1.1080769300460815,-0.9462023973464966
1789324028208567000,5.283567138671875,-0.24189551174640656,1.38731050491333,-1.2656755447387695
1789324028236843000,5.311843017578125,-0.4746283292770386,1.4844352006912231,-1.682349681854248
1789324028255693800,5.33069384765625,-0.6212316751480103,1.353713870048523,-1.8460568189620972
1789324028274544400,5.34954443359375,-0.8044858574867249,1.2852226495742798,-1.9218018054962158
1789324028293395200,5.368395263671875,-1.0811996459960938,1.165496587753296,-1.9761672019958496
1789324028312246000,5.38724609375,-1.339664340019226,1.1056334972381592,-2.0830655097961426
1789324028331096600,5.4060966796875,-1.474050760269165,0.8893936276435852,-2.226003885269165
1789324028349947400,5.424947509765625,-1.53452467918396,0.6554391384124756,-2.303581476211548
1789324028368798200,5.443798095703125,-1.4471734762191772,0.3561239540576935,-2.442243814468384
1789324028387648800,5.462648681640625,-1.3200409412384033,0.23090025782585144,-2.530205726623535
1789324028406499600,5.48149951171875,-1.1520578861236572,0.1844758689403534,-2.5491418838500977
1789324028425350400,5.500350341796875,-0.9541434049606323,-0.055587101727724075,-2.455071449279785
1789324028444201000,5.519200927734375,-0.7427902817726135,-0.18142163753509521,-2.3402321338653564
1789324028463051800,5.5380517578125,-0.5351021885871887,-0.12583453953266144,-2.2211170196533203
1789324028481902600,5.556902587890625,-0.2510582208633423,-0.03542914241552353,-1.9444031715393066
1789324028500753200,5.575753173828125,0.09407047927379608,0.02748812735080719,-1.530248761177063
1789324028519604000,5.59460400390625,0.2773246467113495,0.04459185153245926,-1.0292776823043823
1789324028538454800,5.613454833984375,0.32374903559684753,0.18875180184841156,-0.53143709897995
1789324028557305300,5.632305419921875,0.261442631483078,0.23823043704032898,-0.07696675509214401
1789324028576156200,5.65115625,0.1557660549879074,0.0916270911693573,0.29320669174194336
1789324028595007000,5.670007080078125,0.17286977171897888,-0.08857285231351852,0.6151232123374939
1789324028613857500,5.688857421875,0.21929416060447693,-0.12522368133068085,0.8936695456504822
1789324028632708400,5.707708251953125,0.33169007301330566,-0.014049487188458443,1.1392301321029663
1789324028651559200,5.72655908203125,0.4031592011451721,0.22479179501533508,1.2326897382736206
1789324028670409700,5.74540966796875,0.34512871503829956,0.13560809195041656,1.1783243417739868
1789324028689260500,5.764260498046875,0.20585553348064423,-0.16309621930122375,1.2736165523529053
1789324028708111400,5.783111328125,0.14843589067459106,-0.3280249834060669,1.4569470882415771
1789324028726962000,5.8019619140625,0.19913621246814728,-0.3310792148113251,1.5803382396697998
1789324028745812700,5.820812744140625,0.3054236173629761,-0.1973036676645279,1.6860147714614868
1789324028764663600,5.83966357421875,0.4587462842464447,-0.2516690790653229,1.8173469305038452
1789324028783514000,5.85851416015625,0.5894675850868225,-0.27854636311531067,1.9480682611465454
1789324028802365000,5.877364990234375,0.6682668924331665,-0.12644538283348083,1.9902167320251465
1789324028821215700,5.8962158203125,0.7513421177864075,-0.1569877415895462,2.0567991733551025
1789324028840066300,5.91506640625,0.7831062078475952,-0.33474430441856384,2.1233813762664795
1789324028858917000,5.933917236328125,0.6810947060585022,-0.5894675850868225,2.0739028453826904
1789324028877768000,5.952767822265625,0.7024743556976318,-0.6493306159973145,1.919358491897583
1789324028896618500,5.971618408203125,0.7207997441291809,-0.813648521900177,1.8937028646469116
1789324028915469300,5.99046923828125,0.43858832120895386,-1.3787586688995361,1.9773889780044556
1789324028934320000,6.009320068359375,0.2632751762866974,-1.5791164636611938,1.7580947875976562
1789324028953170700,6.028170654296875,0.37383851408958435,-1.166107416152954,1.571175456047058
1789324028972021500,6.047021484375,0.45080527663230896,-0.8338065147399902,1.4709964990615845
1789324028990872300,6.065872314453125,0.38422292470932007,-0.8301414251327515,1.313321590423584
1789324029009723000,6.084722900390625,0.3133646547794342,-0.6096255779266357,0.9975135922431946
1789324029028573700,6.10357373046875,0.22540263831615448,-0.40132665634155273,0.6529957056045532
1789324029047424500,6.122424560546875,0.1319430023431778,-0.18753011524677277,0.3683409094810486
1789324029066275000,6.141275146484375,0.06413896381855011,0.0012216945178806782,0.2089097648859024
1789324029085126000,6.1601259765625,0.05803048983216286,0.15271180868148804,-0.034818295389413834
1789324029103976700,6.178976806640625,0.03237490355968475,0.3304683566093445,-0.35917818546295166
1789324029122827300,6.1978271484375,-0.055587101727724075,0.5980194807052612,-0.6132906675338745
1789324029141678000,6.216677978515625,-0.1435490995645523,0.8044858574867249,-0.864959716796875
1789324029160529000,6.23552880859375,-0.208298921585083,1.0072871446609497,-1.221083641052246
1789324029179379500,6.25437939453125,-0.3384093940258026,1.1874871253967285,-1.5546826124191284
1789324029198230300,6.273230224609375,-0.5375455617904663,1.285833477973938,-1.8417809009552002
1789324029217081000,6.2920810546875,-0.7140804529190063,1.2864443063735962,-1.9902167320251465
1789324029235931600,6.310931640625,-0.9681929349899292,1.206423282623291,-2.095282554626465
1789324029254782500,6.329782470703125,-1.2278029918670654,1.0726478099822998,-2.4074254035949707
1789324029273633300,6.34863330078125,-1.4569470882415771,0.9138274788856506,-2.4856138229370117
1789324029292484000,6.367484130859375,-1.4441193342208862,0.5839699506759644,-2.596177101135254
1789324029311334700,6.386334716796875,-1.277281641960144,0.3970507085323334,-2.611448287963867
1789324029330185500,6.405185546875,-1.0952491760253906,0.2999260127544403,-2.7482781410217285
1789324029349036000,6.4240361328125,-0.8832851648330688,0.11483928561210632,-2.789815902709961
1789324029367886800,6.442886962890625,-0.6438329815864563,-0.09529217332601547,-2.6328279972076416
1789324029386737700,6.461737548828125,-0.3958290219306946,-0.2877090573310852,-2.3897109031677246
1789324029405588200,6.480588134765625,-0.22784602642059326,-0.3164188861846924,-1.9749455451965332
1789324029424439000,6.49943896484375,-0.12216944992542267,-0.11972606182098389,-1.4355673789978027
1789324029443289900,6.518289794921875,0.01832541823387146,0.06841489672660828,-1.0017894506454468
1789324029462140400,6.537140380859375,0.13988402485847473,0.13866232335567474,-0.6688777208328247
1789324029480991200,6.5559912109375,0.17409147322177887,0.13438639044761658,-0.37200596928596497
1789324029499842000,6.574842041015625,0.21807247400283813,0.13621893525123596,-0.03420744836330414
1789324029518692600,6.593692626953125,0.2980934679508209,0.0525328628718853,0.3243598937988281
1789324029537543400,6.61254345703125,0.30603447556495667,0.05131116881966591,0.6450546979904175
1789324029556394200,6.631394287109375,0.32069480419158936,-0.02993151545524597,0.9003888368606567
1789324029575244800,6.650244873046875,0.31825143098831177,-0.055587101727724075,1.0940274000167847
1789324029594095600,6.669095703125,0.30847787857055664,-0.051922015845775604,1.1923738718032837
1789324029612946400,6.687946533203125,0.26755109429359436,-0.11117420345544815,1.2681188583374023
1789324029631797000,6.706796875,0.28160059452056885,-0.1704263836145401,1.3732609748840332
1789324029650647800,6.725647705078125,0.3536805510520935,-0.12094775587320328,1.455114483833313
1789324029669498600,6.74449853515625,0.4220954477787018,-0.08857285231351852,1.5107016563415527
1789324029688349200,6.76334912109375,0.4618005156517029,-0.07574506103992462,1.6072155237197876
1789324029707200000,6.782199951171875,0.5008947253227234,-0.20096874237060547,1.738547682762146
1789324029726050800,6.80105078125,0.5674771070480347,-0.3683409094810486,1.8130710124969482
1789324029744901400,6.8199013671875,0.6700994372367859,-0.38422292470932007,1.8515543937683105
1789324029763752200,6.838752197265625,0.786160409450531,-0.3811686933040619,1.9401272535324097
1789324029782603000,6.85760302734375,0.8252546191215515,-0.4453076422214508,2.084897994995117
1789324029801453600,6.87645361328125,0.7580614686012268,-0.726908266544342,2.191185474395752
1789324029820304400,6.895304443359375,0.758672297000885,-0.7794411182403564,2.1636972427368164
1789324029839155200,6.9141552734375,0.7519529461860657,-0.9657495021820068,2.03480863571167
1789324029858005800,6.933005859375,0.4856235682964325,-1.385477900505066,1.867436408996582
1789324029876856600,6.951856689453125,0.41476529836654663,-1.2974395751953125,1.562012791633606
1789324029895707400,6.970707275390625,0.5192201733589172,-0.9462023973464966,1.482602596282959
1789324029914558000,6.989557861328125,0.5277720093727112,-0.7519529461860657,1.4917653799057007
1789324029933408800,7.00840869140625,0.4043808877468109,-0.8551861643791199,1.3512704372406006
1789324029952259600,7.027259521484375,0.26694026589393616,-0.6639909744262695,0.9962918758392334
1789324029971110100,7.046110107421875,0.18936264514923096,-0.32374903559684753,0.6401679515838623
1789324029989961000,7.0649609375,0.11056335270404816,-0.006108472589403391,0.32008397579193115
1789324030008811500,7.0838115234375,0.03176405653357506,0.23090025782585144,-0.021379653364419937
1789324030027662300,7.102662353515625,-0.01832541823387146,0.448361873626709,-0.3793361485004425
1789324030046512000,7.12151220703125,-0.08002099394798279,0.6511631608009338,-0.6896465420722961
1789324030065363000,7.140363037109375,-0.17348061501979828,0.8496885299682617,-0.9101623892784119
1789324030084213800,7.1592138671875,-0.30664533376693726,1.0824213027954102,-1.1416735649108887
1789324030103064300,7.178064208984375,-0.4746283292770386,1.2369656562805176,-1.4093009233474731
1789324030121915100,7.1969150390625,-0.6187883019447327,1.2913310527801514,-1.640201210975647
1789324030140765700,7.215765625,-0.7501204609870911,1.1966497898101807,-1.8179577589035034
1789324030159616500,7.234616455078125,-0.9645278453826904,1.2052016258239746,-1.9444031715393066
1789324030178467300,7.25346728515625,-1.1984822750091553,1.0799779891967773,-2.1624755859375
1789324030197318000,7.27231787109375,-1.3659307956695557,0.9486457705497742,-2.2730391025543213
1789324030216168700,7.291168701171875,-1.4068576097488403,0.7104153633117676,-2.4361352920532227
1789324030235019500,7.31001953125,-1.355546474456787,0.4679090082645416,-2.4788944721221924
1789324030253870000,7.3288701171875,-1.178935170173645,0.2516690790653229,-2.6010639667510986
1789324030272721000,7.347720947265625,-0.8936695456504822,0.13316470384597778,-2.7427804470062256
1789324030291571700,7.36657177734375,-0.6004628539085388,0.1178935244679451,-2.7543866634368896
1789324030310422300,7.38542236328125,-0.41354358196258545,0.033596597611904144,-2.4813380241394043
1789324030329273000,7.404273193359375,-0.312142938375473,-0.016492875292897224,-2.046414613723755
1789324030348124000,7.4231240234375,-0.17531315982341766,0.16859383881092072,-1.6224867105484009
1789324030366974500,7.441974365234375,0.07391251623630524,0.37567105889320374,-1.3017154932022095
1789324030385825300,7.4608251953125,0.21746163070201874,0.3115321099758148,-0.9126058220863342
1789324030404676000,7.479676025390625,0.1557660549879074,0.17714570462703705,-0.5351021885871887
1789324030423526700,7.498526611328125,0.08307522535324097,0.11483928561210632,-0.18019993603229523
1789324030442377500,7.51737744140625,0.0916270911693573,0.16004198789596558,0.16798299551010132
1789324030461228300,7.536228271484375,0.1441599577665329,0.1447708010673523,0.5155550837516785
1789324030480078800,7.555078857421875,0.18142163753509521,0.11911521852016449,0.8448017835617065
1789324030498929700,7.5739296875,0.15149012207984924,-0.04214845970273018,1.0983033180236816
1789324030517780500,7.592780517578125,0.130721315741539,-0.130721315741539,1.2613996267318726
1789324030536631000,7.611631103515625,0.12827792763710022,-0.08735115826129913,1.3445512056350708
1789324030555481900,7.63048193359375,0.1044548824429512,-0.08674030750989914,1.427626371383667
1789324030574332400,7.64933251953125,0.04459185153245926,-0.02870982140302658,1.5870575904846191
1789324030593183200,7.668183349609375,0.046424392610788345,-0.033596597611904144,1.7495429515838623
1789324030612034000,7.687033935546875,0.19180603325366974,-0.05925218388438225,1.7941347360610962
1789324030630884600,7.705884521484375,0.312142938375473,-0.17836740612983704,1.833839774131775
1789324030649735400,7.7247353515625,0.4031592011451721,-0.4337015450000763,1.9211909770965576
1789324030668586200,7.743586181640625,0.48806697130203247,-0.5925218462944031,1.9981577396392822
1789324030687436800,7.762436767578125,0.5644228458404541,-0.6603258848190308,2.0415279865264893
1789324030706287600,7.78128759765625,0.5882459282875061,-0.7336275577545166,2.1197164058685303
1789324030725138200,7.80013818359375,0.5845808386802673,-0.8869501948356628,2.1924071311950684
1789324030743989000,7.818989013671875,0.6389462351799011,-0.911384105682373,2.0830655097961426
1789324030762839800,7.83783984375,0.6933116316795349,-0.9614735841751099,1.987162470817566
1789324030781690400,7.8566904296875,0.4416425824165344,-1.355546474456787,1.9132499694824219
1789324030800541200,7.875541259765625,0.37200596928596497,-1.4990955591201782,1.7813069820404053
1789324030819392000,7.89439208984375,0.4850127100944519,-1.1648857593536377,1.7165571451187134
1789324030838242600,7.91324267578125,0.6169557571411133,-0.8130376935005188,1.6597483158111572
1789324030857093400,7.93209326171875,0.578472375869751,-0.837471604347229,1.4587795734405518
1789324030875944200,7.950944091796875,0.4721849262714386,-0.7379034757614136,0.9559759497642517
1789324030894794800,7.969794677734375,0.36039987206459045,-0.6163448691368103,0.5717530250549316
1789324030913645600,7.9886455078125,0.2620534598827362,-0.40132665634155273,0.3506263196468353
1789324030932496100,8.00749609375,0.20463383197784424,-0.07452336698770523,0.130721315741539
1789324030951347000,8.026346923828125,0.1569877415895462,0.21562908589839935,-0.15026842057704926
1789324030970197800,8.04519775390625,0.08551861345767975,0.4349232614040375,-0.4416425824165344
1789324030989048300,8.06404833984375,0.023212196305394173,0.6340594291687012,-0.7275190949440002
1789324031007899100,8.082899169921875,-0.023823043331503868,0.9431481957435608,-1.0873081684112549
1789324031026750000,8.10175,-0.129499614238739,1.2546802759170532,-1.4227396249771118
1789324031045600500,8.1206005859375,-0.2602209448814392,1.4575579166412354,-1.6951775550842285
1789324031064451300,8.139451416015625,-0.37567105889320374,1.4868786334991455,-1.8930920362472534
1789324031083302100,8.15830224609375,-0.5320479869842529,1.2736165523529053,-2.017704963684082
1789324031102152700,8.177152587890625,-0.8820634484291077,1.0714260339736938,-2.101390838623047
1789324031121003500,8.19600341796875,-1.1813786029815674,0.8625163435935974,-2.2876992225646973
1789324031139854300,8.214854248046874,-1.2925528287887573,0.684759795665741,-2.3518383502960205
1789324031158705000,8.233704833984374,-1.2186403274536133,0.5015056133270264,-2.5088260173797607
1789324031177555700,8.2525556640625,-1.1013575792312622,0.17958909273147583,-2.468510150909424
1789324031196406300,8.27140625,-0.8936695456504822,0.1185043677687645,-2.6529860496520996
1789324031215257000,8.290257080078124,-0.6340594291687012,-0.02993151545524597,-2.789815902709961
1789324031234108000,8.30910791015625,-0.41293275356292725,-0.16676130890846252,-2.6737546920776367
1789324031252958500,8.32795849609375,-0.261442631483078,-0.27854636311531067,-2.393375873565674
1789324031271809300,8.346809326171876,-0.11911521852016449,-0.20219044387340546,-2.028700113296509
1789324031290659800,8.365659912109376,0.07391251623630524,0.005497625097632408,-1.616989016532898
1789324031309510700,8.3845107421875,0.26694026589393616,0.12827792763710022,-1.276059865951538
1789324031328361500,8.403361572265625,0.312142938375473,0.09407047927379608,-0.8802309036254883
1789324031347212000,8.4222119140625,0.22662433981895447,0.023823043331503868,-0.4202629029750824
1789324031366062800,8.441062744140625,0.16431790590286255,0.026877280324697495,-0.020157959312200546
1789324031384913400,8.459913330078125,0.2504473626613617,0.06780404597520828,0.26755109429359436
1789324031403764200,8.47876416015625,0.3243598937988281,0.024433890357613564,0.5143333673477173
1789324031422615000,8.497614990234375,0.3414636254310608,0.01710372418165207,0.7733326554298401
1789324031441465600,8.516465576171875,0.32191649079322815,-0.06780404597520828,0.9999569654464722
1789324031460316400,8.53531640625,0.2736595869064331,-0.19974705576896667,1.1575555801391602
1789324031479167200,8.554167236328125,0.237008735537529,-0.3127537965774536,1.2949961423873901
1789324031507443200,8.582443115234375,0.25655585527420044,-0.25533416867256165,1.5064257383346558
1789324031526294000,8.6012939453125,0.3439069986343384,-0.18814095854759216,1.593776822090149
1789324031545144600,8.62014453125,0.5528167486190796,-0.10017894953489304,1.6683002710342407
1789324031563995400,8.638995361328124,0.6872031688690186,-0.04337015375494957,1.7971889972686768
1789324031582846000,8.657845947265624,0.7091936469078064,-0.21868331730365753,1.867436408996582
1789324031601696800,8.67669677734375,0.7000309824943542,-0.3915531039237976,1.9040873050689697
1789324031620547300,8.69554736328125,0.7324058413505554,-0.5699204802513123,1.9773889780044556
1789324031639398100,8.714398193359376,0.7702783942222595,-0.6316160559654236,2.0415279865264893
1789324031658249000,8.7332490234375,0.7647807598114014,-0.656660795211792,2.081233024597168
1789324031677099500,8.752099609375,0.8252546191215515,-0.707361102104187,2.098947525024414
1789324031695950300,8.770950439453125,0.8466343283653259,-0.9510892033576965,2.098947525024414
1789324031714801000,8.78980078125,0.5913001298904419,-1.326149344444275,1.8637713193893433
1789324031733651700,8.808651611328125,0.4031592011451721,-1.5791164636611938,1.6530290842056274
1789324031752502500,8.82750244140625,0.3640649616718292,-1.2094775438308716,1.4850460290908813
1789324031771353000,8.84635302734375,0.41293275356292725,-0.6737645268440247,1.3952515125274658
1789324031790204000,8.865203857421875,0.4343124032020569,-0.3518480062484741,1.174659252166748
1789324031809054500,8.884054443359375,0.34818294644355774,-0.2907632887363434,0.8826742768287659
1789324031827905300,8.9029052734375,0.237008735537529,-0.21868331730365753,0.675597071647644
1789324031846756000,8.921756103515625,0.1832541823387146,-0.06902574002742767,0.4575245976448059
1789324031865606700,8.940606689453125,0.15515519678592682,0.16859383881092072,0.13316470384597778
1789324031884457500,8.95945751953125,0.06047387793660164,0.3689517378807068,-0.26632940769195557
1789324031903308000,8.97830810546875,-0.01710372418165207,0.5192201733589172,-0.5644228458404541
1789324031922158800,8.997158935546874,-0.06963659077882767,0.6859814524650574,-0.7769976854324341
1789324031941009400,9.016009521484374,-0.10934165865182877,0.9358180165290833,-1.0665392875671387
1789324031959860200,9.034860107421874,-0.23823043704032898,1.1954281330108643,-1.3421077728271484
1789324031978711000,9.0537109375,-0.42576053738594055,1.3561573028564453,-1.4911545515060425
1789324032006987000,9.081987060546876,-0.6371136903762817,1.4239612817764282,-1.6884582042694092
1789324032025837800,9.100837890625,-0.8215895891189575,1.3677634000778198,-1.8833184242248535
1789324032044688400,9.1196884765625,-1.1465603113174438,1.3702067136764526,-2.215008497238159
1789324032063539200,9.138539306640626,-1.4355673789978027,1.1373976469039917,-2.3610010147094727
1789324032082389800,9.1573896484375,-1.589500904083252,0.8295305967330933,-2.423307418823242
1789324032101240600,9.176240478515625,-1.5589585304260254,0.5112791657447815,-2.420253276824951
1789324032120091100,9.195091064453125,-1.3255385160446167,0.3524588644504547,-2.593122959136963
1789324032138942000,9.21394189453125,-1.0928057432174683,0.30847787857055664,-2.7342286109924316
1789324032157792800,9.232792724609375,-0.8783983588218689,0.16676130890846252,-2.6926910877227783
1789324032176643300,9.251643310546875,-0.624896764755249,0.07085828483104706,-2.391543388366699
1789324032195494100,9.270494140625,-0.4159869849681854,0.05741964280605316,-1.9199693202972412
1789324032214344700,9.2893447265625,-0.2480039894580841,0.2895416021347046,-1.49848473072052
1789324032233195500,9.308195556640625,-0.16004198789596558,0.35795649886131287,-1.1813786029815674
1789324032252046000,9.327046142578125,-0.08185353130102158,0.19058434665203094,-0.8209787011146545
1789324032270897000,9.34589697265625,0.03420744836330414,0.10323318839073181,-0.4318690001964569
1789324032289747700,9.364747802734374,0.14049486815929413,0.06169557198882103,-0.09590301662683487
1789324032308598300,9.383598388671874,0.20524467527866364,0.13988402485847473,0.18630841374397278
1789324032327449000,9.402448974609374,0.24006296694278717,0.0910162404179573,0.45080527663230896
1789324032346299600,9.421299560546874,0.22784602642059326,-0.02504473738372326,0.8032641410827637
1789324032365150500,9.440150390625,0.18569757044315338,-0.07696675509214401,1.1435060501098633
1789324032384001000,9.4590009765625,0.17470231652259827,-0.1429382562637329,1.3120999336242676
1789324032402851800,9.477851806640626,0.1850867122411728,-0.12155860662460327,1.2870551347732544
1789324032421702400,9.496702392578126,0.17897824943065643,-0.10323318839073181,1.2650647163391113
1789324032440553200,9.51555322265625,0.17470231652259827,-0.02504473738372326,1.3457728624343872
1789324032459403800,9.53440380859375,0.2089097648859024,0.022601349279284477,1.442286729812622
1789324032478254600,9.553254638671875,0.3280249834060669,0.006108472589403391,1.572397232055664
1789324032497105400,9.57210546875,0.4868452548980713,-0.2376195788383484,1.778863549232483
1789324032515956000,9.5909560546875,0.6316160559654236,-0.39827242493629456,1.9737238883972168
1789324032534806800,9.609806884765625,0.7440119385719299,-0.46302223205566406,2.0567991733551025
1789324032553657300,9.6286572265625,0.7763868570327759,-0.5741963982582092,2.109942674636841
1789324032572508200,9.647508056640625,0.7947123050689697,-0.652384877204895,2.183244466781616
1789324032591358700,9.666358642578125,0.7678350210189819,-0.6536065936088562,2.2186737060546875
1789324032610209500,9.68520947265625,0.7916580438613892,-0.6890357136726379,2.167973279953003
1789324032629060000,9.70406005859375,0.7696675658226013,-0.8900044560432434,2.09039568901062
1789324032647911000,9.722910888671874,0.5570927262306213,-1.1954281330108643,1.8985896110534668
1789324032666761700,9.74176171875,0.3939964771270752,-1.45939040184021,1.7018967866897583
1789324032685612300,9.7606123046875,0.3151971995830536,-1.2180293798446655,1.4777158498764038
1789324032704463000,9.779463134765624,0.42881476879119873,-0.7427902817726135,1.3970839977264404
1789324032723313700,9.798313720703124,0.4715740978717804,-0.6664343476295471,1.2650647163391113
1789324032742164500,9.81716455078125,0.4062134325504303,-0.6499415040016174,0.860683798789978
1789324032761015000,9.83601513671875,0.3011476993560791,-0.4355340898036957,0.5198310017585754
1789324032779865900,9.854865966796876,0.17592400312423706,-0.12888877093791962,0.3536805510520935
1789324032798716400,9.87371630859375,0.05803048983216286,0.13744063675403595,0.13438639044761658
1789324032817567200,9.892567138671875,-0.021379653364419937,0.32191649079322815,-0.17348061501979828
1789324032836417800,9.911417724609375,-0.07574506103992462,0.5436540842056274,-0.4196520745754242
1789324032855268600,9.9302685546875,-0.12339114397764206,0.80937260389328,-0.6548282504081726
1789324032874119400,9.949119384765625,-0.18936264514923096,0.9907942414283752,-0.9785773158073425
1789324032892970000,9.967969970703125,-0.2895416021347046,1.1911520957946777,-1.3292036056518555
1789324032911820500,9.986820556640625,-0.4746283292770386,1.3732609748840332,-1.5687321424484253
1789324032930671400,10.00567138671875,-0.6713211536407471,1.3604332208633423,-1.6988425254821777
1789324032949522200,10.024522216796875,-0.7928797602653503,1.2791141271591187,-1.8106275796890259
1789324032968372700,10.043372802734375,-1.0256125926971436,1.2333005666732788,-1.951122522354126
1789324032987223600,10.0622236328125,-1.2638429403305054,1.1496145725250244,-2.2302796840667725
1789324033006074000,10.08107421875,-1.4630554914474487,0.8393041491508484,-2.25715708732605
1789324033024925000,10.099925048828124,-1.4538928270339966,0.5949652194976807,-2.371385335922241
1789324033043775500,10.118775390625,-1.3616548776626587,0.34879377484321594,-2.376272201538086
1789324033062626300,10.137626220703124,-1.1361758708953857,0.3127537965774536,-2.585181951522827
1789324033081476900,10.156476806640624,-0.8191461563110352,0.12644538283348083,-2.6664247512817383
1789324033100327700,10.17532763671875,-0.546097457408905,0.0006108472589403391,-2.555861234664917
1789324033119178200,10.19417822265625,-0.4043808877468109,-0.12766708433628082,-2.316409111022949
1789324033138029000,10.213029052734376,-0.3054236173629761,-0.1557660549879074,-1.9798322916030884
1789324033156879600,10.231879638671876,-0.17531315982341766,-0.06352811306715012,-1.6023286581039429
1789324033175730400,10.25073046875,0.042759306728839874,0.12827792763710022,-1.22963547706604
1789324033194581000,10.2695810546875,0.12705622613430023,0.24372805655002594,-0.7983773946762085
1789324033213431800,10.288431884765625,0.012827792204916477,0.22967857122421265,-0.3390202224254608
1789324033232282400,10.307282470703125,-0.08551861345767975,0.16859383881092072,0.06413896381855011
1789324033251133200,10.32613330078125,0.023823043331503868,0.21929416060447693,0.3903313875198364
1789324033269983700,10.344983642578125,0.1056765764951706,0.19058434665203094,0.6615476012229919
1789324033288834600,10.36383447265625,0.15454435348510742,0.0659715011715889,0.9254335761070251
1789324033307685400,10.382685302734375,0.17714570462703705,0.018936265259981155,1.1343433856964111
1789324033326536000,10.401535888671875,0.17836740612983704,-0.09834641218185425,1.2559019327163696
1789324033345386500,10.420386474609375,0.1588202863931656,-0.2504473626613617,1.3506596088409424
1789324033364237300,10.4392373046875,0.1325538605451584,-0.2773246467113495,1.4642772674560547
1789324033383087900,10.458087890625,0.16004198789596558,-0.1973036676645279,1.5705646276474
1789324033401938700,10.476938720703124,0.20035789906978607,-0.19974705576896667,1.6805171966552734
1789324033420789200,10.495789306640624,0.35978904366493225,-0.2363978922367096,1.7959673404693604
1789324033439640000,10.51464013671875,0.53143709897995,-0.22723518311977386,1.8564411401748657
1789324033458490600,10.53349072265625,0.6529957056045532,-0.26632940769195557,1.8430025577545166
1789324033477341400,10.552341552734376,0.70308518409729,-0.4367557764053345,1.9205801486968994
1789324033496192000,10.57119189453125,0.7049177289009094,-0.6358919739723206,2.0677943229675293
1789324033515042800,10.590042724609376,0.6719319820404053,-0.8112051486968994,2.1612539291381836
1789324033533893400,10.608893310546875,0.70797199010849,-0.8399149775505066,2.1001691818237305
1789324033552744200,10.627744140625,0.8600729703903198,-0.7317950129508972,1.951122522354126
1789324033571594800,10.6465947265625,0.9529217481613159,-0.8942803740501404,1.9541767835617065
1789324033590445600,10.665445556640625,0.8350282311439514,-1.136786699295044,1.9071414470672607
1789324033609296100,10.684296142578125,0.7110261917114258,-1.572397232055664,1.7507646083831787
1789324033628147000,10.70314697265625,0.6047387719154358,-1.3928080797195435,1.4691640138626099
1789324033646997500,10.72199755859375,0.5741963982582092,-0.9559759497642517,1.3818128108978271
1789324033665848300,10.740848388671875,0.5845808386802673,-0.660936713218689,1.2290246486663818
1789324033684699000,10.759698974609375,0.45385950803756714,-0.6169557571411133,0.856407880783081
1789324033703549700,10.7785498046875,0.2638860046863556,-0.5137225389480591,0.5027272701263428
1789324033722400300,10.797400146484375,0.16553960740566254,-0.2241809368133545,0.21501824259757996
1789324033741250800,10.816250732421874,0.1698155403137207,0.09956810623407364,-0.12461283802986145
1789324033760101600,10.8351015625,0.15087927877902985,0.4172086715698242,-0.45141613483428955
1789324033778952200,10.8539521484375,0.04031591862440109,0.6352811455726624,-0.7519529461860657
1789324033797803000,10.872802978515624,-0.11117420345544815,0.8588512539863586,-0.9950701594352722
1789324033816653600,10.891653564453126,-0.21868331730365753,1.1618314981460571,-1.2473500967025757
1789324033835504400,10.91050439453125,-0.3042019307613373,1.3482162952423096,-1.5100908279418945
1789324033854355000,10.92935498046875,-0.41171106696128845,1.4221287965774536,-1.7312175035476685
1789324033873205800,10.948205810546876,-0.5723638534545898,1.3836454153060913,-1.8937028646469116
1789324033892056300,10.967056396484375,-0.8380824327468872,1.2980504035949707,-1.9334079027175903
1789324033910907100,10.9859072265625,-1.2479609251022339,1.1496145725250244,-2.051912307739258
1789324033929757700,11.0047578125,-1.474050760269165,0.8075400590896606,-2.1545345783233643
1789324033948608300,11.023608154296875,-1.4178528785705566,0.6670452356338501,-2.3518383502960205
1789324033967459000,11.042458984375,-1.3476054668426514,0.46424391865730286,-2.4007060527801514
1789324033986309600,11.0613095703125,-1.211920976638794,0.2620534598827362,-2.497830867767334
1789324034005160400,11.080160400390625,-0.990183413028717,0.08185353130102158,-2.715292453765869
1789324034024011000,11.099010986328125,-0.7366818189620972,-0.05070032179355621,-2.7763772010803223
1789324034042861800,11.11786181640625,-0.5326588153839111,-0.15515519678592682,-2.51554536819458
1789324034061712400,11.13671240234375,-0.34573954343795776,-0.14171656966209412,-2.0244240760803223
1789324034080563000,11.15556298828125,-0.09590301662683487,0.11300674080848694,-1.6059937477111816
1789324034099413800,11.174413818359374,0.0787992998957634,0.28282228112220764,-1.276059865951538
1789324034118264300,11.193264404296874,0.1172826737165451,0.20219044387340546,-0.9688037633895874
1789324034137115100,11.212115234375,0.11422843486070633,0.054365407675504684,-0.6371136903762817
1789324034155965700,11.230965576171876,0.18691925704479218,-0.05070032179355621,-0.2596100866794586
1789324034174816300,11.249816162109376,0.2638860046863556,0.10017894953489304,0.05925218388438225
1789324034193667000,11.2686669921875,0.2858765125274658,0.14965757727622986,0.34879377484321594
1789324034212517600,11.287517578125,0.29381752014160156,0.061084724962711334,0.6444438695907593
1789324034231368400,11.306368408203125,0.25411245226860046,-0.08185353130102158,0.9468132257461548
1789324034250219000,11.325218994140625,0.22784602642059326,-0.17225892841815948,1.155722975730896
1789324034269069600,11.344069580078125,0.26877278089523315,-0.18569757044315338,1.2357439994812012
1789324034287920400,11.36292041015625,0.31886225938796997,-0.16248537600040436,1.2723948955535889
1789324034306771000,11.38177099609375,0.3170297145843506,-0.10934165865182877,1.3316470384597778
1789324034325621800,11.400621826171875,0.27060532569885254,-0.16065283119678497,1.4685531854629517
1789324034344472300,11.419472412109375,0.29748260974884033,-0.182643324136734,1.6322602033615112
1789324034363323000,11.438322998046875,0.4715740978717804,-0.20463383197784424,1.7190005779266357
1789324034382173700,11.457173583984375,0.6145123243331909,-0.29687178134918213,1.7525970935821533
1789324034401024300,11.476024169921875,0.6884248852729797,-0.3176405727863312,1.8607170581817627
1789324034419874800,11.494874755859374,0.7085828185081482,-0.4178195297718048,2.0372519493103027
1789324034438725600,11.5137255859375,0.7012526392936707,-0.6328377723693848,2.167973279953003
1789324034457576200,11.532576171875,0.6762079000473022,-0.6548282504081726,2.1459827423095703
1789324034476427000,11.551427001953124,0.7317950129508972,-0.5515950918197632,1.992049217224121
1789324034495277600,11.570277587890626,0.9278770089149475,-0.5644228458404541,1.9480682611465454
1789324034514128100,11.589128173828126,0.9071081876754761,-0.8619054555892944,1.9407380819320679
1789324034532979000,11.60797900390625,0.7281299233436584,-1.1441168785095215,1.7739768028259277
1789324034551829500,11.62682958984375,0.546097457408905,-1.2449066638946533,1.623097538948059
1789324034570680000,11.64568017578125,0.48806697130203247,-1.0934165716171265,1.502760648727417
1789324034589531000,11.66453076171875,0.5100574493408203,-0.8832851648330688,1.3212625980377197
1789324034608381400,11.68338134765625,0.4196520745754242,-0.6328377723693848,0.9193251132965088
1789324034627232000,11.70223193359375,0.1954711228609085,-0.5167768001556396,0.5790832042694092
1789324034646082800,11.721082763671875,0.07513421028852463,-0.17897824943065643,0.4037700295448303
1789324034664933400,11.739933349609375,0.06658235192298889,0.20035789906978607,0.1056765764951706
1789324034683784000,11.758783935546875,0.015271181240677834,0.5094466209411621,-0.2522799074649811
1789324034702634800,11.777634765625,-0.0910162404179573,0.6957550048828125,-0.5033381581306458
1789324034721485300,11.7964853515625,-0.20524467527866364,0.7959339618682861,-0.6780404448509216
1789324034740335900,11.8153359375,-0.30847787857055664,0.9303203821182251,-0.9132166504859924
1789324034759186700,11.834186767578124,-0.39766156673431396,1.1312891244888306,-1.252847671508789
1789324034778037200,11.853037353515624,-0.5442649126052856,1.2791141271591187,-1.547963261604309
1789324034796888000,11.87188818359375,-0.7330167293548584,1.2559019327163696,-1.7080053091049194
1789324034815738600,11.890738525390624,-0.9584193229675293,1.1551121473312378,-1.7611490488052368
1789324034834589200,11.909589111328126,-1.3035480976104736,1.058598279953003,-1.8185685873031616
1789324034853440000,11.92843994140625,-1.5094798803329468,0.9400939345359802,-1.98899507522583
1789324034872290600,11.94729052734375,-1.5381897687911987,0.8148702383041382,-2.1386525630950928
1789324034891141000,11.96614111328125,-1.492987036705017,0.652384877204895,-2.3518383502960205
1789324034909992000,11.984991943359375,-1.4832135438919067,0.2993151545524597,-2.382380723953247
1789324034928842500,12.003842529296875,-1.3273711204528809,0.284654825925827,-2.630995512008667
1789324034947693000,12.022693115234375,-1.0390511751174927,0.11422843486070633,-2.76416015625
1789324034966543600,12.041543701171875,-0.7733326554298401,-0.02626643143594265,-2.5870144367218018
1789324034985394400,12.06039453125,-0.5913001298904419,-0.05986303091049194,-2.260211229324341
1789324035004245000,12.079244873046875,-0.34512871503829956,-0.023212196305394173,-1.8778208494186401
1789324035023095600,12.098095458984375,-0.03665083646774292,0.15515519678592682,-1.5186426639556885
1789324035041946000,12.116946044921875,0.12033691257238388,0.18997350335121155,-1.1068552732467651
1789324035060797000,12.135796875,0.10628741979598999,0.12155860662460327,-0.6316160559654236
1789324035079647500,12.1546474609375,0.06719319522380829,0.03542914241552353,-0.18081079423427582
1789324035098498000,12.173498046875,0.10873081535100937,0.01710372418165207,0.208298921585083
1789324035117348900,12.192348876953124,0.24311721324920654,0.04581354558467865,0.4575245976448059
1789324035136199400,12.211199462890624,0.2877090573310852,-0.08612946420907974,0.6749862432479858
1789324035155050000,12.230050048828126,0.28037887811660767,-0.2113531529903412,0.9608627557754517
1789324035173900500,12.248900634765626,0.29381752014160156,-0.23090025782585144,1.2186403274536133
1789324035192751400,12.26775146484375,0.2864873707294464,-0.27121618390083313,1.3378318548202515
1789324035211602000,12.286601806640626,0.2211267054080963,-0.3255815804004669,1.3512704372406006
1789324035230452500,12.305452392578125,0.12766708433628082,-0.26632940769195557,1.4294589757919312
1789324035249303300,12.32430322265625,0.07452336698770523,-0.2095206081867218,1.5687321424484253
1789324035268153900,12.34315380859375,0.08246438205242157,-0.27854636311531067,1.7043402194976807
1789324035287004400,12.36200439453125,0.21868331730365753,-0.4202629029750824,1.831396460533142
1789324035305855000,12.38085498046875,0.42392799258232117,-0.5357130169868469,1.922412633895874
1789324035324705800,12.399705810546875,0.5943543910980225,-0.46302223205566406,1.964561104774475
1789324035343556400,12.418556396484375,0.6829272508621216,-0.4831801950931549,2.0012118816375732
1789324035362407000,12.437406982421875,0.6352811455726624,-0.6328377723693848,2.0745136737823486
1789324035381257500,12.456257568359375,0.5809157490730286,-0.7611156702041626,2.1288790702819824
1789324035400108300,12.4751083984375,0.6658235192298889,-0.7647807598114014,2.110553741455078
1789324035418958800,12.493958740234374,0.9119949340820312,-0.7385143637657166,2.0128180980682373
1789324035437809400,12.512809326171874,0.8356390595436096,-0.7128587365150452,1.9016438722610474
1789324035456660000,12.531659912109374,0.7140804529190063,-0.9187142848968506,1.705561876296997
1789324035475510800,12.5505107421875,0.5296045541763306,-1.2015365362167358,1.595609426498413
1789324035494361300,12.569361328125,0.5033381581306458,-0.9743013978004456,1.3940298557281494
1789324035513212000,12.5882119140625,0.7061394453048706,-0.5564818382263184,1.2400199174880981
1789324035532062700,12.607062744140626,0.8057075142860413,-0.46241137385368347,1.0494356155395508
1789324035550913300,12.625913330078125,0.6872031688690186,-0.5540384650230408,0.5589252710342407
1789324035569763800,12.644763916015625,0.4294256269931793,-0.518609344959259,0.17592400312423706
1789324035588614400,12.663614501953125,0.23823043704032898,-0.13866232335567474,0.006108472589403391
1789324035607465200,12.68246533203125,0.18936264514923096,0.20524467527866364,-0.13438639044761658
1789324035626315800,12.701315673828125,0.1979145109653473,0.5051707029342651,-0.42514967918395996
1789324035645166300,12.720166259765625,0.10750912129878998,0.7837170362472534,-0.8228112459182739
1789324035664017000,12.739016845703125,-0.05741964280605316,1.0671501159667969,-1.1960389614105225
1789324035682867500,12.757867431640625,-0.26999449729919434,1.3139324188232422,-1.4294589757919312
1789324035701718300,12.77671826171875,-0.4446968138217926,1.479548454284668,-1.5626236200332642
1789324035720568800,12.79556884765625,-0.5632011890411377,1.469774842262268,-1.6884582042694092
1789324035739419400,12.81441943359375,-0.7330167293548584,1.4019708633422852,-1.8222336769104004
1789324035758270000,12.83327001953125,-1.1129636764526367,1.1893196105957031,-1.965782880783081
1789324035777120500,12.85212060546875,-1.3989166021347046,0.971247136592865,-2.1343767642974854
1789324035795971300,12.870971435546876,-1.4844352006912231,0.7385143637657166,-2.2424967288970947
1789324035814822000,12.88982177734375,-1.4007490873336792,0.5992411375045776,-2.2510485649108887
1789324035833672400,12.90867236328125,-1.2577345371246338,0.41476529836654663,-2.2101216316223145
1789324035852523000,12.92752294921875,-1.0702043771743774,0.32069480419158936,-2.3744397163391113
1789324035871373600,12.94637353515625,-0.92054682970047,0.15515519678592682,-2.575408458709717
1789324035909075000,12.984074951171875,-0.474017471075058,-0.20707722008228302,-2.573575973510742
1789324035927925500,13.002925537109375,-0.22906772792339325,-0.14965757727622986,-2.1178839206695557
1789324035946776000,13.021776123046875,-0.06719319522380829,0.0659715011715889,-1.5369681119918823
1789324035965626600,13.040626708984375,-0.07024743407964706,0.21623992919921875,-1.1331216096878052
1789324035984477400,13.0594775390625,-0.08246438205242157,0.13805148005485535,-0.80937260389328
1789324036003328000,13.078327880859375,0.018936265259981155,0.07269082218408585,-0.4605788290500641
1789324036022178600,13.097178466796874,0.20646637678146362,0.08246438205242157,-0.10017894953489304
1789324036041029000,13.116029052734374,0.29565006494522095,0.11056335270404816,0.20096874237060547
1789324036059879700,13.134879638671874,0.2724378705024719,0.02504473738372326,0.5125008225440979
1789324036078730200,13.153730224609374,0.2724378705024719,-0.13438639044761658,0.8625163435935974
1789324036097581000,13.1725810546875,0.2357870489358902,-0.2883199155330658,1.1606098413467407
1789324036116431600,13.191431640625,0.25411245226860046,-0.34696123003959656,1.3200409412384033
1789324036135282200,13.2102822265625,0.2919849753379822,-0.28037887811660767,1.3224843740463257
1789324036154132700,13.2291328125,0.2602209448814392,-0.2632751762866974,1.3433294296264648
1789324036172983300,13.2479833984375,0.21807247400283813,-0.21440738439559937,1.431902289390564
1789324036191833900,13.266833740234375,0.2211267054080963,-0.1313321590423584,1.5668995380401611
1789324036210684700,13.2856845703125,0.36039987206459045,-0.1966928243637085,1.7257198095321655
1789324036229535200,13.30453515625,0.5418215394020081,-0.3500154912471771,1.8918702602386475
1789324036248385800,13.3233857421875,0.6902574300765991,-0.40987852215766907,1.941348910331726
1789324036267236400,13.342236328125,0.781884491443634,-0.43797749280929565,1.9059197902679443
1789324036286087000,13.3610869140625,0.7947123050689697,-0.6285618543624878,1.9682261943817139
1789324036304937500,13.3799375,0.7098045349121094,-0.833195686340332,2.0629074573516846
1789324036323788000,13.3987880859375,0.6365028619766235,-0.8961129188537598,2.049468994140625
1789324036342638800,13.417638916015624,0.758672297000885,-0.8130376935005188,2.0103747844696045
1789324036361489400,13.436489501953124,0.8722898960113525,-1.0384403467178345,2.0830655097961426
1789324036380340000,13.455340087890624,0.684148907661438,-1.3427186012268066,1.8869835138320923
1789324036399190500,13.4741904296875,0.49417543411254883,-1.4764941930770874,1.5827815532684326
1789324036418041000,13.493041015625,0.4868452548980713,-0.9602518677711487,1.3414969444274902
1789324036436891600,13.5118916015625,0.5900784730911255,-0.5125008225440979,1.4141877889633179
1789324036455742200,13.5307421875,0.5821374654769897,-0.47646087408065796,1.3102673292160034
1789324036474592800,13.5495927734375,0.46668729186058044,-0.4428642690181732,0.9407047629356384
1789324036493443600,13.568443603515625,0.3665083646774292,-0.2852656841278076,0.5583143830299377
1789324036512294100,13.587294189453125,0.284654825925827,-0.008551862090826035,0.16187451779842377
1789324036531144700,13.606144775390625,0.16309621930122375,0.182643324136734,-0.18142163753509521
1789324036549995300,13.624995361328125,0.05925218388438225,0.38727715611457825,-0.4074351191520691
1789324036568845800,13.643845703125,-0.007330167107284069,0.6639909744262695,-0.656660795211792
1789324036587696400,13.6626962890625,-0.07696675509214401,0.9932376146316528,-0.9578084945678711
1789324036606547000,13.681546875,-0.1844758689403534,1.2785032987594604,-1.2461284399032593
1789324036625397500,13.7003974609375,-0.312142938375473,1.4532819986343384,-1.5210859775543213
1789324036644248000,13.719248046875,-0.4862344264984131,1.4978737831115723,-1.7446560859680176
1789324036663098600,13.7380986328125,-0.6670452356338501,1.4587795734405518,-1.9114174842834473
1789324036681949400,13.756949462890624,-0.9852966070175171,1.3793694972991943,-1.993270993232727
1789324036700800000,13.775800048828126,-1.3084348440170288,1.3163758516311646,-2.16552996635437
1789324036719650600,13.794650634765626,-1.5241402387619019,1.1202938556671143,-2.2675414085388184
1789324036738501000,13.813501220703126,-1.5394114255905151,0.9229902029037476,-2.4147555828094482
1789324036757351700,13.8323515625,-1.4911545515060425,0.6029062271118164,-2.350616693496704
1789324036776202200,13.8512021484375,-1.3249276876449585,0.49295374751091003,-2.510047674179077
1789324036795052800,13.870052734375,-1.0793671607971191,0.3292466700077057,-2.6786415576934814
1789324036813903400,13.8889033203125,-0.8179244995117188,0.1575985997915268,-2.5973989963531494
1789324036832754000,13.90775390625,-0.6041279435157776,0.02076880633831024,-2.2510485649108887
1789324036851604500,13.9266044921875,-0.3793361485004425,0.07269082218408585,-1.8478893041610718
1789324036870455000,13.945455078125,-0.09345962852239609,0.183865025639534,-1.4893219470977783
1789324036889305600,13.9643056640625,0.06719319522380829,0.25655585527420044,-1.1001359224319458
1789324036908156400,13.983156494140625,0.07513421028852463,0.24006296694278717,-0.7006418108940125
1789324036927007000,14.002007080078124,0.005497625097632408,0.06780404597520828,-0.3500154912471771
1789324036945857500,14.020857421875,0.01038440316915512,0.03176405653357506,-0.02504473738372326
1789324036964708000,14.0397080078125,0.14171656966209412,0.1056765764951706,0.2516690790653229
1789324036983558700,14.05855859375,0.15332266688346863,-0.021379653364419937,0.5234960913658142
1789324037002409200,14.0774091796875,0.129499614238739,-0.23334364593029022,0.832584798336029
1789324037021259800,14.096259765625,0.16187451779842377,-0.18753011524677277,1.0708152055740356
1789324037040110300,14.1151103515625,0.21990501880645752,-0.16615045070648193,1.1606098413467407
1789324037058961000,14.1339609375,0.2363978922367096,-0.1563768982887268,1.1728267669677734
1789324037077811500,14.1528115234375,0.183865025639534,-0.15210096538066864,1.2644537687301636
1789324037096662000,14.171662109375,0.16492876410484314,-0.1429382562637329,1.4074684381484985
1789324037115512600,14.1905126953125,0.21868331730365753,-0.2632751762866974,1.6090480089187622
1789324037134363100,14.209363037109375,0.37444937229156494,-0.312142938375473,1.8289530277252197
1789324037153213700,14.228213623046875,0.5925218462944031,-0.4062134325504303,1.955398440361023
1789324037172064300,14.247064208984375,0.7959339618682861,-0.5497625470161438,2.0189266204833984
1789324037190914800,14.265914794921875,0.896723747253418,-0.6120689511299133,2.053133964538574
1789324037209765400,14.284765380859374,0.8313631415367126,-0.6462764143943787,2.128268241882324
1789324037228616000,14.303615966796874,0.6694886088371277,-0.7061394453048706,2.246772527694702
1789324037247466500,14.322466552734374,0.5796940326690674,-0.7812736630439758,2.266319751739502
1789324037266317000,14.341317138671876,0.7366818189620972,-0.8075400590896606,2.1355984210968018
1789324037285167600,14.360167724609376,0.7452336549758911,-1.0640959739685059,2.029310941696167
1789324037304018200,14.37901806640625,0.6230642199516296,-1.332257866859436,1.7886371612548828
1789324037322868700,14.39786865234375,0.4587462842464447,-1.353713870048523,1.5943876504898071
1789324037341719300,14.41671923828125,0.46485477685928345,-0.864959716796875,1.428848147392273
1789324037360569900,14.43556982421875,0.45263782143592834,-0.7739434838294983,1.3524922132492065
1789324037379420400,14.45442041015625,0.3530697226524353,-0.8044858574867249,1.086086392402649
1789324037398271000,14.47327099609375,0.20768806338310242,-0.6261184215545654,0.7800519466400146
1789324037417121500,14.49212158203125,0.1447708010673523,-0.19180603325366974,0.45508119463920593
1789324037435972000,14.51097216796875,0.06902574002742767,0.12644538283348083,0.18691925704479218
1789324037454822700,14.52982275390625,0.012216945178806782,0.2883199155330658,-0.03787253051996231
1789324037473673200,14.548673095703125,-0.021379653364419937,0.4563029110431671,-0.3518480062484741
1789324037492523800,14.567523681640624,-0.07207997888326645,0.6927008032798767,-0.7244648337364197
1789324037511374300,14.586374267578124,-0.19058434665203094,1.1899304389953613,-1.0909732580184937
1789324037530225000,14.605224853515624,-0.37444937229156494,1.3818128108978271,-1.3163758516311646
1789324037549075500,14.624075439453126,-0.5387672781944275,1.412966012954712,-1.4734399318695068
1789324037567926000,14.642926025390626,-0.6584933400154114,1.431902289390564,-1.6762412786483765
1789324037586776600,14.661776611328126,-0.8350282311439514,1.4111335277557373,-1.8753774166107178
1789324037605627100,14.680627197265625,-1.1813786029815674,1.3836454153060913,-2.029921770095825
1789324037624477700,14.699477783203125,-1.3921972513198853,1.313321590423584,-2.2858667373657227
1789324037643328300,14.718328369140625,-1.543687343597412,0.9889616966247559,-2.3206851482391357
1789324037662178800,14.7371787109375,-1.5284161567687988,0.7385143637657166,-2.4239182472229004
1789324037681029400,14.756029296875,-1.3732609748840332,0.4752391576766968,-2.492333173751831
1789324037699880000,14.7748798828125,-1.1288456916809082,0.27060532569885254,-2.703686237335205
1789324037728155600,14.80315576171875,-0.6884248852729797,0.028098974376916885,-2.8344075679779053
1789324037747006200,14.822006103515625,-0.4489727318286896,-0.009773556143045425,-2.5778517723083496
1789324037765856800,14.840856689453124,-0.24006296694278717,0.0024433890357613564,-2.1197164058685303
1789324037784707300,14.859707275390624,-0.0922379344701767,0.21501824259757996,-1.6536399126052856
1789324037803558000,14.878557861328124,-0.0781884491443634,0.2718270421028137,-1.178935170173645
1789324037822408400,14.897408447265626,-0.08490777015686035,0.1172826737165451,-0.7000309824943542
1789324037841259000,14.916259033203126,-0.04459185153245926,0.030542362481355667,-0.284654825925827
1789324037860109300,14.935109375,0.0525328628718853,0.0525328628718853,0.01954711228609085
1789324037878959900,14.9539599609375,0.1325538605451584,0.09529217332601547,0.21746163070201874
1789324037897810400,14.972810546875,0.18875180184841156,0.09040539711713791,0.4844018816947937
1789324037916661000,14.991660888671875,0.1954711228609085,0.015271181240677834,0.8380824327468872
1789324037935511600,15.010511474609375,0.18875180184841156,-0.11361759155988693,1.1068552732467651
1789324037954362000,15.029362060546875,0.1557660549879074,-0.1582094430923462,1.2271921634674072
1789324037973212700,15.048212646484375,0.08246438205242157,-0.21623992919921875,1.2198619842529297
1789324037992063200,15.067063232421875,0.01954711228609085,-0.20341213047504425,1.2620104551315308
1789324038010913800,15.085913818359375,0.0647498071193695,-0.15087927877902985,1.452060341835022
1789324038029764400,15.104764404296875,0.22601348161697388,-0.14843589067459106,1.7171679735183716
1789324038048614700,15.12361474609375,0.4886777997016907,-0.28160059452056885,1.852776050567627
1789324038067465200,15.14246533203125,0.679872989654541,-0.37506023049354553,1.8613280057907104
1789324038086315800,15.161315673828126,0.7220214605331421,-0.38605546951293945,1.7794743776321411
1789324038105166300,15.180166259765626,0.6633801460266113,-0.5045598149299622,1.8142926692962646
1789324038124017000,15.199016845703126,0.6200099587440491,-0.7721109390258789,1.9926601648330688
1789324038142867500,15.217867431640625,0.6627692580223083,-0.911384105682373,2.1667516231536865
1789324038161718000,15.236718017578125,0.7488987445831299,-0.8777875304222107,2.196683168411255
1789324038180568600,15.255568603515625,0.786160409450531,-0.8612946271896362,2.0830655097961426
1789324038199419000,15.2744189453125,0.8454126119613647,-1.0720369815826416,1.9798322916030884
1789324038218269400,15.29326953125,0.7018635272979736,-1.090362310409546,1.8026865720748901
1789324038237120000,15.3121201171875,0.6591041684150696,-1.0506572723388672,1.595609426498413
1789324038255970600,15.330970458984375,0.5967977643013,-0.9584193229675293,1.4007490873336792
1789324038274821000,15.349821044921875,0.5717530250549316,-0.9242119193077087,1.2803359031677246
1789324038293671700,15.368671630859374,0.5338805317878723,-0.9761339426040649,1.3139324188232422
1789324038312522200,15.387522216796874,0.5100574493408203,-0.8863393664360046,1.327981948852539
1789324038331372500,15.40637255859375,0.5540384650230408,-0.7067502737045288,0.9865183234214783
1789324038350223000,15.42522314453125,0.518609344959259,-0.4196520745754242,0.4056025743484497
1789324038369073700,15.44407373046875,0.30908870697021484,-0.10384403169155121,-0.1698155403137207
1789324038387924200,15.46292431640625,0.10934165865182877,0.24067382514476776,-0.5613686442375183
1789324038406774800,15.48177490234375,-0.03787253051996231,0.7006418108940125,-0.7207997441291809
1789324038425625300,15.500625244140625,-0.14171656966209412,1.0537115335464478,-0.91566002368927
1789324038444475600,15.5194755859375,-0.28282228112220764,1.2803359031677246,-1.2479609251022339
1789324038463326200,15.538326171875,-0.4367557764053345,1.389753818511963,-1.580949068069458
1789324038482176800,15.5571767578125,-0.5369347333908081,1.5290271043777466,-1.7855829000473022
1789324038501027300,15.57602734375,-0.7922688722610474,1.5540717840194702,-1.8393374681472778
1789324038519878000,15.5948779296875,-1.0384403467178345,1.4483952522277832,-2.043971300125122
1789324038538728400,15.613728515625,-1.1581664085388184,1.290109395980835,-2.298694610595703
1789324038557578800,15.632578857421874,-1.277281641960144,1.012784719467163,-2.3487839698791504
1789324038576429300,15.65142919921875,-1.3549355268478394,0.7678350210189819,-2.5143237113952637
1789324038595280000,15.67027978515625,-1.3298144340515137,0.46363306045532227,-2.4880571365356445
1789324038614130400,15.68913037109375,-1.1581664085388184,0.33596599102020264,-2.6377148628234863
1789324038632981000,15.70798095703125,-0.892447829246521,0.10628741979598999,-2.7623276710510254
1789324038651831300,15.726831298828126,-0.5674771070480347,0.02748812735080719,-2.7940917015075684
1789324038670681900,15.745681884765625,-0.3017585575580597,0.0781884491443634,-2.523486375808716
1789324038689532400,15.764532470703125,-0.10750912129878998,0.13560809195041656,-2.023202419281006
1789324038708383000,15.783383056640625,0.01710372418165207,0.23090025782585144,-1.5846141576766968
1789324038727233500,15.802233642578125,0.045202698558568954,0.22540263831615448,-1.2345223426818848
1789324038746083800,15.821083740234375,0.1044548824429512,0.18691925704479218,-0.8289197087287903
1789324038764934400,15.839934326171875,0.16370706260204315,0.19974705576896667,-0.45141613483428955
1789324038783785000,15.858784912109375,0.10262233763933182,0.1973036676645279,-0.16309621930122375
1789324038802635500,15.877635498046875,0.10384403169155121,0.26938363909721375,0.11483928561210632
1789324038821485800,15.89648583984375,0.10873081535100937,0.21562908589839935,0.45202696323394775
1789324038840336400,15.91533642578125,0.09834641218185425,0.07146912813186646,0.8038749694824219
1789324038859187000,15.93418701171875,0.09468132257461548,-0.07269082218408585,1.077534556388855
1789324038878037500,15.95303759765625,0.1319430023431778,-0.07757759839296341,1.2302464246749878
1789324038896887800,15.9718876953125,0.17592400312423706,-0.08429691940546036,1.2821683883666992
1789324038915738400,15.99073828125,0.17653486132621765,-0.12522368133068085,1.3781477212905884
1789324038934589000,16.0095888671875,0.18875180184841156,-0.12216944992542267,1.5045931339263916
1789324038953439500,16.028439453125,0.2596100866794586,-0.05925218388438225,1.6328710317611694
1789324038972289800,16.047289794921873,0.3762819170951843,-0.0787992998957634,1.7318283319473267
1789324038991140400,16.066140380859373,0.5540384650230408,-0.10140064358711243,1.8381158113479614
1789324039009991000,16.084990966796877,0.6511631608009338,-0.21562908589839935,1.9352405071258545
1789324039028841500,16.103841552734377,0.6920899152755737,-0.4611896872520447,2.0250349044799805
1789324039047691800,16.12269189453125,0.7012526392936707,-0.7091936469078064,2.1789684295654297
1789324039066542300,16.141542236328124,0.6627692580223083,-0.7977665066719055,2.2247819900512695
1789324039085393000,16.160392822265624,0.6487197875976562,-0.652384877204895,2.1154403686523438
1789324039104243200,16.1792431640625,0.7421793937683105,-0.5851916670799255,2.0341978073120117
1789324039123093800,16.19809375,0.8625163435935974,-0.9559759497642517,2.0574100017547607
1789324039141944300,16.2169443359375,0.6878139972686768,-1.3940298557281494,1.941348910331726
1789324039160795000,16.235794921875,0.5051707029342651,-1.576673150062561,1.7361042499542236
1789324039179645200,16.254645263671875,0.40071579813957214,-1.110520362854004,1.5461307764053345
1789324039198495700,16.273495849609375,0.4966188073158264,-0.7201889157295227,1.5375789403915405
1789324039217346300,16.29234619140625,0.503948986530304,-0.6603258848190308,1.3212625980377197
1789324039236196600,16.311196533203123,0.4196520745754242,-0.5143333673477173,0.7947123050689697
1789324039255047200,16.330047119140627,0.2644968628883362,-0.291374146938324,0.37200596928596497
1789324039273897700,16.348897705078127,0.18875180184841156,-0.08490777015686035,0.12033691257238388
1789324039292748300,16.367748291015626,0.13621893525123596,0.10995250940322876,-0.16676130890846252
1789324039311598600,16.3865986328125,-0.0036650835536420345,0.2877090573310852,-0.4294256269931793
1789324039330449200,16.40544921875,-0.15454435348510742,0.6071822047233582,-0.6316160559654236
1789324039349299700,16.4242998046875,-0.24678228795528412,1.0060654878616333,-0.8753440976142883
1789324039368150000,16.44314990234375,-0.32069480419158936,1.3750935792922974,-1.132510781288147
1789324039387000600,16.46200048828125,-0.4300364851951599,1.4801592826843262,-1.409911870956421
1789324039405851100,16.48085107421875,-0.5686988234519958,1.4734399318695068,-1.63592529296875
1789324039424701400,16.499701416015625,-0.7708892226219177,1.4355673789978027,-1.7635923624038696
1789324039443552000,16.518552001953125,-1.165496587753296,1.3934189081192017,-1.8362832069396973
1789324039462402600,16.537402587890625,-1.4575579166412354,1.3206517696380615,-2.043360471725464
1789324039481252900,16.5562529296875,-1.6243191957473755,0.9559759497642517,-2.133765935897827
1789324039500103400,16.575103515625,-1.6658568382263184,0.754396378993988,-2.3493947982788086
1789324039518953700,16.59395361328125,-1.5821707248687744,0.4813476502895355,-2.452017307281494
1789324039537804300,16.61280419921875,-1.3267602920532227,0.28037887811660767,-2.585181951522827
1789324039556654800,16.63165478515625,-1.041494607925415,0.09895725548267365,-2.6004531383514404
1789324039575505200,16.650505126953124,-0.7739434838294983,-0.07024743407964706,-2.553417921066284
1789324039594355700,16.669355712890624,-0.5864133834838867,-0.21257483959197998,-2.3280153274536133
1789324039613206300,16.688206298828124,-0.3530697226524353,-0.21501824259757996,-1.9291319847106934
1789324039632056600,16.707056640625,-0.05986303091049194,-0.013438640162348747,-1.5357463359832764
1789324039650907100,16.7259072265625,0.08612946420907974,0.11483928561210632,-1.1233481168746948
1789324039669757400,16.74475732421875,0.09651386737823486,0.0916270911693573,-0.6804838180541992
1789324039688608000,16.76360791015625,0.04886778071522713,0.02626643143594265,-0.3133646547794342
1789324039707458600,16.78245849609375,0,0.03665083646774292,0.034818295389413834
1789324039726308900,16.801308837890623,0.05741964280605316,0.06413896381855011,0.35856732726097107
1789324039745159400,16.820159423828127,0.14660334587097168,0.0787992998957634,0.6560499668121338
1789324039764009700,16.839009765625,0.1832541823387146,-0.029320668429136276,0.9101623892784119
1789324039782860300,16.8578603515625,0.18569757044315338,-0.11239589750766754,1.0928057432174683
1789324039801710800,16.8767109375,0.1582094430923462,-0.15393351018428802,1.1691616773605347
1789324039820561200,16.89556103515625,0.12278030067682266,-0.2339545041322708,1.2791141271591187
1789324039839411700,16.91441162109375,0.10201149433851242,-0.30908870697021484,1.4404542446136475
1789324039858262000,16.933261962890626,0.1575985997915268,-0.22906772792339325,1.595609426498413
1789324039877112600,16.952112548828126,0.2608317732810974,-0.1832541823387146,1.6970100402832031
1789324039895963100,16.970963134765626,0.4343124032020569,-0.13377554714679718,1.7782527208328247
1789324039914813400,16.9898134765625,0.5882459282875061,-0.3261924386024475,1.8765991926193237
1789324039933664000,17.0086640625,0.7275190949440002,-0.497229665517807,1.9816648960113525
1789324039952514300,17.027514404296873,0.809983491897583,-0.6872031688690186,2.112997055053711
1789324039971364900,17.04636474609375,0.8069292306900024,-0.8478559851646423,2.25715708732605
1789324039990215200,17.065215087890625,0.6957550048828125,-0.8466343283653259,2.2614328861236572
1789324040009065700,17.084065673828125,0.6236750483512878,-0.8160919547080994,2.1026127338409424
1789324040027916000,17.102916015625,0.7128587365150452,-0.9064973592758179,2.0189266204833984
1789324040046766600,17.1217666015625,0.6071822047233582,-1.1722159385681152,1.9981577396392822
1789324040065617000,17.140616943359376,0.4477510452270508,-1.557736873626709,1.8680472373962402
1789324040084467500,17.159467529296876,0.2101314514875412,-1.6304277181625366,1.6707435846328735
1789324040103318000,17.178318115234376,0.3054236173629761,-1.1068552732467651,1.4709964990615845
1789324040122168300,17.197168212890624,0.49173203110694885,-0.735460102558136,1.3506596088409424
1789324040141019000,17.216018798828124,0.503948986530304,-0.6670452356338501,1.0757020711898804
1789324040159869200,17.234869140625,0.37078428268432617,-0.5088357925415039,0.754396378993988
1789324040178719700,17.2537197265625,0.2486148327589035,-0.24250635504722595,0.4825693368911743
1789324040197570000,17.272570068359375,0.19302773475646973,0.012827792204916477,0.1325538605451584
1789324040216420600,17.291420654296875,0.13377554714679718,0.25594499707221985,-0.2742704153060913
1789324040235271000,17.31027099609375,0.05497625470161438,0.6212316751480103,-0.6719319820404053
1789324040254121500,17.32912158203125,-0.02993151545524597,0.975523054599762,-1.0005677938461304
1789324040272971800,17.3479716796875,-0.09712471067905426,1.174659252166748,-1.254069447517395
1789324040291822300,17.366822265625,-0.20646637678146362,1.318819284439087,-1.479548454284668
1789324040310672600,17.385672607421874,-0.3775036036968231,1.3818128108978271,-1.660359263420105
1789324040329523200,17.404523193359374,-0.555260181427002,1.4966521263122559,-1.8118493556976318
1789324040348373500,17.42337353515625,-0.8197570443153381,1.414798617362976,-1.8900377750396729
1789324040367224000,17.44222412109375,-1.0928057432174683,1.3267602920532227,-2.0445821285247803
1789324040386074400,17.461074462890625,-1.216196894645691,1.216196894645691,-2.2944185733795166
1789324040404925000,17.479925048828125,-1.3206517696380615,0.9132166504859924,-2.425139904022217
1789324040423775200,17.498775146484373,-1.376926064491272,0.5772506594657898,-2.521043062210083
1789324040442625800,17.517625732421877,-1.3102673292160034,0.2651077210903168,-2.565023899078369
1789324040461476000,17.53647607421875,-1.0017894506454468,0.021379653364419937,-2.761106014251709
1789324040480326400,17.555326416015625,-0.5906893014907837,0.023823043331503868,-2.8673934936523438
1789324040499177000,17.574177001953124,-0.32069480419158936,0.08246438205242157,-2.706740617752075
1789324040518027300,17.59302734375,-0.1960819661617279,0.0030542362947016954,-2.222949504852295
1789324040536877800,17.6118779296875,-0.1313321590423584,-0.02993151545524597,-1.6957883834838867
1789324040555728100,17.63072802734375,-0.03665083646774292,0.025655584409832954,-1.2638429403305054
1789324040574578700,17.64957861328125,0.13499724864959717,0.12644538283348083,-0.8173136115074158
1789324040593429000,17.668428955078124,0.1966928243637085,0.1185043677687645,-0.395218163728714
1789324040612279300,17.687279296875,0.11606097966432571,0.1050657257437706,-0.02993151545524597
1789324040631129900,17.7061298828125,0.029320668429136276,0.07085828483104706,0.30725616216659546
1789324040649980200,17.724980224609375,0.05925218388438225,0.04214845970273018,0.5980194807052612
1789324040668830700,17.743830810546875,0.16248537600040436,-0.10384403169155121,0.8747332692146301
1789324040687681000,17.762680908203127,0.258999228477478,-0.2223484069108963,1.1025793552398682
1789324040706531300,17.78153125,0.2980934679508209,-0.2241809368133545,1.2522368431091309
1789324040725382000,17.8003818359375,0.3139754831790924,-0.26816195249557495,1.254069447517395
1789324040744232200,17.819232177734374,0.29626092314720154,-0.31031039357185364,1.2491827011108398
1789324040763082800,17.838082763671874,0.29381752014160156,-0.2357870489358902,1.317597508430481
1789324040781933000,17.85693310546875,0.35917818546295166,-0.14782503247261047,1.479548454284668
1789324040800783400,17.875783447265626,0.42637139558792114,-0.05864133685827255,1.6353144645690918
1789324040819634000,17.894634033203126,0.5082249045372009,-0.17531315982341766,1.7037293910980225
1789324040838484200,17.913484130859374,0.582748293876648,-0.3958290219306946,1.7580947875976562
1789324040857334800,17.932334716796873,0.7110261917114258,-0.5424323678016663,1.867436408996582
1789324040876185000,17.95118505859375,0.8729007244110107,-0.6261184215545654,2.043971300125122
1789324040895035400,17.970035400390625,0.8942803740501404,-0.6731536984443665,2.1380417346954346
1789324040913886000,17.988885986328125,0.8502993583679199,-0.7458444833755493,2.1386525630950928
1789324040932736300,18.007736328125,0.9064973592758179,-0.7769976854324341,2.026256799697876
1789324040951586600,18.026586669921876,0.8441908955574036,-0.975523054599762,1.9694479703903198
1789324040970437000,18.04543701171875,0.6267293095588684,-1.1826002597808838,1.760538101196289
1789324040989287400,18.064287353515624,0.4306473135948181,-1.3023263216018677,1.5754514932632446
1789324041008137700,18.0831376953125,0.4178195297718048,-0.9376505613327026,1.452060341835022
1789324041026988300,18.10198828125,0.522885262966156,-0.6163448691368103,1.5461307764053345
1789324041045838600,18.120838623046875,0.5656445622444153,-0.6920899152755737,1.4178528785705566
1789324041064689000,18.13968896484375,0.5155550837516785,-0.5509842038154602,0.9071081876754761
1789324041083539500,18.15853955078125,0.3512371778488159,-0.25777754187583923,0.26816195249557495
1789324041102389800,18.1773896484375,0.19119518995285034,0.12461283802986145,0.009773556143045425
1789324041121240300,18.196240234375,0.1301104724407196,0.37567105889320374,-0.16615045070648193
1789324041140090600,18.215090576171875,0.08674030750989914,0.446529358625412,-0.4416425824165344
1789324041158941000,18.23394091796875,-0.033596597611904144,0.6157340407371521,-0.7592831254005432
1789324041177791200,18.252791259765626,-0.1985253542661667,0.9718579649925232,-1.0476030111312866
1789324041196641800,18.271641845703126,-0.40071579813957214,1.3714284896850586,-1.2571237087249756
1789324041215492000,18.2904921875,-0.5729747414588928,1.5595693588256836,-1.4575579166412354
1789324041234342400,18.30934228515625,-0.6859814524650574,1.6243191957473755,-1.678073763847351
1789324041253193000,18.32819287109375,-0.8148702383041382,1.618821620941162,-1.8882052898406982
1789324041272043300,18.347043212890625,-1.1551121473312378,1.3885321617126465,-2.0396952629089355
1789324041290893600,18.3658935546875,-1.446562647819519,1.1966497898101807,-2.236999034881592
1789324041309744000,18.384744140625,-1.5656778812408447,0.9101623892784119,-2.3237392902374268
1789324041328594400,18.403594482421877,-1.6090480089187622,0.5894675850868225,-2.3774938583374023
1789324041347444700,18.42244482421875,-1.5516283512115479,0.30786702036857605,-2.4074254035949707
1789324041366295000,18.441294921875,-1.3059914112091064,0.19058434665203094,-2.4929440021514893
1789324041385145600,18.4601455078125,-0.8912261724472046,0.12766708433628082,-2.5405900478363037
1789324041403996000,18.478995849609376,-0.5277720093727112,0.2730487287044525,-2.4642341136932373
1789324041422846200,18.49784619140625,-0.3787252902984619,0.2730487287044525,-2.1893529891967773
1789324041441696500,18.516696533203124,-0.2907632887363434,0.2241809368133545,-1.8649930953979492
1789324041460547000,18.535547119140624,-0.2895416021347046,0.25350162386894226,-1.5284161567687988
1789324041479397400,18.5543974609375,-0.2620534598827362,0.15026842057704926,-1.165496587753296
1789324041498247700,18.57324755859375,-0.1557660549879074,0.04459185153245926,-0.8215895891189575
1789324041517098000,18.592097900390623,-0.036039989441633224,0.02504473738372326,-0.4056025743484497
1789324041535948500,18.610948486328127,0.015271181240677834,0.07452336698770523,0.006719320081174374
1789324041554798800,18.629798828125,0.06291726976633072,0.07085828483104706,0.38849884271621704
1789324041583074300,18.65807421875,0.20646637678146362,0.06291726976633072,0.9675820469856262
1789324041601924600,18.676924560546876,0.3011476993560791,0.07635590434074402,1.188708782196045
1789324041620775200,18.695775146484376,0.32008397579193115,0.10873081535100937,1.277281641960144
1789324041639625500,18.71462548828125,0.261442631483078,-0.036039989441633224,1.3139324188232422
1789324041658475800,18.733475830078124,0.16309621930122375,-0.3304683566093445,1.4160202741622925
1789324041677326000,18.752326171875,0.1313321590423584,-0.5357130169868469,1.5614019632339478
1789324041696176400,18.77117626953125,0.19363857805728912,-0.5161659121513367,1.6817388534545898
1789324041715026700,18.790026611328123,0.33352261781692505,-0.46485477685928345,1.8594954013824463
1789324041733877200,18.808877197265623,0.5577035546302795,-0.40010493993759155,1.9987685680389404
1789324041752727600,18.8277275390625,0.6884248852729797,-0.33352261781692505,2.0482470989227295
1789324041771577900,18.846577880859375,0.6603258848190308,-0.3781144618988037,2.0891740322113037
1789324041790428200,18.86542822265625,0.5894675850868225,-0.5595360994338989,2.1893529891967773
1789324041809278500,18.884278564453126,0.53143709897995,-0.7684458494186401,2.2455508708953857
1789324041828129000,18.90312890625,0.5418215394020081,-0.7592831254005432,2.199737310409546
1789324041846979300,18.921979248046874,0.6652126908302307,-0.7238540053367615,2.13620924949646
1789324041865829600,18.94082958984375,0.7806627750396729,-1.0335536003112793,2.171027421951294
1789324041884680000,18.959679931640625,0.6420004963874817,-1.3763152360916138,2.0097639560699463
1789324041912955400,18.987955322265623,0.4031592011451721,-1.618210792541504,1.5827815532684326
1789324041931805700,19.0068056640625,0.43797749280929565,-1.1166287660598755,1.4007490873336792
1789324041950656300,19.02565625,0.48928865790367126,-0.8796200752258301,1.2656755447387695
1789324041969506600,19.044506591796875,0.4318690001964569,-0.6988092660903931,0.9382613897323608
1789324041988356900,19.06335693359375,0.28098973631858826,-0.37567105889320374,0.5338805317878723
1789324042007207200,19.082207275390626,0.13377554714679718,-0.023823043331503868,0.2626643180847168
1789324042026057500,19.101057373046874,0.09345962852239609,0.20219044387340546,0.12278030067682266
1789324042044907800,19.11990771484375,0.13316470384597778,0.3549022674560547,-0.2486148327589035
1789324042063758000,19.138758056640626,0.04886778071522713,0.6804838180541992,-0.712247908115387
1789324042082608600,19.157608642578126,-0.11606097966432571,1.0103414058685303,-1.0366077423095703
1789324042101459000,19.176458984375,-0.28282228112220764,1.1257915496826172,-1.2357439994812012
1789324042120309200,19.195309326171873,-0.39766156673431396,1.2180293798446655,-1.5088690519332886
1789324042139159600,19.21415966796875,-0.5100574493408203,1.3316470384597778,-1.7593164443969727
1789324042158009900,19.233009765625,-0.6804838180541992,1.3695958852767944,-1.926688551902771
1789324042176860200,19.251860107421876,-0.8997780084609985,1.3108782768249512,-1.9725021123886108
1789324042205135600,19.280135498046874,-1.1740484237670898,1.1459494829177856,-2.280980110168457
1789324042223986000,19.29898583984375,-1.3463836908340454,0.9223793745040894,-2.4501848220825195
1789324042252261400,19.327261474609376,-1.3445512056350708,0.4886777997016907,-2.6584837436676025
1789324042271111700,19.346111572265624,-1.1538904905319214,0.34818294644355774,-2.801421880722046
1789324042289962000,19.3649619140625,-0.8619054555892944,0.07757759839296341,-2.9742915630340576
1789324042308812300,19.383812255859375,-0.4721849262714386,0.016492875292897224,-3.0201051235198975
1789324042327662800,19.402662841796875,-0.2638860046863556,-0.004886778071522713,-2.723844289779663
1789324042346513200,19.42151318359375,-0.183865025639534,-0.08002099394798279,-2.2076783180236816
1789324042365363500,19.440363525390627,-0.1429382562637329,0.0030542362947016954,-1.6353144645690918
1789324042384213800,19.4592138671875,-0.029320668429136276,0.12400199472904205,-1.1685508489608765
1789324042403064000,19.47806396484375,0.12827792763710022,0.25289076566696167,-0.7324058413505554
1789324042421914400,19.496914306640626,0.17897824943065643,0.17653486132621765,-0.3286358118057251
1789324042440764700,19.5157646484375,0.10750912129878998,0.03176405653357506,0.01710372418165207
1789324042459615000,19.534614990234374,0.09345962852239609,-0.13377554714679718,0.3133646547794342
1789324042478465300,19.55346533203125,0.13316470384597778,-0.16370706260204315,0.5748072862625122
1789324042497315600,19.572315673828125,0.18142163753509521,-0.14110571146011353,0.8478559851646423
1789324042516166000,19.591165771484373,0.21440738439559937,-0.16676130890846252,1.073258638381958
1789324042535016200,19.61001611328125,0.21196399629116058,-0.08979454636573792,1.2638429403305054
1789324042553866500,19.628866455078125,0.15943112969398499,-0.16859383881092072,1.3763152360916138
1789324042572716800,19.647716796875,0.12766708433628082,-0.28037887811660767,1.483824372291565
1789324042591567000,19.666567138671876,0.18691925704479218,-0.2877090573310852,1.5516283512115479
1789324042610417400,19.68541748046875,0.32374903559684753,-0.15149012207984924,1.6151565313339233
1789324042629267700,19.704267822265624,0.4837910234928131,-0.1429382562637329,1.7049510478973389
1789324042648118000,19.723117919921876,0.5919110178947449,-0.24556060135364532,1.8613280057907104
1789324042666968300,19.74196826171875,0.6975875496864319,-0.3793361485004425,1.98899507522583
1789324042685818600,19.760818603515624,0.7476770281791687,-0.5418215394020081,2.081843852996826
1789324042704669000,19.7796689453125,0.786160409450531,-0.6413896083831787,2.2357773780822754
1789324042723519200,19.798519287109375,0.7488987445831299,-0.836860716342926,2.3438973426818848
1789324042742369500,19.81736962890625,0.675597071647644,-0.8790091872215271,2.2644870281219482
1789324042761219800,19.8362197265625,0.7592831254005432,-0.7855495810508728,2.1117753982543945
1789324042780070100,19.855070068359375,0.7843278646469116,-1.0763128995895386,2.1319332122802734
1789324042798920400,19.87392041015625,0.5961869359016418,-1.4997063875198364,1.9407380819320679
1789324042817770500,19.8927705078125,0.3683409094810486,-1.664635181427002,1.63592529296875
1789324042836620800,19.911620849609374,0.3646758198738098,-1.1080769300460815,1.3457728624343872
1789324042855471000,19.93047119140625,0.4813476502895355,-0.652384877204895,1.4062467813491821
1789324042874321400,19.9493212890625,0.44042086601257324,-0.7727217674255371,1.3084348440170288
1789324042893171700,19.968171630859374,0.314586341381073,-0.5974085927009583,0.8386932611465454
1789324042912022000,19.98702197265625,0.13744063675403595,-0.16370706260204315,0.3781144618988037
1789324042930872300,20.005872314453125,-0.026877280324697495,0.20646637678146362,0.0794101431965828
1789324042949722600,20.02472265625,-0.08124268800020218,0.4874561131000519,-0.17348061501979828
1789324042968573000,20.043572998046876,-0.0647498071193695,0.7488987445831299,-0.497229665517807
1789324042987423200,20.06242333984375,-0.12888877093791962,1.0280559062957764,-0.8441908955574036
1789324043006273500,20.0812734375,-0.2357870489358902,1.12823486328125,-1.1288456916809082
1789324043025123800,20.100123779296876,-0.38727715611457825,1.2290246486663818,-1.3518813848495483
1789324043043974100,20.11897412109375,-0.5259394645690918,1.3206517696380615,-1.538800597190857
1789324043062824200,20.13782421875,-0.6340594291687012,1.3096565008163452,-1.7012859582901
1789324043081674500,20.156674560546875,-0.7519529461860657,1.298661231994629,-1.8924812078475952
1789324043100524800,20.17552490234375,-0.9633061289787292,1.2742273807525635,-2.003655433654785
1789324043119375000,20.194375,-1.1074661016464233,1.309045672416687,-2.3139657974243164
1789324043147650600,20.222650634765625,-1.3787586688995361,0.6994200944900513,-2.4929440021514893
1789324043166500900,20.2415009765625,-1.4111335277557373,0.2510582208633423,-2.5137128829956055
1789324043185351200,20.26035107421875,-1.2650647163391113,0.1850867122411728,-2.7073514461517334
1789324043204201500,20.279201416015624,-0.9510892033576965,0.10811996459960938,-2.9022116661071777
1789324043223051500,20.298051513671876,-0.5858024954795837,0.18814095854759216,-2.8087520599365234
1789324043241901800,20.31690185546875,-0.3029802441596985,0.22479179501533508,-2.3921542167663574
1789324043260752100,20.335752197265624,-0.05986303091049194,0.2583884000778198,-1.9071414470672607
1789324043279602400,20.3546025390625,0.0653606578707695,0.43797749280929565,-1.5174208879470825
1789324043298452700,20.37345263671875,0.04581354558467865,0.4202629029750824,-1.1373976469039917
1789324043317302800,20.392302734375,0.05070032179355621,0.24617144465446472,-0.7501204609870911
1789324043336153300,20.4111533203125,0.06780404597520828,0.04886778071522713,-0.3817795515060425
1789324043355003400,20.43000341796875,0.0787992998957634,-0.06719319522380829,-0.08490777015686035
1789324043373853700,20.448853759765626,0.16676130890846252,-0.12339114397764206,0.24006296694278717
1789324043392704000,20.4677041015625,0.22601348161697388,-0.13744063675403595,0.5644228458404541
1789324043420979500,20.4959794921875,0.24189551174640656,-0.19424942135810852,0.9321529269218445
1789324043439829500,20.51482958984375,0.21746163070201874,-0.208298921585083,1.1618314981460571
1789324043458679800,20.5336796875,0.1575985997915268,-0.24372805655002594,1.3340904712677002
1789324043477530000,20.552530029296875,0.10873081535100937,-0.3274141252040863,1.4416759014129639
1789324043496380400,20.57138037109375,0.14110571146011353,-0.36284327507019043,1.4355673789978027
1789324043515230700,20.590230712890627,0.21807247400283813,-0.28037887811660767,1.4545036554336548
1789324043534080800,20.609080810546875,0.3286358118057251,-0.1954711228609085,1.59988534450531
1789324043552931000,20.62793115234375,0.49173203110694885,-0.13560809195041656,1.7843612432479858
1789324043571781400,20.646781494140626,0.6230642199516296,-0.3164188861846924,1.9694479703903198
1789324043590631700,20.665631591796874,0.7256865501403809,-0.5302154421806335,2.10688853263855
1789324043609481700,20.684481689453126,0.7800519466400146,-0.6187883019447327,2.1465935707092285
1789324043628332000,20.70333203125,0.7568397521972656,-0.5894675850868225,2.0855088233947754
1789324043647182300,20.722182373046873,0.652384877204895,-0.6230642199516296,2.0109856128692627
1789324043666032600,20.74103271484375,0.6212316751480103,-0.7568397521972656,2.0054879188537598
1789324043684882700,20.759882568359377,0.8050966858863831,-0.9571976661682129,2.0659618377685547
1789324043703733000,20.77873291015625,0.7782194018363953,-1.1190721988677979,1.9944926500320435
1789324043722583300,20.797583251953125,0.6224533319473267,-1.456336259841919,1.803908348083496
1789324043741433600,20.81643359375,0.4587462842464447,-1.4734399318695068,1.5253620147705078
1789324043760283600,20.83528369140625,0.4960079789161682,-0.9462023973464966,1.3169866800308228
1789324043779134000,20.854134033203124,0.5570927262306213,-0.5625903010368347,1.1740484237670898
1789324043797984300,20.872984375,0.5381564497947693,-0.4569137394428253,0.8729007244110107
1789324043816834600,20.89183447265625,0.41415444016456604,-0.30969956517219543,0.4868452548980713
1789324043835684600,20.9106845703125,0.26938363909721375,-0.09651386737823486,0.21440738439559937
1789324043854535000,20.929534912109375,0.10750912129878998,0.130721315741539,-0.07635590434074402
1789324043873385200,20.94838525390625,-0.0024433890357613564,0.42576053738594055,-0.3280249834060669
1789324043892235500,20.967235595703126,-0.08979454636573792,0.7733326554298401,-0.5686988234519958
1789324043911085600,20.98608544921875,-0.20524467527866364,1.0677610635757446,-0.8845068216323853
1789324043929936000,21.004935791015626,-0.36039987206459045,1.2552911043167114,-1.180156946182251
1789324043948786200,21.0237861328125,-0.46607646346092224,1.4483952522277832,-1.4135769605636597
1789324043967636200,21.04263623046875,-0.5351021885871887,1.5412440299987793,-1.621264934539795
1789324043986486500,21.061486572265625,-0.6933116316795349,1.4935978651046753,-1.8466676473617554
1789324044005336800,21.0803369140625,-1.0512681007385254,1.2809467315673828,-1.9584527015686035
1789324044024187000,21.099186767578125,-1.3414969444274902,1.1783243417739868,-2.168584108352661
1789324044043037200,21.118037109375,-1.5589585304260254,0.9785773158073425,-2.1893529891967773
1789324044061887500,21.136887451171877,-1.6004961729049683,0.7580614686012268,-2.3408429622650146
1789324044080737500,21.155737548828125,-1.5009280443191528,0.38483378291130066,-2.3512275218963623
1789324044099587800,21.174587890625,-1.3029371500015259,0.25472331047058105,-2.4825596809387207
1789324044118438100,21.193438232421876,-1.0341644287109375,0.0910162404179573,-2.6432125568389893
1789324044137288400,21.212288330078124,-0.7177455425262451,0.11056335270404816,-2.6749765872955322
1789324044156138500,21.231138427734376,-0.4953971207141876,0.0525328628718853,-2.390932559967041
1789324044174988800,21.24998876953125,-0.3280249834060669,-0.0036650835536420345,-1.936462163925171
1789324044193838800,21.2688388671875,-0.20463383197784424,0.1435490995645523,-1.5748405456542969
1789324044212689200,21.287689208984375,-0.06352811306715012,0.2363978922367096,-1.252847671508789
1789324044231539500,21.30653955078125,0.056808795779943466,0.18142163753509521,-0.8790091872215271
1789324044250389500,21.325389404296875,0.08735115826129913,0.10873081535100937,-0.5888567566871643
1789324044269239800,21.34423974609375,0.08612946420907974,0.0525328628718853,-0.38727715611457825
1789324044288090000,21.363090087890626,0.15149012207984924,0.038483377546072006,-0.08307522535324097
1789324044306940200,21.381940185546874,0.2602209448814392,0.05070032179355621,0.3536805510520935
1789324044325790500,21.40079052734375,0.35795649886131287,-0.05497625470161438,0.7385143637657166
1789324044344640800,21.419640869140625,0.41537612676620483,-0.10873081535100937,0.9767447710037231
1789324044363490800,21.43849072265625,0.393385648727417,-0.21440738439559937,1.1129636764526367
1789324044382341000,21.457341064453125,0.3268032968044281,-0.30847787857055664,1.2510151863098145
1789324044401191200,21.476191162109377,0.2651077210903168,-0.42453885078430176,1.4312914609909058
1789324044420041500,21.49504150390625,0.3261924386024475,-0.2095206081867218,1.6542507410049438
1789324044438891800,21.513891845703125,0.38727715611457825,-0.1178935244679451,1.7782527208328247
1789324044457741800,21.532741943359376,0.4282039403915405,-0.2229592502117157,1.7916914224624634
1789324044476592000,21.551592041015624,0.47768256068229675,-0.31947311758995056,1.806351661682129
1789324044495442200,21.570442138671876,0.5809157490730286,-0.4850127100944519,1.9169150590896606
1789324044514292500,21.58929248046875,0.6890357136726379,-0.5192201733589172,2.0451929569244385
1789324044533142800,21.608142822265624,0.7446228265762329,-0.5589252710342407,2.1386525630950928
1789324044551992800,21.626992919921875,0.7085828185081482,-0.6560499668121338,2.1899638175964355
1789324044570843100,21.645843017578127,0.6859814524650574,-0.7482879161834717,2.1985156536102295
1789324044589693400,21.664693359375,0.8167027831077576,-0.8466343283653259,2.133765935897827
1789324044608543500,21.68354345703125,0.9089407324790955,-1.0989142656326294,2.0977258682250977
1789324044627393800,21.702393798828126,0.7788302302360535,-1.313321590423584,1.8625496625900269
1789324044646243800,21.721243896484374,0.5558710098266602,-1.5516283512115479,1.690901517868042
1789324044665094100,21.74009423828125,0.5192201733589172,-1.183211088180542,1.4819917678833008
1789324044683944200,21.758944091796874,0.5845808386802673,-0.7110261917114258,1.3224843740463257
1789324044702794500,21.77779443359375,0.5241069197654724,-0.7574505805969238,1.1080769300460815
1789324044721644800,21.796644775390625,0.3701734244823456,-0.7165238261222839,0.7061394453048706
1789324044740494800,21.815494873046877,0.2235700935125351,-0.3542914092540741,0.38483378291130066
1789324044759345200,21.83434521484375,0.1429382562637329,-0.05131116881966591,0.15332266688346863
1789324044778195200,21.8531953125,0.0910162404179573,0.17225892841815948,-0.1459924876689911
1789324044797045500,21.87204541015625,0.03298575058579445,0.41171106696128845,-0.5002838969230652
1789324044815895600,21.8908955078125,-0.08490777015686035,0.7464553713798523,-0.7739434838294983
1789324044834745900,21.909745849609376,-0.20402298867702484,1.1215155124664307,-0.9431481957435608
1789324044853596000,21.928595947265624,-0.3555130958557129,1.2882769107818604,-1.1221264600753784
1789324044872446200,21.9474462890625,-0.5106683373451233,1.3524922132492065,-1.3506596088409424
1789324044891296300,21.966296142578123,-0.6407787799835205,1.4093009233474731,-1.5870575904846191
1789324044910146600,21.985146484375,-0.786160409450531,1.3964731693267822,-1.7843612432479858
1789324044928996600,22.00399658203125,-1.123958945274353,1.3139324188232422,-1.8656039237976074
1789324044947847000,22.022846923828126,-1.405635952949524,1.271173119544983,-2.078789472579956
1789324044966697000,22.041697021484374,-1.5778948068618774,0.9303203821182251,-2.1197164058685303
1789324044985547300,22.06054736328125,-1.5827815532684326,0.6297835111618042,-2.28342342376709
1789324045004397300,22.079397216796874,-1.4856568574905396,0.3683409094810486,-2.423307418823242
1789324045023247600,22.09824755859375,-1.3243168592453003,0.2357870489358902,-2.608394145965576
1789324045042098000,22.117097900390625,-1.064706802368164,0.047646086663007736,-2.732396125793457
1789324045060948000,22.135947998046873,-0.7458444833755493,0.05008947476744652,-2.6505424976348877
1789324045079798300,22.15479833984375,-0.5803049206733704,-0.022601349279284477,-2.291975259780884
1789324045098648300,22.1736484375,-0.46424391865730286,-0.06047387793660164,-1.826509714126587
1789324045117498600,22.19249853515625,-0.17775654792785645,0.2107423096895218,-1.5235294103622437
1789324045136348700,22.2113486328125,0.1459924876689911,0.36101073026657104,-1.2278029918670654
1789324045155198700,22.23019873046875,0.2486148327589035,0.30481278896331787,-0.8032641410827637
1789324045174049000,22.249049072265624,0.1588202863931656,0.10811996459960938,-0.4178195297718048
1789324045192899300,22.2678994140625,0.07574506103992462,-0.007941014133393764,-0.0659715011715889
1789324045211749400,22.286749267578124,0.10628741979598999,-0.05864133685827255,0.2767138183116913
1789324045230599700,22.305599609375,0.1948602795600891,-0.0018325417768210173,0.6132906675338745
1789324045249449700,22.32444970703125,0.284654825925827,-0.0922379344701767,0.856407880783081
1789324045268299800,22.3432998046875,0.31886225938796997,-0.24189551174640656,1.0213366746902466
1789324045287150000,22.362150146484375,0.3249707520008087,-0.41110020875930786,1.1819894313812256
1789324045306000100,22.381000244140626,0.33718767762184143,-0.5002838969230652,1.3285927772521973
1789324045324850400,22.399850341796874,0.34696123003959656,-0.4862344264984131,1.4490060806274414
1789324045343700500,22.418700439453126,0.3243598937988281,-0.37261682748794556,1.5528501272201538
1789324045362550800,22.43755078125,0.37078428268432617,-0.265718549489975,1.6304277181625366
1789324045381400800,22.45640087890625,0.4966188073158264,-0.17531315982341766,1.6970100402832031
1789324045400251100,22.475251220703125,0.6169557571411133,-0.2877090573310852,1.7800853252410889
1789324045419101200,22.49410107421875,0.7537854909896851,-0.5015056133270264,1.9132499694824219
1789324045437951200,22.512951171875,0.8771766424179077,-0.6365028619766235,2.0879523754119873
1789324045456801500,22.531801513671876,0.8808417320251465,-0.7653915882110596,2.180190324783325
1789324045475651600,22.550651611328124,0.763559103012085,-0.8997780084609985,2.2308905124664307
1789324045494502000,22.569501953125,0.712247908115387,-0.9504783153533936,2.171027421951294
1789324045513352000,22.58835205078125,0.8222004175186157,-1.0317209959030151,2.0946714878082275
1789324045532202200,22.6072021484375,0.6707102656364441,-1.2516260147094727,1.9767780303955078
1789324045551052300,22.62605224609375,0.46607646346092224,-1.5253620147705078,1.7354934215545654
1789324045569902600,22.644902587890623,0.337798535823822,-1.3285927772521973,1.5571260452270508
1789324045588752600,22.663752685546875,0.446529358625412,-1.0158389806747437,1.478326678276062
1789324045607602700,22.682602783203127,0.5363239049911499,-0.8655705451965332,1.2449066638946533
1789324045626453000,22.701452880859375,0.4679090082645416,-0.8887827396392822,0.9107732772827148
1789324045645303000,22.720302978515626,0.3432961702346802,-0.6615476012229919,0.5864133834838867
1789324045664153300,22.7391533203125,0.21501824259757996,-0.33596599102020264,0.3567348122596741
1789324045692428500,22.767428466796876,0.11545012891292572,0.1453816443681717,-0.09590301662683487
1789324045711278600,22.786278564453124,0.11300674080848694,0.5082249045372009,-0.4618005156517029
1789324045730128600,22.805128662109375,0.05008947476744652,0.8228112459182739,-0.7653915882110596
1789324045748979000,22.82397900390625,-0.07269082218408585,1.0109522342681885,-1.0219475030899048
1789324045767829000,22.8428291015625,-0.21379654109477997,1.1606098413467407,-1.318819284439087
1789324045786679300,22.86167919921875,-0.3530697226524353,1.317597508430481,-1.5614019632339478
1789324045805529300,22.880529296875,-0.5241069197654724,1.4117443561553955,-1.7397693395614624
1789324045824379400,22.89937939453125,-0.70797199010849,1.3610440492630005,-1.8307856321334839
1789324045843229700,22.918229736328126,-1.0048437118530273,1.2155860662460327,-1.8197903633117676
1789324045862079700,22.937079833984374,-1.2797249555587769,1.1496145725250244,-1.9248560667037964
1789324045880930000,22.955929931640625,-1.4080792665481567,1.0983033180236816,-2.0458037853240967
1789324045899780000,22.974780029296873,-1.4282371997833252,0.8600729703903198,-2.2095108032226562
1789324045928055300,23.00305517578125,-1.3230952024459839,0.2620534598827362,-2.404982089996338
1789324045946905300,23.0219052734375,-1.1410627365112305,0.02870982140302658,-2.5607481002807617
1789324045975180500,23.0501806640625,-0.633448600769043,-0.10934165865182877,-2.639547348022461
1789324045994030800,23.06903076171875,-0.4337015450000763,-0.09773556143045425,-2.478283643722534
1789324046012881000,23.087880859375,-0.30969956517219543,-0.20402298867702484,-2.147815227508545
1789324046031731000,23.10673095703125,-0.16004198789596558,-0.13927318155765533,-1.7367150783538818
1789324046050581200,23.125581298828124,0.07207997888326645,0.13499724864959717,-1.3310362100601196
1789324046069431300,23.144431396484375,0.22784602642059326,0.2864873707294464,-0.8796200752258301
1789324046088281300,23.16328125,0.14782503247261047,0.12216944992542267,-0.45324867963790894
1789324046107131600,23.182131591796875,0.11667182296514511,-0.129499614238739,-0.04825693368911743
1789324046125981700,23.200981689453126,0.2895416021347046,-0.12644538283348083,0.29503923654556274
1789324046144831700,23.219831787109374,0.41171106696128845,-0.18142163753509521,0.5601469278335571
1789324046163682000,23.23868212890625,0.45508119463920593,-0.20157960057258606,0.8063184022903442
1789324046182532000,23.257531982421874,0.44103172421455383,-0.2748812735080719,1.0066763162612915
1789324046201382100,23.276382080078125,0.4086568057537079,-0.32374903559684753,1.1233481168746948
1789324046220232400,23.295232421875,0.34757208824157715,-0.4178195297718048,1.174659252166748
1789324046239082500,23.31408251953125,0.3151971995830536,-0.4752391576766968,1.277281641960144
1789324046257932500,23.3329326171875,0.3567348122596741,-0.38422292470932007,1.501538872718811
1789324046276782600,23.351782470703125,0.49417543411254883,-0.365286648273468,1.6683002710342407
1789324046295633000,23.3706328125,0.6401679515838623,-0.33230090141296387,1.709837794303894
1789324046314483000,23.38948291015625,0.6981984376907349,-0.45080527663230896,1.770311713218689
1789324046333333000,23.4083330078125,0.7372926473617554,-0.5234960913658142,1.91386079788208
1789324046352183300,23.427183349609376,0.8570187091827393,-0.5919110178947449,2.0403060913085938
1789324046371033300,23.446033447265624,0.9425373077392578,-0.684148907661438,2.0971150398254395
1789324046399308500,23.47430859375,0.8570187091827393,-0.7250757217407227,2.0598533153533936
1789324046418158600,23.49315869140625,0.9229902029037476,-0.7507312893867493,2.03480863571167
1789324046437008600,23.512008544921876,0.8521319031715393,-1.1141854524612427,2.06107497215271
1789324046455859000,23.53085888671875,0.6114581227302551,-1.4306806325912476,1.7489320039749146
1789324046474709000,23.549708984375,0.41476529836654663,-1.372650146484375,1.4856568574905396
1789324046493559000,23.56855908203125,0.47585001587867737,-0.8826742768287659,1.4270155429840088
1789324046512409000,23.5874091796875,0.5796940326690674,-0.6261184215545654,1.4166311025619507
1789324046531259400,23.60625927734375,0.5809157490730286,-0.49295374751091003,1.1502254009246826
1789324046550109400,23.625109375,0.4575245976448059,-0.4453076422214508,0.888171911239624
1789324046568959500,23.64395947265625,0.30908870697021484,-0.1582094430923462,0.6462764143943787
1789324046587809800,23.662809814453126,0.27121618390083313,0.18753011524677277,0.3115321099758148
1789324046606659800,23.681659912109374,0.2870981991291046,0.4978405237197876,-0.1710372269153595
1789324046625510000,23.700510009765626,0.2095206081867218,0.6444438695907593,-0.6474980711936951
1789324046644360000,23.71935986328125,0.05925218388438225,0.8118160367012024,-0.938872218132019
1789324046663210000,23.7382099609375,-0.09407047927379608,1.1306782960891724,-1.0891406536102295
1789324046682060300,23.757060302734374,-0.2480039894580841,1.3952515125274658,-1.2491827011108398
1789324046700910300,23.775910400390625,-0.4337015450000763,1.4404542446136475,-1.4856568574905396
1789324046719760400,23.794760498046877,-0.6499415040016174,1.43312406539917,-1.7623707056045532
1789324046738610400,23.8136103515625,-0.8777875304222107,1.469774842262268,-1.904698133468628
1789324046757460700,23.832460693359376,-1.180156946182251,1.400138258934021,-1.9401272535324097
