time,seconds_elapsed,z,y,x
1789323081571409200,0.1274091796875,0,0,0
1789323081590259500,0.146259521484375,0.17572021484375,-0.019934654235839844,0.09055313467979431
1789323081609109800,0.16510986328125,0.03912544250488281,0.008088111877441406,0.16760516166687012
1789323081627959800,0.183959716796875,-0.35281944274902344,0.0205078125,0.2844998836517334
1789323081646810000,0.20281005859375,-0.3831772804260254,0.06248188018798828,0.3040599822998047
1789323081665660400,0.221660400390625,0.014303207397460938,0.11137056350708008,0.2534857988357544
1789323081693935600,0.249935546875,0.7955656051635742,0.25687193870544434,0.034056782722473145
1789323081712786000,0.268785888671875,0.9193391799926758,0.09369683265686035,0.12790453433990479
1789323081731636200,0.28763623046875,0.6590766906738281,-0.04914093017578125,0.2619955539703369
1789323081750486500,0.306486572265625,0.3510570526123047,-0.08852648735046387,0.527067244052887
1789323081769336600,0.325336669921875,0.3123292922973633,0.0421445369720459,0.7550508379936218
1789323081788187000,0.344186767578125,0.31847286224365234,0.09774947166442871,0.679024338722229
1789323081807037200,0.363037109375,0.2954883575439453,0.03033304214477539,0.4508381485939026
1789323081825887200,0.38188720703125,0.10985755920410156,0.013770103454589844,0.5414618849754333
1789323081844737500,0.400737548828125,-0.2173452377319336,0.049765586853027344,0.6803914308547974
1789323081863587800,0.419587890625,-0.3484182357788086,0.23123931884765625,-0.17235183715820312
1789323081882438100,0.438438232421875,-0.3437528610229492,0.42554569244384766,-0.9625948667526245
1789323081901288200,0.4572880859375,-0.28551387786865234,0.24289274215698242,-0.6368467211723328
1789323081920138500,0.476138427734375,0.3342857360839844,0.15233993530273438,0.13823539018630981
1789323081938988800,0.49498876953125,1.3349027633666992,-0.03927040100097656,0.5685052871704102
1789323081957839000,0.513839111328125,1.7487602233886719,-0.3192558288574219,0.22098708152770996
1789323081976689200,0.532689208984375,0.896449089050293,-0.22493267059326172,-0.34600406885147095
1789323081995539500,0.55153955078125,0.21109676361083984,-0.16069841384887695,-0.13221222162246704
1789323082014389800,0.5703896484375,0.10434627532958984,-0.3385047912597656,0.1247367262840271
1789323082033240000,0.589239990234375,-0.2970924377441406,0.20276165008544922,-0.2563219666481018
1789323082052090000,0.608090087890625,-0.4449043273925781,0.5855870246887207,-0.8164116740226746
1789323082070940400,0.6269404296875,-0.09398555755615234,0.7840657234191895,-1.2067830562591553
1789323082089790700,0.645790771484375,0.08648395538330078,0.9033308029174805,-1.2300546169281006
1789323082108641000,0.66464111328125,0.16886520385742188,0.6171317100524902,-0.8573111295700073
1789323082127491300,0.6834912109375,-0.0738525390625,0.37067747116088867,-0.47127765417099
1789323082146341400,0.70234130859375,-0.7085952758789062,0.19702672958374023,-0.17066991329193115
1789323082165191700,0.721191650390625,-1.1549339294433594,-0.01071929931640625,-0.015321969985961914
1789323082184042000,0.7400419921875,-1.1137161254882812,-0.41955995559692383,-0.08621978759765625
1789323082202892300,0.758892333984375,-0.785311222076416,-0.6536121368408203,-0.15293222665786743
1789323082221742600,0.77774267578125,-0.8169965744018555,-0.5979108810424805,-0.24175101518630981
1789323082240592600,0.796592529296875,-1.033843994140625,-0.7043523788452148,-0.15764153003692627
1789323082259443000,0.81544287109375,-0.7125444412231445,-0.3733177185058594,-0.5444415807723999
1789323082278293200,0.834293212890625,-0.14176654815673828,-0.2891683578491211,-0.9190195798873901
1789323082297143600,0.8531435546875,-0.1029214859008789,-0.259274959564209,-0.9059104919433594
1789323082315993900,0.871993896484375,-0.6068530082702637,-0.20197248458862305,-0.6346080303192139
1789323082334844000,0.890843994140625,-1.2720632553100586,0.11580991744995117,-0.4353807270526886
1789323082353694200,0.909694091796875,-1.4371137619018555,0.04631376266479492,0.1270773559808731
1789323082372544500,0.92854443359375,-1.0810794830322266,-0.5182843208312988,0.6806782484054565
1789323082391394800,0.947394775390625,-0.844639778137207,-3.008047580718994,1.9103620052337646
1789323082410245000,0.9662451171875,-1.18928861618042,-3.7226924896240234,2.1042380332946777
1789323082429095400,0.985095458984375,-0.7971038818359375,-2.432594060897827,1.0560636520385742
1789323082447945500,1.003945556640625,-1.363138198852539,-1.5019102096557617,0.4131854176521301
1789323082466795800,1.022795654296875,-2.5717215538024902,-1.4981842041015625,0.5064043998718262
1789323082485646000,1.04164599609375,-4.173712253570557,-2.1284713745117188,0.629903256893158
1789323082504496400,1.060496337890625,-5.102224349975586,-2.3623929023742676,0.5765186548233032
1789323082523346700,1.0793466796875,-5.2155961990356445,-2.5441906452178955,0.5114771127700806
1789323082542197000,1.098197021484375,-4.078208923339844,-3.4271836280822754,1.4790253639221191
1789323082561047000,1.117047119140625,-1.2256197929382324,-4.934145450592041,2.5449891090393066
1789323082579897300,1.1358974609375,0.3157215118408203,-4.703540802001953,2.8061680793762207
1789323082598747600,1.15474755859375,0.9812226295471191,-4.0092620849609375,3.1414055824279785
1789323082617598000,1.173597900390625,0.2004079818725586,-4.853991985321045,3.137906551361084
1789323082636448300,1.1924482421875,-0.379518985748291,-5.120307922363281,0.925663948059082
1789323082655298600,1.211298583984375,1.6375932693481445,-5.29991340637207,-1.8897438049316406
1789323082674148900,1.23014892578125,4.407581329345703,-5.185764312744141,-2.9651942253112793
1789323082692999000,1.2489990234375,5.908314228057861,-4.56357479095459,-2.2916955947875977
1789323082711849200,1.26784912109375,5.457800388336182,-4.039458274841309,-2.169787883758545
1789323082730699500,1.286699462890625,4.844497203826904,-3.4754638671875,-4.553396224975586
1789323082749549800,1.3055498046875,6.734923362731934,-3.492389678955078,-8.163168907165527
1789323082768400100,1.324400146484375,10.899085998535156,-2.3618221282958984,-10.387765884399414
1789323082787250400,1.34325048828125,12.908087730407715,-0.5706071853637695,-10.436014175415039
1789323082806100700,1.362100830078125,10.824149131774902,0.31633567810058594,-10.872615814208984
1789323082824950800,1.38095068359375,10.004833221435547,1.998295783996582,-10.505763053894043
1789323082843801000,1.399801025390625,9.118772506713867,3.7147679328918457,-9.361164093017578
1789323082862651400,1.4186513671875,8.12281608581543,5.412960529327393,-6.4534382820129395
1789323082890926800,1.4469267578125,5.960435390472412,6.554473876953125,-0.5342354774475098
1789323082909777200,1.465777099609375,4.5533647537231445,6.121923446655273,-0.06980371475219727
1789323082947477800,1.503477783203125,1.0397675037384033,4.301546096801758,0.7800102233886719
1789323082966328000,1.522328125,-0.12527227401733398,3.113265037536621,1.7875475883483887
1789323082985178400,1.541178466796875,-0.5299901962280273,2.346467971801758,3.575059413909912
1789323083004028400,1.5600283203125,-1.3653976917266846,2.753547430038452,4.025324821472168
1789323083022878700,1.578878662109375,0.03045654296875,1.2449965476989746,4.432721138000488
1789323083041729000,1.59772900390625,1.219459056854248,0.4665846824645996,3.7085936069488525
1789323083060579300,1.616579345703125,-0.5147900581359863,-2.1514945030212402,1.8785223960876465
1789323083079429600,1.6354296875,-0.7364850044250488,-4.336333751678467,-1.6334161758422852
1789323083098280000,1.654280029296875,-0.6774234771728516,-5.110795021057129,-2.7975969314575195
1789323083117130200,1.673130126953125,0.6245183944702148,-3.8378562927246094,-1.296590805053711
1789323083135980500,1.69198046875,-1.012794017791748,-5.967099666595459,-2.441009044647217
1789323083154830800,1.710830810546875,-0.9481959342956543,-7.52426290512085,-3.387916088104248
1789323083173681200,1.72968115234375,-1.614856243133545,-7.0099921226501465,-3.1684579849243164
1789323083192531500,1.748531494140625,-1.35260009765625,-5.95685338973999,-2.7842531204223633
1789323083211381800,1.7673818359375,-0.5715603828430176,-4.770467281341553,-1.8522486686706543
1789323083230231800,1.786231689453125,-0.477142333984375,-3.419955253601074,-1.0577735900878906
1789323083249082000,1.80508203125,-1.3447628021240234,-1.8265879154205322,-0.2622861862182617
1789323083267932400,1.823932373046875,-1.6846237182617188,-1.062690258026123,0.8030557632446289
1789323083286782700,1.84278271484375,-1.907116413116455,-0.5132968425750732,0.31975889205932617
1789323083305633000,1.861633056640625,-2.171633243560791,0.7899703979492188,-0.2689361572265625
1789323083324483300,1.8804833984375,-1.8741097450256348,1.3094496726989746,-0.3052239418029785
1789323083343333600,1.899333740234375,-2.115981101989746,0.7346181869506836,0.1969137191772461
1789323083362184000,1.918183837890625,-2.7274789810180664,0.020161151885986328,0.8453142642974854
1789323083381034200,1.9370341796875,-2.757042407989502,-0.6153161525726318,1.4069676399230957
1789323083399884500,1.955884521484375,-2.392246723175049,-0.8790163993835449,1.7195889949798584
1789323083418734800,1.97473486328125,-1.5347967147827148,-0.9444091320037842,1.5942680835723877
1789323083437585200,1.993585205078125,-1.1428298950195312,-0.7893071174621582,1.4239847660064697
1789323083456435500,2.012435546875,-1.3156318664550781,-0.582500696182251,0.8587558269500732
1789323083475285800,2.03128564453125,-1.599992275238037,-0.47906064987182617,0.6194000244140625
1789323083494136000,2.050135986328125,-1.1359062194824219,-0.0359797477722168,0.8725249767303467
1789323083512986400,2.068986328125,-1.116633415222168,0.26645708084106445,0.9799256324768066
1789323083531836700,2.087836669921875,-0.4733729362487793,0.7960989475250244,0.5372099876403809
1789323083550687000,2.10668701171875,0.1465167999267578,1.256054401397705,0.05972862243652344
1789323083569537300,2.125537353515625,0.1772308349609375,0.5239524841308594,0.5720369815826416
1789323083588387600,2.1443876953125,0.6577119827270508,-0.26097631454467773,1.3501818180084229
1789323083607238000,2.16323779296875,1.5315194129943848,-0.8966646194458008,0.9801141023635864
1789323083626088200,2.182088134765625,1.2770500183105469,-1.2725224494934082,-0.09703397750854492
1789323083644938500,2.2009384765625,2.022305965423584,-0.8506631851196289,-1.2241005897521973
1789323083663788800,2.219788818359375,3.2718234062194824,-0.4572463035583496,-1.7847392559051514
1789323083682639000,2.23863916015625,1.823697566986084,0.4884028434753418,-1.6066539287567139
1789323083701489200,2.2574892578125,0.11803245544433594,2.4546117782592773,-0.2569706439971924
1789323083720339500,2.27633935546875,-0.29457902908325195,3.238192558288574,-0.3950982093811035
1789323083739189800,2.295189697265625,2.586012840270996,-0.08390569686889648,-2.0243942737579346
1789323083758040000,2.3140400390625,1.8543071746826172,-0.9346532821655273,-3.606884241104126
1789323083776890400,2.332890380859375,1.8257346153259277,-1.2171416282653809,-2.7420530319213867
1789323083795740700,2.35174072265625,1.9041023254394531,-0.7821526527404785,-1.7711374759674072
1789323083814591000,2.370591064453125,1.1683845520019531,-0.639103889465332,-0.873915433883667
1789323083833441300,2.389441162109375,-0.605280876159668,-1.1307454109191895,0.5856890678405762
1789323083871142000,2.427141845703125,-0.43746376037597656,-1.1547966003417969,1.3061740398406982
1789323083889992200,2.4459921875,-0.43535709381103516,-0.3463912010192871,0.7879829406738281
1789323083908842500,2.464842529296875,-0.8016276359558105,-0.4100461006164551,0.0377202033996582
1789323083927692800,2.48369287109375,-0.7056941986083984,-0.35835886001586914,-0.7879760265350342
1789323083946543000,2.502543212890625,0.013457775115966797,-1.1082181930541992,-0.6575045585632324
1789323083965393400,2.521393310546875,-0.6523513793945312,-0.2516603469848633,-0.4360928535461426
1789323083984243700,2.54024365234375,-2.239182233810425,2.2293081283569336,2.100278377532959
1789323084003094000,2.559093994140625,-0.7208585739135742,4.51442813873291,2.9900994300842285
1789323084021944300,2.5779443359375,1.025369644165039,7.138831615447998,1.7816671133041382
1789323084040794600,2.596794677734375,0.15406036376953125,5.715446472167969,-1.4517250061035156
1789323084059645000,2.61564501953125,-0.274716854095459,5.279844760894775,-8.08636474609375
1789323084078495200,2.6344951171875,2.0222911834716797,-7.7614946365356445,-8.638646125793457
1789323084097345500,2.653345458984375,3.5934090614318848,-6.487719535827637,-1.4855730533599854
1789323084116195800,2.67219580078125,0.3743319511413574,-2.7760744094848633,0.2856261730194092
1789323084135046100,2.691046142578125,1.0417771339416504,-2.1553406715393066,-0.2843596041202545
1789323084153896400,2.709896484375,0.8760232925415039,-3.4915542602539062,0.6812061667442322
1789323084172746800,2.728746826171875,1.0460562705993652,-7.224051475524902,-0.07632873952388763
1789323084191597000,2.74759716796875,0.14840173721313477,-4.162816047668457,2.1124138832092285
1789323084210447400,2.766447265625,0.8891372680664062,-4.607750415802002,0.9710574150085449
1789323084229297700,2.785297607421875,-1.1634454727172852,-2.963651180267334,1.7341067790985107
1789323084248148000,2.80414794921875,-1.600724220275879,-2.286288261413574,2.0208139419555664
1789323084266998300,2.822998291015625,-2.0524988174438477,-1.7652125358581543,1.3468523025512695
1789323084295273500,2.8512734375,-2.160442352294922,2.395785331726074,-1.8592637777328491
1789323084314123800,2.870123779296875,4.948768615722656,3.7317516803741455,-1.0449329614639282
1789323084332974300,2.888974365234375,-3.743999481201172,-2.602663040161133,-3.180056095123291
1789323084351824600,2.90782470703125,0.9798345565795898,-3.1192736625671387,-3.6466336250305176
1789323084370675000,2.926675048828125,-2.5985054969787598,-2.182363510131836,-3.573910713195801
1789323084389525200,2.945525146484375,-2.4837918281555176,2.907214641571045,-3.60866117477417
1789323084408375600,2.96437548828125,-2.485952377319336,0.07342743873596191,-0.2257857322692871
1789323084427225600,2.9832255859375,-5.317307949066162,-1.5706562995910645,-0.1774224042892456
1789323084446076200,3.002076171875,-7.481012344360352,1.2980365753173828,1.074604868888855
1789323084464926500,3.020926513671875,-5.963659286499023,0.289276123046875,1.1792871952056885
1789323084483776800,3.03977685546875,-2.0689220428466797,1.2690260410308838,4.93785285949707
1789323084502627000,3.058626953125,-1.1954259872436523,1.6552259922027588,2.416656017303467
1789323084521477400,3.077477294921875,-5.0414276123046875,-0.04559969902038574,1.0221019983291626
1789323084540327700,3.09632763671875,-3.184278964996338,-0.35277438163757324,0.2638082504272461
1789323084559178000,3.115177978515625,0.8034839630126953,0.007097721099853516,2.290846109390259
1789323084578028300,3.1340283203125,1.0143003463745117,0.20021915435791016,2.031662940979004
1789323084596878600,3.152878662109375,-1.8328313827514648,0.20386266708374023,-1.6536725759506226
1789323084615729000,3.17172900390625,-0.2905540466308594,-0.387195348739624,-1.0064796209335327
1789323084634579200,3.1905791015625,-2.0731492042541504,-0.3039858341217041,-3.35648775100708
1789323084653429500,3.209429443359375,-1.5216588973999023,0.8323512077331543,-0.9704065322875977
1789323084681705000,3.237705078125,-1.4560794830322266,2.5264089107513428,-0.7229334115982056
1789323084700555300,3.25655517578125,-1.3475627899169922,2.550157070159912,-0.07246577739715576
1789323084719405600,3.275405517578125,-1.8183941841125488,2.5122196674346924,0.25122272968292236
1789323084738256000,3.294255859375,-1.791067123413086,2.3583593368530273,0.19319689273834229
1789323084757106200,3.313106201171875,-0.351625919342041,2.5573601722717285,0.4602091312408447
1789323084775956500,3.33195654296875,-0.3398013114929199,2.6603641510009766,-1.3409861326217651
1789323084794806800,3.350806884765625,0.1495652198791504,1.1086158752441406,-1.252199649810791
1789323084813657000,3.369656982421875,-1.031388759613037,0.1005105972290039,-2.1429338455200195
1789323084832507400,3.38850732421875,1.15167236328125,-2.187575340270996,-2.198516368865967
1789323084851357700,3.407357666015625,1.3668079376220703,-4.6726813316345215,-2.3381881713867188
1789323084870208000,3.4262080078125,0.5881600379943848,-5.714343070983887,-2.5989062786102295
1789323084889058300,3.445058349609375,-0.8902316093444824,-5.112998962402344,-0.7281061410903931
1789323084907908600,3.46390869140625,-0.12456750869750977,-4.045801162719727,-0.5166497230529785
1789323084936184000,3.49218408203125,3.1410274505615234,-2.2844886779785156,1.0873843431472778
1789323084955034400,3.511034423828125,2.299468994140625,-1.8628110885620117,-0.3688162565231323
1789323084973884700,3.529884765625,-0.27170372009277344,-0.46941184997558594,0.2580066919326782
1789323084992735000,3.54873486328125,-0.8613383769989014,0.38041114807128906,-0.20113623142242432
1789323085011585300,3.567585205078125,1.2141432762145996,-0.15033721923828125,-0.908623456954956
1789323085030435600,3.586435546875,0.1678929328918457,-2.491048812866211,0.5271061658859253
1789323085049286000,3.605285888671875,1.3020548820495605,-2.5444164276123047,0.6495586633682251
1789323085068136200,3.62413623046875,2.3929028511047363,-1.0541305541992188,0.0349506139755249
1789323085086986500,3.642986572265625,0.2650260925292969,0.2834615707397461,1.0674505233764648
1789323085105836800,3.6618369140625,0.3234214782714844,0.12553977966308594,-1.1223032474517822
1789323085124687000,3.68068701171875,-1.883441686630249,-0.41737842559814453,-0.7073566913604736
1789323085143537400,3.699537353515625,-2.272063970565796,0.05582714080810547,0.113303542137146
1789323085162387700,3.7183876953125,-0.801628589630127,-0.11993980407714844,0.38861775398254395
1789323085181238000,3.737238037109375,1.602367877960205,-0.41029882431030273,-0.02620840072631836
1789323085200088300,3.75608837890625,3.424225330352783,-2.4724597930908203,-0.15373802185058594
1789323085218938600,3.774938720703125,3.7265429496765137,-2.799431324005127,-0.9659342765808105
1789323085237789000,3.793788818359375,1.6047987937927246,-2.1765427589416504,-1.726811408996582
1789323085256639200,3.81263916015625,-0.15904808044433594,-1.4030413627624512,-1.9081225395202637
1789323085275489500,3.831489501953125,-0.6927499771118164,0.3801283836364746,-1.4863436222076416
1789323085294339800,3.85033984375,-1.3962535858154297,0.8706183433532715,-0.1881546974182129
1789323085313190100,3.869190185546875,-0.3071584701538086,0.9520902633666992,0.2592904567718506
1789323085332040400,3.88804052734375,0.6127438545227051,-0.39104366302490234,-0.37777113914489746
1789323085350890800,3.906890869140625,1.247201919555664,-2.0633673667907715,-0.48972582817077637
1789323085369741000,3.925740966796875,1.1049342155456543,-2.5088062286376953,-0.7329268455505371
1789323085388591400,3.94459130859375,-0.18548870086669922,-2.1022210121154785,-0.22273468971252441
1789323085407441700,3.963441650390625,-0.9476461410522461,-1.0946102142333984,-0.4866032600402832
1789323085426292000,3.9822919921875,-0.9851112365722656,0.24792003631591797,-0.14771389961242676
1789323085445142300,4.001142333984375,0.3035106658935547,0.8861312866210938,0.4786386489868164
1789323085463992600,4.01999267578125,-0.3009672164916992,-0.5392894744873047,0.8418185710906982
1789323085482843100,4.038843017578125,-3.14973783493042,0.17897510528564453,-0.42081284523010254
1789323085501693400,4.057693359375,-2.3574438095092773,-0.1534407138824463,-1.1475200653076172
1789323085520543700,4.076543701171875,-2.208305835723877,-0.43506717681884766,0.5517282485961914
1789323085539394000,4.09539404296875,-4.218066215515137,-0.5439112186431885,1.1653969287872314
1789323085558244400,4.114244384765625,-3.0749402046203613,0.6810376644134521,3.365643262863159
1789323085577094700,4.1330947265625,-0.7489385604858398,1.3137377500534058,3.0841786861419678
1789323085595945000,4.151945068359375,-2.424332618713379,-0.03806734085083008,2.0746302604675293
1789323085614795300,4.170795166015625,-3.6246275901794434,0.15819382667541504,0.6511428356170654
1789323085633645600,4.1896455078125,-1.3085393905639648,-0.18709731101989746,1.0041797161102295
1789323085652496000,4.208495849609375,-0.9728546142578125,1.0324347019195557,2.1311192512512207
1789323085671346200,4.22734619140625,-3.377377510070801,1.6734700202941895,1.8156697750091553
1789323085690196500,4.246196533203125,-3.5715341567993164,1.1868233680725098,1.2213369607925415
1789323085709046800,4.265046875,-2.645914077758789,1.1305572986602783,1.308750033378601
1789323085727897000,4.28389697265625,-1.601017951965332,2.016031265258789,2.3317582607269287
1789323085746747400,4.302747314453125,0.04764747619628906,2.3271641731262207,1.9721859693527222
1789323085765597700,4.32159765625,-1.431807518005371,1.5535216331481934,1.2302906513214111
1789323085793873200,4.349873046875,0.37628793716430664,0.39492082595825195,0.27469706535339355
1789323085812723500,4.368723388671875,0.5756740570068359,-0.37052011489868164,0.06544971466064453
1789323085831573800,4.38757373046875,0.7835187911987305,-1.0603461265563965,-0.5566368103027344
1789323085850424000,4.406424072265625,0.3334813117980957,-2.3663759231567383,-0.14743304252624512
1789323085869274400,4.4252744140625,0.011317729949951172,-1.8965396881103516,0.0402982234954834
1789323085888124700,4.444124755859375,-0.05259227752685547,-1.2335658073425293,0.3037426471710205
1789323085906975000,4.46297509765625,0.9678163528442383,-1.2346701622009277,0.11696720123291016
1789323085925825300,4.4818251953125,0.8759365081787109,-2.2271647453308105,-0.747502326965332
1789323085944675600,4.500675537109375,-0.08158636093139648,-3.373793125152588,-1.0098910331726074
1789323085963526000,4.51952587890625,-0.8191699981689453,-2.844801902770996,-1.150956630706787
1789323085982376200,4.538376220703125,0.07764148712158203,-0.27550315856933594,0.09395217895507812
1789323086001226500,4.5572265625,2.359528064727783,1.6972126960754395,-0.15978312492370605
1789323086020076800,4.576076904296875,1.9617609977722168,0.8097376823425293,-0.10817790031433105
1789323086038927000,4.594927001953125,1.9482860565185547,-0.5827198028564453,-1.3868012428283691
1789323086057777400,4.61377734375,2.9255685806274414,-2.4880495071411133,-0.7930328845977783
1789323086076627700,4.632627685546875,3.8753085136413574,-5.391231536865234,0.038863420486450195
1789323086095478000,4.65147802734375,3.1164541244506836,-7.067848205566406,0.9399654865264893
1789323086114328300,4.670328369140625,3.036004066467285,-4.713127136230469,0.22988057136535645
1789323086133178600,4.6891787109375,1.318739414215088,-1.7497577667236328,0.08729672431945801
1789323086152029200,4.708029296875,-0.16366338729858398,-0.18556690216064453,-1.1008760929107666
1789323086170879500,4.72687939453125,-1.6240253448486328,1.0570411682128906,-0.5125102996826172
1789323086189729800,4.745729736328125,-1.4069557189941406,1.6930861473083496,-0.5444669723510742
1789323086208580000,4.764580078125,-1.0688567161560059,2.161719799041748,0.11013221740722656
1789323086227430400,4.783430419921875,-1.4911041259765625,1.5125479698181152,0.4902687072753906
1789323086246280700,4.80228076171875,-1.0952696800231934,0.42417192459106445,-0.04818105697631836
1789323086265131000,4.821131103515625,-0.7820014953613281,-0.7378993034362793,-0.3974771499633789
1789323086283981300,4.839981201171875,1.3455963134765625,-1.2938933372497559,-0.6935539245605469
1789323086302831600,4.85883154296875,2.1081418991088867,-2.585629463195801,-2.5248990058898926
1789323086321682000,4.877681884765625,1.4859862327575684,-3.2472267150878906,-3.474958658218384
1789323086340532200,4.8965322265625,0.7088046073913574,-1.6463284492492676,-4.171289920806885
1789323086359382500,4.915382568359375,0.3242931365966797,1.266594409942627,-0.5407044887542725
1789323086378232800,4.93423291015625,0.04044914245605469,1.0034809112548828,0.9543174505233765
1789323086397083100,4.953083251953125,-0.8731355667114258,-1.6110363006591797,-0.16558408737182617
1789323086415933400,4.971933349609375,-1.367361068725586,-2.072819709777832,-0.8851814270019531
1789323086434783700,4.99078369140625,-0.5057916641235352,-1.2971653938293457,-0.709618091583252
1789323086453634000,5.009634033203125,1.0253486633300781,-2.0398406982421875,-0.5745697021484375
1789323086472484400,5.028484375,0.5472211837768555,-1.1874732971191406,-0.30913567543029785
1789323086491334700,5.047334716796875,-2.5398001670837402,-0.5131163597106934,-0.19298601150512695
1789323086510185000,5.06618505859375,-4.927545547485352,2.9302964210510254,-0.05146908760070801
1789323086529035300,5.08503515625,-4.504335403442383,1.909940242767334,-0.71518874168396
1789323086547885600,5.103885498046875,-2.082425117492676,1.602317214012146,-0.17520403861999512
1789323086566736000,5.12273583984375,-0.8353643417358398,0.42470717430114746,-0.13031530380249023
1789323086585586200,5.141586181640625,-4.226256370544434,-0.4477536678314209,0.07380199432373047
1789323086604436500,5.1604365234375,-4.615554332733154,0.39787840843200684,0.8200657367706299
1789323086623286800,5.179286865234375,-2.097060203552246,1.328216314315796,2.5663886070251465
1789323086642137000,5.19813720703125,-1.6776199340820312,0.6087214946746826,1.0921391248703003
1789323086660987400,5.2169873046875,-3.9425411224365234,0.6154265403747559,-0.14987409114837646
1789323086679837700,5.235837646484375,-1.3600525856018066,0.13164448738098145,0.6972630023956299
1789323086698688000,5.25468798828125,-0.5235557556152344,-0.1248941421508789,1.2145531177520752
1789323086717538300,5.273538330078125,-3.8557510375976562,0.9082496166229248,0.026450634002685547
1789323086736388600,5.292388671875,-3.262150764465332,0.9893159866333008,0.6978447437286377
1789323086755239000,5.311239013671875,-2.594022274017334,1.3926866054534912,1.32075834274292
1789323086774089200,5.330089111328125,-3.6203980445861816,2.044351816177368,-0.7348852157592773
1789323086802364700,5.35836474609375,-1.3671293258666992,2.365767478942871,1.0315707921981812
1789323086821215000,5.377215087890625,-2.0119805335998535,2.878647804260254,0.7857663631439209
1789323086840065500,5.3960654296875,-0.2574934959411621,2.6843483448028564,0.6694092750549316
1789323086858915800,5.414915771484375,0.232421875,0.96435546875,0.352553129196167
1789323086877766000,5.433765869140625,0.2599935531616211,-0.37664079666137695,-0.566046953201294
1789323086896616200,5.4526162109375,-0.7010340690612793,-2.2566304206848145,-2.9636378288269043
1789323086915466500,5.471466552734375,-0.16605138778686523,-3.7329368591308594,-1.5084986686706543
1789323086934316800,5.49031689453125,-1.2540240287780762,-3.2905778884887695,-1.432988166809082
1789323086953167400,5.50916748046875,-0.8317017555236816,-2.685145854949951,0.1011505126953125
1789323086972017700,5.528017578125,1.1113128662109375,-1.3741908073425293,0.2512333393096924
1789323086990868000,5.546867919921875,2.8725175857543945,-0.6616606712341309,-0.29613327980041504
1789323087009718300,5.56571826171875,2.8858070373535156,-1.474217414855957,-1.8171250820159912
1789323087028568600,5.584568603515625,1.5368452072143555,-2.3486108779907227,-3.4181270599365234
1789323087047419000,5.6034189453125,0.9280319213867188,-1.9438390731811523,-2.4711151123046875
1789323087066269200,5.622269287109375,2.6227917671203613,-1.3858880996704102,-1.0169854164123535
1789323087085119500,5.641119384765625,1.4687395095825195,-2.0265588760375977,0.5520480871200562
1789323087103969800,5.6599697265625,1.389951229095459,-1.8246536254882812,0.5502965450286865
1789323087122820000,5.678820068359375,1.9511432647705078,-2.2783803939819336,0.04763007164001465
1789323087141670400,5.69767041015625,2.984384059906006,-3.4382762908935547,-0.3201115131378174
1789323087160520700,5.716520751953125,0.48916196823120117,-2.5172882080078125,1.5488218069076538
1789323087179371000,5.73537109375,-0.45411109924316406,0.16360759735107422,0.6444730758666992
1789323087198221300,5.75422119140625,-1.0506141185760498,1.096776008605957,0.8110959529876709
1789323087217071600,5.773071533203125,-0.601010799407959,1.1780915260314941,-0.019577980041503906
1789323087235922000,5.791921875,0.21288537979125977,0.21265697479248047,0.38183069229125977
1789323087254772200,5.810772216796875,2.364330291748047,-1.5153541564941406,0.13975214958190918
1789323087273622500,5.82962255859375,2.900907039642334,-2.982113838195801,-0.6326909065246582
1789323087292472800,5.848472900390625,2.191218376159668,-3.4176225662231445,-1.568697452545166
1789323087311323100,5.8673232421875,1.1443371772766113,-3.132308006286621,-0.4860115051269531
1789323087330173400,5.88617333984375,0.11768198013305664,-2.830622673034668,-0.21185755729675293
1789323087349023700,5.905023681640625,-0.7559127807617188,-2.3495593070983887,-0.510995626449585
1789323087367874000,5.9238740234375,0.03466939926147461,-1.4472951889038086,-0.5426445007324219
1789323087386724400,5.942724365234375,2.384345054626465,-0.2739291191101074,-0.03401446342468262
1789323087405574700,5.96157470703125,2.6750130653381348,-1.9933600425720215,-0.551037073135376
1789323087424425000,5.980425048828125,1.7200465202331543,-3.2751803398132324,-0.742335319519043
1789323087443275300,5.999275146484375,0.5580005645751953,-2.0226192474365234,-0.260418176651001
1789323087462125600,6.01812548828125,-0.5457315444946289,-1.5093975067138672,1.024878740310669
1789323087480976000,6.036975830078125,-2.8747048377990723,-0.2334141731262207,0.7537860870361328
1789323087499826200,6.055826171875,-3.3845553398132324,-0.43724966049194336,-0.49527406692504883
1789323087518676500,6.074676513671875,-3.4569177627563477,1.9717719554901123,-0.3930699825286865
1789323087537526800,6.09352685546875,-0.9209756851196289,1.4762053489685059,1.712563157081604
1789323087556377000,6.112377197265625,-1.6943469047546387,-0.20044660568237305,2.0549798011779785
1789323087575227400,6.131227294921875,-3.315484046936035,-0.09791755676269531,2.066645860671997
1789323087594077700,6.15007763671875,-4.71715784072876,0.9145464897155762,1.7949185371398926
1789323087612928000,6.168927978515625,-1.837231159210205,1.8200684785842896,3.5650529861450195
1789323087631778300,6.1877783203125,-4.986114501953125,1.24264395236969,0.9553120136260986
1789323087650628600,6.206628662109375,-2.1764559745788574,2.019716739654541,2.0017099380493164
1789323087669479000,6.22547900390625,-3.599715232849121,1.940596103668213,0.7007358074188232
1789323087688329200,6.2443291015625,-2.1910152435302734,1.7425079345703125,1.8083562850952148
1789323087707179500,6.263179443359375,-2.4238109588623047,0.27654314041137695,1.748572826385498
1789323087726029800,6.28202978515625,0.8579339981079102,0.05521416664123535,1.4600876569747925
1789323087744880000,6.300880126953125,-1.3635649681091309,-0.5972578525543213,0.036673545837402344
1789323087763730400,6.31973046875,-1.1975688934326172,-0.40877866744995117,-0.5394406318664551
1789323087782580700,6.338580810546875,-0.861478328704834,-0.04209566116333008,-0.028519153594970703
1789323087801431000,6.35743115234375,0.3590841293334961,0.5533604621887207,0.5958807468414307
1789323087820281300,6.37628125,-0.022272586822509766,0.9973788261413574,0.8428404331207275
1789323087839131600,6.395131591796875,0.5624375343322754,1.186295986175537,0.05265974998474121
1789323087857982000,6.41398193359375,0.06719017028808594,0.1942739486694336,-0.05892443656921387
1789323087876832300,6.432832275390625,-0.6887364387512207,-0.06220674514770508,-0.36855626106262207
1789323087895682600,6.4516826171875,-2.1287903785705566,-0.9122381210327148,-0.3235135078430176
1789323087914532900,6.470532958984375,-1.4741973876953125,-0.6517238616943359,0.22492289543151855
1789323087933383200,6.489383056640625,0.07364511489868164,-0.6026215553283691,0.5085744857788086
1789323087952233200,6.508233154296875,0.660672664642334,-0.69561767578125,0.008748292922973633
1789323087971083500,6.52708349609375,1.58671236038208,-1.9231672286987305,-1.2642443180084229
1789323087989934000,6.54593408203125,3.638735771179199,-4.080240249633789,-2.327388048171997
1789323088008784100,6.5647841796875,3.7269392013549805,-6.653940200805664,-2.9206438064575195
1789323088027634400,6.583634521484375,2.0559511184692383,-6.856855392456055,-1.5538687705993652
1789323088046484700,6.602484619140625,2.1087098121643066,-2.9043455123901367,0.6538112163543701
1789323088065335000,6.6213349609375,2.2246522903442383,-0.4187965393066406,0.429274320602417
1789323088084185300,6.640185302734375,0.8336219787597656,0.5517268180847168,0.5476913452148438
1789323088103035600,6.65903564453125,0.46527671813964844,1.5164456367492676,-0.07122564315795898
1789323088121886000,6.677885986328125,-0.33923959732055664,1.4006004333496094,0.16221857070922852
1789323088140736300,6.696736328125,0.1883530616760254,1.7407784461975098,-1.0257186889648438
1789323088159586600,6.715586669921875,-0.980522632598877,1.5137271881103516,-1.4844119548797607
1789323088178436900,6.734436767578125,-2.1032700538635254,1.442293643951416,0.4190828800201416
1789323088197287200,6.753287109375,-0.20576953887939453,0.8089780807495117,-0.8576028347015381
1789323088216137500,6.772137451171875,-0.1085653305053711,-0.6241202354431152,1.3766529560089111
1789323088234987800,6.79098779296875,1.9201369285583496,-2.7116928100585938,-0.16840600967407227
1789323088253838000,6.809838134765625,2.7352943420410156,-4.185962200164795,-0.10602378845214844
1789323088272688400,6.8286884765625,2.791048526763916,-4.159152984619141,-2.433986186981201
1789323088291538700,6.84753857421875,1.7070140838623047,-3.3359131813049316,-2.2671358585357666
1789323088310389000,6.866388916015625,0.5780854225158691,-2.651895046234131,-2.520242691040039
1789323088329239300,6.8852392578125,0.10289239883422852,-1.346574306488037,-2.1647613048553467
1789323088348089600,6.904089599609375,0.5169925689697266,-0.8539209365844727,-1.9542546272277832
1789323088366940000,6.92293994140625,0.9169192314147949,-0.9070076942443848,-2.4651994705200195
1789323088385790200,6.941790283203125,-0.3054962158203125,-1.4945530891418457,-2.1409780979156494
1789323088404640500,6.960640625,-2.0132341384887695,-1.1510944366455078,-1.5496916770935059
1789323088423490800,6.97949072265625,-4.073429107666016,-1.035390853881836,-0.27785611152648926
1789323088442341000,6.998341064453125,-3.304752826690674,2.2250301837921143,0.9416331052780151
1789323088461191200,7.017191162109375,-1.6536626815795898,0.10033988952636719,1.4253950119018555
1789323088480041700,7.036041748046875,-1.6766853332519531,-0.7942633628845215,1.1318968534469604
1789323088498892000,7.05489208984375,-1.9939837455749512,0.8682973384857178,0.4117070436477661
1789323088517742000,7.0737421875,-1.6793293952941895,-1.3252792358398438,-1.8576035499572754
1789323088536592400,7.09259228515625,-4.234142780303955,-0.36827850341796875,0.6564791202545166
1789323088555442700,7.111442626953125,-2.777285099029541,1.534472107887268,1.0940719842910767
1789323088574293000,7.13029296875,-2.2729129791259766,-0.24155664443969727,0.8579395413398743
1789323088593143300,7.149143310546875,-3.2925047874450684,1.4051860570907593,1.0088715553283691
1789323088611993600,7.16799365234375,-4.999266147613525,0.9023164510726929,0.38502800464630127
1789323088630844000,7.186843994140625,-1.5114736557006836,0.21344876289367676,1.5318806171417236
1789323088649694200,7.205694091796875,-5.30026912689209,0.2477738857269287,0.3098456859588623
1789323088668544500,7.22454443359375,-3.2465176582336426,0.8112850189208984,1.132689356803894
1789323088687394800,7.243394775390625,-4.692434787750244,1.172184944152832,0.9881060123443604
1789323088706245000,7.2622451171875,-3.9265027046203613,1.708840250968933,2.691729784011841
1789323088725095400,7.281095458984375,-1.3618154525756836,2.7208070755004883,2.348278522491455
1789323088743945700,7.29994580078125,-1.8972101211547852,2.4953527450561523,1.7756186723709106
1789323088762796000,7.318796142578125,-0.19788742065429688,2.7136354446411133,0.5513942241668701
1789323088781646300,7.337646240234375,-2.3161087036132812,1.5406699180603027,-0.9524750709533691
1789323088800496600,7.35649658203125,-0.14651966094970703,0.617377758026123,-0.1522352695465088
1789323088819347000,7.375346923828125,0.4511580467224121,-0.970850944519043,-0.4418904781341553
1789323088838197200,7.394197265625,0.4911079406738281,-3.3299856185913086,-2.844614267349243
1789323088857047600,7.413047607421875,-0.5061659812927246,-4.453811168670654,-2.223893642425537
1789323088875897900,7.43189794921875,-0.8764100074768066,-2.970604419708252,-1.1164155006408691
1789323088894748000,7.450747802734375,-0.401888370513916,-1.7975916862487793,-0.31326985359191895
1789323088913598200,7.46959814453125,0.8617420196533203,-1.4044623374938965,0.017821073532104492
1789323088932448500,7.488448486328125,0.4962801933288574,-1.0480918884277344,0.09641242027282715
1789323088951298800,7.507298828125,0.9056534767150879,-0.5043172836303711,-1.5857758522033691
1789323088970149000,7.526149169921875,0.8722081184387207,-0.3761911392211914,-0.8948943614959717
1789323088988999400,7.54499951171875,1.801619052886963,-0.1690206527709961,-1.6191177368164062
1789323089007849700,7.563849609375,2.079397201538086,-0.6195402145385742,-0.9191689491271973
1789323089026700000,7.582699951171875,1.9398870468139648,-1.7847261428833008,0.029391765594482422
1789323089045550300,7.60155029296875,2.680880069732666,-2.8989572525024414,0.8022791147232056
1789323089064400600,7.620400634765625,3.1279149055480957,-3.7188310623168945,0.2061922550201416
1789323089083251000,7.6392509765625,3.0790762901306152,-2.4341564178466797,-0.4477109909057617
1789323089102101200,7.658101318359375,2.356882095336914,-0.9899864196777344,-0.961390495300293
1789323089120951600,7.67695166015625,0.7820839881896973,0.4343380928039551,-0.30874061584472656
1789323089139801600,7.695801513671875,0.7398576736450195,1.1396551132202148,-1.3999457359313965
1789323089158652000,7.71465185546875,0.7240982055664062,-0.6718530654907227,-0.5570673942565918
1789323089177502200,7.733502197265625,1.639927864074707,-3.2016515731811523,-0.8892538547515869
1789323089196352500,7.7523525390625,0.8356904983520508,-4.2248029708862305,-0.30832552909851074
1789323089215202800,7.771202880859375,0.8429040908813477,-3.127302646636963,-0.21961545944213867
1789323089234053000,7.79005322265625,1.2245416641235352,-2.7622485160827637,-0.3837306499481201
1789323089252903400,7.8089033203125,1.0249085426330566,-2.4612298011779785,-0.5724892616271973
1789323089271753700,7.827753662109375,-0.011797428131103516,-1.7004985809326172,-1.6071569919586182
1789323089290604000,7.84660400390625,-1.5625572204589844,-0.6656951904296875,-1.918217658996582
1789323089309454300,7.865454345703125,-1.7861342430114746,2.5966033935546875,0.7008469104766846
1789323089328304600,7.8843046875,-2.209230422973633,4.057609558105469,-0.32427167892456055
1789323089347155000,7.903155029296875,-1.8603439331054688,2.5295653343200684,0.6946885585784912
1789323089366005000,7.9220048828125,-1.2396059036254883,1.325124740600586,0.3296217918395996
1789323089384855300,7.940855224609375,0.13124608993530273,0.05597972869873047,0.6601598262786865
1789323089403705600,7.95970556640625,0.8755817413330078,-1.8156819343566895,1.4378628730773926
1789323089422556000,7.978555908203125,1.1083450317382812,-0.06734991073608398,0.17261624336242676
1789323089441406200,7.99740625,3.7250471115112305,-1.8450441360473633,-3.446453809738159
1789323089460256500,8.016256591796875,4.490089416503906,-3.967522382736206,-3.5938150882720947
1789323089479106800,8.03510693359375,4.416170120239258,-3.6353793144226074,-1.7197575569152832
1789323089497957000,8.05395703125,-2.161782741546631,-4.762068748474121,-1.2670798301696777
1789323089516807400,8.072807373046874,-5.366809368133545,-3.9378297328948975,-0.6957387924194336
1789323089535657700,8.09165771484375,-5.761876583099365,-0.06519484519958496,1.5806925296783447
1789323089554508000,8.110508056640626,-2.077322006225586,1.4715617895126343,4.596950054168701
1789323089573358300,8.1293583984375,-5.344841480255127,-0.7053732872009277,2.235273599624634
1789323089592208400,8.14820849609375,-6.3740739822387695,2.155655860900879,4.206053733825684
1789323089611058700,8.16705859375,-6.436229705810547,2.9791696071624756,1.9200918674468994
1789323089629909000,8.185908935546875,-5.7806396484375,3.94735050201416,6.958867073059082
1789323089648759300,8.20475927734375,-2.9636178016662598,4.79082727432251,4.195768356323242
1789323089667609600,8.223609619140625,-4.146275520324707,4.638391971588135,2.3149194717407227
1789323089686460000,8.2424599609375,-5.52900505065918,4.372729301452637,2.5664117336273193
1789323089705310200,8.261310302734374,-1.0205001831054688,3.6248385906219482,1.4530045986175537
1789323089724160500,8.280160400390624,-1.0145564079284668,1.8975868225097656,-1.005192518234253
1789323089743010800,8.2990107421875,0.7405109405517578,0.3521761894226074,1.0563347339630127
1789323089761860900,8.31786083984375,-0.11493825912475586,-1.2983169555664062,-1.7873547077178955
1789323089780711400,8.33671142578125,-0.5027837753295898,-4.782565116882324,-2.333407402038574
1789323089799561500,8.3555615234375,3.972479820251465,-4.725665092468262,-1.673391342163086
1789323089818411800,8.374411865234375,2.765000343322754,-3.00192928314209,-2.7468645572662354
1789323089837262000,8.393261962890625,2.9769649505615234,-2.659489631652832,-2.9332735538482666
1789323089856112400,8.4121123046875,0.5114326477050781,-3.374058723449707,-2.3896965980529785
1789323089874962700,8.430962646484375,1.8323378562927246,-4.811459541320801,-1.0487048625946045
1789323089893813000,8.44981298828125,0.28138160705566406,-5.059525966644287,1.2842730283737183
1789323089912663300,8.468663330078124,-0.7051053047180176,-2.094670295715332,1.843281626701355
1789323089931513600,8.487513671875,-0.33422327041625977,1.1390037536621094,1.8458881378173828
1789323089950363600,8.50636376953125,-0.8158295154571533,3.9292874336242676,1.2601460218429565
1789323089969214000,8.5252138671875,1.1304774284362793,5.643333435058594,-1.1629595756530762
1789323089988064300,8.544064208984375,0.037442684173583984,5.369866847991943,-1.0926144123077393
1789323090006914600,8.56291455078125,0.48283863067626953,3.501962184906006,-1.3569867610931396
1789323090025764900,8.581764892578125,5.009397506713867,-0.4855623245239258,-2.0906925201416016
1789323090044615200,8.600615234375,4.541809558868408,-9.141096115112305,-3.8065290451049805
1789323090063465500,8.619465576171875,3.1563596725463867,-11.932954788208008,-1.2452406883239746
1789323090082315800,8.638315673828124,2.9496355056762695,-4.420477867126465,0.258176326751709
1789323090101165800,8.657165771484374,0.43243932723999023,1.3564629554748535,0.9105420112609863
1789323090120016100,8.67601611328125,-1.1221394538879395,1.514643669128418,-1.0627756118774414
1789323090138866400,8.694866455078126,-1.6376700401306152,0.36110496520996094,0.195692777633667
1789323090157716700,8.713716796875,1.2469964027404785,-0.9431815147399902,0.26367902755737305
1789323090176567000,8.732567138671875,1.5591626167297363,-2.325307846069336,0.6021807193756104
1789323090195417300,8.751417236328125,0.5170130729675293,-1.4278554916381836,0.162153959274292
1789323090214267600,8.770267578125,-0.07674074172973633,-0.4134092330932617,0.4683339595794678
1789323090233117700,8.78911767578125,-1.2773566246032715,0.4712514877319336,0.25218772888183594
1789323090251968000,8.807968017578125,-3.259901285171509,1.2309379577636719,0.1834702491760254
1789323090270818300,8.826818359375,-1.6194648742675781,2.1476378440856934,-0.12626981735229492
1789323090299093800,8.85509375,5.328887939453125,0.13334178924560547,-2.2959578037261963
1789323090317944000,8.873944091796876,4.539305686950684,-5.338071346282959,-3.8872625827789307
1789323090336794400,8.89279443359375,2.2044873237609863,-6.230762481689453,-4.951082229614258
1789323090355644700,8.911644775390625,-0.5403261184692383,-2.727471351623535,-0.7275981903076172
1789323090374494700,8.93049462890625,-2.500962734222412,-1.6981163024902344,-0.9419770240783691
1789323090393345000,8.949344970703125,-3.474821090698242,-0.43579912185668945,1.0092597007751465
1789323090412195300,8.9681953125,-3.367218494415283,3.254474639892578,0.5455367565155029
1789323090431045600,8.987045654296875,0.3580303192138672,2.011371374130249,1.5763648748397827
1789323090449896000,9.00589599609375,-0.45580482482910156,-0.05742359161376953,0.010998249053955078
1789323090468746200,9.024746337890624,-1.3538994789123535,-0.7414965629577637,-0.24760794639587402
1789323090487596500,9.043596435546876,-4.187526702880859,-0.8471088409423828,-0.8484845161437988
1789323090506446600,9.062446533203126,-4.199289798736572,0.37127017974853516,1.6469228267669678
1789323090525297000,9.081296875,-3.4773483276367188,0.651580810546875,2.264812469482422
1789323090544147200,9.100147216796875,-2.6538844108581543,1.0758665800094604,2.8712735176086426
1789323090562997500,9.11899755859375,-3.3544154167175293,1.365216612815857,1.6081244945526123
1789323090581847800,9.137847900390625,-3.1842756271362305,1.091269612312317,2.551239252090454
1789323090600698000,9.156697998046875,-2.0428409576416016,1.6823402643203735,1.7536962032318115
1789323090619548200,9.175548095703125,-4.41681432723999,1.5602619647979736,1.0222787857055664
1789323090638398500,9.1943984375,-3.13421630859375,2.170508861541748,2.0615792274475098
1789323090657248800,9.213248779296874,-3.5508036613464355,1.409320592880249,1.458870768547058
1789323090676099000,9.23209912109375,-1.692087173461914,1.2346413135528564,2.2585182189941406
1789323090694949400,9.250949462890626,-1.721010684967041,1.304480791091919,0.5646762847900391
1789323090713799700,9.269799560546875,-1.9716877937316895,1.2744169235229492,0.13877272605895996
1789323090732650000,9.28864990234375,0.33754825592041016,1.6630795001983643,0.30634188652038574
1789323090751500000,9.3075,-0.12116289138793945,2.195720911026001,-0.8389425277709961
1789323090770350300,9.326350341796875,-1.1740164756774902,0.8781309127807617,-0.822324275970459
1789323090798625800,9.354625732421875,1.2717413902282715,-2.6187009811401367,0.09628653526306152
1789323090817476000,9.37347607421875,1.0127081871032715,-4.6824774742126465,-1.3171262741088867
1789323090836326400,9.392326416015624,-0.949739933013916,-6.309027194976807,-2.329202651977539
1789323090855176400,9.411176513671874,-1.3851590156555176,-5.286142826080322,-1.2115488052368164
1789323090874026800,9.43002685546875,1.098128318786621,-2.3046388626098633,-1.2603216171264648
1789323090892877000,9.448876953125,1.0444936752319336,1.1827521324157715,0.0018222332000732422
1789323090911727400,9.467727294921875,1.413578987121582,2.6244759559631348,-1.1497323513031006
1789323090930577700,9.48657763671875,2.832634925842285,1.9466915130615234,-2.1952741146087646
1789323090949428000,9.505427978515625,3.481517791748047,0.02707672119140625,-2.212982654571533
1789323090968278000,9.524278076171875,2.307297706604004,-3.5047473907470703,-2.468205213546753
1789323090987128300,9.54312841796875,-0.08436107635498047,-3.9708337783813477,-0.6898562908172607
1789323091005978600,9.561978515625,1.8235578536987305,-0.9514751434326172,0.7259049415588379
1789323091024829000,9.580828857421874,1.3095402717590332,-0.7191371917724609,1.6121681928634644
1789323091043679200,9.59967919921875,1.7932219505310059,-1.8141069412231445,-0.7790720462799072
1789323091062529300,9.618529296875,2.123918056488037,-3.1774654388427734,-1.1367409229278564
1789323091081379600,9.637379638671876,2.6682777404785156,-4.112123489379883,-1.9877336025238037
1789323091100230000,9.65622998046875,0.9638657569885254,-2.8434510231018066,-0.6939570903778076
1789323091119080200,9.675080078125,0.9761548042297363,-1.1555428504943848,-0.15259623527526855
1789323091137930500,9.693930419921875,0.04498863220214844,0.1422262191772461,0.25501298904418945
1789323091156780500,9.712780517578125,-1.437882900238037,0.37625694274902344,0.6669127941131592
1789323091175630800,9.731630859375,-1.4741921424865723,0.6700034141540527,0.7502686977386475
1789323091194481200,9.750481201171874,-1.322606086730957,0.8798079490661621,-0.24141168594360352
1789323091213331500,9.76933154296875,-0.7282748222351074,1.3735694885253906,-0.17171859741210938
1789323091232181800,9.788181640625,0.801844596862793,1.5391302108764648,-0.6182050704956055
1789323091251031800,9.80703173828125,1.4215354919433594,0.28988218307495117,-1.0096237659454346
1789323091269882000,9.825882080078125,1.9528999328613281,-1.234964370727539,-1.5187327861785889
1789323091298157600,9.854157470703125,0.32393407821655273,-3.265044689178467,-2.7597708702087402
1789323091317008000,9.8730078125,-0.41805219650268555,-2.951727867126465,-2.5084621906280518
1789323091335858200,9.891858154296875,-0.6024789810180664,-2.0737695693969727,-0.7198812961578369
1789323091354708200,9.910708251953125,1.1572332382202148,-1.8877482414245605,0.2948758602142334
1789323091373558500,9.92955859375,0.22512149810791016,-0.8560123443603516,0.2076716423034668
1789323091392408800,9.948408935546874,-1.8664612770080566,-0.7446746826171875,0.2122175693511963
1789323091411259100,9.967259033203124,-3.018876552581787,0.7365007400512695,0.8793144226074219
1789323091430109400,9.986109375,-1.5131034851074219,1.0205395221710205,0.5101325511932373
1789323091448959500,10.00495947265625,-3.258556842803955,-0.07140493392944336,-0.5982503890991211
1789323091477235000,10.03323486328125,-4.066431522369385,1.1066076755523682,2.131336212158203
1789323091496085200,10.052085205078125,-3.755329132080078,1.3071589469909668,2.9124703407287598
1789323091514935600,10.070935546875,-2.4150781631469727,1.9404886960983276,2.353097915649414
1789323091533785600,10.08978564453125,-2.789292335510254,1.0817046165466309,1.961235523223877
1789323091552636000,10.108635986328125,-4.255836009979248,0.05896878242492676,0.09171009063720703
1789323091571486200,10.127486328125,-4.100231647491455,1.1749672889709473,2.0326409339904785
1789323091590336500,10.14633642578125,-2.9381895065307617,1.3817555904388428,2.1201233863830566
1789323091609186600,10.1651865234375,-0.8203420639038086,1.379363775253296,3.877434492111206
1789323091628036900,10.184036865234376,-2.930765151977539,1.8338494300842285,0.766338586807251
1789323091646887200,10.20288720703125,-4.522461891174316,1.7191243171691895,1.3774625062942505
1789323091665737500,10.221737548828125,1.8149919509887695,2.5506386756896973,2.164367198944092
1789323091684587800,10.240587890625,0.6647710800170898,2.3778645992279053,0.6451447010040283
1789323091703437800,10.259437744140625,-1.0220513343811035,1.3775854110717773,0.05662870407104492
1789323091722288000,10.2782880859375,0.4469633102416992,-0.9847283363342285,-1.7311272621154785
1789323091741138400,10.297138427734374,1.0067343711853027,-4.164286136627197,-1.3180654048919678
1789323091759988700,10.31598876953125,-0.2507147789001465,-4.725564002990723,-2.2298412322998047
1789323091778838800,10.3348388671875,-1.9563989639282227,-3.6852312088012695,-0.802833080291748
1789323091797689000,10.353689208984376,0.230499267578125,-1.4761114120483398,-0.16976380348205566
1789323091816539400,10.372539306640626,0.6050033569335938,-0.1467742919921875,0.27172231674194336
1789323091835389700,10.3913896484375,1.1955304145812988,1.4412169456481934,-0.7412793636322021
1789323091854239700,10.41023974609375,1.2205796241760254,1.4072365760803223,-1.0033233165740967
1789323091873090000,10.429090087890625,1.2872014045715332,-0.28792285919189453,-1.5309185981750488
1789323091891940400,10.4479404296875,1.9277806282043457,-2.8758363723754883,-2.0096547603607178
1789323091910790700,10.466790771484375,1.9764137268066406,-4.955018043518066,-1.2492311000823975
1789323091929640700,10.485640625,2.373335361480713,-4.15732479095459,-0.9768538475036621
1789323091948491000,10.504490966796874,2.4431357383728027,-1.8000602722167969,0.04570269584655762
1789323091967341300,10.52334130859375,1.3659939765930176,0.07367897033691406,0.23244333267211914
1789323091986191600,10.542191650390626,1.4895133972167969,0.32055091857910156,0.3856651782989502
1789323092005041700,10.561041748046875,2.592935085296631,-0.27152156829833984,-1.1876277923583984
1789323092023892000,10.57989208984375,2.230773448944092,-2.176384925842285,-0.5101332664489746
1789323092042742300,10.5987421875,1.6639413833618164,-2.290696144104004,-0.13045787811279297
1789323092061592600,10.617592529296875,0.2591209411621094,-0.5268888473510742,0.5636260509490967
1789323092080442600,10.636442626953125,0.869011402130127,0.1527543067932129,-0.6795704364776611
1789323092099293000,10.65529296875,0.22180938720703125,-1.0364947319030762,-0.5754473209381104
1789323092118143200,10.674143310546874,0.2795219421386719,-2.136791229248047,-0.7421596050262451
1789323092136993500,10.69299365234375,0.5339794158935547,-1.657576560974121,-0.6724250316619873
1789323092155843600,10.711843505859376,1.9476823806762695,-1.5043673515319824,-1.477778434753418
1789323092174694000,10.73069384765625,1.5741796493530273,-2.1085433959960938,-1.235661506652832
1789323092193544200,10.749544189453125,0.8860139846801758,-2.151895523071289,-2.0449769496917725
1789323092212394500,10.76839453125,-0.08625984191894531,-1.5358376502990723,-1.8436243534088135
1789323092231244500,10.78724462890625,-0.3057422637939453,-0.5262908935546875,-1.2779157161712646
1789323092250094800,10.8060947265625,-1.1678581237792969,-1.237410068511963,-0.8074202537536621
1789323092268945200,10.824945068359375,-0.32035017013549805,-0.8547945022583008,-0.31412386894226074
1789323092297220400,10.853220458984374,0.20718145370483398,-1.310288429260254,-0.48506665229797363
1789323092316070700,10.872070556640624,-0.13190746307373047,-2.3471055030822754,-0.767200231552124
1789323092334921000,10.8909208984375,-2.7384958267211914,-0.24715232849121094,1.3958454132080078
1789323092353771300,10.909771240234376,-4.077409744262695,1.0684640407562256,0.6783027648925781
1789323092372621300,10.928621337890625,-2.357414722442627,1.266658067703247,0.8681657314300537
1789323092391471600,10.9474716796875,-1.7996931076049805,0.8456611633300781,-0.18305397033691406
1789323092419746800,10.975746826171875,-3.4667844772338867,-0.01485753059387207,1.0581941604614258
1789323092438597000,10.99459716796875,-2.39243745803833,-0.529289960861206,3.394090175628662
1789323092457447400,11.013447509765625,-2.4161672592163086,0.15183591842651367,2.0518898963928223
1789323092476297500,11.03229736328125,-2.5700063705444336,1.0366365909576416,1.619837999343872
1789323092495147800,11.051147705078124,-2.5311217308044434,1.734706997871399,1.7553300857543945
1789323092513998000,11.069998046875,-3.474519729614258,1.2884858846664429,0.3192918300628662
1789323092532848400,11.088848388671876,-1.413003921508789,1.6275525093078613,2.2063307762145996
1789323092551698400,11.107698486328125,-3.492981433868408,0.9181396961212158,0.26900219917297363
1789323092570548700,11.126548828125,-2.9024906158447266,1.0805716514587402,1.943464994430542
1789323092589399000,11.14539892578125,-2.6472816467285156,1.041820764541626,1.7637001276016235
1789323092608249000,11.1642490234375,-1.9207258224487305,0.5583920478820801,1.8521307706832886
1789323092627099400,11.183099365234375,-2.4383373260498047,0.9875888824462891,1.072364091873169
1789323092645949700,11.20194970703125,-1.6967639923095703,1.5481407642364502,0.7831761837005615
1789323092664800000,11.220800048828124,-0.9621663093566895,2.177215576171875,0.6414380073547363
1789323092683650000,11.239650146484376,-0.9487504959106445,1.724264144897461,0.53938889503479
1789323092702500400,11.258500244140626,1.7490534782409668,0.22187423706054688,-0.4190080165863037
1789323092721350700,11.2773505859375,0.8074216842651367,-3.2641191482543945,-1.7371940612792969
1789323092740200700,11.29620068359375,-0.31879663467407227,-6.279019832611084,-3.3394460678100586
1789323092759051000,11.315051025390625,-2.1183128356933594,-6.315330982208252,-2.19333553314209
1789323092777901300,11.3339013671875,-0.702824592590332,-3.9266719818115234,-0.5133731365203857
1789323092796751400,11.35275146484375,1.461726188659668,-0.3029928207397461,0.9413152933120728
1789323092815601700,11.3716015625,3.16575288772583,0.9255380630493164,-1.0181686878204346
1789323092834452000,11.390451904296874,2.813844680786133,-0.32598304748535156,-2.786083698272705
1789323092853302000,11.409302001953124,2.8763208389282227,-1.2237024307250977,-3.418583393096924
1789323092872152300,11.42815234375,2.6423816680908203,-1.9075756072998047,-2.5332529544830322
1789323092891002600,11.447002685546876,1.7439851760864258,-2.7271957397460938,-0.5023097991943359
1789323092909853000,11.46585302734375,0.5846800804138184,-1.8678369522094727,0.13616156578063965
1789323092928703000,11.484702880859375,1.246117115020752,0.383392333984375,0.3009033203125
1789323092947553300,11.50355322265625,0.889739990234375,1.1384320259094238,-0.021776199340820312
1789323092966403600,11.522403564453125,1.3134422302246094,0.42299842834472656,-0.2049717903137207
1789323092985253600,11.541253662109375,1.3652868270874023,0.2013568878173828,-0.6181161403656006
1789323093004104000,11.56010400390625,0.4178500175476074,0.37081336975097656,0.3083467483520508
1789323093022954000,11.5789541015625,0.7526154518127441,0.5442557334899902,-0.8712239265441895
1789323093041804300,11.59780419921875,0.0007028579711914062,-0.13599491119384766,0.017565011978149414
1789323093060654600,11.616654541015626,0.560544490814209,-0.8482155799865723,-0.5326530933380127
1789323093079505000,11.6355048828125,0.27442312240600586,-1.5063958168029785,-0.6368875503540039
1789323093098355000,11.65435498046875,1.0768089294433594,-1.5863299369812012,-2.0563242435455322
1789323093117205200,11.673205322265625,1.3714995384216309,-2.713585376739502,-1.617250919342041
1789323093136055300,11.69205517578125,1.7419896125793457,-4.634763240814209,-1.5590932369232178
1789323093173756000,11.729755859375,0.47454357147216797,-3.3634800910949707,-1.809999704360962
1789323093192606000,11.74860595703125,-0.13932371139526367,-1.2250628471374512,-1.7662909030914307
1789323093211456300,11.767456298828124,-0.7991237640380859,-0.021990299224853516,-1.2390992641448975
1789323093230306600,11.786306640625,-0.5696649551391602,0.5422148704528809,-1.037003993988037
1789323093249156600,11.805156494140626,-1.503692626953125,-0.17200946807861328,-0.3249325752258301
1789323093268007000,11.8240068359375,-1.8502445220947266,-0.31324291229248047,0.09713387489318848
1789323093296282000,11.8522822265625,-2.027449607849121,0.8543062210083008,2.2865257263183594
1789323093315132400,11.87113232421875,-2.2786660194396973,-0.14890050888061523,1.5546772480010986
1789323093333982700,11.889982666015625,-3.5388665199279785,-0.05704212188720703,-0.41284990310668945
1789323093352832800,11.908832763671874,-4.035630702972412,0.5245621204376221,-0.04249429702758789
1789323093371683000,11.92768310546875,-1.9214086532592773,3.335035562515259,1.9926633834838867
1789323093390533400,11.946533447265624,-0.9150686264038086,1.577962040901184,1.306665301322937
1789323093409383400,11.965383544921876,-1.6160988807678223,0.5709164142608643,2.2129132747650146
1789323093428233700,11.984233642578126,-2.06148624420166,0.27185583114624023,0.7672371864318848
1789323093447083800,12.003083740234375,-1.4081134796142578,-0.4735140800476074,0.3246574401855469
1789323093465934000,12.02193408203125,-1.6188807487487793,-0.8763740062713623,0.37999439239501953
1789323093484784400,12.040784423828125,-3.7228665351867676,0.14281535148620605,-0.5694360733032227
1789323093503634700,12.059634765625,-1.4382152557373047,0.7129292488098145,2.3104894161224365
1789323093522484700,12.078484619140625,-3.013461112976074,1.2825100421905518,0.17663288116455078
1789323093541335000,12.0973349609375,-2.676487922668457,0.9949467182159424,2.6496143341064453
1789323093560185000,12.11618505859375,-3.293051242828369,1.8836500644683838,1.7543309926986694
1789323093579035400,12.135035400390626,-3.5923452377319336,2.1065359115600586,1.8803049325942993
1789323093597885700,12.1538857421875,-1.5300512313842773,2.5912373065948486,2.5792744159698486
1789323093616735700,12.17273583984375,-3.664937973022461,2.579293727874756,1.8390775918960571
1789323093635586000,12.1915859375,-1.6345782279968262,2.9427177906036377,1.669921636581421
1789323093654436000,12.21043603515625,-2.2416038513183594,2.4880549907684326,0.1386089324951172
1789323093673286400,12.229286376953125,1.0103487968444824,0.8065714836120605,0.24244976043701172
1789323093720412000,12.276411865234374,0.729985237121582,-4.06886100769043,-2.423517942428589
1789323093739262200,12.29526220703125,0.5734834671020508,-4.94472074508667,-3.7192814350128174
1789323093767537400,12.323537353515626,0.8118281364440918,-5.012345314025879,-2.0635628700256348
1789323093795812900,12.351812744140625,3.2852783203125,-2.3842077255249023,-0.38034868240356445
1789323093814663000,12.370662841796875,5.849668502807617,-2.9179515838623047,-0.8916566371917725
1789323093833513200,12.38951318359375,3.3775224685668945,-3.292933464050293,-2.3320670127868652
1789323093852363300,12.40836328125,2.5117831230163574,-1.2378349304199219,-2.072570323944092
1789323093871213600,12.427213623046875,1.526839017868042,1.178030014038086,-1.0072555541992188
1789323093890064000,12.44606396484375,2.396637201309204,0.8608493804931641,-0.18876194953918457
1789323093908914000,12.464913818359374,1.024444580078125,0.01673126220703125,-0.2172868251800537
1789323093927764200,12.48376416015625,1.2921900749206543,-0.38253021240234375,0.22171688079833984
1789323093946614300,12.5026142578125,2.140395164489746,-0.5857992172241211,-0.767958402633667
1789323093965464600,12.521464599609375,0.9941706657409668,-0.5167140960693359,0.0005135536193847656
1789323093984314600,12.540314697265625,0.12194204330444336,-0.3100137710571289,-0.30478549003601074
1789323094003165000,12.5591650390625,-0.5234155654907227,-0.3498258590698242,1.0164270401000977
1789323094022015000,12.578014892578125,0.8943095207214355,-0.6812691688537598,0.4437236785888672
1789323094040865300,12.596865234375,0.6794447898864746,-2.344115734100342,0.6414620876312256
1789323094059715600,12.615715576171874,0.8377432823181152,-2.813624382019043,-0.30847859382629395
1789323094078565600,12.634565673828124,1.9514336585998535,-1.8798909187316895,-2.080873966217041
1789323094097416000,12.653416015625,2.2457470893859863,-2.4371166229248047,-2.3295764923095703
1789323094116266000,12.672265869140626,2.2817435264587402,-2.2498221397399902,-2.5667200088500977
1789323094135116300,12.6911162109375,1.9028186798095703,-2.6063971519470215,-1.7844789028167725
1789323094153966300,12.70996630859375,0.8696608543395996,-2.4317874908447266,-1.9083049297332764
1789323094172816600,12.728816650390625,-0.3342099189758301,-2.0756940841674805,-1.8301994800567627
1789323094191667000,12.7476669921875,-0.34907102584838867,-1.2578096389770508,-1.562901258468628
1789323094210517000,12.76651708984375,-0.6622133255004883,-0.8386869430541992,-1.846787691116333
1789323094229367300,12.7853671875,-0.9845561981201172,-0.639462947845459,-0.6289877891540527
1789323094248217300,12.80421728515625,-2.328477382659912,0.6151363849639893,0.3956260681152344
1789323094267067600,12.823067626953126,-3.166947841644287,1.3485960960388184,1.9553375244140625
1789323094285917700,12.841917724609376,-3.1830554008483887,1.8309073448181152,1.6272276639938354
1789323094304768000,12.86076806640625,-1.9975037574768066,0.4889709949493408,0.40746474266052246
1789323094323618000,12.8796181640625,-4.339446544647217,-0.23566436767578125,0.861047625541687
1789323094342468400,12.89846826171875,-4.6153764724731445,0.2657661437988281,2.051669120788574
1789323094361318700,12.917318603515625,-3.299795150756836,0.011044740676879883,3.2680020332336426
1789323094380168700,12.936168701171875,-1.7615432739257812,1.452109694480896,2.533053398132324
1789323094399019000,12.95501904296875,-2.5857105255126953,0.6707653999328613,1.9061325788497925
1789323094417869000,12.973869140625,-2.198370933532715,1.344964623451233,0.8364189863204956
1789323094436719400,12.99271923828125,-2.970208168029785,1.1826057434082031,0.7742345333099365
1789323094464994600,13.02099462890625,-3.5033822059631348,0.9872267246246338,0.36600732803344727
1789323094483844900,13.039844970703125,-2.549271583557129,0.5748705863952637,0.9777102470397949
1789323094502695000,13.05869482421875,-4.019700050354004,0.5090479850769043,1.2036242485046387
1789323094521545200,13.077545166015625,-1.2311034202575684,1.291121244430542,2.3204426765441895
1789323094540395300,13.096395263671875,-1.40156888961792,1.534820318222046,1.614518642425537
1789323094559245600,13.11524560546875,-1.140760898590088,1.3102030754089355,1.8243485689163208
1789323094578095600,13.134095703125,-1.1647920608520508,1.8430850505828857,-0.22244834899902344
1789323094596946000,13.15294580078125,0.17510271072387695,1.2042994499206543,0.3957939147949219
1789323094615796000,13.1717958984375,-0.5490407943725586,-0.607844352722168,0.3001220226287842
1789323094634646300,13.190646240234376,-0.43485212326049805,-1.9739742279052734,0.3058962821960449
1789323094653496600,13.20949658203125,-1.2288780212402344,-2.8178229331970215,-0.6711840629577637
1789323094672346600,13.2283466796875,-0.49039602279663086,-2.931278705596924,-0.6252355575561523
1789323094691196700,13.24719677734375,0.7325882911682129,-2.4110231399536133,-1.5929875373840332
1789323094710047000,13.266046875,-0.6046414375305176,-1.4911246299743652,-1.5438814163208008
1789323094728897000,13.28489697265625,0.7748360633850098,-0.10133028030395508,-1.2946138381958008
1789323094747747300,13.303747314453124,2.665754795074463,-1.0315332412719727,-0.5661263465881348
1789323094766597400,13.322597412109374,3.4120984077453613,-3.599302291870117,-1.6983215808868408
1789323094785447700,13.34144775390625,2.1900811195373535,-4.264092445373535,-2.371861219406128
1789323094804298000,13.360298095703126,2.6004085540771484,-1.836319923400879,-2.125960350036621
1789323094823148000,13.37914794921875,3.335012435913086,-1.1445655822753906,-1.2248318195343018
1789323094841998000,13.397998046875,2.8700170516967773,-0.6138534545898438,-1.1102185249328613
1789323094860848400,13.416848388671875,2.0701956748962402,-0.2377786636352539,-0.42040538787841797
1789323094879698400,13.435698486328125,3.7150845527648926,-0.10149002075195312,-1.7538621425628662
1789323094898548700,13.454548828125,1.4922633171081543,-1.334650993347168,0.3552107810974121
1789323094917398800,13.473398681640624,0.8468976020812988,-1.0023727416992188,-0.1640024185180664
1789323094936249000,13.4922490234375,-0.7068076133728027,0.48642826080322266,0.9865820407867432
1789323094955099100,13.51109912109375,-1.459202527999878,1.1901159286499023,1.214181900024414
1789323094973949400,13.529949462890626,-1.5576064586639404,1.5702033042907715,1.2680160999298096
1789323094992799500,13.548799560546875,-0.6893935203552246,0.5617289543151855,1.1120226383209229
1789323095011649800,13.56764990234375,1.592440128326416,-1.1597909927368164,-0.2187967300415039
1789323095030499800,13.586499755859375,3.23598575592041,-3.4281301498413086,-2.36598539352417
1789323095049350100,13.60535009765625,3.430405616760254,-4.16424560546875,-3.5815188884735107
1789323095068200200,13.6242001953125,3.078289031982422,-4.640526294708252,-3.5464375019073486
1789323095087050500,13.643050537109374,1.2502107620239258,-4.526228427886963,-1.572190523147583
1789323095105900500,13.661900634765624,-1.270486831665039,-2.726515769958496,-2.3578574657440186
1789323095124750800,13.680750732421876,-3.818906545639038,-0.4769158363342285,-1.0590293407440186
1789323095143601000,13.699600830078126,-1.8234443664550781,1.917238712310791,-0.24248361587524414
1789323095162451200,13.718451171875,1.047231674194336,1.5295917987823486,1.1506993770599365
1789323095181301200,13.73730126953125,1.8745431900024414,-0.05252408981323242,-0.30726146697998047
1789323095200151300,13.7561513671875,0.1497783660888672,-0.3133082389831543,0.10109138488769531
1789323095219001600,13.775001708984375,-1.8138542175292969,-0.5357837677001953,1.587990641593933
1789323095237851600,13.7938515625,-3.83231782913208,-0.7218978404998779,1.3640162944793701
1789323095256702000,13.812701904296874,-3.4401535987854004,-0.6789400577545166,-0.4756040573120117
1789323095275552000,13.831552001953124,-3.423880100250244,0.5939819812774658,-0.7479887008666992
1789323095294402300,13.85040234375,-1.5374550819396973,0.35135889053344727,2.347773551940918
1789323095313252400,13.86925244140625,-2.5063223838806152,0.6162004470825195,1.6939258575439453
1789323095332102700,13.8881025390625,-0.9890480041503906,1.4999586343765259,3.3257429599761963
1789323095350952700,13.90695263671875,-4.221716403961182,0.4935884475708008,1.3471254110336304
1789323095369803000,13.925802978515625,-0.7481479644775391,0.12623333930969238,2.2562813758850098
1789323095388653000,13.944653076171875,-3.0920534133911133,0.12025833129882812,0.1549379825592041
1789323095407503000,13.963503173828125,-0.8830137252807617,0.0910501480102539,2.345017910003662
1789323095426353400,13.982353515625,-3.6586852073669434,0.6287837028503418,0.32144999504089355
1789323095445203500,14.001203369140624,-3.6143202781677246,1.0735960006713867,2.1889736652374268
1789323095464053800,14.0200537109375,-1.2907171249389648,1.8705577850341797,2.631885290145874
1789323095482903800,14.03890380859375,-1.0325980186462402,2.0121912956237793,1.9707653522491455
1789323095501754000,14.057754150390625,-2.2345852851867676,2.1308531761169434,0.9218833446502686
1789323095520604200,14.076604248046875,-4.005026817321777,1.8027467727661133,0.4631078243255615
1789323095539454200,14.0954541015625,-1.7100906372070312,2.4460837841033936,1.218695878982544
1789323095558304500,14.114304443359375,1.1714153289794922,2.9842987060546875,1.0058200359344482
1789323095577154600,14.133154541015625,-1.085916519165039,1.253911018371582,-0.1353609561920166
1789323095596004900,14.1520048828125,-1.1735835075378418,-1.7980551719665527,-1.5263605117797852
1789323095614855000,14.17085498046875,-1.4488368034362793,-3.496048927307129,-1.2642629146575928
1789323095633705200,14.189705322265626,1.1236882209777832,-4.356117248535156,-2.455718755722046
1789323095652555300,14.20855517578125,1.5568323135375977,-5.498493194580078,-2.2217180728912354
1789323095671405300,14.2274052734375,1.5498619079589844,-4.32459831237793,-3.22540283203125
1789323095690255600,14.246255615234375,1.0432062149047852,-2.9772143363952637,-1.6308634281158447
1789323095709105700,14.265105712890625,3.235910415649414,-1.3081064224243164,-0.4134857654571533
1789323095727955700,14.283955810546875,3.8088207244873047,-1.4256353378295898,-0.06205487251281738
1789323095746806000,14.302805908203124,2.5261149406433105,-3.8224897384643555,-1.6823904514312744
1789323095765656000,14.321656005859374,1.7965450286865234,-4.469444274902344,-1.5767664909362793
1789323095784506400,14.34050634765625,1.9136466979980469,-0.7926874160766602,0.6511433124542236
1789323095803356400,14.3593564453125,1.5363616943359375,1.295318603515625,0.19686651229858398
1789323095822206700,14.378206787109375,0.7579212188720703,1.1560935974121094,-0.8177285194396973
1789323095841056800,14.397056884765625,0.8268804550170898,1.084911823272705,-0.4054131507873535
1789323095859906800,14.41590673828125,0.9805006980895996,0.7533392906188965,-0.16638731956481934
1789323095878757000,14.434757080078125,0.45470142364501953,0.28311681747436523,-0.18845272064208984
1789323095897607200,14.453607177734375,0.06746292114257812,0.15040349960327148,-0.0962071418762207
1789323095916457200,14.472457275390624,0.24241352081298828,-0.36855316162109375,-0.35552144050598145
1789323095935307500,14.4913076171875,0.6411490440368652,-0.5844912528991699,-0.09983205795288086
1789323095954157600,14.510157470703126,0.6620984077453613,-1.514190673828125,-0.7712156772613525
1789323095973008000,14.5290078125,0.25111865997314453,-1.9815211296081543,-0.2893636226654053
1789323095991858000,14.54785791015625,1.4740915298461914,-1.7838869094848633,-1.1031885147094727
1789323096010708000,14.5667080078125,2.6226391792297363,-2.793865203857422,-2.1088128089904785
1789323096029558300,14.585558349609375,2.874757766723633,-4.206500053405762,-2.748823404312134
1789323096048408300,14.604408203125,1.230421543121338,-3.800539016723633,-3.8100597858428955
1789323096067258400,14.62325830078125,-0.6213479042053223,-1.8748540878295898,-2.512960433959961
1789323096086108700,14.642108642578124,-1.4990830421447754,0.08094263076782227,-0.6653409004211426
1789323096104958700,14.660958740234374,-1.156806468963623,0.37308549880981445,1.1825578212738037
1789323096123809000,14.67980908203125,-0.9711618423461914,-0.14759063720703125,0.8824129104614258
1789323096142659000,14.6986591796875,-1.956547737121582,-0.7200593948364258,-0.20572137832641602
1789323096161509000,14.717509033203125,-2.2910518646240234,-0.14256954193115234,0.6296861171722412
1789323096180359400,14.736359375,-2.6344189643859863,-0.0977468490600586,1.9498634338378906
1789323096199209500,14.75520947265625,-1.9538803100585938,1.9430946111679077,2.127023220062256
1789323096218059500,14.7740595703125,-0.6531543731689453,0.8710141181945801,-0.25343823432922363
1789323096236909800,14.792909912109375,-1.3663830757141113,-0.11185240745544434,-1.9525763988494873
1789323096255760000,14.811759765625,-4.000394344329834,-1.7258870601654053,0.33185648918151855
1789323096274610000,14.83060986328125,-2.4725565910339355,0.16324853897094727,2.5359225273132324
1789323096293460200,14.849460205078126,-1.789780616760254,1.07566499710083,1.6306897401809692
1789323096312310300,14.868310302734375,-4.514028072357178,-0.18895745277404785,1.443926453590393
1789323096331160300,14.887160400390625,-4.641076564788818,0.8123478889465332,1.334750771522522
1789323096350010600,14.9060107421875,-3.639894485473633,1.6247735023498535,2.4055542945861816
1789323096368860700,14.924860595703125,-0.8333158493041992,2.544381856918335,3.408449411392212
1789323096387710700,14.943710693359375,-5.159922122955322,2.218630790710449,1.7257323265075684
1789323096406561000,14.96256103515625,-3.90694522857666,1.9352918863296509,2.0492868423461914
1789323096425411000,14.9814111328125,-1.3001556396484375,2.193542957305908,2.210970401763916
1789323096444261000,15.00026123046875,0.2509031295776367,2.416313409805298,1.0900094509124756
1789323096463111200,15.019111083984376,-2.1920504570007324,1.51393461227417,1.3211407661437988
1789323096481961500,15.03796142578125,-2.1670165061950684,1.120530605316162,0.5206286907196045
1789323096500811500,15.0568115234375,0.6706633567810059,0.02974557876586914,-0.3090708255767822
1789323096519661800,15.075661865234375,1.2459473609924316,-2.3169736862182617,-0.8118653297424316
1789323096538512000,15.094511962890625,-0.2620558738708496,-2.7017312049865723,-1.0836617946624756
1789323096557362000,15.11336181640625,-2.0352368354797363,-2.5639162063598633,-0.5069386959075928
1789323096576212000,15.1322119140625,-1.4462165832519531,-2.0394082069396973,-0.14449834823608398
1789323096595062300,15.151062255859374,1.8801031112670898,-1.5941648483276367,0.6643998622894287
1789323096613912300,15.169912353515626,1.1069374084472656,-1.3965730667114258,-1.130286693572998
1789323096632762400,15.188762451171876,0.020030498504638672,-1.1421928405761719,-1.7374658584594727
1789323096651612700,15.20761279296875,0.5404057502746582,-1.2789306640625,-1.4234981536865234
1789323096670462700,15.226462646484375,2.046593189239502,-1.597914695739746,-1.0280756950378418
1789323096689312800,15.245312744140625,3.0257296562194824,-2.315685272216797,-0.3611302375793457
1789323096708163000,15.2641630859375,1.990966796875,-1.667668342590332,-0.8489201068878174
1789323096727013000,15.28301318359375,2.9778692722320557,-0.7426843643188477,-1.2353506088256836
1789323096745863200,15.30186328125,2.7396399974823,-2.1112146377563477,-1.3724262714385986
1789323096764713200,15.320713134765626,1.8179163932800293,-2.8947858810424805,-0.23677754402160645
1789323096783563500,15.3395634765625,1.6979098320007324,-1.6586112976074219,0.5753352642059326
1789323096802413600,15.35841357421875,2.262983560562134,0.656926155090332,-0.4859771728515625
1789323096821263600,15.377263671875,1.7329788208007812,0.6543326377868652,-0.9529135227203369
1789323096840113700,15.39611376953125,1.373331069946289,0.28934431076049805,-1.3416352272033691
1789323096858964000,15.4149638671875,0.7885274887084961,-0.32653236389160156,-0.2364671230316162
1789323096877814000,15.43381396484375,0.6293177604675293,-0.27268028259277344,-0.11922478675842285
1789323096896664000,15.4526640625,0.1711134910583496,-0.9920601844787598,0.43294811248779297
1789323096915514000,15.47151416015625,1.2302546501159668,-1.8247928619384766,-0.37810206413269043
1789323096934364400,15.490364501953126,1.0080957412719727,-2.5931005477905273,-0.6508204936981201
1789323096953214500,15.50921435546875,0.7982888221740723,-1.7317705154418945,-2.3096866607666016
1789323096972064500,15.528064453125,-0.6999635696411133,-0.8668093681335449,-1.3089146614074707
1789323096990914600,15.54691455078125,-0.2866702079772949,0.5460920333862305,-0.251157283782959
1789323097009764900,15.565764892578125,0.7190628051757812,0.13490676879882812,1.0966172218322754
1789323097028615000,15.584614990234375,2.2249221801757812,-2.0030078887939453,-0.4514002799987793
1789323097047465000,15.60346484375,0.8008999824523926,-3.6898436546325684,-2.469046115875244
1789323097066315300,15.622315185546874,-0.5388956069946289,-3.3349833488464355,-2.9327006340026855
1789323097085165300,15.641165283203126,-0.38715600967407227,-2.0869269371032715,-0.5867483615875244
1789323097104015400,15.660015380859376,-0.23464202880859375,-1.143622875213623,-0.9372110366821289
1789323097122865400,15.678865478515625,-0.3401947021484375,-1.6454524993896484,0.39439964294433594
1789323097141715500,15.697715576171875,0.06365489959716797,0.8352112770080566,-0.012501001358032227
1789323097160565800,15.716565673828125,-0.9382123947143555,-0.5471935272216797,-0.734677791595459
1789323097179415800,15.735415771484375,-2.2921276092529297,-0.07816767692565918,-0.3151662349700928
1789323097198265900,15.754265869140625,-3.4636101722717285,0.36385321617126465,0.9935834407806396
1789323097217116000,15.773115966796874,-6.478689193725586,1.9891544580459595,1.349246859550476
1789323097235966200,15.79196630859375,-5.0528717041015625,2.122859001159668,2.557168483734131
1789323097254816300,15.810816162109376,-4.735004425048828,1.911699891090393,3.7809982299804688
1789323097273666300,15.829666259765625,-1.0282878875732422,2.443497657775879,2.403754711151123
1789323097292516400,15.848516357421875,-5.7634358406066895,0.7761645317077637,0.9808826446533203
1789323097311366700,15.86736669921875,-1.5068469047546387,2.3702969551086426,2.076141357421875
1789323097330216700,15.886216796875,-1.9251785278320312,0.8590586185455322,0.7614929676055908
1789323097349066800,15.905066650390625,0.8165979385375977,0.2603120803833008,1.415569543838501
1789323097367916800,15.923916748046874,-4.139316082000732,-0.7077722549438477,0.547163724899292
1789323097386766800,15.942766845703124,-1.324777603149414,1.0978493690490723,1.015843391418457
1789323097405617200,15.9616171875,-0.07005500793457031,1.4557514190673828,0.2369234561920166
1789323097424467200,15.98046728515625,-0.8456153869628906,0.7129223346710205,1.0141587257385254
1789323097443317200,15.999317138671875,-2.907015323638916,1.0323410034179688,0.07958173751831055
1789323097462167300,16.018167236328125,-1.7812466621398926,1.971101999282837,-0.1864004135131836
1789323097481017300,16.037017333984377,-0.993776798248291,1.6775448322296143,0.30315446853637695
1789323097499867600,16.05586767578125,-0.003517627716064453,0.9257941246032715,0.8153030872344971
1789323097518717700,16.0747177734375,-0.6471133232116699,-0.5356144905090332,0.2636594772338867
1789323097537567700,16.093567626953124,-0.23915910720825195,-2.430025100708008,-1.4295868873596191
1789323097556417800,16.112417724609376,0.017740726470947266,-3.891831874847412,-2.834758996963501
1789323097575267800,16.131267822265624,-0.5062413215637207,-3.6763501167297363,-3.263556957244873
1789323097594118000,16.150117919921875,-0.4385056495666504,-1.9273667335510254,-2.582005023956299
1789323097612968200,16.16896826171875,1.04478120803833,-0.6941432952880859,-0.7449443340301514
1789323097631818200,16.187818359375,3.7838668823242188,-1.8110952377319336,-1.0913245677947998
1789323097650668300,16.206668212890627,3.0231881141662598,-4.511487007141113,-1.6832256317138672
1789323097669518300,16.225518310546875,1.9403934478759766,-4.78293514251709,-1.6253983974456787
1789323097688368400,16.244368408203126,1.900576114654541,-1.1142263412475586,-0.5196712017059326
1789323097707218400,16.263218505859374,1.327476978302002,1.2848453521728516,0.13859963417053223
1789323097726068700,16.28206884765625,1.9903016090393066,1.605907917022705,-0.9201035499572754
1789323097744918800,16.300918701171874,2.521740436553955,0.6268863677978516,-1.7281162738800049
1789323097763768800,16.319768798828125,2.611736297607422,-1.0148077011108398,-1.5257534980773926
1789323097782619000,16.338618896484373,2.178560733795166,-1.6239242553710938,-1.0095114707946777
1789323097801469000,16.357468994140625,0.8874025344848633,-2.026456832885742,0.020624160766601562
1789323097820319000,16.376319091796876,0.02356100082397461,-2.125579357147217,-0.12119078636169434
1789323097839169300,16.395169189453124,-1.3527517318725586,-1.6558270454406738,0.5716571807861328
1789323097858019300,16.414019287109376,-1.363379955291748,-0.3249640464782715,1.1980535984039307
1789323097876869400,16.432869384765624,-1.4307665824890137,0.4360542297363281,0.5456154346466064
1789323097895719400,16.451719482421876,0.3332338333129883,0.9831995964050293,-0.17128205299377441
1789323097914569500,16.470569580078124,1.933276653289795,-0.0008859634399414062,-1.052966594696045
1789323097933419500,16.48941943359375,3.6210784912109375,-1.4912314414978027,-1.2826449871063232
1789323097952269600,16.50826953125,2.56760835647583,-2.8268938064575195,-3.1352269649505615
1789323097971119600,16.52711962890625,0.6768045425415039,-2.862417221069336,-2.2082576751708984
1789323097989969700,16.5459697265625,-0.6244654655456543,-1.73722505569458,-1.5155229568481445
1789323098008820000,16.564820068359374,-1.3867478370666504,-1.6216068267822266,-1.050415277481079
1789323098027670000,16.583669921875,-0.0908041000366211,-0.5094990730285645,-1.129852533340454
1789323098046520000,16.60252001953125,0.8785262107849121,-1.059783935546875,-0.5104010105133057
1789323098065370000,16.6213701171875,1.9936027526855469,-1.9493522644042969,-0.6509628295898438
1789323098084220200,16.64022021484375,-0.874028205871582,-2.3913040161132812,0.38753724098205566
1789323098103070200,16.6590703125,-2.1828770637512207,-0.3119196891784668,1.2542495727539062
1789323098121920300,16.677920166015625,-3.5683093070983887,-0.17123889923095703,0.0358271598815918
1789323098140770300,16.696770263671876,-2.4039697647094727,-0.3787510395050049,0.5254218578338623
1789323098159620600,16.71562060546875,-3.5343689918518066,0.2858095169067383,-0.17358922958374023
1789323098178470700,16.734470703125,-2.9260077476501465,1.9779638051986694,2.726314067840576
1789323098197320700,16.75332080078125,-2.1554622650146484,1.8925719261169434,3.491671323776245
1789323098216170800,16.772170654296875,-2.8420920372009277,0.43053579330444336,2.1126163005828857
1789323098235020800,16.791020751953123,-3.121321678161621,1.5041933059692383,2.4373297691345215
1789323098253870800,16.809870849609375,-2.297297477722168,0.22371912002563477,0.9406476020812988
1789323098272721000,16.828720947265627,-5.984875202178955,0.3792452812194824,1.4286901950836182
1789323098291571000,16.847571044921875,-3.6813297271728516,1.565178632736206,2.385986328125
1789323098310421000,16.8664208984375,-2.0962295532226562,2.226672410964966,2.4007043838500977
1789323098329271000,16.88527099609375,-2.167813777923584,1.4907457828521729,1.4700325727462769
1789323098348121000,16.90412109375,-4.151976108551025,1.3835234642028809,2.069279432296753
1789323098366971100,16.92297119140625,-2.8971915245056152,1.635063886642456,0.05701780319213867
1789323098385821400,16.941821533203125,-1.2356724739074707,0.9659895896911621,3.1413941383361816
1789323098404671500,16.96067138671875,1.466383934020996,1.9439103603363037,1.5253973007202148
1789323098423521500,16.979521484375,-1.7313575744628906,0.9116153717041016,0.670665979385376
1789323098442371600,16.99837158203125,0.5058498382568359,0.6797037124633789,-0.6174204349517822
1789323098461221600,17.0172216796875,0.7986288070678711,-1.8923921585083008,-0.4291548728942871
1789323098480071700,17.03607177734375,0.893031120300293,-3.336554527282715,-1.4602348804473877
1789323098498921700,17.054921630859376,-0.9545021057128906,-5.0241804122924805,-0.5752060413360596
1789323098517771800,17.073771728515624,-0.46814489364624023,-4.109623432159424,-0.16806769371032715
1789323098536621800,17.092621826171875,-0.7238659858703613,-2.6849489212036133,0.3617238998413086
1789323098555472000,17.111471923828127,1.4587955474853516,0.047618865966796875,-0.43807101249694824
1789323098574322000,17.130322021484375,2.3975515365600586,1.1736488342285156,-1.249831199645996
1789323098593172000,17.149171875,2.4380173683166504,1.1118297576904297,-2.389873504638672
1789323098612022000,17.16802197265625,3.074897289276123,0.28065919876098633,-2.7697110176086426
1789323098630872000,17.1868720703125,2.7135467529296875,-0.5632810592651367,-1.330029010772705
1789323098649722000,17.20572216796875,2.8628005981445312,-1.2704057693481445,0.08908486366271973
1789323098668572200,17.224572265625,1.8583438396453857,-2.1801815032958984,0.07770180702209473
1789323098687422200,17.243422119140625,1.9326703548431396,-3.700845718383789,-0.09984087944030762
1789323098706272300,17.262272216796877,2.1768577098846436,-3.4349327087402344,-0.19337940216064453
1789323098725122300,17.281122314453125,3.2616100311279297,-3.389932632446289,-1.3289389610290527
1789323098743972400,17.299972412109376,3.086578845977783,-3.5464181900024414,-0.8635644912719727
1789323098762822400,17.318822509765624,2.471564769744873,-2.433701515197754,-1.38521409034729
1789323098781672400,17.33767236328125,1.478339672088623,-1.316823959350586,-0.6725149154663086
1789323098800522500,17.3565224609375,0.7610282897949219,-0.3774247169494629,-1.653947353363037
1789323098819372500,17.37537255859375,-0.7421135902404785,0.4686613082885742,-1.0052902698516846
1789323098838222600,17.39422265625,-1.0730509757995605,1.01423978805542,-0.613001823425293
1789323098857072600,17.41307275390625,-1.1602940559387207,1.3234920501708984,0.6587462425231934
1789323098875922700,17.431922607421875,-1.2927227020263672,1.1131138801574707,1.1398937702178955
1789323098894772700,17.450772705078126,-1.3801159858703613,0.9756803512573242,1.4410126209259033
1789323098913622800,17.469622802734374,-1.6012325286865234,0.5878515243530273,1.7968031167984009
1789323098932472800,17.488472900390626,0.28255558013916016,0.7245597839355469,0.9927935600280762
1789323098951323000,17.507322998046874,3.882894515991211,0.09900474548339844,0.15604639053344727
1789323098970173000,17.5261728515625,6.034570693969727,-2.564892292022705,-3.539785146713257
1789323098989023000,17.54502294921875,4.5323591232299805,-6.054385662078857,-6.1604533195495605
1789323099007873000,17.563873046875,3.835239887237549,-4.669533729553223,-5.776858329772949
1789323099026723000,17.58272314453125,0.829859733581543,-4.816126346588135,-1.8548223972320557
1789323099045573000,17.601572998046876,-1.2601804733276367,-2.840998649597168,0.011026144027709961
1789323099064423200,17.620423095703124,-2.7837347984313965,-0.796515941619873,-0.41488075256347656
1789323099083273200,17.639273193359376,-4.934293746948242,-0.757054328918457,-0.45156383514404297
1789323099102123300,17.658123291015624,-3.0938172340393066,1.8111679553985596,0.9446678161621094
1789323099130398200,17.686398193359373,-0.49742794036865234,1.7930774688720703,2.975155830383301
1789323099149248300,17.705248291015625,-4.973520278930664,1.110342025756836,2.440840005874634
1789323099168098300,17.724098388671877,-6.809711456298828,1.4933640956878662,1.8957855701446533
1789323099186948400,17.7429482421875,-6.376054763793945,1.7894304990768433,1.6423898935317993
1789323099215223600,17.7712236328125,-2.8179798126220703,0.7683765888214111,2.2336344718933105
1789323099234073600,17.790073486328126,-6.940262794494629,0.7526693344116211,0.5911654233932495
1789323099252923600,17.808923583984374,-4.638236045837402,2.3096818923950195,3.8584794998168945
1789323099271773400,17.8277734375,-1.8663077354431152,1.7580161094665527,2.7658450603485107
1789323099290623500,17.84662353515625,-0.3895397186279297,1.8167192935943604,1.676627278327942
1789323099309473500,17.8654736328125,-3.563455581665039,1.4762014150619507,-0.08702778816223145
1789323099328323600,17.884323486328125,-0.2886219024658203,1.219726800918579,0.27303624153137207
1789323099347173600,17.903173583984376,-0.11412715911865234,1.0462608337402344,0.05405092239379883
1789323099366023700,17.922023681640624,-0.0690922737121582,0.6354465484619141,0.5472235679626465
1789323099384873700,17.940873779296876,0.24402475357055664,0.37735605239868164,-1.3624918460845947
1789323099403723800,17.959723876953124,0.17991256713867188,-1.1393303871154785,-1.0667533874511719
1789323099422573800,17.97857373046875,-0.2708272933959961,-2.6426024436950684,-1.1274595260620117
1789323099441424000,17.997423828125,-0.7747793197631836,-2.571010112762451,0.2848043441772461
1789323099460274000,18.01627392578125,-0.6193270683288574,-1.9707460403442383,0.42273688316345215
1789323099479124000,18.0351240234375,0.09120941162109375,-0.9034547805786133,1.1349279880523682
1789323099497973800,18.053973876953126,-0.48612546920776367,0.4470386505126953,0.18453073501586914
1789323099516823800,18.07282373046875,-0.532989501953125,0.4930715560913086,-0.4766700267791748
1789323099535673900,18.091673828125,0.8523297309875488,0.3608975410461426,-1.56032133102417
1789323099554524000,18.11052392578125,2.095890522003174,-0.2609071731567383,-2.0104222297668457
1789323099573374000,18.1293740234375,3.0167737007141113,-1.9417238235473633,-2.462416887283325
1789323099592224000,18.14822412109375,2.706343173980713,-4.597906112670898,-3.188464403152466
1789323099611074000,18.167073974609377,2.3551502227783203,-5.631841659545898,-2.1230249404907227
1789323099629923800,18.185923828125,1.5383095741271973,-2.464451789855957,-0.35274314880371094
1789323099658199000,18.214198974609374,0.9719099998474121,0.2507591247558594,-0.1871321201324463
1789323099677049000,18.233049072265626,1.8349261283874512,1.0916409492492676,-0.7824463844299316
1789323099695899000,18.25189892578125,2.841705799102783,0.8507270812988281,-1.4085466861724854
1789323099714749000,18.2707490234375,2.147280216217041,-0.39674854278564453,-0.7205820083618164
1789323099733599000,18.289598876953125,1.3675851821899414,-0.846369743347168,0.13846707344055176
1789323099752449000,18.308448974609377,0.9407167434692383,-0.11788654327392578,-1.1941721439361572
1789323099771299000,18.327299072265625,-1.160492181777954,0.07936286926269531,1.0318365097045898
1789323099790149000,18.346149169921876,-0.9724907875061035,0.22331762313842773,-0.09194278717041016
1789323099808999200,18.364999267578124,-1.9592714309692383,0.5448451042175293,1.2962896823883057
1789323099827849000,18.383848876953124,-0.7269916534423828,1.1742100715637207,0.7183356285095215
1789323099846699000,18.402698974609375,1.121889591217041,0.2711758613586426,0.5066561698913574
1789323099865549000,18.421549072265623,2.253293514251709,-2.763692855834961,-0.4565727710723877
1789323099884399000,18.440399169921875,2.8284912109375,-4.386987686157227,-2.197568416595459
1789323099903249200,18.459249267578127,2.7969136238098145,-4.070962905883789,-3.308828115463257
1789323099922099000,18.478098876953126,0.7811932563781738,-2.3817358016967773,-3.7273709774017334
1789323099940949000,18.496948974609374,-0.5356249809265137,-0.6492242813110352,-2.114521026611328
1789323099959799000,18.515799072265626,-0.7916460037231445,0.5073227882385254,-1.6714189052581787
1789323099978649000,18.534649169921874,-0.20230388641357422,0.9216723442077637,0.3112070560455322
1789323099997499100,18.5534990234375,-1.0376906394958496,-0.20410442352294922,0.1604294776916504
1789323100016349200,18.57234912109375,-1.5607786178588867,-1.4848885536193848,0.11816811561584473
1789323100035199000,18.591198974609377,-0.9210543632507324,-1.616316318511963,1.6706736087799072
1789323100054049000,18.610049072265625,0.40946006774902344,-1.1870384216308594,1.8061604499816895
1789323100082324000,18.638323974609374,-2.478546619415283,-0.9308979511260986,-0.5550227165222168
1789323100101174000,18.657174072265626,-1.573160171508789,1.3788537979125977,-0.6982166767120361
1789323100120024000,18.676024169921874,1.360213279724121,2.041046380996704,-0.16836214065551758
1789323100138874000,18.6948740234375,-1.2565927505493164,-0.39058470726013184,0.41440463066101074
1789323100157724000,18.713723876953125,-3.2441930770874023,-0.33696722984313965,1.5291224718093872
1789323100176574000,18.732573974609377,-4.942345142364502,1.4626078605651855,0.4939119815826416
1789323100195424000,18.751424072265625,-3.409173011779785,0.5742061138153076,3.9497389793395996
1789323100214274000,18.770274169921876,-4.636233329772949,0.7903313636779785,0.6439785957336426
1789323100233124000,18.7891240234375,-5.6591033935546875,1.317248821258545,2.619598150253296
1789323100251974000,18.807973876953124,-4.2762451171875,2.231640577316284,0.7231717109680176
1789323100270824000,18.826823974609376,-4.247593402862549,2.0440421104431152,5.133061408996582
1789323100289674000,18.845674072265624,-2.175126552581787,3.100264310836792,4.346854209899902
1789323100308524000,18.86452392578125,-0.0639200210571289,3.344358205795288,3.4804227352142334
1789323100327373800,18.883373779296875,-2.414036750793457,3.3499672412872314,-0.7919108867645264
1789323100346223900,18.902223876953126,-4.3236517906188965,2.0523369312286377,0.111297607421875
1789323100365074000,18.921073974609374,0.8527812957763672,1.5892863273620605,0.3588418960571289
1789323100383924000,18.939924072265626,1.795736312866211,0.9737246036529541,0.17384672164916992
1789323100402773800,18.958773681640626,2.4933876991271973,-2.418609142303467,-1.432765245437622
1789323100421623800,18.977623779296874,0.6600332260131836,-7.355241775512695,-2.3951735496520996
1789323100440473900,18.996473876953125,-1.2437734603881836,-5.891051769256592,-3.234215497970581
1789323100459324000,19.015323974609377,-0.6057710647583008,-4.112221717834473,-0.9214935302734375
1789323100478173700,19.034173583984376,0.8692574501037598,-1.4650421142578125,0.3865954875946045
1789323100497023700,19.053023681640624,1.5299897193908691,0.09966468811035156,0.2843592166900635
1789323100515873800,19.071873779296876,0.06619739532470703,1.3449821472167969,-0.7361974716186523
1789323100534723600,19.0907236328125,0.6865930557250977,1.4213333129882812,-1.7912893295288086
1789323100553573600,19.10957373046875,2.6064534187316895,0.9279870986938477,-1.6176795959472656
1789323100572423700,19.128423583984375,1.9042749404907227,-0.36979198455810547,-1.4599311351776123
1789323100591273500,19.1472734375,-0.052117347717285156,-1.4621143341064453,-0.35091137886047363
1789323100610123500,19.16612353515625,1.8853721618652344,-2.1577138900756836,0.8026344776153564
1789323100628973600,19.1849736328125,4.456338882446289,-4.578588485717773,0.5891282558441162
1789323100647823400,19.2038232421875,2.409754514694214,-6.856950759887695,-0.26491260528564453
1789323100666673400,19.22267333984375,3.5528321266174316,-3.408721923828125,-2.1646838188171387
1789323100685523500,19.2415234375,3.097611904144287,0.5679826736450195,-1.4424002170562744
1789323100713798400,19.26979833984375,1.9744629859924316,-1.0020465850830078,-0.8746335506439209
1789323100732648400,19.2886484375,1.138936996459961,-1.9887738227844238,0.26662492752075195
1789323100751498200,19.307498291015627,0.7003545761108398,-1.082815170288086,0.5177896022796631
1789323100770348300,19.326348388671875,0.27297210693359375,-0.5519294738769531,1.457848310470581
1789323100789198300,19.3451982421875,-0.18453216552734375,-0.13870716094970703,1.0867786407470703
1789323100808048000,19.364048095703126,-0.6318254470825195,0.2196674346923828,0.3466508388519287
1789323100826898200,19.382898193359374,-0.7238197326660156,0.2780742645263672,-0.6602199077606201
1789323100845748200,19.401748291015625,0.2349991798400879,-0.08335685729980469,-0.5071394443511963
1789323100864598000,19.420597900390625,0.672584056854248,-0.6368570327758789,-0.9425990581512451
1789323100883448000,19.439447998046877,0.9681143760681152,-1.132080078125,-1.7888906002044678
1789323100902298000,19.458298095703125,1.3504009246826172,-1.0296688079833984,-2.0997846126556396
1789323100921148000,19.47714794921875,0.42518186569213867,-0.30788087844848633,-1.9378330707550049
1789323100939998000,19.495998046875,-1.7761845588684082,-0.6775422096252441,-0.5676229000091553
1789323100958847700,19.51484765625,-1.5681281089782715,0.3010263442993164,1.391465663909912
1789323100977697800,19.53369775390625,-0.02266979217529297,0.2832775115966797,0.9708044528961182
1789323100996547800,19.5525478515625,2.2076845169067383,-1.8472084999084473,0.48894357681274414
1789323101015397600,19.571397705078127,1.0606565475463867,-2.465773582458496,-0.199859619140625
1789323101034247700,19.59024755859375,-0.8448219299316406,-1.5171003341674805,0.23605132102966309
1789323101053097700,19.60909765625,-0.7789387702941895,-0.9827156066894531,-0.9250795841217041
1789323101071947500,19.627947509765626,-1.5957140922546387,-1.1636548042297363,-1.1157050132751465
1789323101090797600,19.646797607421874,-5.10625696182251,0.4204728603363037,-0.5502429008483887
1789323101109647600,19.665647705078126,-1.2146339416503906,3.2900352478027344,3.507704257965088
1789323101128497400,19.684497314453125,-1.0775103569030762,0.27386999130249023,2.931429862976074
1789323101147347500,19.703347412109373,-4.031507968902588,-0.13443470001220703,0.705378532409668
1789323101166197200,19.722197265625,-7.063685417175293,-0.1563735008239746,0.6844799518585205
1789323101185047300,19.74104736328125,-4.3423237800598145,1.8714276552200317,3.8418831825256348
1789323101203897300,19.7598974609375,-4.140381813049316,2.6984453201293945,3.5958547592163086
1789323101222747100,19.7787470703125,-4.085467338562012,2.983823299407959,3.1321115493774414
1789323101241597200,19.79759716796875,-4.069775104522705,3.4347362518310547,2.2495031356811523
1789323101260447000,19.816447021484375,-0.2006826400756836,3.2119157314300537,1.8226001262664795
1789323101279297000,19.835297119140623,-0.950251579284668,1.3713953495025635,0.21253013610839844
1789323101298146800,19.854146728515627,-2.1237082481384277,0.3059728145599365,0.004259347915649414
1789323101316996900,19.872996826171875,-1.170508861541748,-0.41902875900268555,-0.5736193656921387
1789323101335846700,19.8918466796875,0.03540611267089844,-0.5496892929077148,-0.033872127532958984
1789323101354696700,19.91069677734375,0.11296701431274414,-2.4343438148498535,-1.3471155166625977
1789323101373546800,19.929546630859374,0.5894737243652344,-3.6249289512634277,-1.159407138824463
1789323101392396500,19.948396484375,0.984921932220459,-1.6725664138793945,-0.5257718563079834
1789323101411246600,19.96724658203125,-0.8854708671569824,-1.000257968902588,-0.5042779445648193
1789323101430096400,19.986096435546877,-1.7533841133117676,-1.1530752182006836,-0.3836815357208252
1789323101458371300,20.014371337890626,-0.5942001342773438,-1.4976792335510254,0.5780696868896484
1789323101477221400,20.033221435546874,0.23565340042114258,-1.0332870483398438,0.07816529273986816
1789323101496071200,20.0520712890625,0.3235659599304199,-0.07761764526367188,-0.3526477813720703
1789323101514921200,20.070921142578126,0.6234750747680664,1.4932231903076172,-0.8802223205566406
1789323101533771000,20.08977099609375,2.2006916999816895,2.58555269241333,-1.0357089042663574
1789323101552621000,20.10862109375,2.481867790222168,1.8081116676330566,-1.3024101257324219
1789323101571470800,20.127470947265625,2.7015204429626465,-0.6807193756103516,-1.6752355098724365
1789323101590321000,20.14632080078125,3.9657325744628906,-6.280472755432129,-4.043754577636719
1789323101609170700,20.165170654296876,3.2348780632019043,-11.6767578125,-3.4125149250030518
1789323101628020700,20.184020751953124,3.645993709564209,-7.25247859954834,1.4925825595855713
1789323101656295700,20.212295654296874,2.036104202270508,0.6321463584899902,-0.2269599437713623
1789323101675145500,20.2311455078125,0.6405882835388184,1.2543091773986816,-1.1262850761413574
1789323101693995500,20.24999560546875,-0.9292623996734619,1.2766642570495605,-0.9322166442871094
1789323101712845300,20.26884521484375,0.1263270378112793,1.5619440078735352,-0.25258708000183105
1789323101731695400,20.2876953125,1.7605862617492676,0.5104289054870605,0.5357937812805176
1789323101750545200,20.306545166015624,1.1998019218444824,-0.8068256378173828,-0.25180912017822266
1789323101769395200,20.325395263671876,0.12723779678344727,-0.9074082374572754,-0.8841896057128906
1789323101788245000,20.344244873046875,-1.9469740390777588,-0.18381643295288086,-1.3204901218414307
1789323101807095000,20.363094970703123,-2.573319673538208,0.07351493835449219,1.1040618419647217
1789323101825944800,20.38194482421875,-2.1730475425720215,-0.17371177673339844,1.398102045059204
1789323101844794600,20.400794677734375,-1.3319125175476074,0.6631569862365723,1.9933339357376099
1789323101863644700,20.419644775390626,1.5382537841796875,0.6909899711608887,-1.126615047454834
1789323101882494500,20.438494384765626,4.256943702697754,-0.8017086982727051,-1.0983123779296875
1789323101901344500,20.457344482421874,5.321569919586182,-3.4351906776428223,-2.312236785888672
1789323101920194300,20.4761943359375,1.753891944885254,-6.040875434875488,-2.5558881759643555
1789323101939044400,20.49504443359375,-0.32283687591552734,-3.8784632682800293,-3.8199634552001953
1789323101957894100,20.51389404296875,-1.5337634086608887,-1.650270938873291,-1.5891914367675781
1789323101976744200,20.532744140625,-1.1449203491210938,-0.04984760284423828,-0.5460326671600342
1789323101995594000,20.551593994140624,-0.4479513168334961,1.522474765777588,0.22524189949035645
1789323102014443800,20.57044384765625,-0.5784988403320312,1.9353339672088623,1.7600908279418945
1789323102033293800,20.5892939453125,-1.5030450820922852,0.006167411804199219,1.9909456968307495
1789323102052143600,20.6081435546875,-2.382892608642578,-0.8334250450134277,1.8365275859832764
1789323102070993700,20.62699365234375,-2.8502049446105957,-2.047564744949341,0.7528262138366699
1789323102099268600,20.6552685546875,-3.314131736755371,-1.3199975490570068,0.22121572494506836
1789323102118118400,20.674118408203125,-5.693415641784668,1.3413264751434326,1.560038685798645
1789323102136968200,20.69296826171875,-5.085545063018799,3.3024120330810547,2.863172769546509
1789323102155818200,20.711818359375,-2.4010276794433594,3.2451298236846924,3.9515414237976074
1789323102174668000,20.73066796875,-2.224331855773926,3.0738096237182617,1.7102506160736084
1789323102193518000,20.74951806640625,-4.565854549407959,2.5987613201141357,0.7826225757598877
1789323102212368000,20.768367919921875,-2.970372200012207,1.9970864057540894,1.0108106136322021
1789323102231217700,20.7872177734375,-1.8568124771118164,1.4882538318634033,2.061784505844116
1789323102250067700,20.806067626953126,1.2533578872680664,1.1101016998291016,1.5154919624328613
1789323102268917500,20.82491748046875,-3.127204418182373,0.6011683940887451,0.05602836608886719
1789323102287767600,20.843767578125,-1.795560359954834,0.13114094734191895,0.09558367729187012
1789323102306617300,20.862617431640626,0.22766876220703125,-0.11640739440917969,0.41829705238342285
1789323102325467100,20.881467041015625,0.7656970024108887,-0.49690675735473633,0.294283390045166
1789323102344317200,20.900317138671873,0.40179872512817383,-1.379310131072998,-0.43695640563964844
1789323102363167000,20.9191669921875,0.07035112380981445,-1.9613442420959473,-0.7335953712463379
1789323102382017000,20.93801708984375,-0.26398611068725586,-1.204235553741455,-1.091935396194458
1789323102400866800,20.95686669921875,-0.9299511909484863,-0.2594327926635742,-0.690277099609375
1789323102419716600,20.975716552734376,-1.8278818130493164,-0.026189804077148438,-0.2441699504852295
1789323102438566700,20.994566650390624,-0.5214138031005859,0.6015543937683105,0.8318226337432861
1789323102457416400,21.01341650390625,-0.6427059173583984,1.4854626655578613,0.5820937156677246
1789323102476266200,21.032266357421875,0.07977676391601562,1.8255972862243652,-0.5853228569030762
1789323102495116300,21.0511162109375,0.5973572731018066,1.5137953758239746,-1.7649648189544678
1789323102513966000,21.069966064453126,0.14243555068969727,0.43625688552856445,-2.4240565299987793
1789323102532816000,21.08881591796875,1.2999486923217773,-1.199152946472168,-3.3646421432495117
1789323102551666000,21.107666015625,1.9039554595947266,-4.218698501586914,-1.9083704948425293
1789323102570515700,21.126515625,3.4780406951904297,-7.649548530578613,-0.10361480712890625
1789323102589365500,21.145365478515625,4.805244445800781,-7.925800323486328,0.4571990966796875
1789323102608215600,21.164215576171873,4.343376159667969,-4.334588050842285,0.06778240203857422
1789323102627065300,21.1830654296875,2.950685977935791,-1.6948986053466797,-0.6179041862487793
1789323102645915100,21.2019150390625,2.1477065086364746,0.46817684173583984,-0.9508523941040039
1789323102664765200,21.22076513671875,0.8560209274291992,1.344130516052246,-0.4367790222167969
1789323102683615000,21.239614990234376,1.041182041168213,1.0652351379394531,-0.6795084476470947
1789323102702464800,21.25846484375,1.0327281951904297,-0.3832530975341797,-0.2101447582244873
1789323102721314800,21.277314697265624,0.8627371788024902,-0.5539755821228027,-0.6304576396942139
1789323102740164600,21.29616455078125,-0.6438727378845215,-0.16411542892456055,0.26358795166015625
1789323102759014400,21.315014404296875,-1.1577725410461426,0.18263721466064453,0.6761946678161621
1789323102777864200,21.3338642578125,-1.8320133686065674,0.49327850341796875,1.2390012741088867
1789323102796714200,21.35271435546875,-1.4439516067504883,0.2861299514770508,1.2183752059936523
1789323102834414000,21.3904140625,2.669982433319092,-2.367353916168213,-1.5803537368774414
1789323102853264000,21.409263916015625,3.4603400230407715,-2.6568002700805664,-2.37033748626709
1789323102872113700,21.42811376953125,2.849771022796631,-2.046844959259033,-4.471127033233643
1789323102890963500,21.44696337890625,1.8510947227478027,-1.001929759979248,-2.7332682609558105
1789323102909813500,21.4658134765625,0.40807342529296875,-0.3933682441711426,-1.6407108306884766
1789323102928663300,21.484663330078124,-1.2517127990722656,-0.5603446960449219,-1.017338752746582
1789323102947513000,21.50351318359375,-2.0916404724121094,0.15705585479736328,-1.1561198234558105
1789323102966363000,21.52236279296875,0.30043840408325195,-0.5728025436401367,0.166154146194458
1789323102985213000,21.541212890625,0.35218048095703125,-2.794295310974121,-0.20906853675842285
1789323103004062700,21.560062744140627,-2.249145030975342,-2.3378686904907227,0.3340737819671631
1789323103022912500,21.57891259765625,-2.580839157104492,1.282665491104126,-0.538825273513794
1789323103051187500,21.6071875,-2.284841537475586,0.19009780883789062,0.2884652614593506
1789323103070037200,21.626037353515624,-0.6660537719726562,2.4965901374816895,1.4954495429992676
1789323103088887000,21.644886962890624,-2.977108955383301,0.33130788803100586,1.2303460836410522
1789323103107736800,21.66373681640625,-4.094747066497803,-0.37622761726379395,0.551483154296875
1789323103126586600,21.682586669921875,-5.537528038024902,-0.26053404808044434,2.5627543926239014
1789323103145436700,21.701436767578127,-4.194093227386475,1.0000739097595215,1.6256754398345947
1789323103164286500,21.720286376953126,-4.266236305236816,2.190274238586426,2.7441318035125732
1789323103183136300,21.73913623046875,-3.3976387977600098,2.0609676837921143,1.025964379310608
1789323103201986000,21.757986083984374,-3.8708786964416504,2.0784125328063965,1.8086422681808472
1789323103220836000,21.776836181640626,-3.27004337310791,2.2565157413482666,1.8824340105056763
1789323103239686000,21.795685791015625,-0.39313411712646484,2.259026288986206,2.432504177093506
1789323103258535700,21.81453564453125,-0.4628257751464844,1.925532579421997,1.6977107524871826
1789323103277385500,21.833385498046876,-0.974400520324707,1.5223932266235352,0.3869140148162842
1789323103296235300,21.8522353515625,-1.9165925979614258,-0.06980037689208984,-1.333646297454834
1789323103315085300,21.871085205078124,0.44696903228759766,-0.4918532371520996,-0.6041178703308105
1789323103333935000,21.88993505859375,1.8741226196289062,-0.6991629600524902,-1.3928954601287842
1789323103352785000,21.908784912109375,0.5736842155456543,-2.8098526000976562,-0.9901027679443359
1789323103371634700,21.927634765625,-1.274094581604004,-2.8977580070495605,-1.4109444618225098
1789323103390484700,21.946484619140627,-2.1296186447143555,-1.5044331550598145,-0.22391319274902344
1789323103409334500,21.96533447265625,0.8626847267150879,0.012362957000732422,0.31856584548950195
1789323103428184300,21.984184326171874,0.21397924423217773,0.4238557815551758,-0.29626965522766113
1789323103447034000,22.0030341796875,-0.6215724945068359,0.44423389434814453,-1.5926122665405273
1789323103465884000,22.0218837890625,-0.723332405090332,0.2635660171508789,-2.144031524658203
1789323103484733700,22.040733642578125,0.5234627723693848,-0.1745600700378418,-1.8144614696502686
1789323103503583700,22.059583740234373,1.9185209274291992,-0.963226318359375,-1.7363064289093018
1789323103522433500,22.07843359375,2.267970561981201,-1.9773802757263184,-2.2961788177490234
1789323103541283300,22.097283447265625,2.023681640625,-2.86698055267334,-2.164612293243408
1789323103560133000,22.116133056640624,1.7179102897644043,-2.9437360763549805,-0.7844574451446533
1789323103578983000,22.13498291015625,2.5539145469665527,-1.7785072326660156,0.28175973892211914
1789323103597833000,22.1538330078125,3.769883632659912,-2.183094024658203,-0.18184351921081543
1789323103616682800,22.172682861328123,4.4673171043396,-4.980508804321289,-2.372868537902832
1789323103635532500,22.191532470703127,3.922490119934082,-7.207709789276123,-3.9049322605133057
1789323103654382300,22.21038232421875,2.877087116241455,-3.6388635635375977,-1.1365063190460205
1789323103673232100,22.229232177734374,2.00570011138916,-1.4490938186645508,-1.319009780883789
1789323103692082000,22.24808203125,0.2159266471862793,-0.9559340476989746,-1.4819543361663818
1789323103710931700,22.266931640625,-0.6134657859802246,-1.9175429344177246,-0.5884058475494385
1789323103729781800,22.28578173828125,-0.7073540687561035,-2.486548900604248,-0.27031803131103516
1789323103748631600,22.304631591796873,-1.064967155456543,-2.1666159629821777,-0.22704172134399414
1789323103767481300,22.3234814453125,-0.5930218696594238,-1.5819973945617676,-0.41564035415649414
1789323103786331100,22.3423310546875,-0.6190052032470703,-1.5864801406860352,-0.7090115547180176
1789323103805181000,22.361180908203124,-1.739098072052002,-0.31035470962524414,-1.3463072776794434
1789323103824030700,22.38003076171875,-2.5463690757751465,1.4972572326660156,-1.0496976375579834
1789323103842880500,22.398880615234376,-3.0559210777282715,2.747363567352295,-0.5055084228515625
1789323103861730600,22.41773046875,-3.178445816040039,2.9165260791778564,0.7759273052215576
1789323103880580400,22.436580322265623,-2.1720032691955566,2.2129406929016113,1.8266000747680664
1789323103899430100,22.45543017578125,-0.682342529296875,1.3932514190673828,1.3990780115127563
1789323103918280000,22.474280029296875,0.31832075119018555,0.12202739715576172,0.3736703395843506
1789323103937129700,22.493129638671874,0.39142513275146484,-0.2551555633544922,-0.5115466117858887
1789323103955979500,22.5119794921875,0.13495159149169922,-0.4942960739135742,-0.5707659721374512
1789323103974829300,22.530829345703125,-0.8394961357116699,-0.49565982818603516,0.15104341506958008
1789323103993679000,22.54967919921875,-2.476418972015381,1.0191426277160645,0.2293262481689453
1789323104012529200,22.568529052734377,-2.171846866607666,1.1383681297302246,-1.276947021484375
1789323104031379000,22.58737890625,-1.2729597091674805,0.19210433959960938,-1.9060263633728027
1789323104050228700,22.606228759765624,-0.26512908935546875,-0.038137197494506836,-0.707728385925293
1789323104069078500,22.62507861328125,-2.1766457557678223,0.53861403465271,0.2522428035736084
1789323104087928300,22.64392822265625,-3.9509196281433105,1.8595154285430908,0.915779709815979
1789323104106778000,22.662778076171875,-2.906825542449951,1.3399121761322021,1.6348228454589844
1789323104125628000,22.6816279296875,-1.4766778945922852,-0.7171921730041504,1.6803781986236572
1789323104144477700,22.700477783203127,-1.705082893371582,-0.8763477802276611,1.343131422996521
1789323104163327500,22.719327392578126,-2.6582937240600586,-0.34404897689819336,0.9189358949661255
1789323104182177500,22.738177490234374,-2.093245506286621,-0.8605170249938965,0.7324241399765015
1789323104201027300,22.75702734375,-3.040515899658203,0.20748686790466309,0.9862157106399536
1789323104219877000,22.775877197265626,-4.273942470550537,1.6203718185424805,1.4219471216201782
1789323104238727000,22.794726806640625,-3.709519863128662,2.49210262298584,1.8714888095855713
1789323104257576700,22.81357666015625,-3.898345470428467,2.5987324714660645,2.3435981273651123
1789323104276426500,22.832426513671876,-4.209878444671631,3.1437344551086426,1.5070472955703735
1789323104295276300,22.8512763671875,-3.417654514312744,2.8320837020874023,1.2566249370574951
1789323104314126000,22.8701259765625,-2.9440665245056152,2.7327561378479004,1.0250409841537476
1789323104332975900,22.888975830078124,-3.323927402496338,2.489170789718628,0.0026340484619140625
1789323104351825700,22.90782568359375,-1.4663190841674805,2.070300579071045,1.8158267736434937
1789323104370675500,22.926675537109375,-1.5894932746887207,2.142293930053711,0.646693229675293
1789323104389525200,22.945525146484375,1.60333251953125,1.540884017944336,1.737772822380066
1789323104408375000,22.964375,4.8162007331848145,0.8166823387145996,-0.7864029407501221
1789323104427224800,22.983224853515626,1.6579394340515137,-1.7754325866699219,-2.006220579147339
1789323104446075000,23.002074951171874,3.007406234741211,-4.6504106521606445,-3.3558220863342285
1789323104464924700,23.020924560546874,1.8417887687683105,-7.728048801422119,-5.942108154296875
1789323104483774500,23.0397744140625,3.0250377655029297,-8.820828437805176,-4.741748809814453
1789323104502624300,23.058624267578125,3.8181939125061035,-5.062661170959473,-3.028812885284424
1789323104521474000,23.07747412109375,4.497672080993652,-1.2611093521118164,-2.5602214336395264
1789323104540323800,23.09632373046875,4.940014839172363,-0.07775115966796875,-3.058453321456909
1789323104559173600,23.115173583984376,4.5895676612854,-0.6682291030883789,-3.3511385917663574
1789323104578023400,23.1340234375,0.7152657508850098,-1.0911779403686523,-1.376924753189087
1789323104596873200,23.152873291015624,1.4234118461608887,-1.522200584411621,-0.7046847343444824
1789323104615723000,23.171722900390623,2.4074950218200684,-3.294342041015625,-0.05586576461791992
1789323104634572800,23.19057275390625,2.735961437225342,-5.087041854858398,0.6560258865356445
1789323104653422600,23.209422607421875,1.636589527130127,-3.6080493927001953,0.6435046195983887
1789323104672272400,23.2282724609375,-0.30913257598876953,-0.20427989959716797,1.7555162906646729
1789323104691122200,23.2471220703125,-0.5439000129699707,1.76182222366333,1.1674683094024658
1789323104709972000,23.265971923828126,-1.688206434249878,2.056121826171875,1.1167361736297607
1789323104728821800,23.28482177734375,-2.3843636512756348,1.8296327590942383,1.556708812713623
1789323104747671600,23.303671630859377,-1.601534366607666,2.379486560821533,1.7293879985809326
1789323104766521300,23.322521240234376,-1.1218185424804688,1.7956161499023438,1.1678853034973145
1789323104785371100,23.34137109375,0.22548437118530273,0.6298837661743164,0.5856537818908691
1789323104804221000,23.360220947265624,3.28439998626709,-1.405937671661377,-1.6202929019927979
1789323104823070700,23.37907080078125,3.66622257232666,-4.015124797821045,-3.9108781814575195
1789323104841920500,23.39792041015625,2.5234832763671875,-3.473116397857666,-5.187626838684082
1789323104860770300,23.416770263671875,0.799717903137207,-1.9132165908813477,-4.457230567932129
1789323104889045000,23.445044921875,0.08002710342407227,-1.950352668762207,-0.17325592041015625
1789323104907894800,23.463894775390624,-0.8093690872192383,-2.6824517250061035,-0.05355978012084961
1789323104926744600,23.48274462890625,-0.16684293746948242,-1.2157464027404785,0.559668779373169
1789323104945594400,23.501594482421876,-0.33826255798339844,-1.3886628150939941,0.8991737365722656
1789323104964444200,23.520444091796875,0.25737524032592773,-1.273275375366211,1.6984906196594238
1789323104983294000,23.5392939453125,-1.2496438026428223,0.7756376266479492,2.1629483699798584
1789323105002143700,23.558143798828127,-4.020880222320557,1.748241662979126,1.4618351459503174
1789323105020993500,23.57699365234375,-3.863185405731201,2.1345553398132324,1.2858130931854248
1789323105039843300,23.59584326171875,-2.4166197776794434,2.250147819519043,-0.2683539390563965
1789323105058693000,23.614693115234374,0.4906444549560547,0.7403049468994141,0.3686854839324951
1789323105077543000,23.63354296875,-0.8310375213623047,-0.06406593322753906,-0.26021623611450195
1789323105096392700,23.652392822265625,-4.664318561553955,-0.9553744792938232,1.2196135520935059
1789323105115242500,23.671242431640625,-3.364108085632324,-0.6694493293762207,2.1067495346069336
1789323105134092300,23.69009228515625,-0.868098258972168,0.22040629386901855,3.0155208110809326
1789323105152941800,23.70894189453125,-3.215808868408203,0.614605188369751,1.3827217817306519
1789323105171791600,23.72779150390625,-3.2610392570495605,0.8748137950897217,1.443339467048645
1789323105190641400,23.746641357421876,-1.8470182418823242,1.0677824020385742,1.3025791645050049
1789323105209491200,23.7654912109375,-3.277374744415283,1.0945935249328613,2.7053894996643066
1789323105228341000,23.784341064453123,-2.221991539001465,1.6372648477554321,2.9456684589385986
1789323105247190800,23.803190673828126,-3.2758641242980957,1.6056222915649414,1.9206916093826294
1789323105266040600,23.82204052734375,-2.7347412109375,1.6509490013122559,1.8027677536010742
1789323105284890400,23.840890380859374,-1.4187426567077637,1.7862186431884766,2.017517566680908
1789323105303740200,23.859740234375,-3.266836643218994,1.4596538543701172,1.315474033355713
1789323105322590000,23.87858984375,-1.3072028160095215,2.029909133911133,1.266047716140747
1789323105341439700,23.897439697265625,1.865410327911377,2.1283559799194336,0.8330798149108887
1789323105360289500,23.91628955078125,-0.25850820541381836,0.045148372650146484,-0.33451080322265625
1789323105379139300,23.935139404296876,1.2456812858581543,-1.207697868347168,-2.266885757446289
1789323105397988900,23.95398876953125,-0.04904794692993164,-2.655360698699951,-2.2709503173828125
1789323105416838700,23.972838623046876,0.8339228630065918,-4.671954154968262,-3.2901077270507812
1789323105435688400,23.9916884765625,1.1755962371826172,-6.171399116516113,-2.7007253170013428
1789323105454538200,24.010538330078123,2.212772846221924,-5.3100457191467285,-1.2378461360931396
1789323105473388000,24.029387939453127,3.600252628326416,-4.024008274078369,-0.7943670749664307
1789323105492237800,24.04823779296875,3.8213300704956055,-2.38519287109375,-1.0579109191894531
1789323105511087600,24.067087646484374,2.64066219329834,-0.9556398391723633,-1.115328311920166
