time,seconds_elapsed,z,y,x
1789323193528908800,0.22690869140625,0.17439688742160797,0.8480850458145142,-0.42492061853408813
1789323193547759000,0.245759033203125,0.18966807425022125,0.5633538961410522,-0.2734304964542389
1789323193594885000,0.292885009765625,-0.20005246996879578,0.13026317954063416,0.11262496560811996
1789323193613735400,0.3117353515625,0.08338065445423126,0.08689302206039429,0.2274642437696457
1789323193642011000,0.340010986328125,0.11636640131473541,-0.6210789680480957,0.44248247146606445
1789323193660861200,0.358861083984375,-0.19333316385746002,-1.1525160074234009,0.42721131443977356
1789323193679711500,0.37771142578125,-0.4450022280216217,-1.1219737529754639,0.21463645994663239
1789323193726837500,0.42483740234375,-0.251974493265152,-0.29916244745254517,-0.3015294671058655
1789323193773963300,0.47196337890625,0.47737714648246765,-0.7707365155220032,-0.04619532451033592
1789323193792813800,0.490813720703125,0.8609892129898071,-1.0346225500106812,0.3209238648414612
1789323193811664100,0.5096640625,0.41201648116111755,-0.9729269742965698,0.28671643137931824
1789323193830514400,0.528514404296875,-0.12613995373249054,-0.8391514420509338,0.3826194405555725
1789323193849364700,0.54736474609375,-0.0778830274939537,0.1107160672545433,0.45592111349105835
1789323193868215000,0.566215087890625,0.06383354216814041,0.9421555399894714,0.05337277799844742
1789323193887065600,0.585065673828125,-0.16156910359859467,0.6390989422798157,-0.29175591468811035
1789323193905916000,0.603916015625,-0.3038965165615082,-0.3077143132686615,-0.10972344130277634
1789323193924766200,0.62276611328125,-0.3808632791042328,-0.603975236415863,0.09918632358312607
1789323193943616500,0.641616455078125,-0.32161107659339905,-0.11712995916604996,-0.06390989571809769
1789323193962467000,0.660467041015625,-0.11942064017057419,0.747218906879425,-0.33329352736473083
1789323193981317400,0.6793173828125,-0.057114217430353165,0.4643966257572174,-0.5221216678619385
1789323194000167700,0.698167724609375,-0.2892361879348755,-0.14522893726825714,-0.3791070878505707
1789323194019018200,0.717018310546875,-0.2874036431312561,0.0850604772567749,-0.14759597182273865
1789323194037868500,0.73586865234375,0.0021379655227065086,0.5059342384338379,0.010613471269607544
1789323194056718800,0.75471875,0.6691831946372986,1.1748883724212646,0.32275640964508057
1789323194075569400,0.7735693359375,1.3839508295059204,2.3171727657318115,0.17920731008052826
1789323194094419700,0.792419677734375,1.5891954898834229,3.4821348190307617,-0.946049690246582
1789323194113270000,0.81127001953125,1.3088165521621704,3.273759603500366,-1.8824785947799683
1789323194132120600,0.83012060546875,0.5464028716087341,2.7136125564575195,-2.071230411529541
1789323194150971000,0.848970947265625,0.5531222224235535,2.058784246444702,-2.030303478240967
1789323194169821200,0.8678212890625,1.0540169477462769,1.2854516506195068,-2.2178337574005127
1789323194188671700,0.886671630859375,1.1853491067886353,0.3348970115184784,-1.6057647466659546
1789323194207522000,0.90552197265625,1.0955545902252197,-0.6992673873901367,-0.4524087607860565
1789323194226372600,0.92437255859375,0.7852441668510437,-0.6620057225227356,-0.36750099062919617
1789323194245223000,0.943222900390625,0.9990406632423401,0.1907370537519455,-2.311904191970825
1789323194264073200,0.9620732421875,0.8249492049217224,1.9781525135040283,-4.595938205718994
1789323194282923800,0.980923828125,0.2635805904865265,2.388641834259033,-5.552525043487549
1789323194301774000,0.999774169921875,-0.6490252017974854,1.3954042196273804,-4.837223052978516
1789323194320624600,1.018624755859375,-1.3405042886734009,-0.872137188911438,-3.234970808029175
1789323194339475000,1.037474853515625,-1.3771551847457886,-2.183091640472412,-2.2202770709991455
1789323194358325200,1.0563251953125,-0.9507837295532227,-2.104292392730713,-2.276474952697754
1789323194377175800,1.07517578125,-0.7785248160362244,-1.847049355506897,-3.011935234069824
1789323194396026000,1.094026123046875,-0.6264238357543945,-1.1372449398040771,-3.6741700172424316
1789323194414876700,1.112876708984375,-0.3124483823776245,0.2420482337474823,-4.405354022979736
1789323194433727000,1.13172705078125,-0.5189147591590881,1.02278733253479,-4.505533218383789
1789323194452577500,1.15057763671875,-1.2067288160324097,1.3990693092346191,-3.862921714782715
1789323194471427800,1.169427734375,-1.5702592134475708,1.5731607675552368,-3.2251970767974854
1789323194490278400,1.1882783203125,-1.3081294298171997,2.4350662231445312,-3.333927869796753
1789323194509128700,1.207128662109375,-0.7400414347648621,3.8834614753723145,-3.767629623413086
1789323194527979300,1.225979248046875,-0.8646543025970459,4.577383995056152,-3.9887561798095703
1789323194546829600,1.24482958984375,-1.0020949840545654,5.940794944763184,-3.071798086166382
1789323194565680000,1.26368017578125,-0.540905237197876,6.6189117431640625,-2.115211248397827
1789323194584530400,1.282530517578125,-0.3252761662006378,4.200490951538086,-1.8336107730865479
1789323194603381000,1.301381103515625,0.9232956171035767,1.8633131980895996,-1.8586554527282715
1789323194622231300,1.320231201171875,2.234861135482788,-0.05482354015111923,-1.556286096572876
1789323194641081900,1.339081787109375,2.11330246925354,2.103986978530884,-0.4041518270969391
1789323194659932400,1.357932373046875,1.0992196798324585,3.6892120838165283,-0.6003101468086243
1789323194678782700,1.37678271484375,1.3906701803207397,2.553570508956909,-0.154926136136055
1789323194725909000,1.423908935546875,1.8512489795684814,1.510243535041809,-0.02970244735479355
1789323194829586400,1.52758642578125,0.4297310411930084,-1.4481661319732666,0.15843850374221802
1789323194848437000,1.54643701171875,-0.6545228362083435,-2.5318856239318848,0.6373427510261536
1789323194867287600,1.56528759765625,-1.4963467121124268,-2.8849551677703857,1.125409722328186
1789323194886137900,1.584137939453125,-2.49263858795166,-3.079815626144409,1.3605859279632568
1789323194904988400,1.602988525390625,-1.6612755060195923,-3.2685673236846924,1.1700016260147095
1789323194923839000,1.6218388671875,-0.7064448595046997,-2.7853870391845703,0.787611186504364
1789323194942689300,1.640689208984375,-0.30756160616874695,-1.7945165634155273,0.9348253607749939
1789323194961539800,1.659539794921875,-0.634364902973175,-0.47081053256988525,1.7008278369903564
1789323194980390400,1.678390380859375,-0.27152159810066223,0.9653677344322205,1.9964779615402222
1789323194999241000,1.697240966796875,0.8212841153144836,1.7594691514968872,1.8755301237106323
1789323195018091300,1.71609130859375,0.7302678823471069,1.1058626174926758,1.8816386461257935
1789323195036941800,1.73494189453125,0.3833066523075104,-0.35108447074890137,1.794898271560669
1789323195055792400,1.75379248046875,-0.03023693896830082,-0.11957334727048874,1.7643558979034424
1789323195074642700,1.772642578125,-0.03634541109204292,0.13270656764507294,1.9897586107254028
1789323195093493200,1.7914931640625,0.20616094768047333,-0.19837264716625214,2.0734446048736572
1789323195112343800,1.81034375,0.4474456310272217,-0.35536038875579834,1.9854826927185059
1789323195131194400,1.8291943359375,0.24586601555347443,-1.0401201248168945,1.8999640941619873
1789323195150044700,1.848044677734375,-0.02901524491608143,-1.2099356651306152,1.6030923128128052
1789323195168895200,1.866895263671875,-0.8487722873687744,-1.339435338973999,1.3990693092346191
1789323195187745800,1.885745849609375,-1.184738278388977,-1.7884080410003662,1.2903385162353516
1789323195206596400,1.904596435546875,-0.5781669020652771,-1.509861707687378,0.5023455023765564
1789323195225447000,1.923447021484375,-0.5140279531478882,-1.00224769115448,0.1327829211950302
1789323195244297200,1.942297119140625,-0.5738909840583801,-0.9820896983146667,0.21585814654827118
1789323195263147800,1.961147705078125,-0.6117635369300842,-0.041384901851415634,0.07475243508815765
1789323195281998300,1.979998291015625,-0.13591352105140686,1.000796914100647,0.5261685848236084
1789323195300849000,1.998848876953125,0.037567105144262314,0.9140565395355225,0.3148154020309448
1789323195319699500,2.017699462890625,0.09620844572782516,1.0576056241989136,0.07719582319259644
1789323195338550000,2.036550048828125,0.10109522193670273,0.9097806215286255,0.21524730324745178
1789323195357400300,2.055400390625,0.30939415097236633,2.1662933826446533,1.3679161071777344
1789323195376251000,2.0742509765625,-0.49448084831237793,0.7698966264724731,0.9824714660644531
1789323195395101400,2.093101318359375,-0.9373451471328735,0.06673506647348404,0.4492017924785614
1789323195413952000,2.111951904296875,-1.4217469692230225,-0.10369132459163666,-0.05841226875782013
1789323195432802600,2.130802490234375,-1.4890165328979492,0.18035265803337097,-0.8971819281578064
1789323195451652900,2.14965283203125,-1.5189480781555176,0.282364159822464,-1.3412678241729736
1789323195470503400,2.16850341796875,-1.793829321861267,0.07528692483901978,-1.7676392793655396
1789323195489354000,2.18735400390625,-1.926383137702942,-0.06581879407167435,-2.0492398738861084
1789323195508204500,2.20620458984375,-1.8915648460388184,-0.6051968932151794,-2.264868974685669
1789323195527055000,2.22505517578125,-1.8029919862747192,-1.4066284894943237,-2.371767282485962
1789323195545905700,2.24390576171875,-1.8127655982971191,-0.6894938349723816,-2.6399290561676025
1789323195564756200,2.262756103515625,-1.7193059921264648,0.05757235363125801,-2.846395492553711
1789323195583606800,2.281606689453125,-1.3924263715744019,-0.4262186884880066,-2.792030096054077
1789323195602457300,2.300457275390625,-1.0784507989883423,-1.6656277179718018,-2.5208139419555664
1789323195621307600,2.3193076171875,-1.3502779006958008,-1.2661336660385132,-3.568493366241455
1789323195640158200,2.338158203125,-1.2983558177947998,-0.9472714066505432,-4.247755527496338
1789323195659008800,2.3570087890625,-0.7736380696296692,-1.6338636875152588,-2.8457846641540527
1789323195677859300,2.375859375,-0.23059484362602234,-1.1598461866378784,-1.8220046758651733
1789323195696710000,2.3947099609375,0.20616094768047333,-0.09086353331804276,-1.324774980545044
1789323195715560400,2.413560546875,0.4169032573699951,0.41797223687171936,-0.9124531149864197
1789323195734411000,2.432410888671875,0.5519005060195923,0.6928535103797913,-0.5899257659912109
1789323195753261600,2.451261474609375,0.3637595474720001,0.6055023670196533,-0.015042114071547985
1789323195772112100,2.470112060546875,0.2238755226135254,0.5700731873512268,0.5988593697547913
1789323195790962700,2.488962646484375,0.18966807425022125,0.4674508571624756,1.1400700807571411
1789323195809813200,2.507813232421875,0.23059484362602234,0.409420371055603,1.809558629989624
1789323195828663800,2.526663818359375,0.09987352788448334,0.8230403065681458,1.8535397052764893
1789323195847514400,2.545514404296875,0.7473716139793396,-0.4769189953804016,1.0117921829223633
1789323195866365000,2.564364990234375,0.5726693272590637,-0.05360184609889984,0.8810707926750183
1789323195885215500,2.583215576171875,0.33627140522003174,0.5719057321548462,1.2261995077133179
1789323195904066000,2.602066162109375,0.0009162708884105086,0.3232909142971039,1.1638931035995483
1789323195922916600,2.62091650390625,-0.1585148572921753,0.48394373059272766,1.0850938558578491
1789323195941767200,2.63976708984375,-0.2092151790857315,0.5554128885269165,1.1241880655288696
1789323195960617700,2.65861767578125,-0.16340164840221405,0.3367295563220978,1.1272422075271606
1789323195979468300,2.67746826171875,0.11209046840667725,0.14248012006282806,1.1247988939285278
1789323195998318800,2.69631884765625,0.4443913698196411,0.1889045089483261,1.2243670225143433
1789323196017169400,2.71516943359375,0.7113316059112549,-0.05115845799446106,1.3581424951553345
1789323196036020000,2.73402001953125,0.7198835015296936,-0.31565532088279724,1.4876421689987183
1789323196054870500,2.75287060546875,0.7968502640724182,-0.5770979523658752,1.573771595954895
1789323196073721000,2.77172119140625,0.9416210651397705,-0.9918632507324219,1.6379106044769287
1789323196092571600,2.790571533203125,0.9385668039321899,-1.0358442068099976,1.7857356071472168
1789323196111422200,2.809422119140625,0.8273926377296448,-0.8593093752861023,1.91218101978302
1789323196130272800,2.828272705078125,0.6533011198043823,-0.5825955867767334,1.9812067747116089
1789323196149123300,2.847123291015625,0.5854970812797546,-0.40544986724853516,1.9622704982757568
1789323196167974000,2.865973876953125,0.6551336646080017,-0.4750864505767822,1.9732657670974731
1789323196186824700,2.88482470703125,0.6997255086898804,-0.5746545791625977,1.9934237003326416
1789323196205675300,2.90367529296875,0.42850935459136963,-1.0376768112182617,1.998921275138855
1789323196224525800,2.92252587890625,0.37047886848449707,-1.1384665966033936,1.6311912536621094
1789323196243376400,2.94137646484375,0.4431696832180023,-0.7597413063049316,1.3734136819839478
1789323196262227000,2.96022705078125,0.483485609292984,-0.38162681460380554,1.2530767917633057
1789323196281077500,2.979077392578125,0.647803544998169,-0.23196925222873688,0.8511393070220947
1789323196299928000,2.997927978515625,0.6838434934616089,-0.36513394117355347,0.39117130637168884
1789323196318778600,3.016778564453125,0.5433486104011536,-0.4506525695323944,0.24456797540187836
1789323196337629400,3.03562939453125,0.2086043357849121,-0.5355603098869324,0.11934428662061691
1789323196356480000,3.05447998046875,0.08704573661088943,-0.11529742181301117,0.09735377877950668
1789323196375330600,3.07333056640625,-0.09071081876754761,0.36971530318260193,-0.07185091078281403
1789323196394181000,3.09218115234375,-0.20005246996879578,0.6904101371765137,-0.31680065393447876
1789323196413031700,3.11103173828125,-0.2373141646385193,1.1223554611206055,-0.6076403260231018
1789323196431882200,3.12988232421875,-0.21349111199378967,1.2756781578063965,-0.954601526260376
1789323196450733000,3.148733154296875,-0.1316375881433487,1.325156807899475,-1.1574028730392456
1789323196469583600,3.16758349609375,-0.38391751050949097,1.1645039319992065,-1.3101146221160889
1789323196488434200,3.18643408203125,-0.7339329719543457,1.0533297061920166,-1.5849958658218384
1789323196507284700,3.20528466796875,-0.8732061386108398,0.5853443741798401,-1.823837161064148
1789323196526135300,3.22413525390625,-1.0637905597686768,0.5230379700660706,-2.01930832862854
1789323196544986000,3.242986083984375,-1.2146698236465454,0.39170581102371216,-2.0174758434295654
1789323196563836700,3.261836669921875,-1.1505308151245117,0.4656183123588562,-2.1591923236846924
1789323196582687200,3.280687255859375,-1.2274975776672363,0.44423866271972656,-2.1891238689422607
1789323196601537800,3.299537841796875,-1.2342169284820557,0.11865708231925964,-2.3308403491973877
1789323196620388400,3.318388427734375,-0.9648332595825195,-0.11407572776079178,-2.487217426300049
1789323196639239200,3.3372392578125,-0.8438854813575745,-0.13484452664852142,-2.501877546310425
1789323196658089700,3.35608984375,-0.823727548122406,-0.36879903078079224,-2.432852029800415
1789323196676940300,3.374940185546875,-0.8670976758003235,-0.3749074935913086,-2.160413980484009
1789323196695790800,3.393790771484375,-0.7046123147010803,-0.45615020394325256,-2.021751642227173
1789323196714641700,3.4126416015625,-0.5995466113090515,-0.14583978056907654,-2.015643358230591
1789323196733492200,3.4314921875,-0.42423340678215027,0.10888352245092392,-1.9741055965423584
1789323196752342800,3.4503427734375,-0.030847785994410515,0.11560284346342087,-1.7987924814224243
1789323196771193300,3.469193359375,0.34787750244140625,-0.2564031481742859,-1.3125580549240112
1789323196790044200,3.488044189453125,0.29351210594177246,0.3642176687717438,-0.8501466512680054
1789323196808894700,3.506894775390625,0.3503209054470062,0.31168481707572937,-0.4792860448360443
1789323196827745300,3.525745361328125,0.3509317636489868,0.150421142578125,-0.06146650388836861
1789323196846596000,3.54459619140625,0.4333961308002472,0.03436015918850899,0.38872793316841125
1789323196865446700,3.56344677734375,0.48043137788772583,-0.0975828468799591,0.7772268056869507
1789323196884297200,3.582297119140625,0.4309527277946472,0.08994726091623306,1.1290748119354248
1789323196903147800,3.601147705078125,0.19272230565547943,0.2707580327987671,1.212149977684021
1789323196921998600,3.61999853515625,-0.027793550863862038,0.5150969624519348,1.1388483047485352
1789323196940849200,3.63884912109375,-0.20616094768047333,0.39598172903060913,1.2475792169570923
1789323196959699700,3.65769970703125,-0.25258535146713257,-0.0725381150841713,1.3575316667556763
1789323196978550500,3.676550537109375,-0.12308572232723236,-0.027946261689066887,1.402734398841858
1789323196997401000,3.695401123046875,0.0021379655227065086,0.037414394319057465,1.3935716152191162
1789323197016251600,3.714251708984375,0.14996300637722015,0.01969982497394085,1.4467153549194336
1789323197035102500,3.7331025390625,0.25563958287239075,0.14797775447368622,1.749084711074829
1789323197053953000,3.751953125,0.3405473530292511,0.06856760382652283,1.91218101978302
1789323197072803600,3.770803466796875,0.5005893111228943,0.08261708915233612,1.8944664001464844
1789323197091654400,3.789654296875,0.6068767309188843,0.09666658192873001,1.865756630897522
1789323197110505000,3.8085048828125,0.7113316059112549,-0.3901786804199219,2.052064895629883
1789323197129355800,3.827355712890625,0.7858549952507019,-0.241742804646492,2.128420829772949
1789323197148206300,3.846206298828125,0.7711946368217468,-0.2851129472255707,2.0416805744171143
1789323197167057000,3.865056884765625,0.6868977546691895,-0.33031564950942993,1.9897586107254028
1789323197185907700,3.88390771484375,0.6068767309188843,-0.4408790171146393,1.9457775354385376
1789323197204758300,3.90275830078125,0.642916738986969,-0.49707695841789246,1.9592162370681763
1789323197223608800,3.92160888671875,0.6294780969619751,-1.2447539567947388,2.063671112060547
1789323197242459600,3.940459716796875,0.5292991399765015,-1.5092508792877197,1.716709852218628
1789323197261310200,3.959310302734375,0.4816530644893646,-1.1512943506240845,1.3214917182922363
1789323197280161000,3.9781611328125,0.4999784827232361,-0.22036315500736237,1.485809564590454
1789323197299011600,3.997011474609375,0.45355409383773804,-0.576487123966217,1.2805649042129517
1789323197317862400,4.0158623046875,0.34482327103614807,-0.43354883790016174,0.7515711784362793
1789323197336713000,4.034712890625,0.1707318127155304,-0.1507265567779541,0.3954472541809082
1789323197355563500,4.0535634765625,0.15912571549415588,0.1766875684261322,0.32581067085266113
1789323197374414300,4.072414306640625,0.20555010437965393,-0.03894151374697685,-0.030313294380903244
1789323197393265000,4.091264892578125,0.046729814261198044,0.17241163551807404,-0.27892813086509705
1789323197412115700,4.11011572265625,-0.12858334183692932,0.252432644367218,-0.440802663564682
1789323197430966300,4.12896630859375,-0.3662029206752777,0.5615213513374329,-0.7481352090835571
1789323197449817000,4.147817138671875,-0.34482327103614807,0.6079457402229309,-1.0999832153320312
1789323197468667600,4.166667724609375,-0.3509317636489868,1.165725588798523,-1.413347840309143
1789323197487518500,4.1855185546875,-0.5005893111228943,1.1797751188278198,-1.6699036359786987
1789323197506369000,4.204369140625,-0.6691831946372986,1.3563100099563599,-1.825669765472412
1789323197525219800,4.2232197265625,-0.9013051390647888,0.8792382478713989,-1.9246269464492798
1789323197544070400,4.2420703125,-1.0973870754241943,0.9665894508361816,-2.0608458518981934
1789323197562921200,4.260921142578125,-1.267202615737915,0.7802810072898865,-2.178739547729492
1789323197591197200,4.289197265625,-1.7015913724899292,0.05085303261876106,-2.262425422668457
1789323197610048000,4.308048095703125,-1.7608436346054077,0.0325276181101799,-2.3216776847839355
1789323197628898600,4.326898681640625,-1.4003673791885376,0.05757235363125801,-2.479276418685913
1789323197647749400,4.345749267578125,-1.123653531074524,-0.009620844386518002,-2.4866065979003906
1789323197666600000,4.364599853515625,-1.0020949840545654,-0.5355603098869324,-2.3650479316711426
1789323197685450800,4.38345068359375,-0.800515353679657,-0.635739266872406,-2.409639835357666
1789323197704301300,4.40230126953125,-0.5628957748413086,-0.682774543762207,-2.352220058441162
1789323197723152100,4.421152099609375,-0.37292224168777466,-0.3859027624130249,-2.099940061569214
1789323197742002700,4.440002685546875,-0.23181653022766113,-0.2918322682380676,-1.6137057542800903
1789323197760853500,4.458853515625,0.12858334183692932,-0.14645062386989594,-1.4487769603729248
1789323197779704000,4.4777041015625,0.3148917555809021,-0.13117945194244385,-1.162900447845459
1789323197798555000,4.496554931640625,0.19333316385746002,-0.23929941654205322,-0.3528406620025635
1789323197817405700,4.51540576171875,0.305118203163147,0.22066856920719147,0.2909923493862152
1789323197836256300,4.53425634765625,0.5769452452659607,0.3171824514865875,0.5432722568511963
1789323197855107000,4.553107177734375,0.6252021789550781,0.06123743951320648,0.9287168979644775
1789323197873957600,4.57195751953125,0.49325916171073914,-0.3461976945400238,1.4497696161270142
1789323197892808400,4.590808349609375,0.4443913698196411,-0.20142687857151031,1.5853776931762695
1789323197911659300,4.6096591796875,0.3778090178966522,-0.05360184609889984,1.5383424758911133
1789323197930509800,4.628509765625,0.24647687375545502,-0.06337540596723557,1.5957621335983276
1789323197949360600,4.647360595703125,0.20310671627521515,-0.042606595903635025,1.7582474946975708
1789323197968211200,4.666211181640625,0.2886253297328949,-0.03955236077308655,1.926841378211975
1789323197987062000,4.68506201171875,0.4468347728252411,-0.24968381226062775,1.9097375869750977
1789323198005912800,4.703912841796875,0.5146388411521912,-0.27289602160453796,1.8584264516830444
1789323198024763400,4.722763427734375,0.5732801556587219,-0.2020377367734909,1.9494426250457764
1789323198043614200,4.7416142578125,0.6923953890800476,-0.48241662979125977,2.084439992904663
1789323198062464800,4.76046484375,0.6728482842445374,-0.43232715129852295,1.939669132232666
1789323198081315600,4.779315673828125,0.5421269536018372,-0.7041541934013367,1.7478630542755127
1789323198100166400,4.79816650390625,0.46577104926109314,-0.4280512034893036,1.7136555910110474
1789323198119017000,4.817016845703125,0.430341899394989,-0.5221216678619385,1.7289267778396606
1789323198137867800,4.83586767578125,0.569004237651825,-0.6650599241256714,1.7680209875106812
1789323198156718600,4.854718505859375,0.8536590337753296,-0.7670714259147644,1.8810278177261353
1789323198175569200,4.873569091796875,0.9581139087677002,-1.5336847305297852,1.9897586107254028
1789323198194420000,4.892419921875,0.9049702286720276,-2.0761935710906982,1.954329490661621
1789323198213270800,4.911270751953125,0.7589777112007141,-1.6967809200286865,1.7558040618896484
1789323198232121300,4.930121337890625,0.7565343379974365,-0.7029324769973755,1.8217755556106567
1789323198250972200,4.94897216796875,0.717440128326416,-0.021226942539215088,1.6788372993469238
1789323198269823000,4.967822998046875,0.5983248949050903,-0.04871506989002228,1.1883269548416138
1789323198288673800,4.986673828125,0.4230117201805115,-0.05115845799446106,0.7509603500366211
1789323198307524400,5.0055244140625,0.3271087110042572,0.39476004242897034,0.2506764531135559
1789323198326375200,5.024375244140625,0.3674246370792389,1.1131927967071533,0.11018157750368118
1789323198345226000,5.04322607421875,0.3106158375740051,1.0655466318130493,-0.3772745430469513
1789323198364076500,5.06207666015625,0.08276980370283127,0.7790593504905701,-0.9521581530570984
1789323198382927400,5.08092724609375,-0.1560714691877365,1.3648618459701538,-1.4115153551101685
1789323198401778200,5.099778076171875,-0.5146388411521912,1.2194801568984985,-1.7676392793655396
1789323198420629000,5.11862890625,-0.61481773853302,0.9116131663322449,-1.8720941543579102
1789323198439479800,5.137479736328125,-0.8121214509010315,0.5920637249946594,-2.01930832862854
1789323198458330400,5.156330322265625,-0.8548807501792908,0.6580352187156677,-2.186680555343628
1789323198477181200,5.17518115234375,-0.8335011005401611,0.23838314414024353,-2.3277862071990967
1789323198496032000,5.194031982421875,-0.9794935584068298,0.13209572434425354,-2.276474952697754
1789323198514882800,5.2128828125,-1.0430216789245605,0.01969982497394085,-2.387038469314575
1789323198533733400,5.2317333984375,-0.9220739603042603,0.037414394319057465,-2.5238680839538574
1789323198552584200,5.250584228515625,-0.8909206986427307,-0.11896250396966934,-2.5764009952545166
1789323198571435000,5.26943505859375,-0.9446752667427063,0.2677038013935089,-2.514094591140747
1789323198590285800,5.288285888671875,-0.9520054459571838,0.4869979918003082,-2.4139156341552734
1789323198609136400,5.307136474609375,-0.9410101771354675,0.43141087889671326,-2.380929946899414
1789323198627987200,5.3259873046875,-0.8072346448898315,-0.164165198802948,-2.4481232166290283
1789323198646838000,5.344838134765625,-0.5018110275268555,-0.7713474035263062,-2.7614877223968506
1789323198665688800,5.363688720703125,-0.02351761981844902,-0.18798823654651642,-2.9893338680267334
1789323198684539600,5.38253955078125,0.2586938142776489,-0.005344913341104984,-2.01930832862854
1789323198703390200,5.40139013671875,0.2782409191131592,0.19745637476444244,-1.1067025661468506
1789323198722241000,5.420240966796875,0.20432840287685394,0.019088976085186005,-0.576487123966217
1789323198741091800,5.439091796875,0.2782409191131592,-0.15500248968601227,-0.14637427031993866
1789323198759942700,5.457942626953125,0.4083513915538788,-0.03649812191724777,0.32642149925231934
1789323198778793200,5.476793212890625,0.41262730956077576,-0.03833066672086716,0.7772268056869507
1789323198797644000,5.49564404296875,0.38697174191474915,-0.0713164210319519,1.13396155834198
1789323198816494800,5.514494873046875,0.5219689607620239,0.14736689627170563,1.295836091041565
1789323198835345700,5.533345703125,0.5476245880126953,-0.10002623498439789,1.5071892738342285
1789323198854196500,5.552196533203125,0.5812211632728577,-0.05604523420333862,1.4925289154052734
1789323198873047300,5.57104736328125,0.6294780969619751,-0.18493400514125824,1.4467153549194336
1789323198891897900,5.58989794921875,0.6453601121902466,0.06123743951320648,1.4332767724990845
1789323198910748700,5.608748779296875,0.5891621708869934,-0.2429644912481308,1.4931397438049316
1789323198929599500,5.627599609375,0.5415160655975342,0.13392825424671173,1.579269289970398
1789323198948450300,5.6464501953125,0.536629319190979,0.3489464819431305,1.7942874431610107
1789323198967301000,5.665301025390625,0.6233696341514587,0.47294849157333374,2.0801639556884766
1789323198986152000,5.68415185546875,0.7901309132575989,0.09666658192873001,2.1064305305480957
1789323199005002500,5.70300244140625,0.9581139087677002,-0.270452618598938,1.897520661354065
1789323199023853300,5.721853271484375,1.0130901336669922,-0.453095942735672,1.8779735565185547
1789323199042704100,5.7407041015625,0.7962393760681152,-0.7029324769973755,2.009305715560913
1789323199061555000,5.759554931640625,0.7125533223152161,-0.7829535007476807,2.124145030975342
1789323199080405800,5.77840576171875,0.6899519562721252,-0.9020686745643616,2.224400281906128
1789323199099256600,5.797256591796875,0.5628957748413086,-1.135412335395813,2.1094846725463867
1789323199118107400,5.816107421875,0.5115845799446106,-1.3082821369171143,1.8388793468475342
1789323199136958200,5.834958251953125,0.4749337434768677,-1.0071344375610352,1.8859145641326904
1789323199155809000,5.85380908203125,0.5170822143554688,-0.552664041519165,1.7118231058120728
1789323199174659600,5.87265966796875,0.6160394549369812,0.03374931216239929,1.2811757326126099
1789323199193510400,5.891510498046875,0.5372401475906372,0.18646112084388733,0.783335268497467
1789323199212361200,5.910361328125,0.3552076816558838,0.12720894813537598,0.3270323574542999
1789323199231212000,5.9292119140625,0.2861819267272949,0.2530434727668762,-0.05963396281003952
1789323199250062800,5.948062744140625,0.1169772520661354,0.2017323076725006,-0.2984752357006073
1789323199268913700,5.96691357421875,-0.1328592747449875,0.6910209655761719,-0.4530195891857147
1789323199287764500,5.985764404296875,-0.35826191306114197,0.8810707926750183,-0.7505785822868347
1789323199306615300,6.004615234375,-0.47920966148376465,1.0441670417785645,-1.150072693824768
1789323199325466000,6.023466064453125,-0.6019899845123291,1.2811757326126099,-1.4432793855667114
1789323199344317000,6.04231689453125,-0.7638645172119141,1.3978476524353027,-1.783521294593811
1789323199363167700,6.061167724609375,-0.9025267958641052,1.3056097030639648,-1.8653748035430908
1789323199382018600,6.0800185546875,-1.2678134441375732,1.0056836605072021,-1.8769809007644653
1789323199400869000,6.098869140625,-1.65883207321167,1.019733190536499,-1.8812568187713623
1789323199419720000,6.117719970703125,-1.8750720024108887,0.9836931824684143,-2.134758472442627
1789323199438570800,6.13657080078125,-1.9544821977615356,0.7368345260620117,-2.221498727798462
1789323199457421600,6.155421630859375,-1.9624232053756714,0.3746020793914795,-2.2312722206115723
1789323199476272400,6.1742724609375,-1.8805696964263916,0.13392825424671173,-2.3045740127563477
1789323199495123200,6.193123291015625,-1.7785581350326538,-0.13484452664852142,-2.523257255554199
1789323199513974000,6.21197412109375,-1.4908491373062134,-0.40544986724853516,-2.653367757797241
1789323199532824800,6.230824951171875,-1.096165418624878,-0.39445462822914124,-2.6393182277679443
1789323199551675600,6.249675537109375,-0.7614210844039917,-0.0590994730591774,-2.4713354110717773
1789323199570526500,6.2685263671875,-0.5714476108551025,-0.3077143132686615,-2.0810039043426514
1789323199589377300,6.287377197265625,-0.24647687375545502,-0.34008920192718506,-1.7468703985214233
1789323199608228000,6.30622802734375,0.2348707765340805,-0.03955236077308655,-1.4829844236373901
1789323199627079000,6.325078857421875,0.2348707765340805,-0.1104106456041336,-0.9417737722396851
1789323199645929700,6.3439296875,0.10292776674032211,-0.2441861927509308,-0.1139993667602539
1789323199664780500,6.362780517578125,0.26724568009376526,0.14553436636924744,0.5585434436798096
1789323199683631400,6.38163134765625,0.42423340678215027,-0.02367033064365387,0.9189433455467224
1789323199702482200,6.400482177734375,0.4840964674949646,-0.07314895838499069,1.144345998764038
1789323199721333000,6.4193330078125,0.5207473039627075,0.28969430923461914,1.1663365364074707
1789323199740183800,6.438183837890625,0.49020493030548096,0.256708562374115,1.3795222043991089
1789323199759034600,6.45703466796875,0.4584408700466156,0.08628217875957489,1.7478630542755127
1789323199777885400,6.475885498046875,0.5140279531478882,-0.05238015204668045,2.0160250663757324
1789323199796736300,6.494736328125,0.51341712474823,0.03130592033267021,1.9390583038330078
1789323199815587000,6.513587158203125,0.4083513915538788,-0.1378987729549408,1.8620915412902832
1789323199834438000,6.53243798828125,0.20616094768047333,-0.07314895838499069,1.925008773803711
1789323199853288700,6.551288818359375,0.2990097403526306,-0.10674555599689484,2.028852701187134
1789323199872139500,6.570139404296875,0.5793886184692383,-0.217308908700943,2.2091290950775146
1789323199890990300,6.588990234375,0.8249492049217224,-0.35108447074890137,2.1767542362213135
1789323199909841200,6.607841064453125,0.7540909647941589,-0.3327590525150299,2.1528549194335938
1789323199928692000,6.62669189453125,0.5946598052978516,-0.8141067028045654,2.265326976776123
1789323199947542800,6.645542724609375,0.6911736726760864,-0.8812998533248901,2.0826072692871094
1789323199966393600,6.6643935546875,1.0051491260528564,-0.5697677731513977,1.7930657863616943
1789323199985244400,6.683244384765625,0.9642223715782166,-1.0651649236679077,2.1027653217315674
1789323200004095200,6.70209521484375,0.7980719208717346,-1.9967833757400513,2.1052086353302
1789323200022946000,6.720946044921875,0.7137750387191772,-1.9699060916900635,1.6611227989196777
1789323200041796900,6.739796875,0.7094991207122803,-0.7237012982368469,1.676393985748291
1789323200060647700,6.758647705078125,0.6991146802902222,-0.5483881235122681,1.5163519382476807
1789323200079498500,6.77749853515625,0.5531222224235535,-0.4164451062679291,1.0606598854064941
1789323200098349300,6.796349365234375,0.4169032573699951,-0.38223767280578613,0.4656946659088135
1789323200117200400,6.815200439453125,0.36253786087036133,-0.18493400514125824,-0.011987877078354359
1789323200136051200,6.83405126953125,0.16523417830467224,0.29885703325271606,-0.42064470052719116
1789323200154902000,6.852902099609375,0.02107422985136509,0.5865660905838013,-0.5459447503089905
1789323200173752800,6.8717529296875,-0.16401249170303345,0.8566369414329529,-0.9081771373748779
1789323200192603600,6.890603759765625,-0.22509720921516418,0.9360470771789551,-1.3992983102798462
1789323200211454500,6.909454345703125,-0.3912476599216461,1.352034091949463,-1.7358752489089966
1789323200230305300,6.92830517578125,-0.6190937161445618,1.563387155532837,-1.8898086547851562
1789323200249156000,6.947156005859375,-0.8903098702430725,1.3960150480270386,-2.053515672683716
1789323200268007000,6.9660068359375,-1.1810731887817383,1.3153831958770752,-2.1182656288146973
1789323200286857700,6.984857666015625,-1.4272446632385254,1.1651147603988647,-2.310682535171509
1789323200305708500,7.00370849609375,-1.566594123840332,1.1510653495788574,-2.574568510055542
1789323200324559400,7.022559326171875,-1.8524706363677979,0.1632489264011383,-2.6417617797851562
1789323200343410200,7.04141015625,-1.8402537107467651,-0.5056288242340088,-2.667417287826538
1789323200362261000,7.060260986328125,-1.3618839979171753,-0.5239542126655579,-2.838454484939575
1789323200381111800,7.07911181640625,-0.8994725942611694,-0.43415969610214233,-2.8421196937561035
1789323200399963000,7.097962890625,-0.642916738986969,-0.6730009913444519,-2.678412437438965
1789323200418813700,7.116813720703125,-0.4828747510910034,-0.6607840061187744,-2.686964273452759
1789323200437664500,7.13566455078125,-0.25258535146713257,-0.5795413255691528,-2.505542755126953
1789323200456515300,7.154515380859375,-0.00519220158457756,-0.34131091833114624,-1.9227944612503052
1789323200475366100,7.1733662109375,0.28312769532203674,-0.04077405482530594,-1.20504891872406
1789323200494217000,7.192217041015625,0.5482354164123535,0.07406523078680038,-0.7328640222549438
1789323200513067800,7.21106787109375,0.5219689607620239,-0.04321744292974472,-0.20012883841991425
1789323200531918600,7.229918701171875,0.44133713841438293,0.03558185324072838,0.25678491592407227
1789323200550769400,7.248769287109375,0.5158604979515076,0.18462859094142914,0.6110763549804688
1789323200569620200,7.2676201171875,0.47798797488212585,0.056961506605148315,0.8590803146362305
1789323200588471000,7.286470947265625,0.3637595474720001,0.19989976286888123,1.1938246488571167
1789323200607321900,7.30532177734375,0.42545512318611145,0.07040014863014221,1.459543228149414
1789323200626173000,7.3241728515625,0.5054761171340942,0.06306997686624527,1.3141615390777588
1789323200645023700,7.343023681640625,0.34971004724502563,0.10644013434648514,1.402734398841858
1789323200663874600,7.36187451171875,0.28312769532203674,-0.23991025984287262,1.7753511667251587
1789323200682725400,7.380725341796875,0.33566057682037354,0.14431266486644745,1.9738765954971313
1789323200701576200,7.399576171875,0.2867927849292755,0.47111594676971436,1.8541505336761475
1789323200720427000,7.418427001953125,0.1695101112127304,0.1363716572523117,1.9518860578536987
1789323200739277800,7.43727783203125,0.30633988976478577,-0.17882554233074188,2.248223304748535
1789323200758128600,7.456128662109375,0.7345438003540039,0.0038177953101694584,2.328244209289551
1789323200776979500,7.4749794921875,1.00392746925354,-0.13301199674606323,2.3325202465057373
1789323200795830500,7.49383056640625,1.1181559562683105,-0.8287670016288757,2.6135098934173584
1789323200814681300,7.512681396484375,1.3295854330062866,-0.9686510562896729,2.6202292442321777
1789323200833532200,7.5315322265625,1.3674579858779907,-0.9332218766212463,2.288539171218872
1789323200852383000,7.550383056640625,1.1041064262390137,-1.4499987363815308,2.2427256107330322
1789323200871233800,7.56923388671875,0.61481773853302,-1.6234792470932007,1.884692907333374
1789323200890084600,7.588084716796875,0.49142661690711975,-1.0505045652389526,1.7448087930679321
1789323200908935400,7.606935302734375,0.6490252017974854,-0.3639122545719147,1.4925289154052734
1789323200927786200,7.6257861328125,0.5445703268051147,-0.1635543555021286,0.8096016645431519
1789323200946637300,7.64463720703125,0.41140562295913696,-0.14400723576545715,0.4217136800289154
1789323200965488000,7.663488037109375,0.2593046724796295,-0.2673983871936798,0.02283041551709175
1789323200984339000,7.6823388671875,0.08338065445423126,0.07101099193096161,-0.2887016832828522
1789323201003189800,7.701189697265625,-0.059557609260082245,0.256708562374115,-0.38399386405944824
1789323201022040600,7.72004052734375,-0.09620844572782516,0.41980478167533875,-0.6943806409835815
1789323201040891400,7.738891357421875,-0.19272230565547943,0.59023118019104,-1.168398141860962
1789323201059742200,7.7577421875,-0.4596625566482544,0.9122240543365479,-1.4383926391601562
1789323201078593300,7.77659326171875,-0.661853015422821,1.55911123752594,-1.4933688640594482
1789323201097444000,7.795444091796875,-0.9953756332397461,1.5701065063476562,-1.778023600578308
1789323201116295000,7.814294921875,-0.9471186995506287,1.768631935119629,-2.1598031520843506
1789323201135145700,7.833145751953125,-1.3295090198516846,1.4106754064559937,-2.4914932250976562
1789323201153996500,7.85199658203125,-1.7070890665054321,0.9250518083572388,-2.4725570678710938
1789323201172847400,7.870847412109375,-1.8329235315322876,0.6427640318870544,-2.6716930866241455
1789323201191698200,7.8896982421875,-1.8005486726760864,0.39353835582733154,-2.496990919113159
1789323201210549000,7.908549072265625,-1.507341980934143,-0.3461976945400238,-2.4927148818969727
1789323201229400000,7.927400146484375,-1.1993986368179321,-0.4634803533554077,-2.7242259979248047
1789323201248251000,7.9462509765625,-0.7919634580612183,-0.682774543762207,-2.82379412651062
1789323201267101700,7.965101806640625,-0.3912476599216461,-0.742026686668396,-2.450566530227661
1789323201285952500,7.983952392578125,-0.09620844572782516,-0.07009471952915192,-1.9930418729782104
1789323201304803300,8.00280322265625,0.09804098308086395,0.06734590977430344,-1.6485240459442139
1789323201323654100,8.021654052734375,0.05528167635202408,0.04352286830544472,-1.305838704109192
1789323201342505200,8.040505126953125,0.11514470726251602,-0.013285927474498749,-0.7640172243118286
1789323201361356000,8.05935595703125,0.23792500793933868,0.17913095653057098,-0.3473430275917053
1789323201380206800,8.078206787109375,0.14935214817523956,0.04413371533155441,-0.0761268362402916
1789323201399057700,8.0970576171875,0.2623589038848877,0.35444411635398865,0.08819106966257095
1789323201417908500,8.115908447265625,0.2238755226135254,0.15897299349308014,0.611687183380127
1789323201436759300,8.13475927734375,0.18661384284496307,-0.1385096162557602,1.1480110883712769
1789323201465035800,8.163035888671875,0.30633988976478577,-0.04077405482530594,1.204819917678833
1789323201483886600,8.181886474609374,0.28251686692237854,-0.005955760832875967,1.0551623106002808
1789323201512162800,8.210162841796874,0.18905723094940186,-0.23685602843761444,1.430833339691162
1789323201531013600,8.229013671875,0.37475478649139404,0.07834116369485855,1.7661885023117065
1789323201549864400,8.247864501953124,0.5201364159584045,0.049020491540431976,1.8144453763961792
1789323201568715300,8.26671533203125,0.5903838872909546,-0.2851129472255707,1.8523179292678833
1789323201587566000,8.285566162109374,0.7131641507148743,-0.10796725004911423,2.0893266201019287
1789323201606417200,8.304417236328124,0.9037485122680664,-0.22097399830818176,2.1920254230499268
1789323201625268000,8.32326806640625,1.1682454347610474,-0.42194274067878723,2.2470016479492188
1789323201644118800,8.342118896484376,1.210470199584961,-0.5215108394622803,2.219513416290283
1789323201662969600,8.360969482421876,1.1120474338531494,-0.5361711978912354,2.3355743885040283
1789323201681820400,8.3798203125,0.9886562824249268,-1.0114103555679321,2.4076545238494873
1789323201700671200,8.398671142578126,0.7687512636184692,-1.0786035060882568,2.1180365085601807
1789323201719522300,8.417522216796876,0.5433486104011536,-1.284459114074707,1.926841378211975
1789323201738373000,8.436373046875,0.5439594984054565,-0.7328640222549438,1.809558629989624
1789323201757224000,8.455223876953125,0.5971031785011292,-0.10735640674829483,1.3923499584197998
1789323201776074800,8.47407470703125,0.5329642295837402,-0.14522893726825714,1.1083060503005981
1789323201794925600,8.492925537109375,0.351542592048645,-0.3052709102630615,0.7350783348083496
1789323201813776600,8.511776611328125,0.19272230565547943,-0.21120044589042664,0.22257746756076813
1789323201832627500,8.53062744140625,-0.006413896102458239,0.06673506647348404,0.03199312463402748
1789323201851478300,8.549478271484375,-0.24708771705627441,0.41797223687171936,-0.25449424982070923
1789323201870329000,8.5683291015625,-0.35765108466148376,0.19623468816280365,-0.5612159371376038
1789323201889180000,8.587179931640625,-0.42789849638938904,0.5926745533943176,-0.9674293398857117
1789323201908031000,8.606031005859375,-0.3924693763256073,0.603058934211731,-1.2679661512374878
1789323201926881800,8.6248818359375,-0.5610632300376892,0.9861365556716919,-1.6283661127090454
1789323201945732600,8.643732666015625,-0.8212841153144836,0.7166765332221985,-1.7737476825714111
1789323201964583400,8.66258349609375,-1.077839970588684,0.8505284786224365,-1.7865755558013916
1789323201983434200,8.681434326171875,-1.359440565109253,1.0582165718078613,-1.7743586301803589
1789323202002285000,8.70028515625,-1.4278554916381836,1.337984561920166,-1.9618886709213257
1789323202021136100,8.71913623046875,-1.314848780632019,1.0447778701782227,-2.0382444858551025
1789323202039987000,8.737987060546875,-1.338060975074768,0.8126559257507324,-2.404142141342163
1789323202058837800,8.756837646484374,-1.5525447130203247,0.17118994891643524,-2.669860601425171
1789323202077688600,8.7756884765625,-1.5800328254699707,-0.4940227270126343,-2.6112194061279297
1789323202096539400,8.794539306640624,-1.1884033679962158,-0.17393875122070312,-2.718728542327881
1789323202115390500,8.813390380859374,-0.7388197779655457,-0.04016320779919624,-2.7590444087982178
1789323202134241300,8.8322412109375,-0.6227588057518005,-0.17149536311626434,-2.3192343711853027
1789323202153092000,8.851092041015624,-0.4315635859966278,-0.07620319724082947,-1.9209619760513306
1789323202171943000,8.86994287109375,0.03512371703982353,0.0325276181101799,-1.7822996377944946
1789323202190793700,8.888793701171876,0.1310267299413681,0.06734590977430344,-1.1323580741882324
1789323202209644500,8.90764453125,0.1047603040933609,0.2573194205760956,-0.5612159371376038
1789323202228495600,8.92649560546875,0.08154810965061188,0.0844496339559555,-0.09139802306890488
1789323202247346400,8.945346435546876,0.12125317752361298,0.04413371533155441,0.33558422327041626
1789323202266197200,8.964197265625,0.23425991833209991,0.23471805453300476,0.7057576775550842
1789323202285048000,8.983048095703126,0.38636088371276855,0.06062658876180649,1.0148463249206543
1789323202303899000,9.00189892578125,0.45416492223739624,0.031916771084070206,1.3721920251846313
1789323202322750000,9.02075,0.41384902596473694,0.09239064902067184,1.695330262184143
1789323202341600800,9.039600830078125,0.5146388411521912,0.3574983477592468,2.017857551574707
1789323202360451600,9.05845166015625,0.6099309921264648,0.362995982170105,2.458965539932251
1789323202379302400,9.077302490234375,0.7082774043083191,0.4112529158592224,2.337407112121582
1789323202398153200,9.0961533203125,0.6313106417655945,-0.3370349705219269,2.0386264324188232
1789323202417004300,9.11500439453125,0.929404079914093,-0.07070557028055191,2.2494449615478516
1789323202435855000,9.133855224609375,0.9929322004318237,-0.1104106456041336,2.049010753631592
1789323202454706000,9.152705810546875,0.3014531135559082,-0.40606072545051575,1.7613017559051514
1789323202473556700,9.171556640625,-0.1328592747449875,-0.45737189054489136,1.6690638065338135
1789323202492407600,9.190407470703125,0.04611896723508835,-0.3046600818634033,1.6812807321548462
1789323202511258400,9.20925830078125,0.509141206741333,-0.19592925906181335,1.7643558979034424
1789323202530109400,9.228109375,0.7895200848579407,-0.8739697337150574,2.0447349548339844
1789323202548960300,9.246960205078125,0.9141329526901245,-1.7572548389434814,2.4717934131622314
1789323202567811000,9.26581103515625,0.9483403563499451,-2.2533392906188965,2.2830417156219482
1789323202586662000,9.284661865234375,0.8860339522361755,-1.7841321229934692,1.720985770225525
1789323202605512700,9.3035126953125,0.8548807501792908,-0.8037222623825073,1.5786583423614502
1789323202624363800,9.32236376953125,0.6594096422195435,-0.43293800950050354,1.319048285484314
1789323202643214600,9.341214599609375,0.47554460167884827,-0.296108216047287,0.7900545597076416
1789323202662065400,9.3600654296875,0.12125317752361298,-0.39567631483078003,0.6171848177909851
1789323202690341600,9.388341552734374,-0.17622943222522736,0.2292204350233078,0.21891239285469055
1789323202709192400,9.4071923828125,-0.1438545286655426,0.6109999418258667,-0.2996969223022461
1789323202728043500,9.42604345703125,-0.18050536513328552,0.8205969333648682,-0.8727480173110962
1789323202746894300,9.444894287109374,-0.26846736669540405,1.0356152057647705,-1.284459114074707
1789323202765745200,9.4637451171875,-0.3918585181236267,0.8835142254829407,-1.612484097480774
1789323202784596000,9.482595947265626,-0.5848862528800964,0.7362236380577087,-1.8134528398513794
1789323202803447000,9.501447021484376,-0.8579349517822266,1.0032402276992798,-2.001593828201294
1789323202822297900,9.5202978515625,-1.1224318742752075,0.862134575843811,-2.1481971740722656
1789323202841148700,9.539148681640626,-1.3160704374313354,1.0233982801437378,-2.152472972869873
1789323202859999500,9.55799951171875,-1.4217469692230225,0.8926768898963928,-2.2801401615142822
1789323202878850300,9.576850341796876,-1.3435585498809814,0.7124006152153015,-2.6857426166534424
1789323202897701400,9.595701416015626,-1.3282873630523682,0.46867257356643677,-2.597169876098633
1789323202916552200,9.61455224609375,-1.2409361600875854,0.025808297097682953,-2.6344316005706787
1789323202935403000,9.633403076171875,-1.060125470161438,-0.20936790108680725,-3.023541212081909
1789323202954253800,9.65225390625,-0.7516475319862366,-0.7072083950042725,-2.9209189414978027
1789323202973104600,9.671104736328125,-0.5140279531478882,-0.5001311898231506,-2.4945476055145264
1789323202991955500,9.68995556640625,-0.15240639448165894,0.005650337319821119,-2.2783076763153076
1789323203010806500,9.708806640625,-0.08643488585948944,-0.3199312388896942,-1.7389293909072876
1789323203029657300,9.7276572265625,-0.0656660795211792,0.06856760382652283,-1.2520841360092163
1789323203048508200,9.746508056640625,0.24586601555347443,0.44362783432006836,-1.0944855213165283
1789323203067359000,9.76535888671875,0.2495311051607132,0.14492350816726685,-0.5838172435760498
1789323203086209800,9.784209716796875,0.16645587980747223,0.06062658876180649,0.16943375766277313
1789323203105060600,9.803060546875,0.3411581814289093,0.150421142578125,0.6147413849830627
1789323203123911700,9.82191162109375,0.48959407210350037,0.021532366052269936,0.9568158984184265
1789323203142762500,9.840762451171875,0.5286883115768433,0.08261708915233612,1.250022530555725
1789323203161613300,9.85961328125,0.5818319916725159,0.21272756159305573,1.3392062187194824
1789323203180464000,9.878464111328125,0.5158604979515076,0.00259610079228878,1.4894746541976929
1789323203199315000,9.89731494140625,0.4052971601486206,0.02641914412379265,1.6745613813400269
1789323203218165800,9.916165771484375,0.3142809271812439,-0.09941539168357849,1.5163519382476807
1789323203237016800,9.935016845703124,0.14690876007080078,0.10521844029426575,1.2811757326126099
1789323203255867600,9.95386767578125,0.0021379655227065086,-0.11468657106161118,1.4375526905059814
1789323203274718500,9.972718505859374,0.3246653079986572,-0.0981936976313591,1.7698535919189453
1789323203293569300,9.9915693359375,0.740652322769165,0.18340688943862915,1.8523179292678833
1789323203312420000,10.010420166015624,0.8738170266151428,-0.16599774360656738,1.903629183769226
1789323203331271200,10.029271240234374,0.6099309921264648,-0.5679352283477783,1.9488317966461182
1789323203350122000,10.0481220703125,0.5836645364761353,-0.742637574672699,1.8895796537399292
1789323203368972800,10.066972900390626,0.7852441668510437,-0.8922951221466064,1.9934237003326416
1789323203387823600,10.08582373046875,0.9556705355644226,-1.1555702686309814,2.3471806049346924
1789323203406674400,10.10467431640625,1.03996741771698,-1.6369179487228394,2.534099817276001
1789323203425525200,10.123525146484376,0.9006943106651306,-1.8134528398513794,2.4601874351501465
1789323203444376300,10.142376220703126,0.6520794630050659,-1.390135645866394,2.308086395263672
1789323203463227100,10.16122705078125,0.5757235288619995,-0.9234483242034912,1.9592162370681763
1789323203482078000,10.180077880859375,0.7363763451576233,-0.16172181069850922,1.401512622833252
1789323203500928800,10.1989287109375,0.694227933883667,0.26220619678497314,0.7747833728790283
1789323203519779600,10.217779541015625,0.4095730781555176,0.16691401600837708,0.7735617160797119
1789323203538630400,10.23663037109375,0.13469181954860687,-0.05421269312500954,0.4320980906486511
1789323203557481500,10.2554814453125,-0.07238540053367615,0.17057909071445465,-0.4389701187610626
1789323203576332300,10.274332275390625,-0.34604495763778687,0.5254813432693481,-1.0321791172027588
1789323203595183000,10.29318310546875,-0.5201364159584045,0.5596888065338135,-1.2942326068878174
1789323203614034000,10.312033935546875,-0.4211791753768921,0.47050508856773376,-1.4383926391601562
1789323203632884700,10.330884765625,-0.5195255875587463,0.6708629727363586,-1.6192033290863037
1789323203651735600,10.349735595703125,-0.6294780969619751,0.7356128096580505,-1.7700825929641724
1789323203670586600,10.368586669921875,-0.8389987349510193,0.8786274194717407,-1.9160751104354858
1789323203689437400,10.3874375,-1.0301939249038696,0.6745280623435974,-2.033357858657837
1789323203708288300,10.406288330078125,-1.3313416242599487,0.9421555399894714,-2.1390342712402344
1789323203727139000,10.42513916015625,-1.4987901449203491,1.0679900646209717,-2.1182656288146973
1789323203745990000,10.443989990234375,-1.4541219472885132,1.0881479978561401,-2.183626174926758
1789323203764841000,10.462841064453125,-1.3356175422668457,1.078985333442688,-2.3589394092559814
1789323203783691800,10.48169189453125,-1.3069076538085938,0.2921377122402191,-2.3503875732421875
1789323203802542600,10.50054248046875,-1.2543748617172241,-0.6968240141868591,-2.6600871086120605
1789323203821393400,10.519393310546874,-0.6850652098655701,-0.8177717924118042,-3.135326385498047
1789323203840244200,10.538244140625,-0.21654535830020905,-0.3217637836933136,-2.9093127250671387
1789323203859095000,10.557094970703124,-0.26724568009376526,-0.07864658534526825,-1.9050798416137695
1789323203877945900,10.57594580078125,-0.3014531135559082,0.3067980408668518,-1.5068074464797974
1789323203896796700,10.594796630859374,-0.144465371966362,0.09300149232149124,-1.5257437229156494
1789323203915647700,10.613647705078124,-0.04184303805232048,0.024586603045463562,-1.0957072973251343
1789323203934498600,10.63249853515625,0.07177454978227615,-0.029167955741286278,-0.5770979523658752
1789323203953349400,10.651349365234376,0.15362808108329773,-0.19531841576099396,-0.16469968855381012
1789323203972200200,10.6702001953125,0.17439688742160797,-0.12690351903438568,0.28488388657569885
1789323203991051000,10.689051025390626,0.14690876007080078,-0.26312246918678284,0.8138776421546936
1789323204009901800,10.70790185546875,0.29839888215065,-0.06581879407167435,1.1345723867416382
1789323204028752600,10.726752685546876,0.4193466305732727,-0.05543438717722893,1.2469682693481445
1789323204047603700,10.745603759765626,0.49203747510910034,0.03436015918850899,1.3581424951553345
1789323204066454500,10.76445458984375,0.4706578254699707,-0.06337540596723557,1.5731607675552368
1789323204085305300,10.783305419921875,0.5793886184692383,0.06551336497068405,1.708158016204834
1789323204104156200,10.80215625,0.5781669020652771,0.0459662564098835,1.7203749418258667
1789323204123007000,10.821007080078125,0.45355409383773804,-0.17882554233074188,2.0600061416625977
1789323204141857800,10.83985791015625,0.5060869455337524,-0.021226942539215088,2.2610511779785156
1789323204160708600,10.85870849609375,0.6398624777793884,0.09116895496845245,2.0648927688598633
1789323204179559400,10.877559326171875,0.6233696341514587,-0.25212720036506653,1.971433162689209
1789323204198410500,10.896410400390625,0.5146388411521912,-0.4225535988807678,2.0593950748443604
1789323204217261300,10.91526123046875,0.5005893111228943,-0.5636593103408813,2.2237894535064697
1789323204236112100,10.934112060546875,0.7400414347648621,-0.7371399402618408,2.2744898796081543
1789323204254963000,10.952962890625,0.9312366247177124,-0.9686510562896729,2.2488341331481934
1789323204283239200,10.9812392578125,1.064401388168335,-1.2838482856750488,1.990369439125061
1789323204311515400,11.009515380859375,0.9568922519683838,-1.1286929845809937,1.7814596891403198
1789323204330366500,11.028366455078125,0.8652651309967041,-0.7963921427726746,1.4607648849487305
1789323204349217300,11.04721728515625,0.7528692483901978,-0.6265766024589539,1.139459252357483
1789323204368068000,11.066068115234375,0.5842754244804382,-0.8348754644393921,0.8792382478713989
1789323204386919000,11.0849189453125,0.35948359966278076,-0.5007420182228088,0.264725923538208
1789323204405769700,11.103769775390624,0.12247487902641296,-0.1360662281513214,-0.10850174725055695
1789323204424620500,11.12262060546875,-0.11147962510585785,-0.08353336155414581,-0.3766636848449707
1789323204443471400,11.141471435546874,-0.03145863488316536,0.1882936656475067,-0.6332958936691284
1789323204462322200,11.160322265625,-0.16279079020023346,0.435075968503952,-0.8031114339828491
1789323204481173200,11.17917333984375,-0.21410197019577026,0.8829033374786377,-0.9796462655067444
1789323204509449500,11.207449462890626,-0.3668137788772583,1.2567418813705444,-1.3504306077957153
1789323204528300300,11.22630029296875,-0.5751127004623413,1.6910542249679565,-1.6045430898666382
1789323204547151000,11.245151123046876,-0.8499939441680908,1.7551932334899902,-1.8073443174362183
1789323204566002000,11.264001953125,-1.2073396444320679,1.5572787523269653,-2.2404351234436035
1789323204584852700,11.282852783203126,-1.5299433469772339,1.195046305656433,-2.551356315612793
1789323204603703600,11.30170361328125,-1.8091005086898804,0.5413633584976196,-2.672914981842041
1789323204622554400,11.320554443359375,-1.8347561359405518,0.04413371533155441,-2.669860601425171
1789323204641405200,11.3394052734375,-1.581254482269287,0.07040014863014221,-2.792030096054077
1789323204660256000,11.358256103515625,-1.1920684576034546,-0.10185877978801727,-2.9374117851257324
1789323204688532200,11.3865322265625,-0.8945857882499695,-0.372464120388031,-2.5910613536834717
1789323204707383300,11.40538330078125,-0.6447492837905884,-0.33031564950942993,-2.4957692623138428
1789323204726234000,11.424234130859375,-0.23303823173046112,-0.42011019587516785,-2.2489869594573975
1789323204745085000,11.4430849609375,-0.011911521665751934,-0.17332790791988373,-1.5630054473876953
1789323204763935700,11.461935791015625,0.19883078336715698,0.2518217861652374,-0.9924740791320801
1789323204782786600,11.48078662109375,0.33382803201675415,0.011147962883114815,-0.7010999321937561
1789323204801637400,11.499637451171875,0.15484978258609772,-0.39384377002716064,-0.13782241940498352
1789323204820488200,11.51848828125,0.34909921884536743,0.08994726091623306,0.28549474477767944
1789323204839339000,11.537339111328125,0.5347967743873596,0.15775130689144135,0.48035502433776855
1789323204858189800,11.55618994140625,0.4608842432498932,0.19745637476444244,0.8132667541503906
1789323204877040600,11.57504052734375,0.3924693763256073,0.09116895496845245,1.1938246488571167
1789323204895891500,11.593891357421874,0.46577104926109314,0.1766875684261322,1.4235031604766846
1789323204914742300,11.6127421875,0.4749337434768677,-0.08108997344970703,1.5578895807266235
1789323204933593000,11.631593017578124,0.43950459361076355,-0.2515163719654083,1.5157411098480225
1789323204952444200,11.650444091796874,0.3258870244026184,-0.13056860864162445,1.4516021013259888
1789323204971294700,11.669294677734374,0.3258870244026184,-0.0853659063577652,1.6537926197052002
1789323204990145800,11.688145751953124,0.42240089178085327,0.04413371533155441,1.9488317966461182
1789323205008996600,11.70699658203125,0.6019899845123291,0.04046862944960594,2.07894229888916
1789323205027847400,11.725847412109376,0.6948387622833252,-0.2790044844150543,2.2091290950775146
1789323205046698200,11.7446982421875,0.882979691028595,-0.241742804646492,2.1877493858337402
1789323205065549000,11.763549072265626,0.8860339522361755,-0.510515570640564,2.184084415435791
1789323205084399900,11.78239990234375,0.8860339522361755,-0.7365291118621826,2.4748475551605225
1789323205103250700,11.801250732421876,1.0057599544525146,-0.9655967950820923,2.598238706588745
1789323205122101500,11.8201015625,1.11510169506073,-1.2771289348602295,2.447359561920166
1789323205140952300,11.838952392578125,0.934290885925293,-1.6210359334945679,2.291593551635742
1789323205159803100,11.85780322265625,0.6759024858474731,-1.6265335083007812,1.8688108921051025
1789323205178654000,11.876654052734375,0.6160394549369812,-0.5984776020050049,1.554835319519043
1789323205197504800,11.8955048828125,0.5775560736656189,-0.3242071866989136,1.1412917375564575
1789323205216355600,11.91435546875,0.6826218366622925,-0.3095468580722809,0.6886539459228516
1789323205235206400,11.933206298828125,0.25380703806877136,-0.05238015204668045,0.38872793316841125
1789323205254057200,11.95205712890625,0.12736165523529053,-0.15744587779045105,0.1358371526002884
1789323205272908000,11.970907958984375,-0.046729814261198044,0.07711946964263916,-0.2202867865562439
1789323205291758800,11.9897587890625,-0.20738264918327332,0.36788275837898254,-0.742637574672699
1789323205310609700,12.008609619140625,-0.24220094084739685,0.6036698222160339,-0.9985825419425964
1789323205329460500,12.02746044921875,-0.222042977809906,0.6323796510696411,-1.3950223922729492
1789323205348311300,12.046311279296875,-0.23425991833209991,0.968421995639801,-1.6198142766952515
1789323205367162000,12.065162109375,-0.41384902596473694,0.9653677344322205,-1.6650168895721436
1789323205386013200,12.08401318359375,-0.5909947156906128,0.7649334669113159,-1.747481346130371
1789323205404864000,12.102864013671875,-0.8316685557365417,0.9048938751220703,-1.930735468864441
1789323205423714600,12.121714599609374,-1.0332481861114502,1.2946144342422485,-2.09138822555542
1789323205442565600,12.140565673828124,-1.119377613067627,1.4155621528625488,-2.3858165740966797
1789323205461416400,12.15941650390625,-1.5513229370117188,1.7515281438827515,-2.2813618183135986
1789323205480267000,12.17826708984375,-1.534830093383789,0.6904101371765137,-2.1164331436157227
1789323205508543500,12.20654345703125,-1.4846643209457397,0.4918847680091858,-2.4719462394714355
1789323205527394300,12.225394287109374,-1.1291511058807373,-1.0798252820968628,-2.5030994415283203
1789323205555670500,12.25367041015625,-0.38941511511802673,-0.21058958768844604,-3.0998971462249756
1789323205574521300,12.272521240234376,-0.37170055508613586,0.10766182839870453,-1.9973177909851074
1789323205593372000,12.291371826171876,-0.3167243003845215,-0.24662958085536957,-1.4982556104660034
1789323205612223000,12.310222900390626,-0.03695625811815262,-0.03405473381280899,-1.4964231252670288
1789323205631073800,12.32907373046875,0.0009162708884105086,0.13209572434425354,-1.090820550918579
1789323205649924400,12.34792431640625,-0.09437590092420578,0.00015271181473508477,-0.4786751866340637
1789323205668775400,12.366775390625,-0.12491826713085175,0.07773031294345856,0.05703786388039589
1789323205687626000,12.3856259765625,-0.032069481909275055,0.22127941250801086,0.41743773221969604
1789323205706476800,12.404476806640625,0.10781454294919968,0.13392825424671173,0.8260945677757263
1789323205725327600,12.42332763671875,0.2898470163345337,0.06612421572208405,1.2781215906143188
1789323205744178400,12.442178466796875,0.6001574397087097,0.11254860460758209,1.560943841934204
1789323205763029200,12.461029296875,0.7718055248260498,-0.011453386396169662,1.653181791305542
1789323205781880000,12.479880126953125,0.7864658236503601,-0.18004722893238068,1.6947193145751953
1789323205800731000,12.49873095703125,0.7418739795684814,-0.3352024257183075,1.7075471878051758
1789323205819581700,12.517581787109375,0.6820109486579895,-0.10430216789245605,1.7350353002548218
1789323205838432500,12.5364326171875,0.6649072170257568,-0.3901786804199219,2.0257985591888428
1789323205857283300,12.555283447265625,0.7308787703514099,0.19501298666000366,1.9506644010543823
1789323205876134100,12.574134033203125,0.6135960817337036,-0.07559234648942947,1.7338136434555054
1789323205894985000,12.59298486328125,0.5861079692840576,-0.26312246918678284,1.8394901752471924
1789323205913835800,12.611835693359374,0.5995466113090515,-0.33886751532554626,1.9995321035385132
1789323205932686600,12.6306865234375,0.823727548122406,-0.40483900904655457,2.0166358947753906
1789323205951537400,12.649537353515624,0.9232956171035767,-0.8348754644393921,2.087494134902954
1789323205970388200,12.66838818359375,0.9446752667427063,-1.1329689025878906,2.1804192066192627
1789323205989239000,12.687239013671874,0.8341119289398193,-1.5929369926452637,2.0795531272888184
1789323206008089900,12.70608984375,0.9324583411216736,-2.034655809402466,1.962881326675415
1789323206026940700,12.724940673828126,0.8591566681861877,-0.903901219367981,1.855983018875122
1789323206045791500,12.74379150390625,0.6697940230369568,-0.895349383354187,1.3758571147918701
1789323206064642300,12.762642333984376,0.4443913698196411,-0.1507265567779541,1.3618075847625732
1789323206083493000,12.7814931640625,-0.02473931387066841,-0.05421269312500954,0.8328138589859009
1789323206102344000,12.800343994140626,0.09437590092420578,0.6397097706794739,0.6361210346221924
1789323206121194800,12.81919482421875,-0.032069481909275055,0.48516544699668884,0.2506764531135559
1789323206140045300,12.83804541015625,0.060779303312301636,0.8877901434898376,-0.32962843775749207
1789323206158896000,12.856896240234375,0.016798298805952072,0.6971294283866882,-1.0944855213165283
1789323206177747000,12.875746826171875,-0.20249587297439575,0.03008422814309597,-1.6051539182662964
1789323206196597800,12.89459765625,-0.7180509567260742,0.1779092699289322,-1.8507144451141357
1789323206215448600,12.913448486328125,-1.1566393375396729,0.6525375843048096,-1.8641531467437744
1789323206234299400,12.93229931640625,-1.1627477407455444,0.9415447115898132,-1.7865755558013916
1789323206253150200,12.951150146484375,-1.1444222927093506,1.281786561012268,-1.874537467956543
1789323206272001000,12.9700009765625,-1.1248751878738403,0.8267053961753845,-1.9038581848144531
1789323206290851800,12.988851806640625,-1.3533320426940918,1.3624184131622314,-2.070619583129883
1789323206309702700,13.00770263671875,-1.2885823249816895,0.870686411857605,-2.3009088039398193
1789323206328553500,13.026553466796875,-1.2849172353744507,0.7551599144935608,-2.7034573554992676
1789323206347404300,13.045404296875,-1.441904902458191,-0.1519482582807541,-2.387038469314575
1789323206375680300,13.07368017578125,-1.1810731887817383,-0.8825215697288513,-2.763320207595825
1789323206394531000,13.092531005859374,-0.5256340503692627,-0.49524441361427307,-2.8256266117095947
1789323206413382000,13.1113818359375,-0.10231691598892212,0.04718795046210289,-2.5434153079986572
1789323206432232700,13.130232666015624,-0.042453885078430176,0.06673506647348404,-2.276474952697754
1789323206451083500,13.14908349609375,-0.2354816198348999,-0.10552386194467545,-1.6986135244369507
1789323206469934300,13.167934326171874,-0.07116370648145676,0.3312319219112396,-1.048672080039978
1789323206488785200,13.18678515625,0.1432436853647232,0.645207405090332,-0.6149705052375793
1789323206507635700,13.2056357421875,0.41140562295913696,0.5291464328765869,-0.34489962458610535
1789323206526486500,13.224486572265626,0.45233240723609924,-0.07986827939748764,0.09857547283172607
1789323206545337300,13.24333740234375,0.5769452452659607,-0.34253260493278503,0.5701495409011841
1789323206564188200,13.262188232421876,0.5506787896156311,-0.16966283321380615,0.9714761972427368
1789323206583039000,13.2810390625,0.5433486104011536,-0.0016798300202935934,1.0667684078216553
1789323206601889800,13.299889892578125,0.2892361879348755,0.0856713280081749,1.184661865234375
1789323206620740600,13.31874072265625,0.21532365679740906,-0.14889401197433472,1.4344984292984009
1789323206639591400,13.33759130859375,0.2629697322845459,0.020310672000050545,1.5811017751693726
1789323206658442000,13.35644189453125,0.2910687327384949,-0.10857810080051422,1.4742034673690796
1789323206677292800,13.375292724609375,0.27946263551712036,-0.010231691412627697,1.3819655179977417
1789323206696143600,13.3941435546875,0.2360924631357193,0.23471805453300476,1.5108543634414673
1789323206714994400,13.412994384765625,0.3179459869861603,0.10888352245092392,1.8144453763961792
1789323206733845200,13.43184521484375,0.43889376521110535,0.03436015918850899,2.15407657623291
1789323206752696000,13.450696044921875,0.6270347237586975,-0.5013529062271118,2.2408931255340576
1789323206771546600,13.469546630859375,0.9214630722999573,-0.11651911586523056,2.1718673706054688
1789323206790397400,13.4883974609375,0.9739959836006165,-0.1385096162557602,2.1638500690460205
1789323206809248300,13.507248291015625,1.132816195487976,-0.6070294380187988,2.3337419033050537
1789323206828099000,13.52609912109375,1.256894588470459,-1.116476058959961,2.377722978591919
1789323206846950000,13.544949951171875,0.9972081780433655,-1.749924659729004,2.236006498336792
1789323206865800400,13.563800537109374,0.6820109486579895,-1.8476603031158447,2.069779634475708
1789323206884651300,13.5826513671875,0.5861079692840576,-1.1421316862106323,1.6880000829696655
1789323206903502000,13.601502197265624,0.3167243003845215,-0.2716743052005768,1.350812315940857
1789323206922353000,13.620352783203124,0.19394400715827942,-0.3211529552936554,1.0447778701782227
1789323206941203700,13.63920361328125,0.29717719554901123,-0.1519482582807541,0.8914552330970764
1789323206960054500,13.658054443359376,0.41018393635749817,0.004428642801940441,0.681323766708374
1789323206978905000,13.676905029296876,0.2867927849292755,0.014202198944985867,0.1608818918466568
1789323206997756000,13.695755859375,-0.14018943905830383,0.04046862944960594,-0.48661619424819946
1789323207016606700,13.714606689453126,-0.38575005531311035,0.20234315097332,-0.8782456517219543
1789323207035457500,13.73345751953125,-0.5818319916725159,0.5737382769584656,-1.3718101978302002
1789323207054308400,13.752308349609375,-0.6563553810119629,0.8963419795036316,-1.6369179487228394
1789323207073159000,13.771158935546875,-0.7003363966941833,1.2854516506195068,-1.6326420307159424
1789323207092009700,13.790009765625,-0.777303159236908,1.0930348634719849,-1.7981816530227661
1789323207110860500,13.808860595703125,-0.9666658043861389,0.7301151752471924,-1.9105775356292725
1789323207129711400,13.82771142578125,-1.3227897882461548,1.1907703876495361,-2.0009829998016357
1789323207148562200,13.846562255859375,-1.4461809396743774,1.1492327451705933,-2.357717752456665
1789323207167412700,13.865412841796875,-1.5836979150772095,1.110749363899231,-2.410250663757324
1789323207186263600,13.884263671875,-1.5830870866775513,0.17363333702087402,-2.69307279586792
1789323207205114400,13.9031142578125,-1.5079528093338013,-0.35230615735054016,-2.776758909225464
1789323207223965200,13.921965087890625,-1.2855280637741089,-0.4781406819820404,-2.6973488330841064
1789323207242815700,13.940815673828125,-1.0784507989883423,-0.27411770820617676,-2.6942944526672363
1789323207261666600,13.95966650390625,-0.8768712282180786,-0.3571929335594177,-2.505542755126953
1789323207280517400,13.978517333984374,-0.8359444737434387,-0.26373329758644104,-1.9765490293502808
1789323207299368200,13.9973681640625,-0.6679614782333374,-0.13240113854408264,-1.497033953666687
1789323207318218800,14.01621875,0.04978405311703682,0.14003673195838928,-1.236812949180603
1789323207337069600,14.035069580078124,0.7675296068191528,0.10338589549064636,-0.7744016051292419
1789323207355920400,14.05392041015625,0.9006943106651306,-0.09269607067108154,-0.2471640706062317
1789323207374771200,14.072771240234376,0.5818319916725159,-0.43049460649490356,0.0423775278031826
1789323207393621800,14.091621826171876,0.33260634541511536,-0.32787227630615234,0.38811707496643066
1789323207412472600,14.11047265625,0.23303823173046112,-0.26128992438316345,0.8291487693786621
1789323207440748800,14.138748779296876,0.3038965165615082,0.2670929729938507,1.2946144342422485
1789323207459599400,14.157599365234375,0.5525113344192505,0.2585411071777344,1.2860625982284546
1789323207478450200,14.1764501953125,0.6911736726760864,-0.0456608310341835,1.4906964302062988
1789323207497301000,14.195301025390625,0.8170081973075867,-0.36513394117355347,1.824218988418579
1789323207516151600,14.214151611328125,0.9703308939933777,-0.39140036702156067,1.9830392599105835
1789323207535002400,14.23300244140625,0.7443174123764038,-0.47203221917152405,1.920732855796814
1789323207553853200,14.251853271484375,0.5427377820014954,0.017867282032966614,1.7148773670196533
1789323207572704000,14.2707041015625,0.43950459361076355,0.24754585325717926,1.7362569570541382
1789323207591554600,14.289554443359375,0.6026008129119873,-0.15378080308437347,2.072222948074341
1789323207610405400,14.3084052734375,0.8707627654075623,-0.3901786804199219,2.236006498336792
1789323207629256200,14.327256103515625,1.086391806602478,-0.17882554233074188,2.1461355686187744
1789323207648106800,14.346106689453125,1.0619579553604126,-0.2667875289916992,2.063671112060547
1789323207666957600,14.36495751953125,1.0130901336669922,-0.8196043372154236,2.0190792083740234
1789323207685808400,14.383808349609374,0.984991192817688,-1.4011309146881104,1.9726548194885254
1789323207704659000,14.402658935546874,0.8921424150466919,-1.724269151687622,1.9494426250457764
1789323207723509800,14.421509765625,0.8432746529579163,-1.347987174987793,1.7099905014038086
1789323207742360600,14.440360595703124,0.6117635369300842,-0.4781406819820404,1.3911283016204834
1789323207761211100,14.459211181640624,0.37597647309303284,-0.5960342288017273,1.1144144535064697
1789323207780062000,14.47806201171875,0.12125317752361298,-0.7847860455513,0.8041040897369385
1789323207798912800,14.496912841796876,0.037567105144262314,-0.3498627543449402,0.4339306354522705
1789323207817763300,14.515763427734376,-0.016187451779842377,0.10521844029426575,0.17737478017807007
1789323207836614100,14.5346142578125,-0.05344913527369499,0.28664007782936096,-0.10483665764331818
1789323207855465000,14.55346484375,-0.02229592576622963,0.32756683230400085,-0.5428904891014099
1789323207874315500,14.5723154296875,-0.19150061905384064,0.5486935377120972,-0.9454388618469238
1789323207893166300,14.591166259765625,-0.4627167880535126,0.7870003581047058,-1.2899566888809204
1789323207912017200,14.61001708984375,-0.7076665759086609,1.1504544019699097,-1.5727789402008057
1789323207930867700,14.62886767578125,-0.8096780180931091,1.2518551349639893,-1.724269151687622
1789323207949718500,14.647718505859375,-0.846939742565155,1.2970577478408813,-1.9386764764785767
1789323207968569300,14.6665693359375,-1.1432006359100342,1.4619865417480469,-2.2263855934143066
1789323207987420000,14.685419921875,-1.4583978652954102,1.2995011806488037,-2.470113515853882
1789323208006270700,14.704270751953125,-1.544603705406189,1.2152042388916016,-2.478665351867676
1789323208025121300,14.723121337890625,-1.6276788711547852,0.7924979329109192,-2.443847179412842
1789323208043972000,14.74197216796875,-1.6930395364761353,0.04840964451432228,-2.5177597999572754
1789323208062823000,14.760822998046875,-1.3893721103668213,-0.3364241421222687,-2.7730939388275146
1789323208081673500,14.779673583984374,-0.9208522439002991,-0.35597124695777893,-2.9239730834960938
1789323208100524300,14.798524169921874,-0.647192656993866,-0.34375429153442383,-2.667417287826538
1789323208119374800,14.817374755859374,-0.4437805414199829,-0.18798823654651642,-2.3412249088287354
1789323208138225700,14.8362255859375,-0.2244863659143448,-0.1250709742307663,-2.030303478240967
1789323208157076500,14.855076416015624,-0.04550812020897865,-0.09513945877552032,-1.6735687255859375
1789323208175927000,14.873927001953126,0.15362808108329773,0.1522536724805832,-1.1635112762451172
1789323208194777900,14.89277783203125,0.2635805904865265,0.3733803927898407,-0.6198572516441345
1789323208213628400,14.91162841796875,0.10231691598892212,0.17180079221725464,-0.18852274119853973
1789323208232479200,14.930479248046876,0.06688777357339859,0.08017370104789734,0.09185615926980972
1789323208251329800,14.949329833984375,0.17684027552604675,0.26220619678497314,0.40277740359306335
1789323208270180600,14.9681806640625,0.3387148082256317,0.1882936656475067,0.7485169768333435
1789323208289031400,14.987031494140625,0.4059080183506012,0.21211670339107513,1.0624924898147583
1789323208307882000,15.005882080078125,0.4333961308002472,0.14186927676200867,1.2933926582336426
1789323208326732800,15.02473291015625,0.38513919711112976,0.030695075169205666,1.476646900177002
1789323208345583400,15.043583251953125,0.20493926107883453,-0.26128992438316345,1.6195851564407349
1789323208364434200,15.06243408203125,0.1426328420639038,-0.23319093883037567,1.7106014490127563
1789323208383284700,15.08128466796875,0.14629791676998138,-0.13117945194244385,1.8260514736175537
1789323208402135600,15.100135498046875,0.3643703758716583,0.017867282032966614,1.901796579360962
1789323208420986400,15.118986328125,0.5671716928482056,0.13331741094589233,2.0025863647460938
1789323208439837000,15.1378369140625,0.7009472250938416,-0.10124793648719788,2.1914145946502686
1789323208458687500,15.1566875,0.8762603998184204,-0.35169529914855957,2.358175754547119
1789323208477538300,15.175538330078124,0.9990406632423401,-0.4915793240070343,2.360008478164673
1789323208496389000,15.19438916015625,1.0100359916687012,-0.5508314967155457,2.1938579082489014
1789323208515239700,15.21323974609375,0.9935430884361267,-0.668114185333252,2.0826072692871094
1789323208534090200,15.23209033203125,1.0662338733673096,-0.7157602906227112,1.9683789014816284
1789323208552941000,15.250941162109376,1.1077715158462524,-0.7438592314720154,1.9231762886047363
1789323208571792000,15.2697919921875,0.8475505709648132,-1.3027844429016113,1.819332242012024
1789323208590642400,15.288642333984376,0.7962393760681152,-1.0468394756317139,1.337984561920166
1789323208609493200,15.3074931640625,0.7211052179336548,-0.6491779088973999,1.171834111213684
1789323208628343800,15.32634375,0.6038225293159485,-0.45920443534851074,1.144345998764038
1789323208647194600,15.345194580078125,0.4040754735469818,-0.640626072883606,0.9470423460006714
1789323208666045200,15.364045166015625,0.2483094036579132,-0.5184566378593445,0.4253787696361542
1789323208684896000,15.38289599609375,0.057114217430353165,-0.34070006012916565,-0.10789089649915695
1789323208703746600,15.40174658203125,-0.0662769302725792,0.15408621728420258,-0.4585172235965729
1789323208722597000,15.42059716796875,-0.15546062588691711,0.4503471553325653,-0.8043331503868103
1789323208741448000,15.439447998046875,-0.26846736669540405,0.7802810072898865,-1.0773818492889404
1789323208760298800,15.458298828125,-0.4156815707683563,0.7478297352790833,-1.3461546897888184
1789323208779149300,15.4771494140625,-0.5561764240264893,1.129685640335083,-1.5630054473876953
1789323208797999900,15.495999755859375,-0.8243383765220642,1.3098856210708618,-1.6473023891448975
1789323208816850700,15.5148505859375,-1.0784507989883423,1.425946593284607,-1.792073130607605
1789323208835701200,15.533701171875,-1.3881504535675049,1.4961940050125122,-1.9240161180496216
1789323208854552000,15.552552001953124,-1.5617073774337769,1.1052517890930176,-2.146364450454712
1789323208873402600,15.571402587890624,-1.6252354383468628,0.8645779490470886,-2.395590305328369
1789323208892253400,15.59025341796875,-1.7864991426467896,0.0850604772567749,-2.6912403106689453
1789323208911104000,15.60910400390625,-1.7968835830688477,-0.44759833812713623,-2.7547683715820312
1789323208929954600,15.62795458984375,-1.3093510866165161,-0.4940227270126343,-2.8567798137664795
1789323208948805400,15.646805419921876,-0.8536590337753296,-0.17882554233074188,-2.800581932067871
1789323208967656000,15.665656005859375,-0.8408312797546387,-0.12018419802188873,-2.4780545234680176
1789323208986506800,15.6845068359375,-0.5854970812797546,-0.21364383399486542,-1.987544298171997
1789323209014782700,15.71278271484375,0.12675081193447113,-0.06887302547693253,-1.2184876203536987
1789323209033633300,15.73163330078125,0.4321744441986084,0.22494450211524963,-0.8342646360397339
1789323209052484000,15.750484130859375,0.45172154903411865,0.08078455179929733,-0.5361711978912354
1789323209071334700,15.769334716796875,0.2910687327384949,-0.004734066314995289,-0.14515258371829987
1789323209090185200,15.788185302734375,0.2996205687522888,-0.26128992438316345,0.3441360890865326
1789323209109036000,15.8070361328125,0.37536564469337463,0.13026317954063416,0.6324560046195984
1789323209127886600,15.825886474609375,0.3668137788772583,-0.17149536311626434,0.6947624087333679
1789323209146737400,15.8447373046875,0.3545968234539032,0.019088976085186005,0.9042829871177673
1789323209165588000,15.863587890625,0.41323816776275635,-0.11896250396966934,1.221923589706421
1789323209184438500,15.8824384765625,0.50853031873703,-0.014507622458040714,1.3954042196273804
1789323209203289300,15.901289306640624,0.3643703758716583,-0.02733541466295719,1.4509912729263306
1789323209222140000,15.920139892578124,0.15423893928527832,-0.10246963053941727,1.458321452140808
1789323209240990500,15.938990478515626,0.03817795217037201,0.014813045971095562,1.611033320426941
1789323209259841300,15.95784130859375,0.16034740209579468,0.1754658818244934,1.8926339149475098
1789323209278691800,15.97669189453125,0.5305208563804626,0.15836215019226074,2.183473587036133
1789323209297542700,15.995542724609376,0.9917105436325073,-0.12262758612632751,2.3380179405212402
1789323209316393200,16.014393310546875,1.3020973205566406,-0.026724567636847496,2.3758904933929443
1789323209335243800,16.033243896484375,1.2691115140914917,-0.48791423439979553,2.415595531463623
1789323209354094600,16.052094482421875,1.03996741771698,-0.9167290329933167,2.4400293827056885
1789323209372945200,16.070945068359375,0.9446752667427063,-1.095096468925476,2.326411724090576
1789323209391795700,16.089795654296875,0.851215660572052,-1.3156123161315918,2.1859169006347656
1789323209410646500,16.108646484375,0.7088882327079773,-1.2099356651306152,2.107652187347412
1789323209429497000,16.1274970703125,0.7522584199905396,-0.9900307059288025,1.7722970247268677
1789323209448347600,16.14634765625,0.6594096422195435,-0.8147175312042236,1.514519453048706
1789323209467198200,16.1651982421875,0.7363763451576233,-0.5209000110626221,1.1828293800354004
1789323209486049000,16.184049072265626,0.6135960817337036,-0.44332239031791687,0.8315922021865845
1789323209514325000,16.212324951171876,0.2782409191131592,-0.5392253994941711,0.2244100123643875
1789323209533175600,16.231175537109376,-0.0522274412214756,-0.30221667885780334,-0.2569376230239868
1789323209552026000,16.250026123046876,-0.17928366363048553,0.2677038013935089,-0.38643723726272583
1789323209570877000,16.268876953125,-0.3130592107772827,0.3715478479862213,-0.6345176100730896
1789323209589727500,16.2877275390625,-0.23792500793933868,0.4143071472644806,-1.0938746929168701
1789323209608578000,16.306578125,-0.3918585181236267,1.0020185708999634,-1.4457226991653442
1789323209627428900,16.325428955078124,-0.6838434934616089,1.398458480834961,-1.472599983215332
1789323209646279400,16.344279541015624,-0.8548807501792908,1.4790903329849243,-1.6454697847366333
1789323209665130000,16.3631298828125,-0.9550597071647644,1.3666943311691284,-1.8415517807006836
1789323209683980500,16.38198046875,-1.2653701305389404,1.5566679239273071,-2.027860164642334
1789323209702831400,16.400831298828123,-1.7364096641540527,1.276899814605713,-2.265479803085327
1789323209721682000,16.419681884765627,-1.947152018547058,0.8407548666000366,-2.2282180786132812
1789323209740532500,16.438532470703127,-2.0546610355377197,0.28847262263298035,-2.4554531574249268
1789323209759383000,16.457383056640627,-1.7193059921264648,-0.2777827978134155,-2.6484808921813965
1789323209778233900,16.47623388671875,-1.3270657062530518,-0.5838172435760498,-2.6417617797851562
1789323209797084400,16.49508447265625,-0.9190196990966797,-0.4280512034893036,-2.9374117851257324
1789323209815935000,16.51393505859375,-0.5977140665054321,-0.5031854510307312,-2.6832993030548096
1789323209834785500,16.53278564453125,-0.5457920432090759,-0.23746687173843384,-1.9240161180496216
1789323209853636000,16.551635986328126,-0.21654535830020905,0.1754658818244934,-1.73159921169281
1789323209872487000,16.57048681640625,0.14690876007080078,0.008704573847353458,-1.6845639944076538
1789323209891337500,16.58933740234375,0.24159009754657745,-0.02733541466295719,-1.0120211839675903
1789323209910188000,16.60818798828125,0.21226942539215088,0.12720894813537598,-0.42125552892684937
1789323209929038600,16.62703857421875,0.18783552944660187,-0.037108972668647766,-0.17202985286712646
1789323209947889200,16.64588916015625,0.09498675167560577,-0.1104106456041336,0.2549523711204529
1789323209966740000,16.664739990234374,0.1432436853647232,-0.01572931744158268,0.70881187915802
1789323209985590500,16.683590576171873,0.3826957941055298,0.0856713280081749,0.9849148392677307
1789323210013866500,16.711866455078123,0.6050441861152649,-0.08108997344970703,1.2072632312774658
1789323210032717000,16.730717041015627,0.6563553810119629,-0.18798823654651642,1.41189706325531
1789323210051567600,16.749567626953127,0.634364902973175,-0.36879903078079224,1.782070517539978
1789323210070418200,16.768418212890627,0.6930062174797058,-0.529451847076416,1.9879260063171387
1789323210089268700,16.787268798828126,0.6264238357543945,0.017867282032966614,1.9201220273971558
1789323210108119600,16.80611962890625,0.4468347728252411,0.14248012006282806,1.8248298168182373
1789323210126970000,16.82497021484375,0.671015739440918,-0.028557108715176582,2.0477890968322754
1789323210145820700,16.843820556640626,1.0289721488952637,-0.11835165321826935,2.201188087463379
1789323210164671200,16.862671142578126,1.1419789791107178,-0.5465555787086487,2.2317304611206055
1789323210183521800,16.881521728515626,0.8799254894256592,-0.8147175312042236,2.3105297088623047
1789323210202372400,16.900372314453126,0.674680769443512,-0.9051229357719421,2.3355743885040283
1789323210221223000,16.919222900390626,0.7333221435546875,-0.9454388618469238,2.1920254230499268
1789323210240073500,16.938073486328125,0.8725953102111816,-1.1286929845809937,2.0593950748443604
1789323210258924300,16.95692431640625,0.7718055248260498,-1.2435322999954224,2.0282418727874756
1789323210277774800,16.97577490234375,0.7577560544013977,-1.5947694778442383,1.694108486175537
1789323210296625400,16.99462548828125,0.8011261820793152,-1.0553913116455078,1.4222815036773682
1789323210315476000,17.01347607421875,0.7614210844039917,-0.50685054063797,0.9201650619506836
1789323210334326500,17.032326416015625,0.4706578254699707,-0.2716743052005768,0.8804599642753601
1789323210353177000,17.051177001953125,0.15179555118083954,-0.23991025984287262,0.6165739297866821
1789323210372027600,17.070027587890625,0.12858334183692932,-0.012675080448389053,0.17065545916557312
1789323210390878200,17.088878173828125,0.027793550863862038,0.2438807636499405,-0.3113030195236206
1789323210409729000,17.10772900390625,-0.00519220158457756,0.3080197274684906,-0.6161921620368958
1789323210428579600,17.12657958984375,-0.10659284889698029,0.2964136302471161,-0.9478822350502014
1789323210447430100,17.14543017578125,-0.1963873952627182,0.6610894203186035,-1.2416998147964478
1789323210475705900,17.173705810546874,-0.6001574397087097,1.251244306564331,-1.5000882148742676
1789323210494556400,17.192556396484374,-0.8157865405082703,1.443661093711853,-1.5813308954238892
1789323210513407200,17.2114072265625,-0.9593356251716614,1.5047458410263062,-1.7743586301803589
1789323210532257800,17.2302578125,-1.0680664777755737,1.2530767917633057,-2.0174758434295654
1789323210551108400,17.2491083984375,-1.2659809589385986,1.4564889669418335,-2.403531312942505
1789323210569959000,17.267958984375,-1.5329976081848145,1.2011548280715942,-2.5586864948272705
1789323210588809500,17.2868095703125,-1.7229710817337036,0.5010474920272827,-2.7981386184692383
1789323210607660000,17.305659912109373,-1.8200957775115967,-0.1623326539993286,-2.7987494468688965
1789323210626510600,17.324510498046877,-1.2898039817810059,-0.3834593594074249,-2.961845636367798
1789323210645361200,17.343361083984377,-0.8438854813575745,-0.217308908700943,-3.0009398460388184
1789323210664211700,17.362211669921876,-0.5928272604942322,-0.2777827978134155,-2.528144121170044
1789323210683062300,17.381062255859376,-0.2476985603570938,0.18585027754306793,-2.100551128387451
1789323210701912800,17.399912841796876,0.0009162708884105086,0.23105297982692719,-1.7768019437789917
1789323210720763400,17.418763427734376,0.2611372172832489,0.2157817929983139,-1.4756542444229126
1789323210739614000,17.437614013671876,0.2880144715309143,0.06490252166986465,-0.7731798887252808
1789323210758464500,17.456464599609376,0.17561858892440796,-0.0022906772792339325,-0.07429429888725281
1789323210777315000,17.475315185546876,0.09681928902864456,0.36482852697372437,0.2897706627845764
1789323210796165600,17.49416552734375,0.18050536513328552,0.29091599583625793,0.36551573872566223
1789323210815016200,17.51301611328125,0.2641914486885071,0.2805316150188446,0.5744255185127258
1789323210843292000,17.5412919921875,0.3778090178966522,0.28786176443099976,1.281786561012268
1789323210862142500,17.560142578125,0.34726667404174805,0.008093725889921188,1.480922818183899
1789323210880993000,17.578992919921873,0.3026748299598694,-0.07986827939748764,1.380133032798767
1789323210899843600,17.597843505859377,0.08399149775505066,0.10949437320232391,1.3825764656066895
1789323210918694100,17.616694091796877,-0.05650337040424347,-0.3626905679702759,1.5536136627197266
1789323210937544700,17.635544677734377,0.05772506445646286,-0.2832804024219513,1.9189002513885498
1789323210956395300,17.654395263671876,0.37292224168777466,-0.008399149402976036,1.9848718643188477
1789323210975245800,17.673245849609376,0.7076665759086609,0.08994726091623306,1.8077261447906494
1789323210994096400,17.692096435546876,0.9116895198822021,-0.06276455521583557,2.090548276901245
1789323211012947000,17.710947021484376,1.041189193725586,-0.2808370292186737,2.398491859436035
1789323211031797500,17.729797607421876,1.0931111574172974,-0.6137487888336182,2.413151979446411
1789323211050648000,17.74864794921875,1.0784507989883423,-0.9265025854110718,2.276322364807129
1789323211069498600,17.76749853515625,1.0033166408538818,-1.093263864517212,2.270824670791626
1789323211088349200,17.78634912109375,0.9556705355644226,-1.6754013299942017,2.5854110717773438
1789323211107199700,17.80519970703125,0.6026008129119873,-1.8183395862579346,2.4607982635498047
1789323211126050300,17.82405029296875,0.564117431640625,-1.168398141860962,1.7332026958465576
1789323211144900600,17.842900634765623,0.5470137000083923,-0.3364241421222687,1.5890427827835083
1789323211163751400,17.86175146484375,0.7314895987510681,-0.7383615970611572,1.1999330520629883
1789323211182601700,17.880601806640627,0.6563553810119629,-0.474475622177124,0.6941515803337097
1789323211201452300,17.899452392578127,0.24097923934459686,-0.5386145710945129,0.6055787205696106
1789323211220302800,17.918302734375,-0.019241688773036003,-0.3742966651916504,0.4864634871482849
1789323211239153400,17.9371533203125,-0.22570806741714478,-0.188599094748497,-0.0034360159188508987
1789323211258004000,17.95600390625,-0.3374931216239929,0.5963396430015564,-0.4823402762413025
1789323211276854500,17.9748544921875,-0.28068432211875916,1.0313392877578735,-0.7725690603256226
1789323211295705000,17.993705078125,-0.2739650011062622,1.268347978591919,-1.278350591659546
1789323211314555400,18.012555419921874,-0.351542592048645,1.1040300130844116,-1.6466914415359497
1789323211333406000,18.031406005859374,-0.5378510355949402,0.917110800743103,-1.9624994993209839
1789323211352256500,18.050256591796874,-0.8347227573394775,0.9806389212608337,-2.051072359085083
1789323211371107000,18.069107177734374,-1.3484452962875366,1.1522870063781738,-2.154916524887085
1789323211389957600,18.08795751953125,-1.6032450199127197,1.1321290731430054,-2.329007863998413
1789323211408808200,18.10680810546875,-1.6160727739334106,0.9910233020782471,-2.447512149810791
1789323211427658800,18.12565869140625,-1.7003697156906128,0.3611634373664856,-2.462172508239746
1789323211446509300,18.14450927734375,-1.7504591941833496,0.06001574173569679,-2.880603075027466
1789323211465359600,18.163359619140625,-1.3832635879516602,-0.37796175479888916,-3.121887683868408
1789323211493635600,18.191635498046875,-0.9129112362861633,-0.44332239031791687,-2.9141995906829834
1789323211512486000,18.21048583984375,-0.5958815217018127,-0.561826765537262,-2.291135311126709
1789323211531336400,18.22933642578125,-0.2599155008792877,0.016034740954637527,-1.797570824623108
1789323211550187000,18.24818701171875,0.04611896723508835,0.08628217875957489,-1.8122310638427734
1789323211569037600,18.26703759765625,0.23425991833209991,-0.35658207535743713,-1.486649513244629
1789323211587888000,18.28588818359375,0.2605263590812683,-0.24907296895980835,-0.6009209752082825
1789323211606738700,18.30473876953125,0.3649812340736389,0.14797775447368622,-0.17752748727798462
1789323211625589000,18.323589111328126,0.20677179098129272,0.3471139669418335,-0.010155336000025272
1789323211644439600,18.342439453125,0.04734066128730774,0.0050394898280501366,0.3862845301628113
1789323211663290000,18.3612900390625,0.25441789627075195,0.3214583694934845,0.7924979329109192
1789323211682140700,18.380140625,0.34482327103614807,-0.16721943020820618,1.0466104745864868
1789323211700991000,18.398990966796877,0.36131614446640015,-0.07498150318861008,1.1406809091567993
1789323211719841500,18.417841552734377,0.3289412558078766,-0.09208522737026215,1.1852726936340332
1789323211738692000,18.436692138671877,0.31977853178977966,-0.3449759781360626,1.5114651918411255
1789323211757542700,18.455542724609376,0.36192700266838074,-0.09391776472330093,1.8474311828613281
1789323211776393200,18.474393310546876,0.38697174191474915,0.001374406274408102,1.8633131980895996
1789323211795243500,18.493243408203124,0.4682144224643707,-0.029167955741286278,1.7594691514968872
1789323211814094000,18.512093994140624,0.5433486104011536,-0.346808522939682,1.8950772285461426
1789323211832944600,18.530944580078124,0.8774821162223816,-0.22219568490982056,2.0771098136901855
1789323211851795200,18.549795166015624,1.1688562631607056,-0.14400723576545715,2.1174256801605225
1789323211870645500,18.5686455078125,1.1694670915603638,-0.4402681589126587,2.2604403495788574
1789323211889496000,18.58749609375,1.0216420888900757,-0.8422056436538696,2.33496356010437
1789323211908346600,18.6063466796875,0.9373451471328735,-0.8800781965255737,2.1914145946502686
1789323211927197200,18.625197265625,1.0338590145111084,-1.032789945602417,2.070390462875366
1789323211946047500,18.644047607421875,0.9324583411216736,-1.0767710208892822,2.0447349548339844
1789323211964898000,18.66289794921875,0.8725953102111816,-0.9161182045936584,1.8944664001464844
1789323211983748600,18.68174853515625,0.9654440879821777,-0.8745805621147156,1.5804909467697144
1789323212012024300,18.7100244140625,0.6887302994728088,-0.2545706033706665,1.2164260149002075
1789323212030875000,18.728875,0.4731011986732483,-0.38162681460380554,1.0374476909637451
1789323212049725200,18.74772509765625,0.28312769532203674,-0.2942756712436676,0.7509603500366211
1789323212068575700,18.76657568359375,0.06688777357339859,0.15530791878700256,0.24212458729743958
1789323212087426300,18.78542626953125,0.04734066128730774,0.06734590977430344,-0.14270919561386108
1789323212106276600,18.804276611328124,0.041232191026210785,0.19745637476444244,-0.6412369012832642
1789323212125127200,18.823127197265624,-0.07971556484699249,0.18585027754306793,-1.158624529838562
1789323212143977700,18.841977783203124,-0.4083513915538788,0.6384881138801575,-1.5153592824935913
1789323212162828300,18.860828369140624,-0.6496360301971436,0.8835142254829407,-1.6265335083007812
1789323212181678600,18.8796787109375,-0.7308787703514099,1.2060415744781494,-1.6601301431655884
1789323212200529200,18.898529052734375,-0.8157865405082703,1.2720130681991577,-1.751757264137268
1789323212219379500,18.91737939453125,-0.9324583411216736,1.1730557680130005,-1.9930418729782104
1789323212238230000,18.93622998046875,-1.262926697731018,1.5078001022338867,-2.1365909576416016
1789323212257080600,18.95508056640625,-1.4632846117019653,1.3813546895980835,-2.3393921852111816
1789323212275931100,18.97393115234375,-1.690596103668213,1.1015866994857788,-2.4804980754852295
1789323212294781400,18.992781494140626,-1.6973154544830322,0.06551336497068405,-2.664363145828247
1789323212313632000,19.011632080078126,-1.6001907587051392,-0.19226416945457458,-3.1316611766815186
1789323212332482600,19.030482666015626,-1.1682454347610474,-0.41949936747550964,-3.0626354217529297
1789323212360758000,19.058758056640624,-0.6814001202583313,-0.0010689827613532543,-2.1109354496002197
1789323212379608600,19.077608642578124,-0.5494571328163147,0.01175880990922451,-1.9197402000427246
1789323212398459100,19.096459228515624,-0.5299099683761597,-0.11285403370857239,-1.7151063680648804
1789323212417309400,19.115309326171875,-0.23059484362602234,0.21028417348861694,-1.1012048721313477
1789323212436160000,19.134159912109375,0.16217994689941406,0.6427640318870544,-0.5978667736053467
1789323212455010600,19.153010498046875,0.07421794533729553,0.45645561814308167,-0.336347758769989
1789323212473860900,19.17186083984375,-0.08948912471532822,0.15469707548618317,-0.05535803362727165
1789323212492711400,19.19071142578125,0.14690876007080078,-0.241742804646492,0.32275640964508057
1789323212511561700,19.209561767578126,0.30817243456840515,-0.3486410677433014,0.6782695055007935
1789323212530412300,19.228412353515626,0.38636088371276855,-0.2698417901992798,0.8853467702865601
1789323212549262800,19.247262939453126,0.46516019105911255,0.04963133856654167,0.9274951815605164
1789323212568113200,19.266113037109374,0.41262730956077576,0.02092151902616024,1.038669466972351
1789323212586963700,19.284963623046874,0.31855684518814087,-0.19409671425819397,1.5132976770401
1789323212605814000,19.30381396484375,0.46210595965385437,0.04169032722711563,1.9647138118743896
1789323212624664600,19.32266455078125,0.587940514087677,-0.024281177669763565,1.9500535726547241
1789323212643515000,19.341514892578125,0.5464028716087341,-0.023059483617544174,1.6403539180755615
1789323212662365400,19.360365478515625,0.37475478649139404,-0.04321744292974472,1.7539715766906738
1789323212681216000,19.379216064453125,0.5952706336975098,-0.15500248968601227,2.0398480892181396
1789323212700066300,19.39806640625,0.9660549163818359,-0.2692309319972992,2.1950795650482178
1789323212718916900,19.416916748046877,0.9703308939933777,-0.5233433842658997,2.2060749530792236
1789323212737767200,19.43576708984375,0.804791271686554,-0.710262656211853,2.2268435955047607
1789323212756617700,19.45461767578125,0.6966713070869446,-0.6687250137329102,2.3154165744781494
1789323212775468000,19.473468017578124,0.8041804432868958,-1.0315682888031006,2.294647693634033
1789323212794318600,19.492318603515624,1.0650122165679932,-1.1433533430099487,2.1082630157470703
1789323212813169000,19.5111689453125,1.035691499710083,-0.8959602117538452,1.8547613620758057
1789323212832019500,19.53001953125,0.8090671896934509,-1.0291249752044678,1.6146984100341797
1789323212850870000,19.5488701171875,0.6062659025192261,-1.0046910047531128,1.6311912536621094
1789323212869720300,19.56772021484375,0.6716265678405762,-0.7707365155220032,1.1797751188278198
1789323212888571000,19.58657080078125,0.564728319644928,-0.525175929069519,0.912834882736206
1789323212907421200,19.605421142578123,0.38513919711112976,-0.35597124695777893,0.5451048016548157
1789323212926271700,19.624271728515627,0.1707318127155304,-0.07009471952915192,0.16515782475471497
1789323212945122000,19.6431220703125,-0.0009162708884105086,0.18218518793582916,-0.12438376992940903
1789323212963972600,19.66197265625,-0.1041494607925415,0.39353835582733154,-0.5459447503089905
1789323212982823000,19.680822998046875,-0.28312769532203674,0.8712972402572632,-0.8568660020828247
1789323213011098600,19.7090986328125,-0.42850935459136963,1.180385947227478,-1.2691879272460938
1789323213029949000,19.727948974609376,-0.6783458590507507,1.1736665964126587,-1.524522066116333
1789323213048799500,19.746799560546876,-0.8817580342292786,1.213371753692627,-1.7291558980941772
1789323213067649800,19.76564990234375,-0.9874345660209656,1.1596171855926514,-1.9130208492279053
1789323213086500400,19.784500244140624,-1.2555965185165405,1.2005438804626465,-2.1280391216278076
1789323213105350700,19.8033505859375,-1.5232239961624146,0.8633562326431274,-2.3100717067718506
1789323213124201200,19.822201171875,-1.7541242837905884,0.7087355256080627,-2.380929946899414
1789323213143051500,19.841051513671875,-1.719916820526123,0.23471805453300476,-2.606943368911743
1789323213161902000,19.859902099609375,-1.5592639446258545,0.0594048947095871,-2.6680281162261963
1789323213180752400,19.87875244140625,-1.2384928464889526,-0.08231166750192642,-2.7963061332702637
1789323213209028000,19.907028076171876,-0.7608102560043335,-0.28633466362953186,-2.92519474029541
1789323213227878400,19.92587841796875,-0.5378510355949402,-0.30282753705978394,-2.8158531188964844
1789323213246728700,19.944728759765624,-0.34543412923812866,-0.31565532088279724,-2.357106924057007
1789323213265579300,19.963579345703124,-0.05894676223397255,-0.06276455521583557,-1.7945165634155273
1789323213284429600,19.9824296875,0.15362808108329773,0.08078455179929733,-1.3504306077957153
1789323213303280000,20.001280029296876,0.1701209545135498,0.11438114941120148,-0.9069554805755615
1789323213322130400,20.02013037109375,0.1951656937599182,-0.02733541466295719,-0.4695124626159668
1789323213340980700,20.038980712890623,0.34482327103614807,0.12171131372451782,-0.1659213900566101
1789323213359831300,20.057831298828123,0.34604495763778687,-0.028557108715176582,0.2384594976902008
1789323213378681600,20.076681640625,0.3026748299598694,-0.03527642786502838,0.6758261322975159
1789323213397532200,20.0955322265625,0.29534465074539185,0.07345438003540039,1.0203440189361572
1789323213416382500,20.114382568359375,0.31122666597366333,-0.10369132459163666,1.324545979499817
1789323213435232800,20.133232666015626,0.27885177731513977,-0.010842538438737392,1.491307258605957
1789323213454083300,20.152083251953126,0.34787750244140625,-0.11529742181301117,1.4821444749832153
1789323213472933600,20.17093359375,0.4083513915538788,0.058183200657367706,1.5389533042907715
1789323213491784000,20.189783935546874,0.4462239146232605,0.07956285774707794,1.7289267778396606
1789323213510634500,20.208634521484374,0.5384618639945984,-0.007177455350756645,2.0251877307891846
1789323213529484800,20.22748486328125,0.661853015422821,-0.10796725004911423,2.20424222946167
1789323213548335000,20.246335205078125,0.6300889253616333,-0.32848310470581055,2.352067470550537
1789323213567185700,20.265185546875,0.6740699410438538,-0.18798823654651642,2.2372281551361084
1789323213586036000,20.284035888671873,0.7516475319862366,-0.31137940287590027,2.1718673706054688
1789323213614311700,20.312311767578127,0.7821899056434631,-0.6632274389266968,2.4491920471191406
1789323213633162000,20.331161865234375,0.9190196990966797,-0.7163711190223694,2.3789446353912354
1789323213652012300,20.35001220703125,1.044243335723877,-0.9924740791320801,2.284874200820923
1789323213670862800,20.36886279296875,0.9678874611854553,-1.4054068326950073,2.345958948135376
1789323213689713200,20.387713134765626,0.697892963886261,-1.4096827507019043,1.8944664001464844
1789323213717988600,20.415988525390624,0.5983248949050903,-0.5899257659912109,1.5010807514190674
1789323213736839200,20.434839111328124,0.8261709213256836,-0.44271156191825867,1.2750673294067383
1789323213755689500,20.453689453125,0.642916738986969,-0.41705596446990967,0.8462525010108948
1789323213774539800,20.472539794921875,0.34482327103614807,-0.20875705778598785,0.31053948402404785
1789323213793390000,20.49139013671875,-0.07421794533729553,0.14858859777450562,0.09124530851840973
1789323213812240600,20.51024072265625,-0.20066332817077637,0.28664007782936096,-0.2471640706062317
1789323213831091000,20.529091064453127,-0.168899267911911,0.575570821762085,-0.7023216485977173
1789323213849941200,20.547941162109375,-0.21349111199378967,0.8358681201934814,-1.0462286472320557
1789323213868791800,20.566791748046874,-0.2770192325115204,0.838922381401062,-1.2746855020523071
1789323213887642000,20.58564208984375,-0.4975350797176361,0.8322030305862427,-1.56483793258667
1789323213906492400,20.604492431640626,-0.7327113151550293,1.1309072971343994,-1.6198142766952515
1789323213925342700,20.6233427734375,-0.9965972900390625,1.3404279947280884,-1.6662386655807495
1789323213944193300,20.642193359375,-1.300188422203064,1.4522130489349365,-1.7425944805145264
1789323213963043600,20.661043701171874,-1.5525447130203247,1.254298448562622,-1.8812568187713623
1789323213981894000,20.679893798828125,-1.595304012298584,1.2628504037857056,-2.2086710929870605
1789323214010169300,20.70816943359375,-1.7180842161178589,0.6299362182617188,-2.4145264625549316
1789323214029020000,20.72702001953125,-1.877515435218811,-0.05787777900695801,-2.7614877223968506
1789323214047870200,20.7458701171875,-1.5739243030548096,-0.5092939138412476,-2.9984965324401855
1789323214076145700,20.774145751953125,-0.9049702286720276,-0.23685602843761444,-2.7010138034820557
1789323214094996000,20.792995849609376,-0.689341127872467,0.13209572434425354,-2.5440261363983154
1789323214113846500,20.811846435546876,-0.5854970812797546,-0.26434415578842163,-2.183626174926758
1789323214132696800,20.83069677734375,-0.3173351585865021,-0.27411770820617676,-1.6900616884231567
1789323214151547100,20.849547119140624,0.0791047215461731,0.2298312783241272,-1.1702306270599365
1789323214170397400,20.8683974609375,0.20432840287685394,0.252432644367218,-0.636350154876709
1789323214189247700,20.887247802734375,0.11942064017057419,0.14309096336364746,-0.12255123257637024
1789323214208098300,20.906098388671875,0.06322269141674042,0.046577103435993195,0.3539096415042877
1789323214226948600,20.924948486328127,0.2629697322845459,0.02886253222823143,0.7772268056869507
1789323214245799000,20.943798828125,0.4187358021736145,0.07467607408761978,1.1003649234771729
1789323214264649200,20.962649169921875,0.5005893111228943,0.05085303261876106,1.0606598854064941
1789323214283499500,20.98149951171875,0.40285375714302063,-0.1898207813501358,1.249411702156067
1789323214302349800,21.000349853515626,0.29351210594177246,-0.26495498418807983,1.592707872390747
1789323214321200000,21.0192001953125,0.23425991833209991,-0.346808522939682,1.656235933303833
1789323214340050700,21.03805078125,0.19211146235466003,-0.12629267573356628,1.6684529781341553
1789323214358901000,21.05690087890625,0.06016845628619194,-0.1757712960243225,1.8248298168182373
1789323214377751300,21.075751220703125,0.1817270666360855,0.009315420873463154,2.0392372608184814
1789323214396601600,21.0946015625,0.4688252806663513,-0.08353336155414581,2.170034885406494
1789323214415452000,21.113451904296873,0.7840224504470825,0.0587940476834774,2.165071725845337
1789323214434302200,21.13230224609375,0.9190196990966797,-0.43354883790016174,2.1516330242156982
1789323214453152500,21.151152587890625,1.0460759401321411,-0.7511894106864929,2.2958693504333496
1789323214472002800,21.1700029296875,1.1535850763320923,-0.7725690603256226,2.3587865829467773
1789323214490853000,21.18885302734375,1.1664128303527832,-0.8196043372154236,2.166980743408203
1789323214509703700,21.20770361328125,1.1853491067886353,-1.158624529838562,2.2146267890930176
1789323214528554000,21.226553955078124,1.1163233518600464,-1.4212888479232788,2.3801662921905518
1789323214547404300,21.245404296875,0.8609892129898071,-1.7853537797927856,2.27937650680542
1789323214566254600,21.264254638671876,0.4559974670410156,-0.8232693672180176,1.7136555910110474
1789323214585105000,21.28310498046875,0.4706578254699707,-0.37735089659690857,1.6214176416397095
1789323214603955200,21.301955078125,0.7119424939155579,-0.19837264716625214,1.226810336112976
1789323214622805500,21.320805419921875,0.6612421870231628,-0.16721943020820618,0.24945475161075592
1789323214641655800,21.33965576171875,0.4987567961215973,0.13392825424671173,-0.2062373012304306
1789323214660506000,21.358506103515627,0.18966807425022125,-0.03771981969475746,-0.38093963265419006
1789323214679356400,21.3773564453125,0.059557609260082245,-0.5013529062271118,-0.7218687534332275
1789323214698206700,21.396206787109374,-0.14813046157360077,0.046577103435993195,-1.057223916053772
1789323214717057000,21.41505712890625,-0.40041038393974304,0.47233763337135315,-1.1720632314682007
1789323214735907300,21.4339072265625,-0.4865398406982422,1.045999526977539,-1.30644953250885
1789323214754757600,21.452757568359374,-0.61970454454422,1.3758571147918701,-1.6527999639511108
1789323214773608200,21.471608154296874,-0.6423059105873108,1.485198736190796,-1.7566440105438232
1789323214792458500,21.49045849609375,-0.9123004078865051,1.6861674785614014,-1.8348324298858643
1789323214811308800,21.509308837890625,-1.2922474145889282,1.4509912729263306,-2.190345525741577
1789323214839584300,21.537584228515627,-1.8286476135253906,0.8065474629402161,-2.449955701828003
1789323214858434600,21.5564345703125,-1.928215742111206,0.19501298666000366,-2.612441062927246
1789323214877284900,21.575284912109375,-1.8591899871826172,-0.13301199674606323,-2.560518980026245
1789323214896135200,21.59413525390625,-1.4596195220947266,-0.1385096162557602,-2.603889226913452
1789323214914985500,21.6129853515625,-1.0155335664749146,-0.18187977373600006,-3.014378547668457
1789323214943261000,21.641260986328124,-0.7852441668510437,-0.6247440576553345,-2.5147054195404053
1789323214962111200,21.660111328125,-0.47737714648246765,-0.0841442123055458,-2.096885919570923
1789323214980961500,21.67896142578125,0.07727217674255371,-0.10918894410133362,-1.8476603031158447
1789323215009237000,21.707237060546873,0.20249587297439575,-0.26067906618118286,-0.9869764447212219
1789323215028087300,21.72608740234375,0.30572906136512756,-0.09452861547470093,-0.5685460567474365
1789323215046937600,21.7449375,0.5537330508232117,0.14553436636924744,-0.2868691384792328
1789323215065788000,21.763787841796876,0.5347967743873596,-0.07559234648942947,0.13095037639141083
1789323215084638000,21.782637939453124,0.46699273586273193,0.13209572434425354,0.6849888563156128
1789323215103488500,21.801488525390624,0.4871506989002228,0.08628217875957489,0.9806389212608337
1789323215122338800,21.8203388671875,0.4749337434768677,0.13148486614227295,1.1449568271636963
1789323215141188900,21.83918896484375,0.4034646153450012,-0.17271706461906433,1.3954042196273804
1789323215160039200,21.8580390625,0.5390726923942566,-0.44698747992515564,1.6904433965682983
1789323215178889500,21.876889404296875,0.7339329719543457,-0.004734066314995289,1.8126128911972046
1789323215197739800,21.89573974609375,0.5903838872909546,-0.1898207813501358,1.73564612865448
1789323215216590000,21.914590087890623,0.328330397605896,-0.6760551929473877,2.0025863647460938
1789323215235440400,21.9334404296875,0.4871506989002228,-0.5233433842658997,2.4107086658477783
1789323215254290700,21.952290771484375,0.7858549952507019,0.08017370104789734,2.2311196327209473
1789323215273141000,21.97114111328125,0.8414421081542969,-0.2710634768009186,2.006251573562622
1789323215291991300,21.9899912109375,0.8481613993644714,-0.3223746418952942,2.2109615802764893
1789323215329691600,22.027691650390626,1.0027058124542236,-0.5612159371376038,1.979984998703003
1789323215348542200,22.046542236328126,0.8603783845901489,-0.71453857421875,1.805282711982727
1789323215367392300,22.065392333984374,0.5818319916725159,-1.2722420692443848,1.782070517539978
1789323215386242600,22.08424267578125,0.4724903404712677,-1.5306304693222046,1.883471131324768
1789323215405092900,22.1030927734375,0.6093201637268066,-1.1323580741882324,1.4528238773345947
1789323215423943200,22.121943115234377,0.7412631511688232,-0.14156384766101837,1.4784793853759766
1789323215442793500,22.14079345703125,0.7705838084220886,-0.7835643291473389,1.3911283016204834
1789323215461643800,22.159643798828125,0.6038225293159485,-0.6223006248474121,0.9781955480575562
1789323215480494000,22.178494140625,0.2733541429042816,-0.34253260493278503,0.6177956461906433
1789323215499344400,22.197344482421876,-0.032069481909275055,0.021532366052269936,0.40522080659866333
1789323215518194400,22.2161943359375,-0.2367033064365387,0.37765631079673767,-0.0749051421880722
1789323215537044700,22.235044677734376,-0.08399149775505066,0.5144860744476318,-0.589314877986908
1789323215555895000,22.25389501953125,-0.018630841746926308,0.9476531744003296,-1.0401201248168945
1789323215574745300,22.272745361328123,-0.08948912471532822,0.8578585982322693,-1.4573287963867188
1789323215593595600,22.291595703125,-0.3148917555809021,1.1156361103057861,-1.7908514738082886
1789323215612446000,22.310446044921875,-0.7101099491119385,1.0362260341644287,-1.9270703792572021
1789323215631296000,22.3292958984375,-0.9202414155006409,1.2304754257202148,-1.9063016176223755
1789323215650146300,22.348146240234374,-1.2500989437103271,1.4570997953414917,-2.0529048442840576
1789323215668996600,22.36699658203125,-1.2928582429885864,1.3660835027694702,-2.3913142681121826
1789323215687847000,22.385846923828126,-1.3606622219085693,1.2445249557495117,-2.74194073677063
1789323215706697200,22.404697265625,-1.6160727739334106,0.3446705639362335,-2.6564218997955322
1789323215725547300,22.42354736328125,-1.6551669836044312,0.04474456235766411,-2.7382755279541016
1789323215744397600,22.4423974609375,-1.2830846309661865,0.07040014863014221,-2.837843656539917
1789323215772673000,22.470673095703123,-0.89764004945755,-0.21791976690292358,-2.6026675701141357
1789323215791523300,22.4895234375,-0.8011261820793152,-0.5239542126655579,-2.4957692623138428
1789323215810373400,22.508373291015626,-0.4175141155719757,-0.029167955741286278,-2.3681020736694336
1789323215829223700,22.5272236328125,0.08887827396392822,0.35200074315071106,-1.9154642820358276
1789323215848074000,22.546073974609374,0.0650552362203598,0.23105297982692719,-1.2869024276733398
1789323215866924300,22.56492431640625,-0.02473931387066841,0.31657159328460693,-0.839762270450592
1789323215885774300,22.5837744140625,0.004581354558467865,0.3312319219112396,-0.4847836494445801
1789323215904624600,22.602624755859374,-0.04978405311703682,-0.11285403370857239,-0.041919391602277756
1789323215923475000,22.621474853515625,0.0393996499478817,0.20600824058055878,0.1993652731180191
1789323215942325200,22.6403251953125,0.10659284889698029,0.04352286830544472,0.43026554584503174
1789323215961175300,22.65917529296875,0.18050536513328552,0.08139539510011673,0.7308024168014526
1789323215980025600,22.678025634765625,0.17439688742160797,-0.1372879147529602,1.139459252357483
1789323215998876000,22.6968759765625,0.3277195692062378,-0.10308047384023666,1.4344984292984009
1789323216017726200,22.715726318359376,0.43645036220550537,-0.2924431264400482,1.587821125984192
1789323216036576300,22.734576171875,0.5360184907913208,-0.0004581354442052543,1.6696746349334717
1789323216055426600,22.753426513671876,0.559841513633728,0.10705098509788513,1.6177525520324707
1789323216074276900,22.77227685546875,0.564728319644928,-0.1751604527235031,1.8853037357330322
1789323216093127000,22.791126953125,0.8060129284858704,-0.0584886260330677,2.375279664993286
1789323216111977200,22.809977294921875,0.9910996556282043,0.072232685983181,2.3557324409484863
1789323216130827500,22.82882763671875,0.9868237376213074,-0.43293800950050354,2.3618409633636475
1789323216149677600,22.847677490234375,0.8084563612937927,-0.5502206683158875,2.545095205307007
1789323216168528000,22.86652783203125,0.7785248160362244,-0.48608171939849854,2.3936049938201904
1789323216187378200,22.885378173828126,0.8383878469467163,-0.5734328627586365,2.3337419033050537
1789323216206228200,22.904228271484374,0.953227162361145,-0.9845330715179443,2.435753345489502
1789323216225078500,22.92307861328125,0.8909206986427307,-1.2636902332305908,2.287928342819214
1789323216243928800,22.9419287109375,0.72599196434021,-1.56483793258667,1.8156671524047852
1789323216262779100,22.960779052734374,0.5971031785011292,-0.8147175312042236,1.5988163948059082
1789323216281629200,22.979629150390625,0.596492350101471,-0.2044811248779297,1.5731607675552368
1789323216300479500,22.9984794921875,0.6887302994728088,-0.3089359998703003,1.2457466125488281
1789323216319329500,23.01732958984375,0.5848862528800964,-0.6882721781730652,0.7815027236938477
1789323216338179800,23.036179931640625,0.4291202127933502,-0.616802990436554,0.3563530147075653
1789323216357030100,23.055030029296876,0.24097923934459686,-0.4152234196662903,-0.019318044185638428
1789323216375880200,23.073880126953124,0.0015271181473508477,-0.3242071866989136,-0.3870480954647064
1789323216394730500,23.09273046875,-0.10048437118530273,0.017867282032966614,-0.6516213417053223
1789323216413580800,23.111580810546876,-0.18050536513328552,0.1382041871547699,-0.9570449590682983
1789323216432430800,23.130430908203124,-0.23059484362602234,0.5847335457801819,-1.2044380903244019
1789323216451281200,23.14928125,-0.3784198760986328,1.240859866142273,-1.3443220853805542
1789323216470131200,23.168131103515623,-0.6019899845123291,1.8901904821395874,-1.2398672103881836
1789323216488981500,23.1869814453125,-0.7736380696296692,2.139416217803955,-1.223985195159912
1789323216507831800,23.205831787109375,-1.0295830965042114,1.9054616689682007,-1.533073902130127
1789323216526681900,23.224681884765626,-1.3069076538085938,1.6440190076828003,-2.0950534343719482
1789323216545532200,23.2435322265625,-1.6997588872909546,1.369748592376709,-2.6826884746551514
1789323216564382200,23.26238232421875,-2.148120641708374,0.36849361658096313,-2.8677752017974854
1789323216583232500,23.281232421875,-2.208594560623169,-0.3064926266670227,-2.9722299575805664
1789323216602082600,23.30008251953125,-1.7449615001678467,-0.01695101149380207,-3.092566967010498
1789323216620932900,23.318932861328125,-1.2201673984527588,0.06673506647348404,-2.857390880584717
1789323216639783200,23.337783203125,-0.9721634387969971,-0.3174878656864166,-2.586785316467285
1789323216658633200,23.35663330078125,-0.8573241233825684,-0.4665345847606659,-2.3558852672576904
1789323216677483500,23.3754833984375,-0.61481773853302,-0.0975828468799591,-2.015643358230591
1789323216696333600,23.39433349609375,-0.46577104926109314,0.15591876208782196,-1.5092508792877197
1789323216715183900,23.413183837890625,-0.23242738842964172,0.2658712565898895,-1.0602781772613525
1789323216734034000,23.432033935546876,0.032069481909275055,0.02886253222823143,-0.5141806602478027
1789323216752884200,23.45088427734375,0.10048437118530273,-0.40972578525543213,0.08025006204843521
1789323216771734300,23.469734375,0.1707318127155304,-0.2985515892505646,0.373456746339798
1789323216790584600,23.48858447265625,0.45477578043937683,0.04291202127933502,0.5145624876022339
1789323216809434600,23.5074345703125,0.5635066032409668,0.08383878320455551,0.8633562326431274
1789323216828285000,23.526284912109375,0.46454933285713196,0.058183200657367706,1.297668695449829
1789323216847135000,23.545135009765627,0.5573981404304504,0.37704548239707947,1.3721920251846313
1789323216865985300,23.5639853515625,0.44072631001472473,-0.24907296895980835,1.3905174732208252
1789323216884835300,23.58283544921875,0.29656633734703064,-0.6027535200119019,1.5945403575897217
1789323216903685600,23.601685546875,0.3038965165615082,-0.423164427280426,1.769242763519287
1789323216922535700,23.62053564453125,0.42362257838249207,-0.16599774360656738,1.8144453763961792
1789323216941386000,23.639385986328126,0.4963133931159973,-0.39567631483078003,1.8315491676330566
1789323216960236000,23.658236083984374,0.7211052179336548,-0.20081603527069092,1.893244743347168
1789323216979086300,23.67708642578125,0.823116660118103,-0.26006820797920227,1.9787633419036865
1789323216997936400,23.695936279296873,0.8194515705108643,-0.5942016839981079,1.9885369539260864
1789323217016786700,23.71478662109375,0.8163973689079285,-0.6662816405296326,1.9176785945892334
1789323217035636700,23.73363671875,0.8200624585151672,-0.6149705052375793,1.9408907890319824
1789323217054487000,23.752487060546876,1.0057599544525146,-0.7805100679397583,2.224400281906128
1789323217073337000,23.771337158203124,1.2000857591629028,-0.9637642502784729,2.2757115364074707
1789323217092187400,23.7901875,1.1523633003234863,-0.9399412274360657,1.8443769216537476
1789323217111037400,23.809037353515624,0.8579349517822266,-1.0859336853027344,1.6104224920272827
1789323217129887500,23.827887451171875,0.6679614782333374,-1.0963181257247925,1.6372997760772705
1789323217148737800,23.84673779296875,0.8872556686401367,-0.40606072545051575,1.449158787727356
1789323217167587800,23.865587890625,0.9031376838684082,-0.05665608495473862,1.0771527290344238
1789323217186438100,23.884438232421875,0.661853015422821,-0.5465555787086487,0.7405759692192078
1789323217205288200,23.9032880859375,0.4205683469772339,-0.2826695740222931,0.38811707496643066
1789323217224138500,23.922138427734374,0.2208212912082672,-0.05604523420333862,0.08330429345369339
1789323217242988500,23.940988525390626,0.12186402827501297,-0.020005248486995697,-0.2184542566537857
1789323217261838600,23.959838623046874,0.06200099736452103,0.16813570261001587,-0.6033644080162048
1789323217280689000,23.97868896484375,-0.08582404255867004,0.5144860744476318,-0.9106205701828003
1789323217308964000,24.006964111328124,-0.4596625566482544,0.8932877779006958,-1.4414467811584473
1789323217327814100,24.025814208984375,-0.6465818285942078,1.2200909852981567,-1.7786345481872559
1789323217346664400,24.04466455078125,-0.9055810570716858,1.4314441680908203,-1.8733158111572266
1789323217365514500,24.063514404296875,-1.220778226852417,1.4748142957687378,-1.939898133277893
1789323217384364800,24.08236474609375,-1.5818653106689453,1.4546563625335693,-2.190345525741577
1789323217403214800,24.10121484375,-1.8194849491119385,1.0154571533203125,-2.3009088039398193
1789323217422065000,24.12006494140625,-1.780390739440918,0.7900545597076416,-2.518981456756592
1789323217440915200,24.138915283203126,-1.6319547891616821,0.7111788988113403,-2.8390653133392334
1789323217459765200,24.15776513671875,-1.6667730808258057,-0.16905197501182556,-2.846395492553711
