time,seconds_elapsed,z,y,x
1789323451606668000,0.14966796875,8.508578300476074,4.338187217712402,0.44297128915786743
1789323451625518600,0.1685185546875,8.082356452941895,4.3310089111328125,0.2946162819862366
1789323451644369000,0.187368896484375,7.788039684295654,4.357329845428467,-0.17706887423992157
1789323451663219200,0.20621923828125,7.9005022048950195,4.405186653137207,-0.8859425783157349
1789323451682069800,0.22506982421875,8.149654388427734,4.41475772857666,-1.4413765668869019
1789323451700920000,0.243920166015625,8.254939079284668,4.053142547607422,-1.4676976203918457
1789323451719770400,0.262770263671875,8.647361755371094,4.000500202178955,-1.5466607809066772
1789323451738620700,0.28162060546875,9.078369140625,3.952643871307373,-1.5753746032714844
1789323451757471200,0.30047119140625,9.023334503173828,3.617349624633789,-1.4413765668869019
1789323451776321500,0.319321533203125,8.918049812316895,3.6631124019622803,-1.4365909099578857
1789323451795172000,0.338172119140625,8.906085968017578,3.85693097114563,-1.3692927360534668
1789323451814022400,0.3570224609375,9.10229778289795,3.9502511024475098,-1.1491531133651733
1789323451832872700,0.375872802734375,9.095118522644043,3.746861219406128,-0.9218349456787109
1789323451851723000,0.394722900390625,8.839086532592773,4.053142547607422,-1.225723385810852
1789323451870573600,0.413573486328125,8.556434631347656,4.453042984008789,-1.501197099685669
1789323451889424000,0.432423828125,8.774480819702148,4.335794448852539,-1.6328023672103882
1789323451908274200,0.451274169921875,9.559625625610352,4.134498596191406,-1.4533406496047974
1789323451927124700,0.470124755859375,10.048060417175293,4.203890323638916,-0.9744769930839539
1789323451945975000,0.48897509765625,10.186843872070312,4.309473514556885,-0.4668995141983032
1789323451964825300,0.507825439453125,9.61944580078125,4.536791801452637,-0.3233301639556885
1789323451983676000,0.526676025390625,8.688039779663086,4.78594446182251,-0.26081767678260803
1789323452002526200,0.545526123046875,8.03210735321045,4.805087089538574,-0.04785645380616188
1789323452021376500,0.56437646484375,8.290831565856934,4.677968502044678,0.1579262912273407
1789323452040226800,0.583226806640625,8.95394229888916,4.563112735748291,-0.02392822690308094
1789323452059077400,0.602077392578125,9.375378608703613,4.390829563140869,-0.32572299242019653
1789323452077927700,0.620927734375,9.523733139038086,4.077070713043213,-0.3640081584453583
1789323452096778000,0.639778076171875,8.992227554321289,3.9239299297332764,-0.3975076675415039
1789323452115628500,0.658628662109375,7.857431411743164,3.9143588542938232,-0.1818545162677765
1789323452134478800,0.677478759765625,6.818347930908203,3.2727832794189453,0.524327278137207
1789323452153329200,0.6963291015625,6.540780544281006,2.334198474884033,0.9074779748916626
1789323452172179700,0.7151796875,6.262914180755615,1.86729896068573,0.12681959569454193
1789323452191030000,0.734030029296875,5.937490463256836,1.2640085220336914,0.17946170270442963
1789323452209880300,0.75288037109375,5.628517150878906,0.7636095285415649,-0.09571290761232376
1789323452228731000,0.77173095703125,6.234200477600098,0.9553344249725342,-0.15553347766399384
1789323452247581200,0.790581298828125,7.311568737030029,1.9800606966018677,-0.8476574420928955
1789323452266431500,0.809431396484375,7.599006652832031,2.283949136734009,-1.5394822359085083
1789323452285281800,0.82828173828125,6.176772594451904,1.2496516704559326,-1.4605190753936768
1789323452304132400,0.84713232421875,5.484947681427002,0.13160525262355804,-1.3549357652664185
1789323452322982700,0.865982666015625,5.911169052124023,-0.3329014480113983,-1.6567305326461792
1789323452341833000,0.8848330078125,7.098607540130615,-0.4046861231327057,-2.6575286388397217
1789323452360683500,0.90368359375,7.562815189361572,-2.4370899200439453,-1.410269856452942
1789323452379533800,0.922533935546875,7.862216949462891,-4.036392688751221,-2.0781664848327637
1789323452398384000,0.941384033203125,8.298009872436523,-4.467400074005127,-2.8274190425872803
1789323452417234400,0.960234375,9.38734245300293,-4.6540398597717285,-3.3469607830047607
1789323452436085000,0.9790849609375,9.75344467163086,-5.743372440338135,-3.835395574569702
1789323452454935300,0.997935302734375,8.944371223449707,-6.892525672912598,-4.553541660308838
1789323452473785600,1.01678564453125,8.216653823852539,-7.498208999633789,-5.204688549041748
1789323452492636200,1.03563623046875,8.250153541564941,-8.207082748413086,-5.836692810058594
1789323452520911600,1.06391162109375,7.756932735443115,-9.001798629760742,-6.904489517211914
1789323452539762000,1.082761962890625,7.345067977905273,-9.154939651489258,-6.787241458892822
1789323452558612500,1.101612548828125,7.804789066314697,-9.327521324157715,-6.957131862640381
1789323452577462800,1.120462890625,8.506185531616211,-9.471091270446777,-8.20229721069336
1789323452596313000,1.13931298828125,8.455936431884766,-9.459127426147461,-9.052047729492188
1789323452615163400,1.158163330078125,8.262117385864258,-9.341878890991211,-10.067203521728516
1789323452634014000,1.177013916015625,10.050453186035156,-8.66889762878418,-11.869895935058594
1789323452662289400,1.205289306640625,12.018250465393066,-7.5101728439331055,-14.022239685058594
1789323452681139700,1.2241396484375,10.878668785095215,-6.073881149291992,-15.772290229797363
1789323452699990300,1.242990234375,10.979466438293457,-4.764110088348389,-17.04347801208496
1789323452728265700,1.271265625,9.346664428710938,-3.1866414546966553,-13.296915054321289
1789323452747116000,1.290115966796875,9.499805450439453,-2.2360928058624268,-10.694421768188477
1789323452765966600,1.308966552734375,8.93240737915039,-1.3142578601837158,-9.365806579589844
1789323452784817000,1.32781689453125,7.840681552886963,-0.9122636318206787,-8.606683731079102
1789323452803667200,1.346667236328125,6.653243541717529,-1.2616157531738281,-8.594719886779785
1789323452822517800,1.365517822265625,5.286044120788574,-1.55623197555542,-8.499007225036621
1789323452841368000,1.3843681640625,5.032404899597168,-2.0207388401031494,-8.568398475646973
1789323452860218400,1.40321826171875,4.742574691772461,-3.0810582637786865,-6.942774772644043
1789323452879069000,1.42206884765625,4.551148891448975,-4.680361270904541,-4.311866283416748
1789323452897919200,1.440919189453125,4.069892406463623,-6.057131290435791,-2.825026273727417
1789323452916769500,1.45976953125,4.261617183685303,-8.140083312988281,-2.4538395404815674
1789323452935619800,1.478619873046875,4.7473602294921875,-8.755337715148926,-4.1991047859191895
1789323452954470400,1.497470458984375,5.118546962738037,-9.786943435668945,-5.731408596038818
1789323452973320700,1.51632080078125,4.4961137771606445,-9.490233421325684,-6.784848690032959
1789323452992171000,1.5351708984375,4.584648132324219,-8.448758125305176,-7.608577728271484
1789323453011021300,1.554021240234375,5.276473045349121,-7.091429233551025,-7.857431411743164
1789323453029871900,1.572871826171875,5.702694416046143,-5.614160060882568,-7.5101728439331055
1789323453048722200,1.59172216796875,6.0523457527160645,-4.333401679992676,-7.294818878173828
1789323453067572500,1.610572509765625,5.884549140930176,-3.7037904262542725,-7.493422985076904
1789323453086423000,1.629423095703125,5.676373481750488,-3.1627132892608643,-6.820741176605225
1789323453105273300,1.6482734375,5.647659778594971,-2.7125635147094727,-6.413661956787109
1789323453124123600,1.66712353515625,5.262115955352783,-2.30069899559021,-6.535995006561279
1789323453142974000,1.685973876953125,5.12811803817749,-2.4059832096099854,-5.31475830078125
1789323453161824500,1.704824462890625,6.294020652770996,-2.1068804264068604,-4.591826438903809
1789323453180674800,1.7236748046875,7.184749126434326,-1.3932210206985474,-6.451947212219238
1789323453199525000,1.742525146484375,6.428019046783447,-1.5825530290603638,-5.829514026641846
1789323453218375400,1.76137548828125,6.464210510253906,-1.4724832773208618,-4.984548568725586
1789323453237226000,1.78022607421875,7.065107822418213,-1.0893324613571167,-3.387638568878174
1789323453256076300,1.799076171875,7.4240312576293945,-1.0558329820632935,-1.934298038482666
1789323453274926600,1.817926513671875,6.701099872589111,-1.623231053352356,-1.5490535497665405
1789323453293777200,1.836777099609375,6.457031726837158,-2.949453115463257,-2.090130567550659
1789323453312627500,1.85562744140625,6.152844429016113,-4.244867324829102,-3.332603693008423
1789323453331477800,1.874477783203125,5.616552829742432,-4.527220249176025,-4.843372344970703
1789323453350328000,1.893328125,6.372983932495117,-4.687539577484131,-5.365306377410889
1789323453369178600,1.9121787109375,6.86381196975708,-4.903192520141602,-4.761716842651367
1789323453388029000,1.93102880859375,7.153642177581787,-4.9654059410095215,-4.529613494873047
1789323453406879200,1.949879150390625,6.6006011962890625,-5.099404335021973,-3.2129626274108887
1789323453425729500,1.9687294921875,6.49770975112915,-5.362913608551025,-1.407876968383789
1789323453444580000,1.987580078125,4.864907741546631,-5.585446357727051,-1.4533406496047974
1789323453463430400,2.006430419921875,3.3230323791503906,-5.980561256408691,-6.921239376068115
1789323453482280700,2.02528076171875,3.9789650440216064,-6.423233509063721,-10.189236640930176
1789323453501131000,2.044131103515625,5.695516109466553,-6.825526714324951,-9.439984321594238
1789323453519981600,2.062981689453125,7.63729190826416,-7.426424026489258,-9.001798629760742
1789323453548257000,2.091257080078125,6.524031162261963,-7.5341010093688965,-8.331509590148926
1789323453567107300,2.110107421875,5.56151819229126,-7.936394691467285,-7.345067977905273
1789323453585958000,2.1289580078125,4.555934429168701,-8.951549530029297,-6.0834527015686035
1789323453604808200,2.14780810546875,3.7923247814178467,-10.194023132324219,-4.2592244148254395
1789323453623658500,2.166658447265625,3.8521454334259033,-10.885847091674805,-2.5283162593841553
1789323453642508800,2.1855087890625,4.6061835289001465,-10.993824005126953,-1.5131611824035645
1789323453661359000,2.204359130859375,5.427519798278809,-12.02064323425293,-2.231307029724121
1789323453680209700,2.223209716796875,4.768895626068115,-13.576875686645508,-3.5024940967559814
1789323453699060000,2.24206005859375,3.7133617401123047,-13.694124221801758,-3.466601848602295
1789323453717910300,2.26091015625,3.5958142280578613,-11.204392433166504,-4.053142547607422
1789323453736760800,2.2797607421875,4.038785457611084,-8.446364402770996,-4.247260093688965
1789323453755611100,2.298611083984375,3.507279872894287,-6.856633186340332,-3.4378879070281982
1789323453774461400,2.31746142578125,3.119642496109009,-6.260521411895752,-2.2504496574401855
1789323453793311700,2.336311767578125,3.5192439556121826,-5.824728488922119,-2.7436702251434326
1789323453812162300,2.355162353515625,4.093820571899414,-4.488935470581055,-3.614956855773926
1789323453831012600,2.3740126953125,4.321437835693359,-2.6192433834075928,-3.670290946960449
1789323453849863000,2.39286279296875,3.468994617462158,-1.0917253494262695,-3.835395574569702
1789323453868713200,2.411713134765625,5.087440013885498,-5.760122299194336,-3.8162529468536377
1789323453887563800,2.430563720703125,6.976274490356445,-10.064809799194336,-5.896812438964844
1789323453906414000,2.4494140625,6.035595893859863,-11.048858642578125,-6.303592205047607
1789323453925264400,2.468264404296875,5.4514479637146,-11.053644180297852,-3.5886356830596924
1789323453944114700,2.48711474609375,6.002096652984619,-11.491530418395996,-1.292722463607788
1789323453962965000,2.505965087890625,6.760920524597168,-11.700005531311035,0.5051847100257874
1789323453981815600,2.524815673828125,7.627720355987549,-12.782159805297852,-0.13639089465141296
1789323454000665900,2.543665771484375,7.412067413330078,-12.736696243286133,-1.4964114427566528
1789323454019516200,2.56251611328125,7.146463871002197,-11.697612762451172,-2.307877540588379
1789323454038366500,2.581366455078125,6.715456962585449,-10.541280746459961,-2.6790640354156494
1789323454057217000,2.600217041015625,6.246164321899414,-9.049654960632324,-2.7412774562835693
1789323454076067300,2.6190673828125,6.136094570159912,-7.905287742614746,-2.6264219284057617
1789323454094917600,2.637917724609375,6.28205680847168,-6.9236321449279785,-2.0709879398345947
1789323454113768000,2.656767822265625,6.636493682861328,-5.702694416046143,-1.8529419898986816
1789323454132618500,2.675618408203125,7.572386264801025,-3.780360698699951,-2.6575286388397217
1789323454151468800,2.69446875,6.595815658569336,-5.300401210784912,-2.7675983905792236
1789323454170319000,2.713319091796875,7.163213729858398,-6.341877460479736,-3.677469253540039
1789323454189169400,2.73216943359375,7.572386264801025,-7.469494819641113,-3.81864595413208
1789323454208020000,2.75102001953125,7.1249284744262695,-8.094321250915527,-3.7348971366882324
1789323454226870300,2.769870361328125,6.143272876739502,-7.4001030921936035,-3.6340994834899902
1789323454245720600,2.788720458984375,6.564708709716797,-6.341877460479736,-3.5264222621917725
1789323454264571000,2.80757080078125,7.675576686859131,-5.6859450340271,-2.604886531829834
1789323454283421200,2.826421142578125,6.787241458892822,-5.250152111053467,-2.1403799057006836
1789323454311697000,2.85469677734375,5.549553871154785,-3.9933218955993652,-0.8306085467338562
1789323454330547200,2.873547119140625,5.7649078369140625,-3.253640651702881,-0.09571290761232376
1789323454349397500,2.8923974609375,6.104988098144531,-2.762812852859497,0.20578274130821228
1789323454368248000,2.911248046875,5.927918910980225,-2.628814697265625,-0.26081767678260803
1789323454387098400,2.930098388671875,6.016453266143799,-3.0810582637786865,-0.5985047817230225
1789323454405948700,2.94894873046875,6.7178497314453125,-3.10528564453125,-0.3520440459251404
1789323454424799000,2.967799072265625,6.607779502868652,-3.129213809967041,-1.0103694200515747
1789323454443649500,2.9866494140625,6.976274490356445,-3.119642496109009,-0.9912267923355103
1789323454462499800,3.005499755859375,6.725028038024902,-3.1100711822509766,-1.7476578950881958
1789323454481350100,3.02435009765625,7.278069019317627,-2.8513472080230713,-1.9680966138839722
1789323454500200400,3.043200439453125,7.9244303703308105,-2.6168506145477295,-2.36291241645813
1789323454519051000,3.062051025390625,7.431210041046143,-2.635993242263794,-2.999702215194702
1789323454537901300,3.0809013671875,7.654041290283203,-2.731706142425537,-3.3445677757263184
1789323454556751600,3.099751708984375,7.569993495941162,-2.865704298019409,-3.6460635662078857
1789323454575602000,3.118601806640625,7.77607536315918,-3.0020952224731445,-3.7444684505462646
1789323454594452500,3.137452392578125,7.383353233337402,-3.4091739654541016,-3.7133617401123047
1789323454613302800,3.156302734375,7.886145114898682,-3.935894250869751,-3.552743434906006
1789323454632153000,3.175153076171875,7.804789066314697,-4.563112735748291,-3.7301113605499268
1789323454651003400,3.19400341796875,7.306783199310303,-5.604588985443115,-3.864109516143799
1789323454669853700,3.212853759765625,6.997809886932373,-6.679564476013184,-3.552743434906006
1789323454688704300,3.231704345703125,6.368198394775391,-7.500601768493652,-3.160320520401001
1789323454707554600,3.250554443359375,6.16480827331543,-7.950751304626465,-2.7723841667175293
1789323454726404900,3.26940478515625,6.128916263580322,-8.108677864074707,-2.1308085918426514
1789323454745255200,3.288255126953125,5.9422760009765625,-8.120641708374023,-1.7333009243011475
1789323454764105700,3.307105712890625,5.647659778594971,-8.063214302062988,-1.4485549926757812
1789323454782956000,3.3259560546875,5.736194133758545,-7.9244303703308105,-1.4557334184646606
1789323454801806300,3.344806396484375,5.954239845275879,-8.123034477233887,-1.3214362859725952
1789323454820656600,3.36365673828125,6.15045166015625,-9.382556915283203,-1.470090389251709
1789323454839507000,3.3825068359375,5.913562297821045,-11.654541969299316,-1.7859430313110352
1789323454858357500,3.401357421875,5.8821563720703125,-12.839587211608887,-1.9752750396728516
1789323454877207800,3.420207763671875,6.104988098144531,-12.116655349731445,-1.9055840969085693
1789323454896058000,3.43905810546875,5.846263885498047,-10.864312171936035,-1.6088740825653076
1789323454914908400,3.457908447265625,5.932704448699951,-9.849455833435059,-1.5346965789794922
1789323454933759000,3.476759033203125,6.188736438751221,-9.291629791259766,-1.5203397274017334
1789323454952609300,3.495609375,6.301199436187744,-9.221938133239746,-1.651944875717163
1789323454971459600,3.51445947265625,6.181558132171631,-9.459127426147461,-2.118844509124756
1789323454990310000,3.533309814453125,4.5583271980285645,-9.657731056213379,-1.7380865812301636
1789323455009160400,3.552160400390625,5.281258583068848,-9.550054550170898,-1.709372639656067
1789323455028010800,3.5710107421875,4.939085006713867,-9.566803932189941,-0.7731808423995972
1789323455046861000,3.589861083984375,5.242973327636719,-8.901300430297852,-1.2975081205368042
1789323455065711400,3.60871142578125,4.591826438903809,-8.927620887756348,-1.8242281675338745
1789323455084561700,3.627561767578125,4.768895626068115,-8.17836856842041,-1.8170497417449951
1789323455103412200,3.646412109375,6.3825554847717285,-7.170392036437988,-2.580958366394043
1789323455122262500,3.665262451171875,7.177570819854736,-7.77607536315918,-3.5671002864837646
1789323455141112800,3.68411279296875,7.843074321746826,-8.012965202331543,-3.6798620223999023
1789323455159963100,3.702963134765625,8.501399993896484,-7.4001030921936035,-3.7923247814178467
1789323455178813400,3.7218134765625,7.550850868225098,-7.383353233337402,-4.766502857208252
1789323455197664000,3.7406640625,6.439982891082764,-7.699504852294922,-4.048357009887695
1789323455216514300,3.759514404296875,6.174379825592041,-6.444768905639648,-4.211368083953857
1789323455235364600,3.778364501953125,5.688337802886963,-6.636493682861328,-3.3517463207244873
1789323455254215000,3.79721484375,6.3753767013549805,-6.9068827629089355,-3.6655051708221436
1789323455273065500,3.8160654296875,5.640480995178223,-8.044071197509766,-2.896811008453369
1789323455291915800,3.834915771484375,7.562815189361572,-7.718647480010986,-1.5897315740585327
1789323455310766000,3.85376611328125,8.274081230163574,-7.689933776855469,-1.7261223793029785
1789323455329616400,3.872616455078125,8.817551612854004,-7.2349982261657715,-1.1228320598602295
1789323455348467000,3.891467041015625,7.63729190826416,-6.176772594451904,-2.3461625576019287
1789323455367317200,3.910317138671875,6.236593246459961,-4.29033088684082,-2.1786649227142334
1789323455386167600,3.92916748046875,7.067500591278076,-2.5088746547698975,-2.9063823223114014
1789323455405017900,3.948017822265625,7.227819919586182,-3.0475587844848633,-2.4466612339019775
1789323455423868400,3.966868408203125,3.2608189582824707,-4.998905658721924,-1.8409779071807861
1789323455442718700,3.98571875,5.537590026855469,-2.197807550430298,0.7875377535820007
1789323455461569000,4.004569091796875,8.235795974731445,-2.7580273151397705,0.6152545213699341
1789323455480419300,4.02341943359375,4.718646049499512,-2.942274570465088,-0.8476574420928955
1789323455499269600,4.04226953125,5.659623622894287,-2.0614166259765625,-1.5251253843307495
1789323455518120000,4.061119873046875,7.766504287719727,-3.6655051708221436,-0.1986042857170105
1789323455536970500,4.079970458984375,6.468996047973633,-2.26959228515625,-2.011167526245117
1789323455555820800,4.09882080078125,7.3522467613220215,-2.1643080711364746,-0.45254257321357727
1789323455574671000,4.117671142578125,8.740981101989746,-2.221735715866089,-2.427518606185913
1789323455593521400,4.136521484375,10.457531929016113,-3.4019956588745117,-2.5546371936798096
1789323455612372000,4.1553720703125,6.509674072265625,-4.555934429168701,-3.8856449127197266
1789323455631222300,4.17422216796875,6.732206344604492,-5.046761989593506,-2.8920252323150635
1789323455650072600,4.193072509765625,6.411269187927246,-4.144069671630859,-2.7101707458496094
1789323455668923000,4.2119228515625,5.975775241851807,-3.466601848602295,-1.9055840969085693
1789323455687773400,4.2307734375,6.634100914001465,-2.691028118133545,-0.8787640929222107
1789323455706623700,4.249623779296875,5.90877628326416,-1.9199410676956177,-1.970489501953125
1789323455725474000,4.26847412109375,5.041976451873779,-2.3533411026000977,-1.8218353986740112
1789323455744324400,4.287324462890625,7.2661051750183105,-2.8585257530212402,-2.166700839996338
1789323455763174700,4.306174560546875,7.05553674697876,-4.151247978210449,-2.880061149597168
1789323455782025200,4.325025146484375,7.290033340454102,-6.62213659286499,-3.677469253540039
1789323455800875500,4.34387548828125,6.885347366333008,-9.303593635559082,-3.8688950538635254
1789323455819725800,4.362725830078125,7.39053201675415,-11.036894798278809,-3.315854072570801
1789323455838576000,4.381576171875,5.982954025268555,-12.221940040588379,-3.897608995437622
1789323455857426700,4.4004267578125,7.268497943878174,-11.304890632629395,-2.152343988418579
1789323455876277000,4.419277099609375,7.048357963562012,-10.885847091674805,-1.1802598237991333
1789323455895127300,4.438127197265625,6.708278179168701,-10.883454322814941,-2.0135602951049805
1789323455913977600,4.4569775390625,6.451947212219238,-11.953644752502441,-2.5474588871002197
1789323455942253300,4.48525341796875,5.9183478355407715,-11.34078311920166,-2.166700839996338
1789323455961103600,4.504103515625,5.530411243438721,-9.705587387084961,-2.097309112548828
1789323455979954000,4.522953857421875,4.867300510406494,-7.661220073699951,-1.2113664150238037
1789323455998804200,4.54180419921875,6.310770511627197,-6.4375901222229,-2.14516544342041
1789323456017654500,4.560654541015625,5.697908878326416,-6.317949295043945,-1.678265929222107
1789323456036504800,4.5795048828125,6.078666687011719,-8.036892890930176,-2.0039889812469482
1789323456055355400,4.59835546875,6.002096652984619,-9.123832702636719,-1.1635099649429321
1789323456074205700,4.617205810546875,4.977370262145996,-9.51894760131836,-0.8377870321273804
1789323456093056000,4.636055908203125,5.166403293609619,-9.48066234588623,-2.2360928058624268
1789323456111906300,4.65490625,4.0196428298950195,-9.490233421325684,-1.8888343572616577
1789323456130756600,4.673756591796875,3.911965847015381,-9.813264846801758,-1.8505492210388184
1789323456149607200,4.692607177734375,3.9861433506011963,-8.656932830810547,-0.5147559642791748
1789323456168457500,4.71145751953125,7.383353233337402,-8.707481384277344,-1.807478427886963
1789323456187307800,4.730307861328125,8.455936431884766,-10.979466438293457,-1.7380865812301636
1789323456206158000,4.749157958984375,8.851051330566406,-12.822837829589844,-3.7683966159820557
1789323456225008400,4.76800830078125,8.40329360961914,-11.379068374633789,-3.974179267883301
1789323456243859000,4.78685888671875,7.3761749267578125,-9.885348320007324,-4.862514495849609
1789323456262709200,4.805709228515625,5.326722145080566,-8.091927528381348,-5.137689113616943
1789323456281559600,4.8245595703125,4.333401679992676,-6.284449577331543,-4.273581027984619
1789323456300409900,4.843409912109375,4.718646049499512,-5.338985443115234,-4.390829563140869
1789323456319260200,4.86226025390625,5.391627788543701,-5.405984401702881,-2.944667339324951
1789323456338110700,4.88111083984375,6.713063716888428,-5.985346794128418,-1.7476578950881958
1789323456356961000,4.8999609375,7.089035987854004,-6.349055767059326,-1.9055840969085693
1789323456375811300,4.918811279296875,7.074679374694824,-6.796812534332275,-1.3381860256195068
1789323456394661600,4.93766162109375,6.839883327484131,-5.755336761474609,-1.7859430313110352
1789323456413512200,4.95651220703125,6.775277137756348,-5.810371398925781,-1.6615161895751953
1789323456432362500,4.975362548828125,9.111868858337402,-4.766502857208252,-1.994417667388916
1789323456451212800,4.994212890625,9.200403213500977,-4.467400074005127,-1.8026927709579468
1789323456470063000,5.01306298828125,11.278569221496582,-3.16749906539917,-4.4650068283081055
1789323456488913400,5.031913330078125,11.101500511169434,-6.911668300628662,-6.420840263366699
1789323456507764000,5.050763916015625,7.345067977905273,-7.251748085021973,-4.127319812774658
1789323456526614300,5.0696142578125,4.771587371826172,-4.843372344970703,-2.612065076828003
1789323456545464600,5.088464599609375,3.5982069969177246,-3.7061831951141357,-1.9728822708129883
1789323456564315000,5.10731494140625,4.2209391593933105,-2.841775894165039,0.016749758273363113
1789323456583165200,5.126165283203125,5.695516109466553,-0.8787640929222107,1.4796617031097412
1789323456602015700,5.145015625,4.752145767211914,-0.5650052428245544,0.8210372924804688
1789323456620866000,5.163865966796875,3.8760735988616943,-1.3884353637695312,-0.31854450702667236
1789323456639716400,5.18271630859375,4.936692237854004,-1.2975081205368042,0.36640095710754395
1789323456658566700,5.201566650390625,6.68435001373291,-1.4629119634628296,-0.4549354016780853
1789323456677417000,5.2204169921875,4.864907741546631,-1.5107684135437012,-0.18903298676013947
1789323456696267500,5.239267578125,7.261319637298584,-1.505982756614685,-1.628016710281372
1789323456724543000,5.26754296875,6.866204738616943,-2.472982168197632,-2.0853450298309326
1789323456743393300,5.286393310546875,7.969893932342529,-3.11246395111084,-4.110570430755615
1789323456762243600,5.30524365234375,8.231010437011719,-4.634897232055664,-3.284747362136841
1789323456781094100,5.32409423828125,7.646862983703613,-6.708278179168701,-4.295116424560547
1789323456799944400,5.3429443359375,7.840681552886963,-8.530113220214844,-3.6655051708221436
1789323456818794800,5.361794677734375,6.823133945465088,-9.040083885192871,-4.000500202178955
1789323456837645000,5.38064501953125,6.952346324920654,-9.044869422912598,-2.5378875732421875
1789323456856495400,5.399495361328125,6.562315940856934,-8.4200439453125,-2.496910333633423
1789323456875345700,5.418345703125,5.580660820007324,-8.221439361572266,-2.760420083999634
1789323456894196200,5.4371962890625,6.720242500305176,-7.256533622741699,-2.8298118114471436
1789323456913046500,5.456046630859375,5.358128070831299,-7.206284523010254,-2.944667339324951
1789323456931896800,5.474896728515625,6.370591163635254,-7.950751304626465,-3.5958142280578613
1789323456950747100,5.4937470703125,6.689135551452637,-9.243474006652832,-3.1339993476867676
1789323456969597400,5.512597412109375,5.089832782745361,-10.368699073791504,-2.865704298019409
1789323456988448000,5.531447998046875,4.508078098297119,-10.337592124938965,-2.008774518966675
1789323457007298300,5.55029833984375,5.796014785766602,-9.669695854187012,-1.9055840969085693
1789323457026148600,5.569148681640625,6.428019046783447,-10.217950820922852,-1.5131611824035645
1789323457044999000,5.5879990234375,7.045965194702148,-12.09033489227295,-1.970489501953125
1789323457063849200,5.60684912109375,6.512066841125488,-12.212368965148926,-2.533101797103882
1789323457082699500,5.625699462890625,7.618149280548096,-10.684850692749023,-2.30069899559021
1789323457101550000,5.644550048828125,6.636493682861328,-10.325628280639648,-1.3692927360534668
1789323457120400400,5.663400390625,5.563910961151123,-8.970691680908203,-1.415055513381958
1789323457139250700,5.682250732421875,4.292723655700684,-7.531708240509033,-1.4485549926757812
1789323457158101000,5.70110107421875,4.275974273681641,-7.579864025115967,-2.5953152179718018
1789323457176951300,5.719951416015625,3.2656047344207764,-8.764909744262695,-1.6710875034332275
1789323457195801600,5.738801513671875,4.47697114944458,-9.432806015014648,-1.7787644863128662
1789323457214652200,5.757652099609375,4.610969066619873,-9.404091835021973,-0.9409775137901306
1789323457233502500,5.77650244140625,5.475376605987549,-8.94676399230957,-1.501197099685669
1789323457252352800,5.795352783203125,6.396912097930908,-9.396913528442383,-2.0518453121185303
1789323457271203000,5.814203125,6.238986015319824,-10.107880592346191,-2.7675983905792236
1789323457290053400,5.833053466796875,6.27487850189209,-9.664909362792969,-2.98295259475708
1789323457308904000,5.851904052734375,6.337091445922852,-8.039285659790039,-3.890430450439453
1789323457327754200,5.870754150390625,6.485745906829834,-6.80159854888916,-3.248854875564575
1789323457346604500,5.8896044921875,7.802396297454834,-6.5766730308532715,-3.098107099533081
1789323457365454800,5.908454833984375,8.666504859924316,-7.000202655792236,-3.122035264968872
1789323457384305200,5.92730517578125,8.66171932220459,-7.615756034851074,-4.402793884277344
1789323457403155500,5.946155517578125,7.512565612792969,-8.321938514709473,-4.756931304931641
1789323457422005800,5.965005859375,6.715456962585449,-8.235795974731445,-4.833800792694092
1789323457440856300,5.983856201171875,6.9475603103637695,-7.067500591278076,-2.7412774562835693
1789323457459706600,6.00270654296875,7.129714012145996,-6.696314334869385,-2.3270199298858643
1789323457478557000,6.021556884765625,6.6484575271606445,-5.937490463256836,-1.7117655277252197
1789323457497407200,6.0404072265625,6.672386169433594,-4.685146808624268,-2.6240291595458984
1789323457516257500,6.059257568359375,8.601898193359375,-3.531208038330078,-2.197807550430298
1789323457535107800,6.07810791015625,7.514958381652832,-4.390829563140869,-1.3860424757003784
1789323457553958400,6.09695849609375,5.2956156730651855,-2.911167860031128,-0.9074779748916626
1789323457572808700,6.11580859375,3.890430450439453,-2.6383860111236572,-1.410269856452942
1789323457591659000,6.134658935546875,4.776372909545898,-1.7955143451690674,0.7947162389755249
1789323457610509300,6.15350927734375,7.048357963562012,-1.1132607460021973,-0.35443684458732605
1789323457629359600,6.172359619140625,5.5830535888671875,-1.415055513381958,-0.02871387079358101
1789323457648210000,6.1912099609375,7.301997184753418,-1.4820544719696045,-1.1874382495880127
1789323457667060500,6.210060546875,5.913562297821045,-2.104487419128418,-2.1619153022766113
1789323457685910800,6.228910888671875,6.583851337432861,-1.8936200141906738,-1.1371889114379883
1789323457704761000,6.247760986328125,6.983452796936035,-1.256830096244812,-1.9728822708129883
1789323457723611400,6.266611328125,7.766504287719727,-1.9510477781295776,-1.6256239414215088
1789323457742461700,6.285461669921875,5.930311679840088,-3.1316065788269043,-2.942274570465088
1789323457761312000,6.30431201171875,7.11775016784668,-3.809074640274048,-2.094916343688965
1789323457780162300,6.323162353515625,7.306783199310303,-3.85693097114563,-3.3373894691467285
1789323457799012900,6.342012939453125,6.420840263366699,-4.991727352142334,-2.338984251022339
1789323457817863200,6.36086328125,6.473781585693359,-5.84865665435791,-3.129213809967041
1789323457836713500,6.37971337890625,5.846263885498047,-6.512066841125488,-1.7309080362319946
1789323457855563800,6.398563720703125,7.383353233337402,-6.073881149291992,-2.520838737487793
1789323457874414000,6.4174140625,6.298806667327881,-6.066702842712402,-2.7173492908477783
1789323457893264400,6.436264404296875,6.234200477600098,-6.591030120849609,-3.7612180709838867
1789323457912114700,6.45511474609375,4.817050933837891,-7.778468132019043,-2.999702215194702
1789323457930965200,6.47396533203125,6.8279194831848145,-8.455936431884766,-3.0667014122009277
1789323457949815600,6.492815673828125,7.0770721435546875,-10.601101875305176,-2.9015965461730957
1789323457968665900,6.511665771484375,5.853442192077637,-12.779767036437988,-3.6631124019622803
1789323457987516200,6.53051611328125,5.125725269317627,-12.73190975189209,-2.4059832096099854
1789323458006366500,6.549366455078125,6.780063152313232,-10.99860954284668,-1.342971682548523
1789323458025216800,6.568216796875,7.373782157897949,-10.337592124938965,-1.5897315740585327
1789323458044067000,6.587067138671875,6.341877460479736,-10.538887977600098,-3.3708889484405518
1789323458062917600,6.605917724609375,6.145665645599365,-9.241081237792969,-3.0667014122009277
1789323458081768000,6.624767822265625,6.308377742767334,-8.15683364868164,-2.714956283569336
1789323458100618200,6.6436181640625,6.346662998199463,-8.350651741027832,-2.4681966304779053
1789323458119468500,6.662468505859375,6.524031162261963,-10.083952903747559,-2.5160529613494873
1789323458138318800,6.68131884765625,5.611767292022705,-10.593923568725586,-2.1092731952667236
1789323458157169200,6.700169189453125,4.60857629776001,-8.714659690856934,-0.859621524810791
1789323458176019500,6.71901953125,5.207081317901611,-7.957930088043213,-1.8026927709579468
1789323458194869800,6.737869873046875,5.300401210784912,-9.087940216064453,-1.9657038450241089
1789323458213720000,6.756719970703125,5.688337802886963,-10.840383529663086,-2.1403799057006836
1789323458232570400,6.7755703125,5.475376605987549,-10.735099792480469,-1.5179468393325806
1789323458251421000,6.7944208984375,6.267699718475342,-9.916455268859863,-2.3916261196136475
1789323458270271200,6.813271240234375,6.21266508102417,-9.131011009216309,-2.1020946502685547
1789323458289121500,6.83212158203125,6.160022735595703,-8.776873588562012,-3.0427730083465576
1789323458307971800,6.850971923828125,6.116951942443848,-8.69043254852295,-3.2129626274108887
1789323458326822100,6.869822265625,6.667600154876709,-7.680362701416016,-3.859323740005493
1789323458345672400,6.88867236328125,6.945167541503906,-7.311568737030029,-3.6966118812561035
1789323458364522800,6.907522705078125,7.737790107727051,-7.5101728439331055,-3.5024940967559814
1789323458383373000,6.926373046875,8.561220169067383,-7.943572998046875,-4.086641788482666
1789323458402223600,6.9452236328125,7.311568737030029,-9.135796546936035,-3.849752426147461
1789323458421074000,6.964073974609375,7.172784805297852,-8.499007225036621,-3.9861433506011963
1789323458439924200,6.98292431640625,6.049952983856201,-6.866204738616943,-3.2177481651306152
1789323458458774500,7.0017744140625,6.756134510040283,-5.547161102294922,-2.8848466873168945
1789323458477624800,7.020624755859375,6.760920524597168,-5.449055194854736,-2.0063817501068115
1789323458496475100,7.03947509765625,7.960322856903076,-4.333401679992676,-0.6559324860572815
1789323458515325400,7.058325439453125,8.20947551727295,-3.287140130996704,-2.0853450298309326
1789323458534175700,7.07717578125,7.000202655792236,-5.6931233406066895,-2.927917718887329
1789323458553026000,7.096026123046875,5.173581600189209,-4.400400638580322,-2.4777679443359375
1789323458571876400,7.11487646484375,4.603790760040283,-2.4059832096099854,-1.1826525926589966
1789323458590726700,7.1337265625,6.830312252044678,-1.2376874685287476,-0.2584248483181
1789323458609577200,7.1525771484375,6.037988662719727,-2.2815563678741455,0.11724831163883209
1789323458628427500,7.171427490234375,5.784050464630127,-1.6375880241394043,-0.47168517112731934
1789323458647277800,7.19027783203125,5.671587944030762,-1.9175482988357544,-0.8715856671333313
1789323458666128100,7.209128173828125,5.501697540283203,-2.011167526245117,-1.501197099685669
1789323458684978400,7.227978515625,5.9566330909729,-1.8529419898986816,-0.7612167000770569
1789323458703828700,7.246828857421875,6.303592205047607,-1.5107684135437012,-1.446162223815918
1789323458722679000,7.265678955078125,6.389733791351318,-1.6184453964233398,-1.9103697538375854
1789323458741529300,7.284529296875,6.806384086608887,-2.2815563678741455,-1.6304094791412354
1789323458760379600,7.303379638671875,8.733802795410156,-2.9949166774749756,-2.0159530639648438
1789323458779230000,7.32222998046875,5.370092391967773,-3.6798620223999023,-3.2344980239868164
1789323458798080300,7.341080322265625,6.028417587280273,-4.872086048126221,-3.397209882736206
1789323458816930600,7.3599306640625,7.622934818267822,-5.72422981262207,-2.449054002761841
1789323458835781000,7.378781005859375,7.826324462890625,-5.25254487991333,-2.1332013607025146
1789323458854631400,7.39763134765625,7.057929515838623,-6.7178497314453125,-3.0957143306732178
1789323458873481700,7.416481689453125,7.3522467613220215,-7.610970497131348,-3.466601848602295
1789323458892332000,7.43533203125,6.183950901031494,-9.267701148986816,-3.880859136581421
1789323458911182300,7.454182373046875,5.906383514404297,-11.630613327026367,-4.285545349121094
1789323458930032600,7.47303271484375,4.201497554779053,-11.848360061645508,-3.308675527572632
1789323458948883000,7.491883056640625,5.269294738769531,-10.01456069946289,-2.3748764991760254
1789323458967733200,7.510733154296875,6.978667259216309,-8.072785377502441,-1.4557334184646606
1789323458986583600,7.52958349609375,6.80159854888916,-8.96829891204834,-2.2169501781463623
1789323459005433900,7.548433837890625,6.133701801300049,-9.652945518493652,-3.6436707973480225
1789323459024284200,7.5672841796875,7.060322284698486,-10.27059268951416,-4.371686935424805
1789323459043134500,7.586134521484375,7.0097737312316895,-11.939288139343262,-3.3613176345825195
1789323459061984800,7.60498486328125,5.556732177734375,-12.51147174835205,-2.073380708694458
1789323459080835000,7.6238349609375,5.226223945617676,-9.36341381072998,-0.7851449251174927
1789323459099685400,7.642685302734375,6.451947212219238,-8.324331283569336,-1.4676976203918457
1789323459118535700,7.66153564453125,5.300401210784912,-8.69043254852295,-1.8098711967468262
1789323459137386000,7.680385986328125,5.037190914154053,-7.898109436035156,-2.5953152179718018
1789323459156236300,7.699236328125,4.230510234832764,-6.502495765686035,-1.7333009243011475
1789323459175086600,7.718086669921875,4.661218643188477,-6.7657060623168945,-1.8170497417449951
1789323459193937000,7.73693701171875,5.6309099197387695,-9.166903495788574,-1.812264084815979
1789323459212787200,7.755787109375,6.128916263580322,-11.700005531311035,-1.872084617614746
1789323459231637500,7.774637451171875,6.119344711303711,-10.47188949584961,-2.753241539001465
1789323459250487800,7.79348779296875,6.492924213409424,-9.973882675170898,-3.593421459197998
1789323459269338000,7.812338134765625,6.372983932495117,-10.412068367004395,-3.277568817138672
1789323459288188700,7.831188720703125,6.210271835327148,-10.110274314880371,-3.2368907928466797
1789323459307039000,7.8500390625,6.2174506187438965,-8.827122688293457,-3.2105698585510254
1789323459325889300,7.86888916015625,6.148058891296387,-7.457530975341797,-2.691028118133545
1789323459344739300,7.8877392578125,7.297211647033691,-7.098607540130615,-2.231307029724121
1789323459363589600,7.906589599609375,7.811967849731445,-8.477471351623535,-2.1954147815704346
1789323459382440000,7.92543994140625,7.524529933929443,-9.320343017578125,-3.1794631481170654
1789323459401290500,7.94429052734375,6.162415504455566,-9.272486686706543,-4.156033992767334
1789323459420140800,7.963140869140625,6.567101955413818,-6.732206344604492,-3.3230323791503906
1789323459438991000,7.9819912109375,8.664112091064453,-4.627718925476074,-2.8298118114471436
1789323459457841400,8.00084130859375,9.052047729492188,-5.9662041664123535,-2.480160713195801
1789323459476691700,8.019691650390625,6.377769470214844,-6.480959892272949,-2.7580273151397705
1789323459495541800,8.038541748046875,5.496912002563477,-5.532804012298584,-3.4474592208862305
1789323459514392300,8.057392333984374,7.613363265991211,-3.2201411724090576,-1.568196177482605
1789323459533242600,8.07624267578125,6.935596466064453,-3.3613176345825195,-1.280758261680603
1789323459561518000,8.10451806640625,3.976572036743164,-1.7955143451690674,-1.3573286533355713
1789323459580368400,8.123368408203126,5.032404899597168,-1.9824535846710205,-0.4142574071884155
1789323459599218700,8.14221875,7.079464912414551,-1.350150227546692,-0.8476574420928955
1789323459618069000,8.161069091796875,6.457031726837158,-2.4705893993377686,-0.2225325107574463
1789323459636919300,8.179919189453125,6.921239376068115,-1.6686947345733643,-1.6471593379974365
1789323459655769600,8.19876953125,6.404090881347656,-3.4139597415924072,-2.1571295261383057
1789323459674620000,8.217619873046875,7.502994537353516,-3.0020952224731445,-2.035095691680908
1789323459693470000,8.236469970703125,5.872584819793701,-3.253640651702881,-2.1236300468444824
1789323459712320300,8.2553203125,7.349853992462158,-2.896811008453369,-0.8114659786224365
1789323459731170600,8.274170654296874,7.208677291870117,-2.927917718887329,-1.807478427886963
1789323459750021000,8.293021240234374,7.050751209259033,-3.576671600341797,-1.1371889114379883
1789323459768871200,8.31187109375,5.9183478355407715,-3.411566972732544,-3.1507492065429688
1789323459787721500,8.330721435546875,4.639683246612549,-4.1608195304870605,-2.035095691680908
1789323459806571800,8.34957177734375,6.054738521575928,-4.319045066833496,-2.1379871368408203
1789323459825422000,8.368422119140625,5.214259624481201,-4.960620403289795,-1.561017632484436
1789323459844272400,8.3872724609375,7.153642177581787,-6.033203125,-1.8601205348968506
1789323459863122700,8.406122802734375,7.167999267578125,-6.650850772857666,-3.4139597415924072
1789323459881973000,8.424972900390625,6.349055767059326,-8.530113220214844,-3.660719633102417
1789323459900823300,8.4438232421875,5.056333541870117,-9.075976371765137,-4.366901397705078
1789323459919673600,8.462673583984374,4.812265396118164,-10.378270149230957,-4.275974273681641
1789323459938524000,8.48152392578125,6.504888534545898,-11.577971458435059,-2.465803623199463
1789323459957374200,8.500374267578126,7.809575080871582,-13.473984718322754,-3.088535785675049
1789323459976224500,8.519224609375,7.349853992462158,-12.449257850646973,-2.8944180011749268
1789323459995074800,8.53807470703125,7.591827869415283,-10.402497291564941,-3.3230323791503906
1789323460013925000,8.556925048828125,7.1249284744262695,-10.876276016235352,-2.513660192489624
1789323460032775400,8.575775390625,6.428019046783447,-10.424033164978027,-2.0925233364105225
1789323460051625700,8.594625732421875,5.166403293609619,-8.855836868286133,-2.1786649227142334
1789323460070476000,8.61347607421875,4.7835516929626465,-7.63729190826416,-1.7165511846542358
1789323460089326000,8.632326171875,6.298806667327881,-8.329116821289062,-2.7580273151397705
1789323460108176600,8.6511767578125,4.998905658721924,-9.471091270446777,-2.307877540588379
1789323460127026700,8.670026611328124,5.755336761474609,-8.39611530303955,-2.7747769355773926
1789323460145877000,8.688876953125,4.486542224884033,-8.113463401794434,-1.3956137895584106
1789323460164727300,8.707727294921876,5.068297386169434,-9.310771942138672,-1.9968105554580688
1789323460183577600,8.72657763671875,5.001298427581787,-10.651350975036621,-2.8680970668792725
1789323460202428000,8.745427978515625,4.958227634429932,-9.940383911132812,-2.5689942836761475
1789323460221278200,8.7642783203125,5.6859450340271,-9.025727272033691,-3.9646079540252686
1789323460240128500,8.78312841796875,4.718646049499512,-7.654041290283203,-2.3270199298858643
1789323460258978800,8.801978759765625,6.464210510253906,-7.524529933929443,-2.8680970668792725
1789323460277829000,8.8208291015625,6.365805625915527,-9.765408515930176,-1.2999008893966675
1789323460296679400,8.839679443359374,7.45274543762207,-11.032109260559082,-1.8242281675338745
1789323460315529500,8.858529541015624,7.074679374694824,-11.762218475341797,-2.334198474884033
1789323460334379800,8.8773798828125,6.823133945465088,-10.119845390319824,-4.1368913650512695
1789323460353230000,8.89622998046875,5.84147834777832,-8.522934913635254,-4.613361835479736
1789323460372080400,8.915080322265625,6.849454879760742,-6.914061069488525,-4.184747695922852
1789323460390930700,8.9339306640625,8.477471351623535,-6.634100914001465,-3.5264222621917725
1789323460409781000,8.952781005859375,8.805587768554688,-6.770491600036621,-3.263211965560913
1789323460428631300,8.97163134765625,7.151249408721924,-6.7896342277526855,-3.184248685836792
1789323460447481600,8.990481689453125,6.195915222167969,-6.811169624328613,-2.707777976989746
1789323460466332000,9.009331787109375,4.744967460632324,-6.1073808670043945,-1.970489501953125
1789323460485182200,9.02818212890625,4.685146808624268,-5.688337802886963,-1.7285152673721313
1789323460504032300,9.0470322265625,5.8343000411987305,-4.249652862548828,-1.9680966138839722
1789323460522882600,9.065882568359376,7.8287177085876465,-2.472982168197632,-1.0534402132034302
1789323460541732900,9.08473291015625,7.895716667175293,-1.843370795249939,-0.6846463680267334
1789323460560583200,9.103583251953125,7.287640571594238,-1.3046865463256836,-0.9050851464271545
1789323460579433500,9.12243359375,6.976274490356445,-3.160320520401001,-1.9007984399795532
1789323460598283800,9.14128369140625,7.646862983703613,-5.242973327636719,-1.5586248636245728
1789323460617134000,9.160134033203125,6.483353137969971,-4.237689018249512,-2.310270309448242
1789323460635984400,9.178984375,7.421638488769531,-3.380460262298584,-0.7612167000770569
1789323460654834400,9.19783447265625,6.7417778968811035,-3.459423303604126,-2.4394826889038086
1789323460673684700,9.216684814453124,4.771587371826172,-2.7125635147094727,-1.1156535148620605
1789323460692535000,9.23553515625,5.185545921325684,-1.683051586151123,-1.043868899345398
1789323460711385300,9.25438525390625,4.551148891448975,-1.4557334184646606,-0.646361231803894
1789323460730235600,9.273235595703126,6.138487339019775,-1.098903775215149,0.8739784955978394
1789323460749086000,9.2920859375,4.984548568725586,-1.4581263065338135,-0.8162516355514526
1789323460767936300,9.310936279296875,4.1608195304870605,-1.92951238155365,-1.1682956218719482
1789323460786786300,9.329786376953125,7.491030216217041,-1.709372639656067,-1.8026927709579468
1789323460805636600,9.34863671875,6.272485256195068,-3.911965847015381,-3.0643084049224854
1789323460824487000,9.36748681640625,6.942774772644043,-5.140082359313965,-2.7364916801452637
1789323460843337200,9.386337158203125,6.672386169433594,-7.057929515838623,-3.9646079540252686
1789323460862187500,9.4051875,7.682755470275879,-8.975478172302246,-3.6559338569641113
1789323460881037800,9.424037841796874,8.889336585998535,-8.618648529052734,-3.05234432220459
1789323460899887900,9.442887939453126,7.39771032333374,-9.468698501586914,-3.1100711822509766
1789323460928163300,9.471163330078125,6.392126560211182,-11.453245162963867,-2.722134828567505
1789323460947013600,9.490013671875,6.593422889709473,-11.666505813598633,-2.95902419090271
1789323460965864000,9.508864013671875,6.145665645599365,-10.806884765625,-2.9877381324768066
1789323460984714200,9.52771435546875,5.796014785766602,-8.697610855102539,-2.856132984161377
1789323461003564300,9.546564208984375,6.15045166015625,-7.139285564422607,-2.691028118133545
1789323461022414600,9.56541455078125,6.004489421844482,-6.756134510040283,-2.949453115463257
1789323461041265000,9.584264892578124,5.997310638427734,-6.971488952636719,-3.600599765777588
1789323461060115200,9.603115234375,5.070690155029297,-8.63779067993164,-3.098107099533081
1789323461078965200,9.62196533203125,5.087440013885498,-9.679266929626465,-2.379662036895752
1789323461097815600,9.640815673828126,7.05553674697876,-11.242676734924316,-2.5761725902557373
1789323461116665900,9.659665771484375,6.4375901222229,-12.743874549865723,-1.709372639656067
1789323461135516200,9.67851611328125,5.968596935272217,-11.027322769165039,-1.4940186738967896
1789323461154366500,9.697366455078125,6.476174354553223,-10.110274314880371,-1.599302887916565
1789323461173216500,9.716216552734375,5.38205623626709,-10.05284595489502,-1.4054841995239258
1789323461192066800,9.73506689453125,6.432804584503174,-10.24905776977539,-3.638885021209717
1789323461210917000,9.753917236328125,5.25254487991333,-9.789336204528809,-2.118844509124756
1789323461229767400,9.772767333984374,5.709873199462891,-8.422436714172363,-2.4466612339019775
1789323461248617700,9.79161767578125,5.250152111053467,-7.902894973754883,-2.200200319290161
1789323461267467800,9.8104677734375,5.9183478355407715,-7.469494819641113,-1.8098711967468262
1789323461286318000,9.829318115234376,6.662814617156982,-8.525327682495117,-2.4131617546081543
1789323461305168400,9.84816845703125,6.67717170715332,-9.07119083404541,-2.7508487701416016
1789323461324018700,9.867018798828125,7.330711364746094,-8.601898193359375,-4.117748737335205
1789323461342869000,9.885868896484375,7.060322284698486,-8.80798053741455,-3.9622151851654053
1789323461361719000,9.904718994140625,6.195915222167969,-9.083154678344727,-4.445864677429199
1789323461380569300,9.9235693359375,4.977370262145996,-8.702695846557617,-3.976572036743164
1789323461399419600,9.942419677734375,5.25254487991333,-6.921239376068115,-1.7117655277252197
1789323461418269700,9.961269775390624,8.518149375915527,-6.803991317749023,-2.5450658798217773
1789323461437120000,9.9801201171875,10.136594772338867,-9.571589469909668,-2.4394826889038086
1789323461455970300,9.99897021484375,8.623434066772461,-9.48784065246582,-4.148855209350586
1789323461474820600,10.017820556640626,6.461817741394043,-6.404090881347656,-3.809074640274048
1789323461493671000,10.0366708984375,8.539685249328613,-4.429114818572998,-3.2057840824127197
1789323461512521000,10.05552099609375,9.109476089477539,-5.501697540283203,-3.667897939682007
1789323461531371300,10.074371337890625,6.294020652770996,-6.21266508102417,-4.077070713043213
1789323461550221600,10.0932216796875,3.1555347442626953,-3.607778310775757,-2.6718854904174805
1789323461569071600,10.112071533203125,4.01246452331543,-1.7069798707962036,-0.6535396575927734
1789323461587922000,10.130921875,4.4482574462890625,-1.4246268272399902,0.1746760457754135
1789323461606772200,10.149772216796874,3.921537160873413,-0.5099703073501587,1.55623197555542
1789323461625622500,10.16862255859375,4.809872627258301,-0.3209373354911804,-0.3616153299808502
1789323461644472600,10.18747265625,6.480959892272949,-0.6846463680267334,0.6296114325523376
1789323461663323000,10.206322998046875,8.005785942077637,-1.1132607460021973,-1.407876968383789
1789323461682173200,10.225173095703125,4.929513931274414,-2.2504496574401855,-3.004487991333008
1789323461701023200,10.244023193359375,4.666004180908203,-2.9949166774749756,-2.049452543258667
1789323461719873500,10.26287353515625,7.337889671325684,-2.4131617546081543,-1.9776679277420044
1789323461738723800,10.281723876953125,7.325925827026367,-4.151247978210449,-0.20578274130821228
1789323461757574100,10.30057421875,10.234700202941895,-3.5120654106140137,-1.5155540704727173
1789323461776424200,10.319424072265624,6.9068827629089355,-5.930311679840088,-4.395615100860596
1789323461795274500,10.3382744140625,5.7649078369140625,-7.632505893707275,-3.2368907928466797
1789323461814124800,10.357124755859376,6.564708709716797,-6.8757758140563965,-3.3230323791503906
1789323461842400000,10.38539990234375,7.562815189361572,-6.703492641448975,-1.2687941789627075
1789323461861250300,10.404250244140625,8.958727836608887,-6.054738521575928,-2.14516544342041
1789323461880100600,10.4231005859375,5.700301647186279,-7.905287742614746,-4.393222332000732
1789323461898950700,10.44195068359375,4.024428367614746,-7.967501163482666,-3.9646079540252686
1789323461917801000,10.460801025390625,4.970191955566406,-7.476673603057861,-4.127319812774658
1789323461936651300,10.4796513671875,4.426722049713135,-7.431210041046143,-3.332603693008423
1789323461955501300,10.498501220703124,4.927121162414551,-5.937490463256836,-2.379662036895752
1789323461974351600,10.5173515625,5.386841773986816,-7.46710205078125,-2.4155545234680176
1789323461993202000,10.536201904296876,8.140083312988281,-8.041678428649902,-2.760420083999634
1789323462012052000,10.555052001953126,10.337592124938965,-15.413067817687988,-3.5575289726257324
1789323462030902300,10.57390234375,6.004489421844482,-20.155941009521484,-5.039583683013916
1789323462049752600,10.592752685546875,14.072488784790039,-10.79731273651123,-4.951049327850342
1789323462068602600,10.6116025390625,7.864609718322754,-12.640982627868652,-2.3533411026000977
1789323462087453000,10.630452880859375,7.026822566986084,-13.09801197052002,-1.2305090427398682
1789323462106303200,10.64930322265625,5.496912002563477,-15.698112487792969,-0.4573282301425934
1789323462125153300,10.6681533203125,12.681660652160645,-6.255735874176025,-2.221735715866089
1789323462144003600,10.687003662109374,4.711467742919922,-7.507780075073242,-5.621338367462158
1789323462162854000,10.70585400390625,6.8997039794921875,-10.467103958129883,-4.462614059448242
1789323462181704000,10.724703857421876,4.182354927062988,-9.93559741973877,-4.383651256561279
1789323462200554200,10.74355419921875,2.1714866161346436,-7.316354274749756,-1.5083755254745483
1789323462219404300,10.762404296875,1.872084617614746,-8.091927528381348,0.6511468887329102
1789323462238254600,10.781254638671875,5.554339408874512,-10.095916748046875,0.3400799036026001
1789323462257105000,10.80010498046875,1.9414764642715454,-7.067500591278076,-3.677469253540039
1789323462275955000,10.818954833984375,2.5857439041137695,-8.982656478881836,-2.3461625576019287
1789323462294805200,10.83780517578125,2.99013090133667,-10.198808670043945,-1.098903775215149
1789323462313655600,10.856655517578124,4.986941337585449,-8.56600570678711,0.3448655605316162
1789323462332505600,10.875505615234376,5.108975410461426,-9.46630573272705,0.019142581149935722
1789323462351356000,10.89435595703125,6.973881721496582,-10.837990760803223,-1.6878372430801392
1789323462370206000,10.9132060546875,5.707480430603027,-5.159224510192871,-4.103391647338867
1789323462389056300,10.93205615234375,4.790729999542236,-7.347461223602295,-7.407281398773193
1789323462407906600,10.950906494140625,1.1826525926589966,-8.774480819702148,-4.795515537261963
1789323462426756600,10.969756591796875,9.159725189208984,-4.642076015472412,-6.037988662719727
1789323462445607000,10.98860693359375,5.8582282066345215,-7.06271505355835,-4.383651256561279
1789323462464457000,11.00745703125,6.0762739181518555,-3.8784663677215576,-3.9622151851654053
1789323462483307300,11.026307373046874,7.859824180603027,-5.346164226531982,-4.709074974060059
1789323462502157600,11.045157470703124,4.189533233642578,-7.230212688446045,-5.671587944030762
1789323462521007600,11.064007568359376,11.364710807800293,-1.0534402132034302,-6.949953556060791
1789323462539858000,11.08285791015625,8.534899711608887,1.2233306169509888,-7.8765740394592285
1789323462558708000,11.1017080078125,5.116153717041016,-3.1555347442626953,-8.365009307861328
1789323462577558300,11.120558349609375,4.7473602294921875,-3.5718860626220703,-8.439186096191406
1789323462596408300,11.139408203125,16.519149780273438,-2.942274570465088,-9.375378608703613
1789323462615258600,11.158258544921875,5.640480995178223,-3.421138286590576,-9.621838569641113
1789323462634109000,11.17710888671875,1.2065808773040771,-0.9002995491027832,-8.908478736877441
1789323462652959000,11.195958984375,5.609374523162842,2.7029922008514404,-9.837491989135742
1789323462671809300,11.214809326171874,3.8856449127197266,1.0031908750534058,-7.969893932342529
1789323462690659300,11.233659423828126,1.0414760112762451,-0.6870391964912415,-3.9646079540252686
1789323462709509600,11.252509521484376,6.763313293457031,3.5120654106140137,-2.8369903564453125
1789323462728359700,11.271359619140625,6.461817741394043,4.8074798583984375,-4.625326156616211
1789323462747210000,11.2902099609375,5.207081317901611,4.060320854187012,-7.022037029266357
1789323462766060000,11.30906005859375,8.975478172302246,4.46979284286499,-9.1716890335083
1789323462784910300,11.327910400390625,9.310771942138672,3.959822416305542,-11.953644752502441
1789323462803760400,11.346760498046875,7.989036560058594,2.214557409286499,-12.846765518188477
1789323462832035800,11.375035888671874,8.183154106140137,1.9872392416000366,-11.956037521362305
1789323462869736200,11.412736083984376,9.38734245300293,0.3807578980922699,-5.523232936859131
1789323462888586200,11.431586181640625,8.67607593536377,-0.4214358925819397,-5.750551223754883
1789323462907436500,11.4504365234375,8.951549530029297,-1.2161520719528198,-6.961917400360107
1789323462926286600,11.46928662109375,6.794419765472412,-1.922333836555481,-7.898109436035156
1789323462945137000,11.488136962890625,6.188736438751221,-3.4067811965942383,-4.982155799865723
1789323462963987000,11.506987060546875,5.221437931060791,-1.994417667388916,-5.791228771209717
1789323462982837200,11.525837158203124,3.054737091064453,-3.514458179473877,-4.522434711456299
1789323463001687300,11.544687255859374,3.569493293762207,-1.3884353637695312,-6.339484691619873
1789323463020537600,11.56353759765625,4.457828521728516,0.17706887423992157,-8.810373306274414
1789323463039387600,11.5823876953125,7.438388347625732,1.1108678579330444,-12.940085411071777
1789323463058238000,11.601238037109376,7.433602809906006,2.8537402153015137,-8.937192916870117
1789323463077088000,11.620087890625,7.371389389038086,1.3046865463256836,-3.8377883434295654
1789323463095938300,11.638938232421875,6.679564476013184,1.5873386859893799,-2.410768747329712
1789323463114788400,11.657788330078125,4.596612453460693,1.0223335027694702,-1.7668004035949707
1789323463133638700,11.676638671875,6.198307991027832,0.27756741642951965,-4.376472473144531
1789323463161913900,11.704913818359374,8.036892890930176,3.253640651702881,-4.35254430770874
1789323463180764000,11.723763916015624,10.378270149230957,1.501197099685669,-1.407876968383789
1789323463199614200,11.7426142578125,10.412068367004395,0.22492532432079315,0.22013968229293823
1789323463218464300,11.76146435546875,11.431710243225098,0.4501497745513916,0.368793785572052
1789323463237314600,11.780314453125,11.793325424194336,0.08374879509210587,0.1866401731967926
1789323463256164600,11.79916455078125,11.383853912353516,-0.031106693670153618,-0.48364928364753723
1789323463275015000,11.818014892578125,10.04566764831543,0.5961119532585144,-0.6032904386520386
1789323463293865000,11.836864990234375,10.412068367004395,1.5251253843307495,-0.5745765566825867
1789323463312715300,11.85571533203125,10.320842742919922,1.6304094791412354,0.5171487927436829
1789323463331565300,11.8745654296875,9.193224906921387,1.623231053352356,1.3764712810516357
1789323463350415400,11.893415283203124,9.27009391784668,2.283949136734009,0.7516453862190247
1789323463369265700,11.912265625,9.859027862548828,2.441875457763672,-0.12442677468061447
1789323463388115700,11.93111572265625,8.96829891204834,2.3772692680358887,0.11246266216039658
1789323463406966000,11.949966064453125,7.572386264801025,2.1619153022766113,1.0917253494262695
1789323463425816000,11.968816162109375,8.152048110961914,2.286342144012451,0.7085745930671692
1789323463444666400,11.987666259765625,9.3490571975708,4.069892406463623,0.6822535395622253
1789323463463516400,12.006516357421875,8.43440055847168,3.4737801551818848,0.8210372924804688
1789323463482366700,12.02536669921875,8.791230201721191,2.8298118114471436,0.014356935396790504
1789323463501216800,12.044216796875,9.329915046691895,2.5594229698181152,-2.173879384994507
1789323463520066800,12.06306689453125,7.809575080871582,1.9510477781295776,-1.4270195960998535
1789323463538917000,12.081917236328126,7.773682594299316,3.8210387229919434,-0.8668000102043152
1789323463557767200,12.10076708984375,9.703194618225098,4.122534275054932,-1.9992033243179321
1789323463576617500,12.119617431640625,10.591530799865723,3.363710403442383,-0.4549354016780853
1789323463595467500,12.138467529296875,10.459924697875977,3.2201411724090576,-0.10049854964017868
1789323463614317600,12.157317626953125,9.997811317443848,3.617349624633789,0.1459621787071228
1789323463633168000,12.17616796875,9.315557479858398,4.172783374786377,-1.0055837631225586
1789323463652018000,12.195017822265624,8.353044509887695,3.4570305347442627,-0.48843491077423096
1789323463670868200,12.2138681640625,7.474280834197998,3.8234314918518066,-0.40707895159721375
1789323463689718300,12.23271826171875,7.3522467613220215,4.144069671630859,-0.11485548317432404
1789323463708568600,12.251568603515626,8.154440879821777,4.208974838256836,0.37597227096557617
1789323463727418600,12.270418701171875,8.391329765319824,4.46979284286499,0.3496512174606323
1789323463746268700,12.2892685546875,8.293224334716797,3.390031576156616,0.35922250151634216
1789323463765119000,12.308118896484375,8.894122123718262,2.5450658798217773,-0.9601200819015503
1789323463783969000,12.326968994140625,10.802098274230957,3.1148569583892822,-1.0893324613571167
1789323463802819000,12.345819091796875,10.306485176086426,3.284747362136841,0.2874378263950348
1789323463831094300,12.37409423828125,9.954740524291992,2.7508487701416016,0.890728235244751
1789323463849944600,12.392944580078124,9.885348320007324,2.724527597427368,0.11485548317432404
1789323463868794600,12.411794677734376,9.255437850952148,3.0188448429107666,-0.5315057039260864
1789323463887645000,12.43064501953125,9.837491989135742,2.753241539001465,-0.06939185410737991
1789323463906495000,12.449494873046875,10.313663482666016,1.690230131149292,1.350150227546692
1789323463925345000,12.468344970703125,10.979466438293457,2.4227328300476074,-0.34247273206710815
1789323463944195300,12.4871953125,11.903395652770996,2.30069899559021,-1.0965110063552856
1789323463963045400,12.50604541015625,10.351948738098145,1.8385851383209229,-1.0199406147003174
1789323463981895400,12.5248955078125,9.681659698486328,2.760420083999634,-1.1994023323059082
1789323464000745700,12.543745849609374,8.882157325744629,3.030808925628662,-0.8715856671333313
1789323464019595800,12.562595703125,8.793622970581055,3.342175006866455,-0.5650052428245544
1789323464038445800,12.58144580078125,9.169296264648438,3.404388427734375,-0.6583253145217896
1789323464057296100,12.600296142578125,9.315557479858398,3.3828530311584473,-0.4046861231327057
1789323464076146200,12.619146240234375,9.320343017578125,3.569493293762207,-0.275174617767334
1789323464094996500,12.63799658203125,9.569196701049805,3.5814573764801025,-0.4621138870716095
1789323464113846500,12.656846435546875,9.789336204528809,3.5431721210479736,-0.8353942036628723
1789323464132696600,12.675696533203125,8.762516975402832,3.684647798538208,-0.9864411354064941
1789323464151547000,12.694546875,8.388936996459961,3.974179267883301,-1.5346965789794922
1789323464170397000,12.71339697265625,8.228617668151855,3.911965847015381,-1.55623197555542
1789323464189247000,12.7322470703125,8.369794845581055,3.840181350708008,-0.9385846853256226
1789323464208097300,12.75109716796875,7.979465484619141,4.089034557342529,-0.6702894568443298
1789323464226947300,12.769947265625,7.83111047744751,4.287938117980957,-0.9385846853256226
1789323464245797400,12.78879736328125,8.140083312988281,4.184747695922852,-0.6990033388137817
1789323464264647700,12.807647705078125,8.048856735229492,4.335794448852539,-0.7229315638542175
1789323464283497700,12.826497802734375,8.233403205871582,4.431507587432861,-0.9649057388305664
1789323464302347800,12.84534765625,8.66171932220459,4.618147850036621,-0.893121063709259
1789323464321198000,12.864197998046874,9.39452075958252,4.4650068283081055,-0.7731808423995972
1789323464340048100,12.883048095703124,9.121439933776855,4.457828521728516,-0.6415755748748779
1789323464358898200,12.901898193359376,8.467900276184082,4.493721008300781,-0.6798607110977173
1789323464377748500,12.92074853515625,8.293224334716797,4.534399032592773,-0.8258228898048401
1789323464396598500,12.9395986328125,8.489435195922852,4.47697114944458,-0.6774678826332092
1789323464415448600,12.958448486328125,8.482256889343262,4.59421968460083,-0.6655037999153137
1789323464434299000,12.977298828125,8.561220169067383,4.579862594604492,-1.1754741668701172
1789323464453149000,12.99614892578125,8.762516975402832,4.443471431732178,-1.4964114427566528
1789323464471999000,13.0149990234375,8.499007225036621,4.498506546020508,-1.374078392982483
1789323464490849300,13.033849365234374,7.972286701202393,4.936692237854004,-1.292722463607788
1789323464509699300,13.05269921875,7.574779033660889,5.0826544761657715,-1.678265929222107
1789323464528549400,13.07154931640625,7.646862983703613,4.761716842651367,-2.0829520225524902
1789323464547399400,13.0903994140625,7.479066371917725,4.766502857208252,-1.6758731603622437
1789323464566249700,13.109249755859375,7.498208999633789,4.960620403289795,-1.407876968383789
1789323464585099800,13.128099853515625,8.83669376373291,5.5136613845825195,-2.8776683807373047
1789323464603950000,13.1469501953125,7.847859859466553,5.171188831329346,-2.135594129562378
1789323464622800100,13.165800048828125,7.9316086769104,4.687539577484131,-1.2544373273849487
1789323464641650200,13.184650146484374,7.89332389831543,4.713860511779785,-1.189831018447876
1789323464660500200,13.203500244140624,7.974679470062256,4.857728958129883,-1.3405789136886597
1789323464679350500,13.2223505859375,8.250153541564941,4.912764072418213,-1.6806588172912598
1789323464698200600,13.24120068359375,8.530113220214844,4.9175496101379395,-2.135594129562378
1789323464735900700,13.278900634765625,8.803194046020508,4.77876615524292,-2.2025933265686035
1789323464754751000,13.2977509765625,8.894122123718262,4.706682205200195,-1.9824535846710205
1789323464773601000,13.31660107421875,8.886942863464355,4.701896667480469,-1.714158296585083
1789323464792451300,13.335451416015625,8.707481384277344,4.697110652923584,-1.4868401288986206
1789323464811301400,13.35430126953125,8.475078582763672,4.790729999542236,-1.3692927360534668
1789323464830151400,13.3731513671875,8.17836856842041,4.896014213562012,-1.311864972114563
1789323464849001500,13.39200146484375,7.862216949462891,4.922335147857666,-1.2999008893966675
1789323464867851800,13.410851806640625,7.8454670906066895,4.9725847244262695,-1.3310075998306274
1789323464886701800,13.429701904296875,8.041678428649902,4.984548568725586,-1.311864972114563
1789323464905552000,13.4485517578125,7.969893932342529,4.977370262145996,-1.2687941789627075
1789323464924402000,13.46740185546875,8.079963684082031,5.089832782745361,-1.5083755254745483
1789323464943252200,13.486252197265625,8.10389232635498,5.097011566162109,-1.5705889463424683
1789323464962102300,13.505102294921874,8.276473999023438,4.929513931274414,-1.4892330169677734
1789323464980952300,13.523952392578124,8.4200439453125,4.845765113830566,-1.3310075998306274
1789323464999802600,13.542802734375,8.360222816467285,4.891228675842285,-1.1395817995071411
1789323465018652700,13.561652587890626,8.271688461303711,5.022833824157715,-0.981655478477478
1789323465037502700,13.580502685546875,8.343473434448242,5.027619361877441,-0.9505487680435181
1789323465056352800,13.599352783203125,8.333902359008789,5.1305108070373535,-0.9170492887496948
1789323465075203000,13.618203125,8.238189697265625,5.238187789916992,-0.6966105103492737
1789323465094053000,13.63705322265625,8.152048110961914,5.324329376220703,-0.43579283356666565
1789323465112903200,13.655903076171874,8.16401195526123,5.2956156730651855,-0.43100717663764954
1789323465131753200,13.674753173828124,8.290831565856934,5.202295303344727,-0.6320042610168457
1789323465150603500,13.693603515625,8.40329360961914,5.12811803817749,-0.8428717851638794
1789323465169453600,13.71245361328125,8.341080665588379,5.137689113616943,-0.8306085467338562
1789323465188303600,13.7313037109375,8.214261054992676,5.290830135345459,-0.7109674215316772
1789323465207154000,13.75015380859375,8.30279541015625,5.504090309143066,-0.6918248534202576
1789323465226004000,13.76900390625,8.410472869873047,5.44426965713501,-0.6942176818847656
1789323465244854000,13.78785400390625,8.453543663024902,5.262115955352783,-0.7133602499961853
1789323465263704000,13.8067041015625,8.467900276184082,5.238187789916992,-0.7157530784606934
1789323465291979300,13.834979248046874,8.094321250915527,5.302793979644775,-0.48364928364753723
1789323465310829300,13.853829345703126,7.749754428863525,5.3748779296875,-0.3975076675415039
1789323465329679600,13.8726796875,7.730611801147461,5.456233978271484,-0.6224330067634583
1789323465348529700,13.89152978515625,7.926823139190674,5.362913608551025,-0.9146564602851868
1789323465367379700,13.910379638671875,8.065607070922852,5.281258583068848,-1.1132607460021973
1789323465386229800,13.929229736328125,8.137690544128418,5.278865814208984,-1.220937728881836
1789323465405080000,13.948080078125,8.134998321533203,5.32193660736084,-1.2400803565979004
1789323465423930000,13.96693017578125,8.072785377502441,5.300401210784912,-1.2113664150238037
1789323465442780200,13.9857802734375,7.979465484619141,5.262115955352783,-1.2400803565979004
1789323465461630200,14.004630126953124,8.036892890930176,5.278865814208984,-1.4365909099578857
1789323465480480500,14.02348046875,8.30997371673584,5.286044120788574,-1.690230131149292
1789323465499330600,14.04233056640625,8.367402076721191,5.274080276489258,-1.6639090776443481
1789323465518180600,14.0611806640625,8.10389232635498,5.326722145080566,-1.6974085569381714
1789323465537030700,14.08003076171875,7.811967849731445,5.3748779296875,-1.8242281675338745
1789323465555881000,14.098880859375,7.840681552886963,5.309972763061523,-1.934298038482666
1789323465574731000,14.11773095703125,8.127820014953613,5.152046203613281,-1.9776679277420044
1789323465593581000,14.1365810546875,8.372187614440918,5.070690155029297,-1.9079769849777222
1789323465612431000,14.15543115234375,8.594719886779785,5.097011566162109,-1.9896320104599
1789323465631281200,14.17428125,8.666504859924316,5.104189872741699,-2.0279171466827393
1789323465650131500,14.19313134765625,8.621041297912598,5.089832782745361,-1.8912272453308105
1789323465668981500,14.2119814453125,8.482256889343262,5.027619361877441,-1.4629119634628296
1789323465697256700,14.240256591796875,8.53729248046875,4.829015254974365,-1.012762188911438
1789323465716106800,14.259106689453125,8.52772045135498,4.9486565589904785,-0.8428717851638794
1789323465734956800,14.277956787109375,8.439186096191406,5.097011566162109,-0.8715856671333313
1789323465753806800,14.296806884765624,8.410472869873047,5.12811803817749,-1.043868899345398
1789323465772657200,14.3156572265625,8.52054214477539,5.202295303344727,-1.2185449600219727
1789323465791507200,14.334507080078126,8.604290962219238,5.204688549041748,-1.1682956218719482
1789323465810357200,14.353357177734376,8.601898193359375,5.2405805587768555,-1.0965110063552856
1789323465829207300,14.372207275390625,8.568398475646973,5.365306377410889,-1.1826525926589966
1789323465848057300,14.391057373046875,8.465507507324219,5.348556995391846,-1.3525429964065552
1789323465866907600,14.40990771484375,8.333902359008789,5.360520839691162,-1.4054841995239258
1789323465885757700,14.4287578125,8.274081230163574,5.401198863983154,-1.3812568187713623
1789323465904607700,14.447607666015625,8.13260555267334,5.290830135345459,-1.3812568187713623
1789323465923457800,14.466457763671874,7.881359577178955,5.097011566162109,-1.5155540704727173
1789323465951733000,14.49473291015625,7.718647480010986,4.963013172149658,-1.7572290897369385
1789323465970583000,14.5135830078125,7.843074321746826,4.881657123565674,-1.896012783050537
1789323465989433300,14.532433349609375,8.16401195526123,4.922335147857666,-2.338984251022339
1789323466008283400,14.551283447265625,7.9866437911987305,4.924727916717529,-2.482553482055664
1789323466027133400,14.570133544921875,7.974679470062256,4.766502857208252,-2.293520450592041
1789323466045983500,14.5889833984375,8.087141990661621,4.771587371826172,-2.4370899200439453
1789323466064833500,14.60783349609375,8.161619186401367,4.673182487487793,-2.8992037773132324
1789323466083683600,14.62668359375,8.034500122070312,4.567898273468018,-3.366103172302246
1789323466111958800,14.654958740234376,8.410472869873047,4.572684288024902,-3.739682674407959
1789323466130809000,14.67380908203125,9.044869422912598,4.386044025421143,-3.583850145339966
1789323466159084000,14.702083984375,9.50459098815918,4.256831645965576,-2.801098108291626
1789323466177934300,14.720934326171875,9.499805450439453,4.261617183685303,-2.365305185317993
1789323466196784400,14.739784423828125,9.468698501586914,4.247260093688965,-2.2025933265686035
1789323466215634400,14.758634521484375,9.18843936920166,4.151247978210449,-2.0207388401031494
1789323466234484500,14.777484375,8.86780071258545,4.179962158203125,-1.7931214570999146
1789323466253334500,14.79633447265625,8.726624488830566,4.266402721405029,-1.4533406496047974
1789323466272184600,14.8151845703125,8.772088050842285,4.275974273681641,-1.103689432144165
1789323466291035000,14.834034912109376,8.81515884399414,4.299902439117432,-0.9864411354064941
1789323466309885000,14.852885009765625,8.774480819702148,4.323830604553223,-1.1300104856491089
1789323466328735000,14.87173486328125,8.649754524230957,4.350151538848877,-1.3094722032546997
1789323466347585000,14.8905849609375,8.580363273620605,4.335794448852539,-1.3094722032546997
1789323466366435300,14.909435302734375,8.635397911071777,4.285545349121094,-1.2496516704559326
1789323466385285400,14.928285400390624,8.623434066772461,4.54636287689209,-1.3980066776275635
1789323466404135400,14.947135498046874,8.458329200744629,4.6995038986206055,-1.5466607809066772
1789323466422985500,14.9659853515625,8.348258972167969,4.551148891448975,-1.4892330169677734
1789323466441835500,14.98483544921875,8.214261054992676,4.553541660308838,-1.292722463607788
1789323466460685600,15.003685546875,8.091927528381348,4.646861553192139,-0.9505487680435181
1789323466479535900,15.022535888671875,8.219046592712402,4.651647090911865,-0.9385846853256226
1789323466498386000,15.041385986328125,8.542078018188477,4.666004180908203,-1.225723385810852
1789323466517236000,15.060236083984375,8.587541580200195,4.728217601776123,-1.4198411703109741
1789323466536086000,15.0790859375,8.510971069335938,4.872086048126221,-1.3046865463256836
1789323466554936300,15.097936279296874,8.484649658203125,4.912764072418213,-1.0414760112762451
1789323466573786400,15.116786376953126,8.621041297912598,4.891228675842285,-0.9146564602851868
1789323466592636400,15.135636474609376,8.568398475646973,4.862514495849609,-0.8883354067802429
1789323466611486500,15.154486572265625,8.293224334716797,4.888835906982422,-0.8644071817398071
1789323466630336500,15.17333642578125,8.30279541015625,5.061119079589844,-1.0319048166275024
1789323466649186600,15.1921865234375,8.563612937927246,5.149653434753418,-1.3310075998306274
1789323466668036900,15.211036865234375,8.503792762756348,5.068297386169434,-1.5394822359085083
1789323466686887000,15.229886962890625,8.166404724121094,5.008476734161377,-1.6256239414215088
1789323466705737000,15.248737060546874,7.888537883758545,5.032404899597168,-1.6663018465042114
1789323466724587000,15.2675869140625,7.8693952560424805,5.118546962738037,-1.8026927709579468
1789323466743437000,15.28643701171875,8.091927528381348,5.044369220733643,-1.80508553981781
1789323466762287400,15.305287353515626,8.060821533203125,5.037190914154053,-1.7069798707962036
1789323466781137400,15.324137451171875,7.7832536697387695,5.360520839691162,-1.9824535846710205
1789323466799987500,15.342987548828125,7.744968891143799,5.415555953979492,-1.953440546989441
1789323466818837500,15.36183740234375,8.113463401794434,5.197509765625,-1.654337763786316
1789323466847112700,15.39011279296875,8.30279541015625,5.087440013885498,-1.596909999847412
1789323466865962800,15.408962646484374,8.16401195526123,5.041976451873779,-1.5873386859893799
1789323466884812800,15.427812744140626,8.31715202331543,5.085047245025635,-1.7404793500900269
1789323466903663000,15.4466630859375,8.362615585327148,5.087440013885498,-1.8026927709579468
1789323466922513200,15.46551318359375,8.276473999023438,5.185545921325684,-1.831406593322754
1789323466941363200,15.48436328125,8.101499557495117,5.211866855621338,-1.6471593379974365
1789323466960213200,15.503213134765625,8.31715202331543,5.2477593421936035,-1.4318052530288696
1789323466979063300,15.522063232421875,8.506185531616211,5.25972318649292,-1.0917253494262695
1789323466997913300,15.540913330078125,8.647361755371094,5.235795021057129,-0.7612167000770569
1789323467016763600,15.559763671875,8.934800148010254,5.319543838500977,-0.6080760359764099
1789323467035613700,15.57861376953125,9.145368576049805,5.32193660736084,-0.46450668573379517
1789323467054463700,15.597463623046876,9.020941734313965,5.142475128173828,-0.3281157910823822
1789323467073313800,15.616313720703126,8.83669376373291,5.068297386169434,-0.40229329466819763
1789323467092164000,15.6351640625,8.920442581176758,5.144867897033691,-0.6032904386520386
1789323467111014100,15.65401416015625,8.949156761169434,5.171188831329346,-0.5721837282180786
1789323467129864200,15.6728642578125,8.55882740020752,5.168796062469482,-0.39511483907699585
1789323467148714200,15.69171435546875,8.245368003845215,5.25254487991333,-0.4788636267185211
1789323467167564300,15.710564208984374,8.183154106140137,5.221437931060791,-0.7277171611785889
1789323467186414300,15.729414306640624,8.070392608642578,5.142475128173828,-0.8401798605918884
1789323467205264600,15.7482646484375,7.888537883758545,5.142475128173828,-0.8620143532752991
1789323467224114700,15.76711474609375,7.811967849731445,5.180759906768799,-0.893121063709259
1789323467242964700,15.78596484375,7.574779033660889,5.140082359313965,-1.017547845840454
1789323467261814800,15.804814697265625,7.40488862991333,5.338985443115234,-1.1922239065170288
1789323467280664800,15.823664794921875,7.357032299041748,5.544768333435059,-1.2831511497497559
1789323467299515100,15.84251513671875,7.689933776855469,5.461019515991211,-1.350150227546692
1789323467318365200,15.861365234375,8.0081787109375,5.2716875076293945,-1.4003994464874268
1789323467337215200,15.88021533203125,8.144868850708008,5.173581600189209,-1.2975081205368042
1789323467356065300,15.899065185546876,8.149654388427734,5.13529634475708,-1.2281162738800049
1789323467374915600,15.91791552734375,8.417651176452637,5.281258583068848,-1.434198021888733
1789323467393765600,15.936765625,8.417651176452637,5.266901969909668,-1.2472587823867798
1789323467412615700,15.95561572265625,8.42722225189209,5.274080276489258,-1.0390832424163818
1789323467431465700,15.9744658203125,8.39611530303955,5.132903575897217,-1.1611171960830688
1789323467450315800,15.993315673828125,8.298009872436523,5.290830135345459,-1.287936806678772
1789323467469165800,16.012165771484376,8.168797492980957,5.377270698547363,-1.0965110063552856
1789323467488016100,16.03101611328125,8.063214302062988,5.3557353019714355,-0.8234301209449768
1789323467506866200,16.0498662109375,8.012965202331543,5.348556995391846,-0.6678966283798218
1789323467525716200,16.06871630859375,8.09671401977539,5.326722145080566,-0.7037889361381531
1789323467544566300,16.087566162109376,8.072785377502441,5.309972763061523,-0.7899305820465088
1789323467563416600,16.10641650390625,7.919644832611084,5.298008441925049,-0.9170492887496948
1789323467582266600,16.1252666015625,7.704290866851807,5.266901969909668,-1.0103694200515747
1789323467601116700,16.14411669921875,7.584649562835693,5.231009483337402,-1.0773683786392212
1789323467619966700,16.162966796875,7.737790107727051,5.228616714477539,-1.0821540355682373
1789323467638816800,16.181816650390626,8.159226417541504,5.2477593421936035,-1.0941181182861328
1789323467657667000,16.2006669921875,8.688039779663086,5.19033145904541,-1.1324033737182617
1789323467676517000,16.21951708984375,9.052047729492188,4.836193561553955,-1.0007981061935425
1789323467695367200,16.2383671875,8.898907661437988,4.788337230682373,-0.9361918568611145
1789323467714217200,16.25721728515625,8.621041297912598,4.7473602294921875,-0.9314061999320984
1789323467733067500,16.276067626953125,8.56600570678711,4.560719966888428,-0.9481559991836548
1789323467751917600,16.29491748046875,8.678468704223633,4.029214382171631,-0.5362913608551025
1789323467770767600,16.313767578125,8.515756607055664,4.1991047859191895,-0.7301099896430969
1789323467789617700,16.33261767578125,8.846264839172363,3.9502511024475098,-0.6583253145217896
1789323467808467700,16.3514677734375,8.994620323181152,3.6436707973480225,-0.5291129350662231
1789323467827318000,16.370318115234376,8.927620887756348,3.3230323791503906,-0.36640095710754395
1789323467846168000,16.38916796875,9.035298347473145,3.2177481651306152,-0.4692923426628113
1789323467865018000,16.40801806640625,9.147761344909668,3.2368907928466797,-0.4166502356529236
1789323467883868200,16.4268681640625,9.123832702636719,3.119642496109009,-0.05024927482008934
1789323467902718500,16.445718505859375,8.95394229888916,2.99013090133667,0.10289137065410614
1789323467921568500,16.464568603515627,9.791728973388672,3.028416156768799,-0.12203395366668701
1789323467940418600,16.48341845703125,10.069596290588379,3.3302109241485596,-0.4286143481731415
1789323467959268600,16.5022685546875,9.870991706848145,3.3062827587127686,-0.3281157910823822
1789323467978118700,16.52111865234375,9.59073257446289,3.294318675994873,-0.26560330390930176
1789323467996969000,16.539968994140626,9.609874725341797,3.1794631481170654,-0.3281157910823822
1789323468015819000,16.558819091796874,9.784550666809082,3.160320520401001,-0.43579283356666565
1789323468034669000,16.5776689453125,9.937990188598633,3.184248685836792,-0.5745765566825867
1789323468053519000,16.59651904296875,10.009775161743164,3.239283561706543,-0.6296114325523376
1789323468072369400,16.615369384765625,9.847063064575195,3.2991042137145996,-0.385543555021286
1789323468091219500,16.634219482421877,9.554840087890625,3.4785659313201904,-0.02392822690308094
1789323468110069500,16.653069580078125,9.169296264648438,3.6197423934936523,0.30658039450645447
1789323468128919600,16.67191943359375,8.685647010803223,3.7588253021240234,0.34725838899612427
1789323468147769900,16.690769775390624,8.503792762756348,3.809074640274048,0.019142581149935722
1789323468166620000,16.709619873046876,8.769695281982422,3.7827534675598145,-0.4860421121120453
1789323468185470000,16.728469970703124,9.135796546936035,3.670290946960449,-0.8452646136283875
1789323468204320000,16.747320068359375,9.06401252746582,3.5982069969177246,-0.8787640929222107
1789323468223170000,16.766170166015623,8.724231719970703,3.6631124019622803,-0.7468597888946533
1789323468242020400,16.785020263671875,8.530113220214844,3.859323740005493,-0.643968403339386
1789323468260870400,16.803870361328126,8.870193481445312,4.091427803039551,-0.7301099896430969
1789323468289145600,16.8321455078125,9.325128555297852,3.9813578128814697,-0.8524430394172668
1789323468307995600,16.85099560546875,9.48066234588623,3.849752426147461,-1.0247262716293335
1789323468326845700,16.869845703125,9.535696983337402,3.7899320125579834,-1.1371889114379883
1789323468345696000,16.888696044921875,9.463912963867188,3.842574119567871,-1.1371889114379883
1789323468364546000,16.907546142578123,9.521340370178223,3.9885363578796387,-1.1635099649429321
1789323468383396000,16.92639599609375,9.595518112182617,3.943072557449341,-0.9912267923355103
1789323468402246100,16.94524609375,9.36341381072998,3.7588253021240234,-0.7444669604301453
1789323468421096400,16.964096435546875,8.987442016601562,3.7348971366882324,-0.4668995141983032
1789323468439946500,16.982946533203126,8.748159408569336,3.8162529468536377,-0.3400799036026001
1789323468458796500,17.001796630859374,8.601898193359375,3.9143588542938232,-0.3807578980922699
1789323468477646600,17.020646484375,8.580363273620605,3.8688950538635254,-0.5626124143600464
1789323468496497000,17.039496826171874,8.599505424499512,3.75643253326416,-0.8330013751983643
1789323468515347000,17.058346923828125,8.589934349060059,3.6822550296783447,-0.9864411354064941
1789323468534197000,17.077197021484373,8.604290962219238,3.6029927730560303,-1.0199406147003174
1789323468553047000,17.096047119140625,8.81515884399414,3.5742788314819336,-1.0606186389923096
1789323468571897300,17.1148974609375,8.894122123718262,3.57906436920166,-1.1180464029312134
1789323468590747400,17.133747314453124,9.030512809753418,3.6942191123962402,-1.067797064781189
1789323468609597400,17.152597412109376,9.044869422912598,3.864109516143799,-0.981655478477478
1789323468628447500,17.171447509765624,8.819944381713867,4.0435709953308105,-0.8401798605918884
1789323468647297800,17.1902978515625,8.700303077697754,4.273581027984619,-0.7707880139350891
1789323468666147800,17.20914794921875,8.71226692199707,4.41475772857666,-0.675075113773346
1789323468684998000,17.227997802734375,8.656932830810547,4.386044025421143,-0.5458626747131348
1789323468703848200,17.24684814453125,8.726624488830566,4.335794448852539,-0.5458626747131348
1789323468722698200,17.2656982421875,8.894122123718262,4.34536600112915,-0.6966105103492737
1789323468741548300,17.28454833984375,8.956335067749023,4.386044025421143,-0.8090731501579285
1789323468760398300,17.3033984375,8.8438720703125,4.405186653137207,-0.7947162389755249
1789323468779248600,17.32224853515625,8.666504859924316,4.5200419425964355,-0.7803592681884766
1789323468798098700,17.3410986328125,8.556434631347656,4.6301116943359375,-0.6990033388137817
1789323468816948700,17.35994873046875,8.443971633911133,4.644468784332275,-0.44297128915786743
1789323468835798800,17.378798828125,8.341080665588379,4.620540618896484,-0.31854450702667236
1789323468854649000,17.397649169921873,8.408080101013184,4.551148891448975,-0.5315057039260864
1789323468873499100,17.4164990234375,8.56600570678711,4.4410786628723145,-0.893121063709259
1789323468892349200,17.43534912109375,8.599505424499512,4.445864677429199,-1.1515458822250366
1789323468911199500,17.454199462890625,8.5133638381958,4.536791801452637,-1.1180464029312134
1789323468939474400,17.482474365234374,8.482256889343262,4.716253280639648,-0.8066803216934204
1789323468958324700,17.50132470703125,8.616254806518555,4.7234320640563965,-0.6511468887329102
1789323468977174800,17.5201748046875,8.858229637145996,4.651647090911865,-0.6655037999153137
1789323468996024800,17.53902490234375,9.042476654052734,4.541577339172363,-0.7037889361381531
1789323469014875100,17.557875244140625,9.131011009216309,4.4650068283081055,-0.6966105103492737
1789323469043150300,17.586150390625,9.097511291503906,4.409972190856934,-0.5267201066017151
1789323469062000400,17.60500048828125,9.047262191772461,4.395615100860596,-0.385543555021286
1789323469080850400,17.623850341796874,8.927620887756348,4.342973232269287,-0.1986042857170105
1789323469099700500,17.642700439453126,8.915657043457031,4.216153621673584,-0.13160525262355804
1789323469118550800,17.66155078125,8.925228118896484,4.124927043914795,-0.2392822653055191
1789323469137400800,17.68040087890625,8.776873588562012,4.175176620483398,-0.4046861231327057
1789323469156251000,17.6992509765625,8.463114738464355,4.240081787109375,-0.4573282301425934
1789323469175101200,17.71810107421875,8.17119026184082,4.316651821136475,-0.4214358925819397
1789323469193951200,17.736951171875,8.108677864074707,4.381258487701416,-0.42382872104644775
1789323469212801300,17.75580126953125,8.231010437011719,4.395615100860596,-0.4334000051021576
1789323469231651600,17.774651611328125,8.489435195922852,4.314259052276611,-0.49322056770324707
1789323469250501600,17.793501708984376,8.803194046020508,4.244867324829102,-0.6320042610168457
1789323469269351700,17.8123515625,9.004191398620605,4.268795490264893,-0.7588238716125488
1789323469288201700,17.83120166015625,9.020941734313965,4.326223373413086,-0.7851449251174927
1789323469307052000,17.850052001953124,8.992227554321289,4.374079704284668,-0.8234301209449768
1789323469325902000,17.868902099609375,9.133403778076172,4.35254430770874,-0.9218349456787109
1789323469344752000,17.887752197265623,9.368199348449707,4.29033088684082,-0.9050851464271545
1789323469363602400,17.9066025390625,9.52612590789795,4.242474555969238,-0.7707880139350891
1789323469382452500,17.925452392578126,9.471091270446777,4.264009952545166,-0.6607181429862976
1789323469401302500,17.944302490234374,9.253045082092285,4.264009952545166,-0.7229315638542175
1789323469420152800,17.96315283203125,9.068798065185547,4.139284133911133,-0.9122636318206787
1789323469439003000,17.9820029296875,8.872586250305176,4.031607151031494,-1.072582721710205
1789323469457853000,18.00085302734375,8.597112655639648,3.921537160873413,-1.1539387702941895
1789323469476703200,18.019703125,8.64496898651123,3.85693097114563,-1.3334003686904907
1789323469495553300,18.03855322265625,8.82233715057373,4.170390605926514,-1.5394822359085083
1789323469514403300,18.0574033203125,9.164510726928711,4.165605068206787,-1.3286148309707642
1789323469533253600,18.076253662109377,9.36341381072998,4.041178226470947,-1.012762188911438
1789323469552103700,18.095103759765625,9.358628273010254,3.895216226577759,-0.8691928386688232
