time,seconds_elapsed,z,y,x
1789323451604168200,0.147168212890625,-0.7666133046150208,-0.21501824259757996,-0.13438639044761658
1789323451623018500,0.1660185546875,-0.7892146706581116,0.5155550837516785,-0.4428642690181732
1789323451641868800,0.184868896484375,-0.5900784730911255,1.1795459985733032,-0.7006418108940125
1789323451660719000,0.203718994140625,-0.26999449729919434,1.2174185514450073,-0.8148702383041382
1789323451679569700,0.222569580078125,0.09407047927379608,0.7617265582084656,-0.70797199010849
1789323451698420000,0.241419921875,0.24494975805282593,0.5650337338447571,-0.5570927262306213
1789323451717270500,0.2602705078125,0.1588202863931656,0.24678228795528412,-0.46851983666419983
1789323451736120800,0.279120849609375,0.1185043677687645,-0.14965757727622986,-0.14110571146011353
1789323451754971100,0.29797119140625,-0.06841489672660828,-0.02748812735080719,0.2504473626613617
1789323451773821700,0.31682177734375,-0.12705622613430023,0.08368607610464096,0.4556920528411865
1789323451792672000,0.335672119140625,-0.09468132257461548,-0.04337015375494957,0.27915719151496887
1789323451811522300,0.354522216796875,-0.19058434665203094,-0.16004198789596558,0.055587101727724075
1789323451830372600,0.37337255859375,-0.31031039357185364,-0.43981003761291504,0.09834641218185425
1789323451849223200,0.39222314453125,-0.45447036623954773,-0.5497625470161438,0.258999228477478
1789323451868073500,0.411073486328125,-0.3646758198738098,-0.5241069197654724,0.265718549489975
1789323451886923800,0.429923828125,-0.12278030067682266,-0.37261682748794556,0.1453816443681717
1789323451905774300,0.4487744140625,-0.07024743407964706,-0.5204418897628784,0.13988402485847473
1789323451924624600,0.467624755859375,0.06902574002742767,-1.1954281330108643,0.4862344264984131
1789323451943475000,0.486474853515625,-0.004886778071522713,-1.3017154932022095,0.7647807598114014
1789323451962325500,0.505325439453125,-0.2113531529903412,-1.0243908166885376,0.948034942150116
1789323451981175800,0.52417578125,-0.38788801431655884,-0.5943543910980225,0.5931326746940613
1789323452000026000,0.543026123046875,-0.4349232614040375,0.02076880633831024,0.009773556143045425
1789323452018876700,0.561876708984375,-0.5674771070480347,0.5644228458404541,-0.45447036623954773
1789323452037727000,0.58072705078125,-0.6927008032798767,0.3689517378807068,-0.42698222398757935
1789323452056577300,0.599577392578125,-0.49173203110694885,-0.291374146938324,-0.01832541823387146
1789323452075427800,0.618427734375,-0.2736595869064331,-0.5021164417266846,0.6365028619766235
1789323452094278100,0.637278076171875,0.11911521852016449,0.16615045070648193,1.2131426334381104
1789323452113128400,0.65612841796875,0.6163448691368103,0.7299624681472778,1.1025793552398682
1789323452131978800,0.674978759765625,0.813648521900177,1.7128920555114746,0.21501824259757996
1789323452150829300,0.693829345703125,0.8179244995117188,3.134944438934326,-0.49173203110694885
1789323452169679600,0.7126796875,1.3720393180847168,4.830732822418213,-0.80937260389328
1789323452188530000,0.731530029296875,1.8875943422317505,5.8447394371032715,-1.1630531549453735
1789323452207380500,0.75038037109375,1.6151565313339233,5.0579681396484375,-1.8405591249465942
1789323452226230800,0.769230712890625,1.3298144340515137,4.711617469787598,-1.904698133468628
1789323452245081000,0.7880810546875,1.3604332208633423,2.660316228866577,-1.7550405263900757
1789323452263931400,0.806931396484375,1.1202938556671143,0.9089407324790955,-1.5638453960418701
1789323452282782000,0.825781982421875,0.7690566778182983,1.436178207397461,-1.734271764755249
1789323452301632300,0.84463232421875,0.7293516397476196,4.452618598937988,-3.2167980670928955
1789323452320482600,0.863482666015625,0.007330167107284069,4.565625190734863,-4.597389221191406
1789323452339333000,0.8823330078125,-0.9376505613327026,1.455114483833313,-4.348163604736328
1789323452358183400,0.901183349609375,-1.4135769605636597,-1.1300674676895142,-3.7311313152313232
1789323452377033700,0.92003369140625,-2.4740078449249268,0.4605788290500641,-3.5350494384765625
1789323452395884300,0.93888427734375,-2.700021266937256,0.5955760478973389,-3.7024216651916504
1789323452414734600,0.957734619140625,-2.932143211364746,0.41293275356292725,-3.1990835666656494
1789323452433585000,0.9765849609375,-3.053701877593994,-1.1551121473312378,-2.379326343536377
1789323452452435200,0.995435302734375,-2.763549327850342,-1.4441193342208862,-2.0861196517944336
1789323452471285800,1.01428564453125,-2.523486375808716,-0.9254335761070251,-2.5393683910369873
1789323452490136000,1.033135986328125,-2.4758403301239014,-0.8130376935005188,-2.871669292449951
1789323452518411500,1.06141162109375,-2.0012118816375732,-0.42759308218955994,-3.0353763103485107
1789323452537262000,1.080261962890625,-1.6304277181625366,0.24617144465446472,-3.4654128551483154
1789323452556112400,1.0991123046875,-2.029921770095825,-0.06047387793660164,-3.7464025020599365
1789323452574962700,1.117962646484375,-2.0714592933654785,-0.015271181240677834,-3.4825165271759033
1789323452593813200,1.136813232421875,-1.4636664390563965,0.5234960913658142,-3.0170509815216064
1789323452612663600,1.15566357421875,-1.2589561939239502,1.2522368431091309,-3.035987138748169
1789323452631513900,1.174513916015625,-1.0873081684112549,2.888162136077881,-2.764770984649658
1789323452650364200,1.1933642578125,-0.781884491443634,4.600443363189697,-1.8393374681472778
1789323452669214700,1.212214599609375,-0.4453076422214508,3.6737117767333984,-0.7873821258544922
1789323452688065000,1.23106494140625,0.767224133014679,1.2186403274536133,-0.4978405237197876
1789323452706915300,1.249915283203125,2.2040133476257324,0.7183563709259033,0.2339545041322708
1789323452725765600,1.268765625,2.098336696624756,1.8026865720748901,-0.17836740612983704
1789323452744616200,1.2876162109375,1.7275524139404297,2.992617130279541,0.42453885078430176
1789323452763466500,1.306466552734375,1.8918702602386475,1.5632344484329224,1.0598199367523193
1789323452782316800,1.32531689453125,2.4147555828094482,-0.6371136903762817,1.3934189081192017
1789323452801167400,1.34416748046875,2.604729175567627,-1.8411699533462524,1.3482162952423096
1789323452820017700,1.363017578125,2.5314273834228516,-1.8228446245193481,1.2082558870315552
1789323452838868000,1.381867919921875,2.7629384994506836,-1.2131426334381104,1.0695935487747192
1789323452857718300,1.40071826171875,2.760495185852051,-1.5290271043777466,1.1667182445526123
1789323452876568800,1.41956884765625,2.2217278480529785,-2.315187454223633,1.0989142656326294
1789323452895419100,1.438419189453125,1.1911520957946777,-2.315798282623291,1.0836430788040161
1789323452914269400,1.45726953125,0.24006296694278717,-2.1349875926971436,0.9889616966247559
1789323452933120000,1.4761201171875,0.1569877415895462,-1.4300698041915894,0.7983773946762085
1789323452951970300,1.49497021484375,0.7220214605331421,-0.6200099587440491,0.9407047629356384
1789323452970820600,1.513820556640625,0.9639169573783875,-0.4679090082645416,0.9706363081932068
1789323452989671200,1.532671142578125,0.869235634803772,-0.30664533376693726,0.5320479869842529
1789323453017946600,1.560946533203125,0.7519529461860657,-0.055587101727724075,0.25777754187583923
1789323453036797000,1.579796875,0.7201889157295227,-0.2858765125274658,0.12583453953266144
1789323453055647200,1.598647216796875,0.7831062078475952,-0.3793361485004425,0.10873081535100937
1789323453074497800,1.617497802734375,0.7207997441291809,-0.16370706260204315,0.0006108472589403391
1789323453093348000,1.63634814453125,0.9523108601570129,-0.15210096538066864,-0.04031591862440109
1789323453112198400,1.655198486328125,0.9590302109718323,-0.3414636254310608,-0.2095206081867218
1789323453131049000,1.674049072265625,1.326149344444275,-0.2644968628883362,-0.41354358196258545
1789323453149899300,1.692899169921875,0.8869501948356628,0.13560809195041656,-0.6627692580223083
1789323453168749600,1.71174951171875,0.4874561131000519,0.17470231652259827,-0.5430431962013245
1789323453187600100,1.73060009765625,1.0250016450881958,-0.021379653364419937,-0.4074351191520691
1789323453206450400,1.749450439453125,0.5650337338447571,0.2730487287044525,-0.7782194018363953
1789323453225300700,1.76830078125,0.2241809368133545,-0.29259583353996277,-0.6420004963874817
1789323453244151000,1.787151123046875,-0.7947123050689697,-0.9877400398254395,-0.18997350335121155
1789323453263001300,1.80600146484375,-2.2534918785095215,-1.7916914224624634,0.18997350335121155
1789323453281852000,1.824851806640625,-3.3212528228759766,-1.4581687450408936,0.4434750974178314
1789323453300702200,1.8437021484375,-3.785496711730957,-0.9474241137504578,0.5662553906440735
1789323453319552500,1.862552490234375,-3.533827781677246,0.033596597611904144,0.21807247400283813
1789323453338403000,1.881403076171875,-3.0891308784484863,0.8521319031715393,-0.47707170248031616
1789323453357253400,1.90025341796875,-2.269373893737793,1.2913310527801514,-0.6951441764831543
1789323453376103700,1.919103759765625,-2.0574100017547607,1.4239612817764282,-1.0610417127609253
1789323453394954000,1.9379541015625,-1.8466676473617554,1.1215155124664307,-1.2601778507232666
1789323453413804500,1.956804443359375,-2.274871587753296,0.7330167293548584,-1.2375766038894653
1789323453432654800,1.97565478515625,-3.849025011062622,0.7721109390258789,-0.9168817400932312
1789323453451505200,1.994505126953125,-5.139821529388428,1.9474574327468872,-1.0769237279891968
1789323453470355500,2.01335546875,-3.1819796562194824,2.1203272342681885,-1.1673290729522705
1789323453489206000,2.0322060546875,-1.1147962808609009,2.1581997871398926,-1.1777135133743286
1789323453508056300,2.051056396484375,-0.707361102104187,1.014006495475769,-1.3139324188232422
1789323453526906600,2.06990673828125,-0.444085955619812,-1.0750911235809326,-1.2717839479446411
1789323453545757000,2.0887568359375,-0.22051586210727692,-1.2106993198394775,-1.009730577468872
1789323453564607500,2.107607421875,0.16737215220928192,-1.4019708633422852,-1.0213366746902466
1789323453583457800,2.126457763671875,-0.21562908589839935,-1.3078240156173706,-1.1502254009246826
1789323453602308000,2.14530810546875,-0.6077930331230164,-0.3897205591201782,-1.1373976469039917
1789323453621158400,2.164158447265625,-0.04581354558467865,-0.5858024954795837,-1.381201982498169
1789323453640009000,2.183009033203125,0.22601348161697388,-1.3720393180847168,-0.8771766424179077
1789323453658859300,2.201859375,0.13805148005485535,-2.037862777709961,-0.7488987445831299
1789323453677709600,2.22070947265625,-0.4459185004234314,-2.1148295402526855,-0.32130566239356995
1789323453696560000,2.23956005859375,-0.8057075142860413,-0.2241809368133545,0.12827792763710022
1789323453715410400,2.258410400390625,-1.2333005666732788,1.1166287660598755,0.2730487287044525
1789323453734260700,2.2772607421875,-0.869846522808075,0.8393041491508484,0.2113531529903412
1789323453753111000,2.296111083984375,-0.3115321099758148,-0.08246438205242157,0.420873761177063
1789323453771961300,2.31496142578125,0.16615045070648193,-0.19180603325366974,0.8105943202972412
1789323453790812000,2.33381201171875,0.4862344264984131,-0.9266552925109863,1.109298586845398
1789323453809662200,2.352662109375,0.10201149433851242,-1.3151541948318481,1.332257866859436
1789323453828512500,2.371512451171875,-0.6212316751480103,-1.2504043579101562,1.3243168592453003
1789323453847362800,2.39036279296875,-0.06841489672660828,0.40010493993759155,1.206423282623291
1789323453866213400,2.40921337890625,0.2480039894580841,1.5803382396697998,0.8118160367012024
1789323453885063700,2.428063720703125,-1.132510781288147,-0.2620534598827362,0.892447829246521
1789323453903914000,2.4469140625,-0.9700254201889038,-1.4435083866119385,1.1209046840667725
1789323453922764300,2.465764404296875,-1.3059914112091064,-0.4837910234928131,0.5155550837516785
1789323453941614800,2.48461474609375,-1.4349565505981445,-0.4953971207141876,0.01954711228609085
1789323453960465200,2.503465087890625,-1.0250016450881958,-0.1716480851173401,0.10811996459960938
1789323453979315500,2.5223154296875,-0.20707722008228302,0.24678228795528412,1.2974395751953125
1789323453998165800,2.541165771484375,0.4844018816947937,0.23334364593029022,1.8106275796890259
1789323454017016300,2.560016357421875,1.2113101482391357,0.6487197875976562,1.7446560859680176
1789323454035866600,2.57886669921875,1.6524181365966797,0.8545753359794617,1.549185037612915
1789323454054717000,2.597717041015625,1.7409909963607788,0.675597071647644,1.2565127611160278
1789323454073567200,2.616567138671875,1.222305417060852,-0.2095206081867218,1.412966012954712
1789323454092417800,2.635417724609375,0.6114581227302551,-1.1587772369384766,1.5870575904846191
1789323454111268000,2.65426806640625,0.21318569779396057,-0.7440119385719299,1.6377578973770142
1789323454130118400,2.673118408203125,0.5405998229980469,-0.70797199010849,1.7031185626983643
1789323454148968700,2.69196875,0.5485408306121826,-0.9284878373146057,1.3983057737350464
1789323454167819000,2.710819091796875,0.7085828185081482,0.16370706260204315,1.113574504852295
1789323454186669600,2.729669677734375,0.9260444641113281,-0.046424392610788345,1.4844352006912231
1789323454205520000,2.748519775390625,0.624896764755249,-0.948034942150116,1.8271205425262451
1789323454224370200,2.7673701171875,0.569309651851654,-1.618821620941162,1.738547682762146
1789323454243220500,2.786220458984375,0.7110261917114258,-1.086086392402649,1.5968310832977295
1789323454262071000,2.805071044921875,0.5625903010368347,-0.448361873626709,1.2613996267318726
1789323454280921300,2.82392138671875,0.3646758198738098,-0.5986303091049194,1.152668833732605
1789323454309196800,2.85219677734375,0.4312581717967987,0.010995250195264816,0.7959339618682861
1789323454328047400,2.87104736328125,0.2235700935125351,0.21868331730365753,0.3927747905254364
1789323454346897700,2.889897705078125,-0.04703523963689804,0.4471401870250702,0.2229592502117157
1789323454365748000,2.908748046875,-0.10873081535100937,0.6041279435157776,0.08429691940546036
1789323454384598300,2.927598388671875,0.03787253051996231,0.6762079000473022,-0.1447708010673523
1789323454403448800,2.94644873046875,-0.05741964280605316,0.5686988234519958,-0.16248537600040436
1789323454422299100,2.965299072265625,-0.1423274129629135,0.5467082858085632,-0.26694026589393616
1789323454441149400,2.9841494140625,-0.20035789906978607,0.633448600769043,-0.3701734244823456
1789323454459999700,3.002999755859375,-0.3255815804004669,0.5192201733589172,-0.5424323678016663
1789323454478850000,3.02185009765625,-0.3261924386024475,0.503948986530304,-0.8386932611465454
1789323454497700600,3.04070068359375,-0.4062134325504303,0.9290986657142639,-1.064706802368164
1789323454516551000,3.059551025390625,-0.5277720093727112,0.911384105682373,-1.3543246984481812
1789323454535401200,3.078401123046875,-0.5974085927009583,0.6707102656364441,-1.4746615886688232
1789323454554251500,3.09725146484375,-0.7250757217407227,0.5405998229980469,-1.6389795541763306
1789323454573102000,3.11610205078125,-0.8264763355255127,0.420873761177063,-1.8533869981765747
1789323454591952400,3.134952392578125,-0.8270871639251709,0.10995250940322876,-1.8808751106262207
1789323454610802700,3.153802734375,-0.9822424054145813,-0.02076880633831024,-1.9156934022903442
1789323454629653000,3.172653076171875,-1.0274450778961182,-0.2980934679508209,-1.9114174842834473
1789323454648503600,3.191503662109375,-0.8057075142860413,-0.3836120665073395,-2.0079312324523926
1789323454667353900,3.210353759765625,-0.7556180357933044,-0.6371136903762817,-2.0543556213378906
1789323454686204200,3.2292041015625,-0.7989882230758667,-0.896723747253418,-1.961506962776184
1789323454705054500,3.248054443359375,-0.7427902817726135,-0.893058717250824,-1.899200439453125
1789323454723905000,3.266905029296875,-0.5644228458404541,-0.8087617754936218,-1.7122812271118164
1789323454742755300,3.28575537109375,-0.3830012381076813,-0.7244648337364197,-1.7507646083831787
1789323454761605600,3.304605712890625,-0.1704263836145401,-0.6358919739723206,-1.867436408996582
1789323454780456000,3.3234560546875,-0.09956810623407364,-0.6352811455726624,-1.8582737445831299
1789323454799306200,3.34230615234375,0.014049487188458443,-0.6346703171730042,-1.6670784950256348
1789323454818156800,3.36115673828125,0.2620534598827362,-0.19241689145565033,-1.4777158498764038
1789323454837007000,3.380007080078125,0.49051034450531006,-0.23884128034114838,-1.2766708135604858
1789323454855857400,3.398857421875,0.5375455617904663,-0.13927318155765533,-0.9889616966247559
1789323454874707700,3.417707763671875,0.47890424728393555,-0.06902574002742767,-0.3555130958557129
1789323454893558000,3.43655810546875,0.4159869849681854,-0.03420744836330414,0.2492256760597229
1789323454912408600,3.45540869140625,0.39643988013267517,0.17958909273147583,0.5454866290092468
1789323454931259000,3.4742587890625,0.4196520745754242,0.14049486815929413,0.7201889157295227
1789323454950109200,3.493109130859375,0.46424391865730286,0.3524588644504547,0.7598940134048462
1789323454968959500,3.51195947265625,0.43981003761291504,0.31886225938796997,0.8258655071258545
1789323454987810000,3.53081005859375,0.45202696323394775,0.2907632887363434,1.0152281522750854
1789323455006660400,3.549660400390625,0.44958359003067017,0.3927747905254364,1.0598199367523193
1789323455025510700,3.5685107421875,0.3500154912471771,0.12339114397764206,0.9620844125747681
1789323455044361000,3.58736083984375,0.13499724864959717,0.13866232335567474,0.8215895891189575
1789323455063211500,3.60621142578125,0.01832541823387146,-0.008551862090826035,0.809983491897583
1789323455082061800,3.625061767578125,0.023212196305394173,0.26938363909721375,0.8710681796073914
1789323455100912000,3.643912109375,0.14904673397541046,0.5595360994338989,1.0005677938461304
1789323455119762400,3.662762451171875,0.29503923654556274,0.577861487865448,1.0274450778961182
1789323455138612700,3.68161279296875,0.5173876285552979,0.25777754187583923,1.022558331489563
1789323455157463300,3.70046337890625,0.7623373866081238,0.32252734899520874,1.1184613704681396
1789323455176313600,3.719313720703125,0.8411366939544678,0.06841489672660828,1.2797249555587769
1789323455195164000,3.738163818359375,0.8527427911758423,-0.3567348122596741,1.3573789596557617
1789323455214014200,3.75701416015625,0.7018635272979736,-0.3823903799057007,1.2467392683029175
1789323455232864800,3.77586474609375,0.546097457408905,-0.3762819170951843,1.222305417060852
1789323455251715000,3.794715087890625,0.46851983666419983,-0.2235700935125351,1.309045672416687
1789323455270565400,3.8135654296875,0.5528167486190796,-0.6572716236114502,1.3793694972991943
1789323455289415700,3.832415771484375,0.7177455425262451,-0.3701734244823456,1.3976948261260986
1789323455308266000,3.851265869140625,0.7385143637657166,-0.4746283292770386,1.5088690519332886
1789323455327116500,3.870116455078125,0.6505523324012756,-0.5106683373451233,1.7275524139404297
1789323455345966800,3.888966796875,0.5057815313339233,-0.6591041684150696,1.9694479703903198
1789323455364817200,3.907817138671875,0.37322768568992615,-1.0335536003112793,1.9376838207244873
1789323455383667500,3.92666748046875,0.3701734244823456,-0.8509102463722229,1.497262954711914
1789323455402518000,3.94551806640625,0.49356457591056824,-0.3170297145843506,1.1099094152450562
1789323455421368300,3.964368408203125,0.5479300022125244,-0.1979145109653473,1.0390511751174927
1789323455440218600,3.983218505859375,0.48989951610565186,0.14049486815929413,0.9400939345359802
1789323455459069000,4.00206884765625,0.25350162386894226,0.28160059452056885,0.7531746625900269
1789323455477919200,4.020919189453125,0.04886778071522713,0.44103172421455383,0.9095515608787537
1789323455496769800,4.039769775390625,0.03787253051996231,0.31825143098831177,0.49173203110694885
1789323455515620000,4.0586201171875,0.2107423096895218,0.8472451567649841,0.2229592502117157
1789323455534470400,4.077470458984375,-0.00916270911693573,0.6450546979904175,0.016492875292897224
1789323455553320700,4.09632080078125,0.04214845970273018,0.7330167293548584,-0.2718270421028137
1789323455572171300,4.115171142578125,-0.23028941452503204,0.7800519466400146,-0.5283828973770142
1789323455591021600,4.134021484375,-0.3793361485004425,1.1954281330108643,-0.8252546191215515
1789323455609872000,4.152871826171875,-0.5467082858085632,0.9339854717254639,-1.1160179376602173
1789323455628722200,4.17172216796875,-0.5876350402832031,0.6542174220085144,-1.313321590423584
1789323455647572700,4.19057275390625,-0.7568397521972656,0.5858024954795837,-1.5271944999694824
1789323455666423000,4.209423095703125,-0.9046648144721985,0.3029802441596985,-1.8045191764831543
1789323455685273300,4.2282734375,-1.0524898767471313,0.5106683373451233,-1.8680472373962402
1789323455704123600,4.24712353515625,-1.2467392683029175,0.6835380792617798,-1.8271205425262451
1789323455722974000,4.265973876953125,-1.2809467315673828,0.6139014959335327,-1.7819178104400635
1789323455741824500,4.284824462890625,-1.3653199672698975,0.7153021693229675,-1.789247989654541
1789323455760674800,4.3036748046875,-1.381201982498169,0.5540384650230408,-1.8185685873031616
1789323455779525000,4.322525146484375,-1.2937744855880737,0.5772506594657898,-1.7672574520111084
1789323455798375400,4.34137548828125,-1.2644537687301636,-0.05741964280605316,-1.6487531661987305
1789323455817225700,4.360225830078125,-1.271173119544983,-0.3512371778488159,-1.7263307571411133
1789323455836076300,4.379076171875,-1.2302464246749878,-0.6804838180541992,-1.8704906702041626
1789323455854926600,4.397926513671875,-1.0976924896240234,-0.5442649126052856,-1.899200439453125
1789323455873777000,4.41677685546875,-0.962695300579071,-0.4294256269931793,-1.7312175035476685
1789323455892627200,4.435627197265625,-0.80937260389328,-0.45019441843032837,-1.7904696464538574
1789323455911477500,4.4544775390625,-0.5625903010368347,-0.32069480419158936,-1.821012020111084
1789323455930328000,4.473328125,-0.3555130958557129,-0.2730487287044525,-1.6023286581039429
1789323455949178400,4.492178466796875,-0.13805148005485535,-0.007941014133393764,-1.4856568574905396
1789323455968028700,4.511028564453125,-0.10201149433851242,-0.1582094430923462,-1.1545013189315796
1789323455986879000,4.52987890625,-0.1832541823387146,-0.04153761267662048,-0.7012526392936707
1789323456005729500,4.5487294921875,-0.1960819661617279,-0.17836740612983704,-0.2870981991291046
1789323456024579800,4.567579833984375,-0.06291726976633072,-0.3310792148113251,0.09345962852239609
1789323456043430100,4.58643017578125,0.18875180184841156,0.037261683493852615,0.40193748474121094
1789323456062280400,4.605280517578125,0.29259583353996277,-0.05619794875383377,0.754396378993988
1789323456081130800,4.624130859375,0.2907632887363434,0.18019993603229523,1.0445488691329956
1789323456099981300,4.642981201171875,0.2999260127544403,0.004886778071522713,1.3298144340515137
1789323456118831600,4.66183154296875,0.34757208824157715,0.42392799258232117,1.4343457221984863
1789323456137682000,4.680681884765625,0.32374903559684753,0.26877278089523315,1.530248761177063
1789323456156532200,4.6995322265625,0.23028941452503204,0.37078428268432617,1.568121314048767
1789323456175382500,4.718382568359375,0.19424942135810852,0.15393351018428802,1.1709941625595093
1789323456194233000,4.737233154296875,0.08124268800020218,0.24189551174640656,0.893058717250824
1789323456213083400,4.75608349609375,-0.013438640162348747,0.3921639323234558,1.0482138395309448
1789323456231933700,4.77493359375,0.10995250940322876,0.5143333673477173,1.4874894618988037
1789323456250784000,4.793783935546875,0.3512371778488159,0.342074453830719,1.6872364282608032
1789323456269634300,4.81263427734375,0.6163448691368103,0.0024433890357613564,1.6511964797973633
1789323456288484900,4.83148486328125,0.6817055344581604,0.042759306728839874,1.5601803064346313
1789323456307335200,4.850335205078125,0.6505523324012756,-0.09590301662683487,1.576673150062561
1789323456326185500,4.869185546875,0.6890357136726379,-0.07207997888326645,1.7080053091049194
1789323456345035800,4.888035888671875,0.6493306159973145,-0.13988402485847473,1.7043402194976807
1789323456363886000,4.906885986328125,0.6511631608009338,-0.4813476502895355,1.8014649152755737
1789323456382736600,4.925736572265625,0.6328377723693848,-0.4581354558467865,1.9419597387313843
1789323456401587000,4.9445869140625,0.6187883019447327,-0.6200099587440491,1.9676153659820557
1789323456420437200,4.963437255859375,0.6694886088371277,-0.518609344959259,1.9529550075531006
1789323456439287600,4.98228759765625,0.5772506594657898,-0.758672297000885,1.9908275604248047
1789323456458137900,5.001137939453125,0.3805578351020813,-1.119683027267456,2.0012118816375732
1789323456476988400,5.019988525390625,0.08796200156211853,-0.8356390595436096,1.59988534450531
1789323456495838700,5.038838623046875,0.5858024954795837,-0.12461283802986145,1.4453409910202026
1789323456514689000,5.05768896484375,0.8722898960113525,-0.129499614238739,1.0482138395309448
1789323456533539300,5.076539306640625,0.8588512539863586,-0.2498365342617035,0.34818294644355774
1789323456552389600,5.0953896484375,0.7116370797157288,-0.7733326554298401,-0.04886778071522713
1789323456571240200,5.114240234375,0.3830012381076813,-0.7379034757614136,-0.042759306728839874
1789323456590090500,5.133090576171875,0.12155860662460327,-0.6511631608009338,0.1704263836145401
1789323456608940800,5.15194091796875,-0.04459185153245926,-0.16126367449760437,0.03176405653357506
1789323456627791000,5.170791015625,-0.007330167107284069,0.11239589750766754,-0.2339545041322708
1789323456646641400,5.189641357421875,0.021990500390529633,0.550373375415802,-0.5320479869842529
1789323456665492000,5.208491943359375,0.08796200156211853,0.6694886088371277,-0.5845808386802673
1789323456684342300,5.22734228515625,0.043981000781059265,0.9370396733283997,-0.8942803740501404
1789323456703192600,5.246192626953125,-0.05864133685827255,0.9407047629356384,-1.2699514627456665
1789323456722043000,5.26504296875,-0.20768806338310242,1.1025793552398682,-1.538800597190857
1789323456740893200,5.28389306640625,-0.5283828973770142,1.123958945274353,-1.8258987665176392
1789323456759743700,5.30274365234375,-0.7421793937683105,1.1178505420684814,-2.072681188583374
1789323456778594000,5.321593994140625,-0.9657495021820068,0.9700254201889038,-2.161864757537842
1789323456797444400,5.3404443359375,-1.1911520957946777,0.5082249045372009,-2.0946714878082275
1789323456816294700,5.359294677734375,-1.3659307956695557,0.22662433981895447,-2.009152889251709
1789323456835145000,5.37814501953125,-1.2241379022598267,-0.10934165865182877,-2.290142774581909
1789323456853995500,5.39699560546875,-1.1117420196533203,-0.11972606182098389,-2.231501340866089
1789323456872845800,5.415845703125,-0.9303203821182251,-0.47951510548591614,-2.2076783180236816
1789323456891696000,5.434696044921875,-0.7715001106262207,-0.5143333673477173,-2.093449831008911
1789323456910546400,5.45354638671875,-0.6230642199516296,-0.5992411375045776,-2.0256459712982178
1789323456929396700,5.472396728515625,-0.48806697130203247,-0.6725428104400635,-2.058020830154419
1789323456948247000,5.4912470703125,-0.3115321099758148,-0.6951441764831543,-1.9358513355255127
1789323456967097600,5.51009765625,-0.1313321590423584,-0.790436327457428,-1.8680472373962402
1789323456985948000,5.528947998046875,0.09407047927379608,-0.5143333673477173,-1.7544296979904175
1789323457004798200,5.547798095703125,0.1716480851173401,-0.16676130890846252,-1.4758833646774292
1789323457023648500,5.5666484375,0.21685077250003815,-0.29442837834358215,-1.3476054668426514
1789323457042498800,5.585498779296875,0.3139754831790924,-0.2877090573310852,-1.1221264600753784
1789323457061349400,5.604349365234375,0.43797749280929565,-0.24494975805282593,-0.448361873626709
1789323457080199700,5.62319970703125,0.4844018816947937,-0.09468132257461548,0.06780404597520828
1789323457099050000,5.642050048828125,0.5436540842056274,-0.09834641218185425,0.3023693859577179
1789323457117900300,5.660900390625,0.4990622103214264,-0.03298575058579445,0.5051707029342651
1789323457136750600,5.67975048828125,0.40132665634155273,0.14171656966209412,0.8612946271896362
1789323457155601000,5.698600830078125,0.37689274549484253,0.37444937229156494,1.0274450778961182
1789323457174451500,5.717451416015625,0.40193748474121094,0.3005368411540985,0.9706363081932068
1789323457193301800,5.7363017578125,0.3127537965774536,0.3170297145843506,0.8680139780044556
1789323457212152000,5.755152099609375,0.19974705576896667,0.014049487188458443,0.91566002368927
1789323457231002400,5.77400244140625,0.07757759839296341,0.08979454636573792,1.0940274000167847
1789323457249852700,5.792852783203125,0.010995250195264816,0.3280249834060669,1.2430741786956787
1789323457268703000,5.811702880859375,-0.06291726976633072,0.2895416021347046,1.3805911540985107
1789323457287553500,5.830553466796875,-0.04031591862440109,0.2473931461572647,1.6566941738128662
1789323457306403800,5.84940380859375,0.15943112969398499,0.3164188861846924,1.8594954013824463
1789323457325254100,5.868254150390625,0.47646087408065796,0.32313820719718933,1.826509714126587
1789323457344104400,5.8871044921875,0.6169557571411133,0.3396310806274414,1.6725761890411377
1789323457362954800,5.905954833984375,0.5723638534545898,0.1960819661617279,1.719611406326294
1789323457381805000,5.92480517578125,0.4618005156517029,0.05986303091049194,1.7312175035476685
1789323457400655600,5.943655517578125,0.4819584786891937,-0.13560809195041656,1.7257198095321655
1789323457419506000,5.962505859375,0.610236406326294,-0.363454133272171,1.802075743675232
1789323457438356200,5.981356201171875,0.6804838180541992,-0.4306473135948181,1.9150824546813965
1789323457457206500,6.00020654296875,0.6261184215545654,-0.5387672781944275,2.0128180980682373
1789323457476056800,6.019056884765625,0.46485477685928345,-1.0469921827316284,2.2021806240081787
1789323457494907100,6.0379072265625,0.3640649616718292,-1.2754490375518799,2.118494749069214
1789323457513757700,6.0567578125,0.4416425824165344,-0.8173136115074158,1.8130710124969482
1789323457532608000,6.07560791015625,0.4575245976448059,-0.40132665634155273,1.5992745161056519
1789323457551458300,6.094458251953125,0.4282039403915405,-0.4190412163734436,1.2888877391815186
1789323457570308600,6.11330859375,0.42392799258232117,-0.17286977171897888,0.9400939345359802
1789323457589159000,6.132158935546875,0.3261924386024475,-0.08124268800020218,0.6572716236114502
1789323457608009200,6.15100927734375,0.15515519678592682,0.10628741979598999,0.4324798583984375
1789323457626859800,6.16985986328125,0.042759306728839874,0.13621893525123596,0.3524588644504547
1789323457645710000,6.1887099609375,-0.012216945178806782,0.5479300022125244,0.07330167293548584
1789323457664560400,6.207560302734375,0.07085828483104706,0.605960488319397,-0.26816195249557495
1789323457683410700,6.22641064453125,0.1710372269153595,0.7757760286331177,-0.6090146899223328
1789323457702261000,6.245260986328125,0.05986303091049194,0.7061394453048706,-0.9969027042388916
1789323457721111300,6.264111328125,-0.14904673397541046,0.9022213816642761,-1.2717839479446411
1789323457739961900,6.2829619140625,-0.469741553068161,1.0317209959030151,-1.4966521263122559
1789323457758812200,6.301812255859375,-0.6994200944900513,0.9553651213645935,-1.6799063682556152
1789323457777662500,6.320662353515625,-0.9339854717254639,0.80937260389328,-1.8362832069396973
1789323457796512800,6.3395126953125,-1.0952491760253906,0.7690566778182983,-1.9694479703903198
1789323457815363000,6.358363037109375,-1.271173119544983,0.8026533126831055,-2.0690159797668457
1789323457834213400,6.37721337890625,-1.295607089996338,0.42331716418266296,-2.0421388149261475
1789323457853064000,6.39606396484375,-1.4447301626205444,0.26938363909721375,-1.9248560667037964
1789323457871914200,6.414914306640625,-1.3273711204528809,0.0018325417768210173,-2.0745136737823486
1789323457890764500,6.4337646484375,-1.1630531549453735,-0.012216945178806782,-2.271817207336426
1789323457909614800,6.45261474609375,-1.0598199367523193,-0.4953971207141876,-2.194850444793701
1789323457928465200,6.471465087890625,-1.0451596975326538,-0.6511631608009338,-2.0855088233947754
1789323457947315500,6.4903154296875,-0.8747332692146301,-0.8643488883972168,-2.125213861465454
1789323457966165800,6.509165771484375,-0.5980194807052612,-0.8655705451965332,-2.3322911262512207
1789323457985016000,6.52801611328125,-0.3365768492221832,-0.731184184551239,-2.1575889587402344
1789323458003866400,6.546866455078125,-0.22784602642059326,-0.27121618390083313,-1.867436408996582
1789323458022717000,6.565717041015625,-0.11972606182098389,-0.16676130890846252,-1.6267626285552979
1789323458041567200,6.584567138671875,-0.046424392610788345,-0.21929416060447693,-1.4349565505981445
1789323458060417500,6.60341748046875,0.12888877093791962,-0.24433889985084534,-1.031110167503357
1789323458079267800,6.622267822265625,0.24433889985084534,-0.10811996459960938,-0.4721849262714386
1789323458098118100,6.6411181640625,0.36101073026657104,0.12278030067682266,-0.008551862090826035
1789323458116968400,6.659968505859375,0.46546560525894165,0.1985253542661667,0.3958290219306946
1789323458135818800,6.67881884765625,0.550373375415802,-0.012216945178806782,0.6193991303443909
1789323458154669000,6.6976689453125,0.474017471075058,-0.12644538283348083,0.9688037633895874
1789323458173519600,6.71651953125,0.46485477685928345,0.22906772792339325,1.2045907974243164
1789323458192370000,6.735369873046875,0.47585001587867737,0.29503923654556274,1.2369656562805176
1789323458211220200,6.75422021484375,0.38605546951293945,0.2211267054080963,1.0396620035171509
1789323458230070500,6.773070556640625,0.22051586210727692,-0.006108472589403391,1.136786699295044
1789323458248920800,6.7919208984375,0.1966928243637085,0.19913621246814728,1.3384426832199097
1789323458267771100,6.810771240234375,0.24006296694278717,0.15454435348510742,1.4642772674560547
1789323458286621400,6.829621337890625,0.14171656966209412,0.15943112969398499,1.5210859775543213
1789323458305471700,6.8484716796875,0.07330167293548584,0.09712471067905426,1.646309733390808
1789323458324322000,6.867322021484375,0.20707722008228302,0.33291175961494446,1.7984106540679932
1789323458343172600,6.886172607421875,0.43797749280929565,0.27854636311531067,1.802075743675232
1789323458362023000,6.90502294921875,0.6218425035476685,0.03542914241552353,1.7593164443969727
1789323458380873200,6.923873291015625,0.6994200944900513,-0.03665083646774292,1.7953563928604126
1789323458399723500,6.9427236328125,0.7562289237976074,-0.25350162386894226,1.9462357759475708
1789323458418573800,6.96157373046875,0.8411366939544678,-0.21318569779396057,2.1026127338409424
1789323458437424000,6.980424072265625,0.8307522535324097,-0.6407787799835205,2.1753034591674805
1789323458456274400,6.9992744140625,0.7324058413505554,-0.6450546979904175,2.0244240760803223
1789323458475124700,7.018124755859375,0.6230642199516296,-0.9138274788856506,1.9327970743179321
1789323458493975000,7.03697509765625,0.4318690001964569,-0.9651386737823486,1.8423917293548584
1789323458512825600,7.05582568359375,0.208298921585083,-0.9278770089149475,1.6951775550842285
1789323458531676000,7.074676025390625,0.21379654109477997,-0.6169557571411133,1.6469205617904663
1789323458550526200,7.093526123046875,0.5167768001556396,-0.2864873707294464,1.5821707248687744
1789323458569376500,7.11237646484375,0.6572716236114502,-0.4618005156517029,1.0836430788040161
1789323458588226800,7.131226806640625,0.5112791657447815,0.020157959312200546,0.7098045349121094
1789323458607077000,7.1500771484375,0.2504473626613617,0.1435490995645523,0.5344913601875305
1789323458625927400,7.168927490234375,0.07207997888326645,0.18936264514923096,0.4214846193790436
1789323458644777700,7.18777783203125,0.05008947476744652,0.20035789906978607,0.12400199472904205
1789323458663628000,7.2066279296875,0.024433890357613564,0.43736663460731506,-0.2101314514875412
1789323458682478300,7.225478271484375,-0.022601349279284477,0.6139014959335327,-0.5161659121513367
1789323458701328600,7.24432861328125,-0.15087927877902985,0.7501204609870911,-0.8991671800613403
1789323458720179200,7.26317919921875,-0.26877278089523315,0.8783983588218689,-1.2131426334381104
1789323458739029500,7.282029541015625,-0.3701734244823456,0.869235634803772,-1.5284161567687988
1789323458757879800,7.3008798828125,-0.5509842038154602,1.1563338041305542,-1.7519862651824951
1789323458776730000,7.319730224609375,-0.7501204609870911,1.1435060501098633,-1.92363440990448
1789323458795580400,7.338580322265625,-0.9370396733283997,0.9309312105178833,-2.078789472579956
1789323458814430700,7.3574306640625,-1.220472812652588,0.41354358196258545,-1.9865516424179077
1789323458833281000,7.376281005859375,-1.3586006164550781,0.53143709897995,-2.1386525630950928
1789323458852131300,7.39513134765625,-1.3616548776626587,0.6236750483512878,-2.2486050128936768
1789323458870981600,7.413981689453125,-1.3885321617126465,0.3133646547794342,-2.211954355239868
1789323458889832000,7.43283203125,-1.2949961423873901,-0.15271180868148804,-2.4037604331970215
1789323458908682200,7.45168212890625,-1.111131191253662,-0.45324867963790894,-2.5747976303100586
1789323458927532500,7.470532470703125,-0.8802309036254883,-0.6859814524650574,-2.4434654712677
1789323458946382800,7.4893828125,-0.6737645268440247,-0.5497625470161438,-2.2650980949401855
1789323458965233200,7.508233154296875,-0.5222744345664978,-0.5888567566871643,-2.1661407947540283
1789323458984083500,7.52708349609375,-0.4813476502895355,-0.5198310017585754,-2.0659618377685547
1789323459002933800,7.545933837890625,-0.3665083646774292,-0.5125008225440979,-1.8118493556976318
1789323459021784000,7.5647841796875,-0.08551861345767975,-0.2522799074649811,-1.456336259841919
1789323459040634400,7.58363427734375,0.18019993603229523,-0.10873081535100937,-1.1648857593536377
1789323459059485000,7.60248486328125,0.46485477685928345,-0.025655584409832954,-0.7684458494186401
1789323459078335200,7.621335205078125,0.35795649886131287,-0.2339545041322708,-0.15454435348510742
1789323459097185500,7.640185546875,0.2754921019077301,-0.01954711228609085,0.2608317732810974
1789323459116035800,7.659035888671875,0.19119518995285034,0.0006108472589403391,0.3298575282096863
1789323459134886100,7.67788623046875,0.15393351018428802,0.16309621930122375,0.47646087408065796
1789323459153736400,7.696736328125,0.11300674080848694,-0.06047387793660164,0.8197570443153381
1789323459172586800,7.715586669921875,0.2504473626613617,0.312142938375473,1.0201148986816406
1789323459191437000,7.73443701171875,0.37506023049354553,0.5076140761375427,0.8802309036254883
1789323459210287400,7.753287353515625,0.32069480419158936,0.31092125177383423,0.7708892226219177
1789323459229137700,7.7721376953125,0.10384403169155121,-0.17775654792785645,1.0164498090744019
1789323459247988000,7.790988037109375,0.1429382562637329,-0.13621893525123596,1.4325132369995117
1789323459266838300,7.80983837890625,0.3823903799057007,0.1704263836145401,1.405635952949524
1789323459285688600,7.8286884765625,0.3958290219306946,0.24006296694278717,1.3500487804412842
1789323459304539000,7.847538818359375,0.40132665634155273,0.1447708010673523,1.5198643207550049
1789323459323389200,7.86638916015625,0.5277720093727112,0.2632751762866974,1.7147246599197388
1789323459342239500,7.885239501953125,0.6139014959335327,0.43919917941093445,1.733049988746643
1789323459361089800,7.90408984375,0.6029062271118164,0.26632940769195557,1.7910804748535156
1789323459379940000,7.922940185546875,0.6603258848190308,0.22479179501533508,1.9804431200027466
1789323459398790400,7.941790283203125,0.8600729703903198,-0.15271180868148804,2.229058027267456
1789323459417640700,7.960640625,1.0262234210968018,-0.40010493993759155,2.362222671508789
1789323459436491000,7.979490966796875,0.9303203821182251,-0.3396310806274414,2.1905746459960938
1789323459455341300,7.99834130859375,0.6603258848190308,-0.37506023049354553,2.0415279865264893
1789323459474191600,8.017191650390625,0.4062134325504303,-0.7727217674255371,2.2504377365112305
1789323459493042000,8.0360419921875,0.46607646346092224,-1.0518789291381836,2.2076783180236816
1789323459511892200,8.054892333984375,0.656660795211792,-0.6395570635795593,1.877210021018982
1789323459530742500,8.073742431640625,0.4489727318286896,-0.41476529836654663,1.5033714771270752
1789323459559018000,8.10201806640625,0.16065283119678497,-0.08857285231351852,1.1496145725250244
1789323459577868300,8.120868408203124,0.1820324808359146,-0.11056335270404816,0.5283828973770142
1789323459596718600,8.139718505859374,0.08979454636573792,0.1844758689403534,0.16370706260204315
1789323459615569000,8.15856884765625,-0.12278030067682266,0.17409147322177887,0.03237490355968475
1789323459634419200,8.177419189453126,-0.36039987206459045,0.40254834294319153,-0.03176405653357506
1789323459653269500,8.19626953125,-0.34635040163993835,0.4049917459487915,-0.33535513281822205
1789323459672119800,8.215119873046875,-0.3365768492221832,0.4844018816947937,-0.7085828185081482
1789323459690970000,8.23397021484375,-0.3243598937988281,0.30847787857055664,-0.975523054599762
1789323459709820400,8.2528203125,-0.3695625960826874,0.5479300022125244,-1.2693406343460083
1789323459728670700,8.271670654296875,-0.5796940326690674,0.6114581227302551,-1.4483952522277832
1789323459747521000,8.29052099609375,-0.7537854909896851,0.8124268651008606,-1.5785056352615356
1789323459766371300,8.309371337890624,-0.9223793745040894,1.012784719467163,-1.723887324333191
1789323459785221600,8.3282216796875,-1.035386085510254,0.6139014959335327,-1.7965781688690186
1789323459804072000,8.347072021484376,-1.203369140625,0.8118160367012024,-1.8747665882110596
1789323459822922200,8.365922119140626,-1.2278029918670654,0.6963658928871155,-1.9706696271896362
1789323459841772500,8.3847724609375,-1.3212625980377197,0.70308518409729,-1.8943136930465698
1789323459860622600,8.40362255859375,-1.2644537687301636,0.29626092314720154,-1.951122522354126
1789323459879473200,8.42247314453125,-1.1013575792312622,-0.09345962852239609,-2.1288790702819824
1789323459898323500,8.441323486328125,-1.0567657947540283,-0.16004198789596558,-2.2767040729522705
1789323459917173500,8.460173583984375,-0.9229902029037476,-0.5033381581306458,-2.2999162673950195
1789323459936023800,8.47902392578125,-0.6749862432479858,-0.420873761177063,-2.422085762023926
1789323459954874000,8.4978740234375,-0.49295374751091003,-0.21257483959197998,-2.5778517723083496
1789323459973724400,8.516724365234374,-0.40193748474121094,-0.5479300022125244,-2.1386525630950928
1789323459992574700,8.53557470703125,-0.22845686972141266,-0.05619794875383377,-1.5400222539901733
1789323460011425000,8.554425048828126,0.0910162404179573,0.3365768492221832,-1.376926064491272
1789323460030275300,8.573275390625,0.18814095854759216,0.30847787857055664,-1.248571753501892
1789323460049125600,8.592125732421875,0.09040539711713791,-0.0787992998957634,-0.7708892226219177
1789323460067976000,8.610975830078125,0.09895725548267365,-0.10078980028629303,-0.3304683566093445
1789323460086826200,8.629826171875,0.0922379344701767,0.13866232335567474,-0.15943112969398499
1789323460105676500,8.648676513671875,0.10078980028629303,-0.16187451779842377,0.006108472589403391
1789323460124526800,8.66752685546875,0.09468132257461548,-0.0024433890357613564,0.34451785683631897
1789323460143377200,8.686377197265625,0.1429382562637329,-0.10140064358711243,0.6731536984443665
1789323460162227500,8.7052275390625,0.22662433981895447,0.4422534108161926,0.8191461563110352
1789323460181077500,8.724077392578126,0.20646637678146362,0.1692046970129013,0.9266552925109863
1789323460199927800,8.742927734375,0.19058434665203094,0.07757759839296341,1.087918996810913
1789323460218778000,8.761778076171876,0.24250635504722595,0.3164188861846924,1.3059914112091064
1789323460237628400,8.78062841796875,0.35917818546295166,-0.01832541823387146,1.3744826316833496
1789323460256478700,8.799478759765625,0.4453076422214508,0.29626092314720154,1.2882769107818604
1789323460275329000,8.8183291015625,0.3921639323234558,0.18019993603229523,1.086086392402649
1789323460294179300,8.837179443359375,0.2999260127544403,0.48928865790367126,1.1709941625595093
1789323460313029600,8.856029541015625,0.20096874237060547,0.25777754187583923,1.5864466428756714
1789323460331880000,8.8748798828125,0.34573954343795776,0.08368607610464096,2.078178644180298
1789323460350730200,8.893730224609374,0.6682668924331665,-0.3573456406593323,2.3573360443115234
1789323460369580500,8.91258056640625,1.0256125926971436,-0.08735115826129913,2.2999162673950195
1789323460388430600,8.9314306640625,1.133732557296753,-0.01710372418165207,2.1465935707092285
1789323460407281000,8.950281005859376,0.9956810474395752,0.0006108472589403391,2.0708484649658203
1789323460426131200,8.969131103515625,0.8527427911758423,-0.18019993603229523,2.0763461589813232
1789323460444981500,8.9879814453125,0.754396378993988,-0.22784602642059326,2.098336696624756
1789323460463831800,9.006831787109375,0.5528167486190796,-0.6743753552436829,2.075124502182007
1789323460482682000,9.02568212890625,0.4220954477787018,-0.8637380003929138,1.8778208494186401
1789323460501532400,9.044532470703125,0.34635040163993835,-0.9272661209106445,1.690901517868042
1789323460520382700,9.0633828125,0.23945212364196777,-0.5601469278335571,1.5241402387619019
1789323460539232800,9.082232666015624,0.07757759839296341,-0.16309621930122375,1.3903647661209106
1789323460558083000,9.1010830078125,-0.07452336698770523,-0.2235700935125351,1.0763128995895386
1789323460576933400,9.119933349609376,-0.010995250195264816,-0.1325538605451584,0.7886037826538086
1789323460595783700,9.13878369140625,0.1704263836145401,0.4489727318286896,0.4471401870250702
1789323460614634000,9.157634033203125,0.15393351018428802,0.44103172421455383,0.33230090141296387
1789323460633484300,9.176484375,0.06352811306715012,0.16187451779842377,0.08796200156211853
1789323460652334600,9.19533447265625,-0.12888877093791962,-0.05008947476744652,-0.18142163753509521
1789323460671185000,9.214184814453125,-0.2748812735080719,-0.03787253051996231,-0.45508119463920593
1789323460690035000,9.233034912109375,-0.418430358171463,0.1435490995645523,-0.6920899152755737
1789323460708885200,9.25188525390625,-0.46363306045532227,0.25777754187583923,-0.8674030900001526
1789323460727735600,9.270735595703124,-0.5143333673477173,0.7666133046150208,-1.0219475030899048
1789323460746585900,9.2895859375,-0.6737645268440247,1.1618314981460571,-1.175881028175354
1789323460765436200,9.308436279296876,-0.7183563709259033,1.3427186012268066,-1.3659307956695557
1789323460784286500,9.327286376953126,-0.8075400590896606,1.4709964990615845,-1.6096588373184204
1789323460803136800,9.34613671875,-0.8619054555892944,1.2192511558532715,-1.7361042499542236
1789323460821986800,9.36498681640625,-0.9492566585540771,1.4300698041915894,-1.7996324300765991
1789323460840837000,9.383837158203125,-1.1966497898101807,1.064706802368164,-1.8368940353393555
1789323460859687400,9.4026875,-1.4221287965774536,0.39643988013267517,-1.951122522354126
1789323460878537700,9.421537841796875,-1.543076515197754,0.33169007301330566,-2.054966449737549
1789323460897388000,9.440387939453124,-1.5076473951339722,0.4159869849681854,-2.2479941844940186
1789323460925663200,9.468663330078124,-1.3249276876449585,0.1820324808359146,-2.280980110168457
1789323460944513500,9.487513427734376,-1.0573766231536865,-0.12583453953266144,-2.3719961643218994
1789323460963363800,9.50636376953125,-0.7183563709259033,-0.25350162386894226,-2.425750732421875
1789323460982214100,9.525214111328125,-0.6255075931549072,-0.05986303091049194,-2.0885632038116455
1789323461001064400,9.544064453125,-0.6084038615226746,0.06902574002742767,-1.7654249668121338
1789323461019914800,9.562914794921875,-0.5540384650230408,-0.062306419014930725,-1.4746615886688232
1789323461038764800,9.581764892578125,-0.34696123003959656,0.020157959312200546,-1.3041589260101318
1789323461057615000,9.600614990234375,-0.07085828483104706,-0.05986303091049194,-0.9950701594352722
1789323461076465400,9.61946533203125,0.12400199472904205,0.1820324808359146,-0.5894675850868225
1789323461095315700,9.638315673828124,0.28282228112220764,0.6389462351799011,-0.1582094430923462
1789323461114166000,9.657166015625,0.3671191930770874,0.5063923597335815,0.05008947476744652
1789323461133016000,9.67601611328125,0.31886225938796997,0.3787252902984619,0.33596599102020264
1789323461151866400,9.694866455078126,0.3035911023616791,0.5015056133270264,0.6035171151161194
1789323461170716700,9.713716552734375,0.2754921019077301,0.6829272508621216,0.6951441764831543
1789323461189567000,9.73256689453125,0.05864133685827255,0.6114581227302551,0.7849387526512146
1789323461208417000,9.7514169921875,0.014660334214568138,0.4960079789161682,0.9095515608787537
1789323461227267300,9.770267333984375,-0.01710372418165207,0.6859814524650574,1.1227372884750366
1789323461246117600,9.78911767578125,-0.0525328628718853,0.28221142292022705,1.23940908908844
1789323461264968000,9.807968017578125,-0.024433890357613564,0.3292466700077057,1.3182083368301392
1789323461283818200,9.826818359375,0.0030542362947016954,0.5509842038154602,1.3224843740463257
1789323461302668300,9.845668212890626,-0.006108472589403391,0.46546560525894165,1.3866996765136719
1789323461321518600,9.8645185546875,0.005497625097632408,0.4324798583984375,1.5907225608825684
1789323461340369000,9.883368896484376,0.0910162404179573,0.33291175961494446,1.7403801679611206
1789323461359219200,9.90221923828125,0.30603447556495667,0.26816195249557495,1.7941347360610962
1789323461378069200,9.9210693359375,0.45202696323394775,-0.15271180868148804,2.032365083694458
1789323461396919600,9.93991943359375,0.5283828973770142,-0.23090025782585144,2.1869094371795654
1789323461415769900,9.958769775390625,0.3939964771270752,-0.007941014133393764,2.1985156536102295
1789323461434620200,9.9776201171875,0.35795649886131287,-0.030542362481355667,2.3958191871643066
1789323461453470200,9.99647021484375,0.37322768568992615,-0.11178504675626755,2.7024645805358887
1789323461472320500,10.015320556640624,0.4819584786891937,-0.5515950918197632,2.6670355796813965
1789323461491170800,10.0341708984375,0.5430431962013245,-0.2852656841278076,2.2736499309539795
1789323461510021000,10.053021240234376,0.4214846193790436,-0.12827792763710022,1.8075734376907349
1789323461528871200,10.07187109375,0.4556920528411865,-0.11606097966432571,1.7751984596252441
1789323461547721500,10.090721435546875,0.5534276366233826,-0.4966188073158264,1.7941347360610962
1789323461566571800,10.10957177734375,0.3927747905254364,-0.6316160559654236,1.4862676858901978
1789323461585421800,10.128421875,0.1850867122411728,-0.6346703171730042,1.1709941625595093
1789323461604272000,10.147272216796875,-0.1429382562637329,-0.4563029110431671,0.9455915689468384
1789323461623122400,10.166122314453125,-0.3029802441596985,0.06963659077882767,0.5772506594657898
1789323461641972700,10.18497265625,-0.30786702036857605,0.3671191930770874,0.1313321590423584
1789323461660822800,10.20382275390625,-0.3640649616718292,0.9187142848968506,-0.09956810623407364
1789323461679673000,10.222673095703126,-0.38483378291130066,0.8496885299682617,-0.33718767762184143
1789323461698523400,10.2415234375,-0.2748812735080719,0.6603258848190308,-0.7366818189620972
1789323461717373700,10.260373779296875,-0.4214846193790436,0.569309651851654,-1.1942063570022583
1789323461736223700,10.2792236328125,-0.5955760478973389,0.6255075931549072,-1.2882769107818604
1789323461755074000,10.298073974609375,-1.1056334972381592,0.9559759497642517,-1.455114483833313
1789323461773924400,10.31692431640625,-1.262621283531189,0.9303203821182251,-1.4923762083053589
1789323461792774400,10.3357744140625,-1.1245697736740112,1.0378295183181763,-1.797799825668335
1789323461811624700,10.354624755859374,-1.309045672416687,0.8270871639251709,-1.8301746845245361
1789323461839900200,10.382900146484374,-1.4502277374267578,0.3671191930770874,-2.0189266204833984
1789323461858750200,10.401750244140626,-1.3200409412384033,0.9064973592758179,-2.246161699295044
1789323461877600500,10.4206005859375,-1.3653199672698975,0.6077930331230164,-2.2657089233398438
1789323461896450800,10.439450927734375,-1.3952515125274658,0.2522799074649811,-2.0922281742095947
1789323461915300900,10.45830078125,-1.4771050214767456,0.13438639044761658,-1.9816648960113525
1789323461934151200,10.477151123046875,-1.405635952949524,-0.30908870697021484,-2.069626808166504
1789323461953001500,10.49600146484375,-1.109298586845398,-0.5051707029342651,-1.9963252544403076
1789323461971851500,10.5148515625,-1.0549331903457642,-1.119683027267456,-1.9767780303955078
1789323461990701800,10.533701904296874,-0.9413156509399414,-1.155722975730896,-1.7568731307983398
1789323462009552100,10.55255224609375,0.2651077210903168,-0.4453076422214508,-1.580949068069458
1789323462028402200,10.571402099609376,1.6218758821487427,0.26877278089523315,-1.0793671607971191
1789323462047252500,10.59025244140625,1.2143644094467163,0.7702783942222595,0.2626643180847168
1789323462066102800,10.609102783203125,-0.2376195788383484,0.16004198789596558,0.05864133685827255
1789323462084952800,10.627952880859375,-0.17531315982341766,0.7244648337364197,0.33413344621658325
1789323462103803100,10.64680322265625,-0.130721315741539,1.2070342302322388,0.33230090141296387
1789323462122653400,10.6656533203125,0.5076140761375427,0.27060532569885254,1.8002432584762573
1789323462141503500,10.68450341796875,0.4190412163734436,-1.631649374961853,1.0384403467178345
1789323462160353800,10.703353759765625,0.208298921585083,-0.08002099394798279,0.3658975064754486
1789323462179204000,10.7222041015625,-0.32191649079322815,0.2767138183116913,0.6554391384124756
1789323462198054100,10.74105419921875,-0.4031592011451721,0.6236750483512878,0.9828532338142395
1789323462216904400,10.759904541015626,-0.21196399629116058,0.7000309824943542,1.243685007095337
1789323462235754500,10.77875439453125,-0.2522799074649811,0.0916270911693573,1.1728267669677734
1789323462254604800,10.797604736328125,-0.05741964280605316,-0.2999260127544403,0.6817055344581604
1789323462273455000,10.816455078125,0.24556060135364532,0.23151111602783203,0.9969027042388916
1789323462292305200,10.83530517578125,0.9907942414283752,-0.07635590434074402,0.8105943202972412
1789323462311155500,10.854155517578125,1.9767780303955078,-0.2877090573310852,0.8466343283653259
1789323462330005800,10.873005859375,2.750110626220703,-1.2882769107818604,1.6957883834838867
1789323462348855800,10.891855712890624,2.975513458251953,-2.128268241882324,2.5405900478363037
1789323462367706000,10.9107060546875,2.9016008377075195,-1.5271944999694824,1.91386079788208
1789323462386556200,10.92955615234375,2.915039539337158,-0.1844758689403534,1.1349542140960693
1789323462405406500,10.948406494140626,2.818525552749634,0.860683798789978,1.0573766231536865
1789323462424256500,10.967256591796875,3.5875823497772217,1.908974051475525,1.0347752571105957
1789323462443106800,10.98610693359375,4.438569068908691,-0.6792621612548828,1.3702067136764526
1789323462461957000,11.00495703125,4.5692901611328125,-0.09834641218185425,0.938872218132019
1789323462480807200,11.02380712890625,4.571122646331787,1.032942771911621,-0.37689274549484253
1789323462499657500,11.042657470703125,4.604719161987305,2.9944496154785156,-1.5394114255905151
1789323462518507500,11.061507568359374,2.5802950859069824,5.282148838043213,-1.5278053283691406
1789323462537357800,11.08035791015625,2.075735330581665,1.9816648960113525,-1.4166311025619507
1789323462556208000,11.0992080078125,1.7648141384124756,2.6438233852386475,-1.808184266090393
1789323462575058200,11.11805810546875,0.8515210747718811,5.441580295562744,-3.018883466720581
1789323462593908500,11.136908447265625,0.03176405653357506,7.815408706665039,-3.2406210899353027
1789323462612758500,11.155758544921875,-0.1044548824429512,1.659137487411499,0.06047387793660164
1789323462631608800,11.17460888671875,0.1178935244679451,-1.734271764755249,0.7403468489646912
1789323462650459000,11.193458984375,0.6053496599197388,-3.3505735397338867,0.03542914241552353
1789323462669309200,11.21230908203125,1.3549355268478394,-3.9540905952453613,-0.1178935244679451
1789323462688159500,11.231159423828124,2.1093318462371826,-2.3628334999084473,-0.3268032968044281
1789323462707009500,11.250009521484374,1.3702067136764526,-1.3549355268478394,-0.9321529269218445
1789323462725859800,11.26885986328125,0.1447708010673523,-4.128869533538818,-0.8423583507537842
1789323462744710000,11.2877099609375,-0.16309621930122375,-4.6908488273620605,-0.7250757217407227
1789323462763560200,11.306560302734376,-0.2522799074649811,-2.760495185852051,-0.20219044387340546
1789323462782410200,11.32541015625,-0.12400199472904205,-2.3597793579101562,0.624285876750946
1789323462801260500,11.344260498046875,0.4569137394428253,-1.7855829000473022,1.4349565505981445
1789323462829535700,11.37253564453125,1.1019684076309204,-1.1245697736740112,1.9902167320251465
1789323462867236000,11.410236083984374,0.8759549856185913,-1.5082582235336304,2.720790147781372
1789323462886086400,11.42908642578125,-0.01954711228609085,-0.7214106321334839,3.229625701904297
1789323462904936400,11.4479365234375,-0.8429692387580872,0.8900044560432434,3.648667097091675
1789323462923786800,11.466786865234376,-1.0494356155395508,2.0684051513671875,4.086720943450928
1789323462942636800,11.48563671875,-0.8478559851646423,2.549752712249756,4.290743827819824
1789323462961487000,11.504487060546875,-1.3011046648025513,2.0567991733551025,4.707952499389648
1789323462980337200,11.523337158203125,-2.2131760120391846,-0.11911521852016449,3.7280771732330322
1789323462999187500,11.5421875,-2.665813684463501,-1.4636664390563965,3.046982526779175
1789323463018037500,11.56103759765625,-2.868004322052002,-2.2999162673950195,2.434302568435669
1789323463036887800,11.5798876953125,-2.365277051925659,-2.86556077003479,1.8301746845245361
1789323463055737900,11.59873779296875,-1.2516260147094727,-3.5576508045196533,1.612713098526001
1789323463074588200,11.617588134765626,-0.6615476012229919,-4.215609550476074,1.5229185819625854
1789323463093438200,11.636438232421876,-0.6456655263900757,-4.833786964416504,1.9211909770965576
1789323463112288500,11.65528857421875,-0.6022953987121582,-5.327962398529053,2.593733787536621
1789323463131138600,11.674138671875,-1.0323318243026733,-4.593113422393799,2.5076043605804443
1789323463149988900,11.69298876953125,-1.9126391410827637,-3.7628955841064453,0.3292466700077057
1789323463168839000,11.7118388671875,-1.2742273807525635,-2.4569039344787598,-0.3396310806274414
1789323463187689000,11.73068896484375,-0.6169557571411133,-1.9816648960113525,-0.4446968138217926
1789323463206539300,11.749539306640624,-0.8472451567649841,-1.8326181173324585,-0.23212195932865143
1789323463225389300,11.768389404296874,-1.345162034034729,-1.987162470817566,0.08979454636573792
1789323463244239600,11.787239501953126,-1.6811280250549316,-2.4495737552642822,0.5082249045372009
1789323463263089700,11.806089599609376,-1.4935978651046753,-2.393375873565674,0.8081509470939636
1789323463281940000,11.82493994140625,-0.846023440361023,-1.5644562244415283,0.9052756428718567
1789323463300790000,11.8437900390625,-0.1582094430923462,-1.0549331903457642,0.9168817400932312
1789323463319640300,11.862640380859375,0.0006108472589403391,-1.009730577468872,1.0469921827316284
1789323463338490400,11.881490478515625,-0.20219044387340546,-0.7470661997795105,1.111131191253662
1789323463357340700,11.900340576171875,-0.3939964771270752,-0.6181774139404297,1.0017894506454468
1789323463376190700,11.919190673828124,-0.3970507085323334,-0.9077190160751343,0.9468132257461548
1789323463395040800,11.938040771484374,-0.1966928243637085,-0.8466343283653259,0.7666133046150208
1789323463413891000,11.95689111328125,0.17286977171897888,0.22540263831615448,0.45385950803756714
1789323463432741000,11.9757412109375,0.5619794726371765,1.2412415742874146,0.21318569779396057
1789323463451591400,11.99459130859375,0.4599680006504059,1.0805888175964355,0.4434750974178314
1789323463470441500,12.01344140625,-0.24372805655002594,0.2779355049133301,0.08002099394798279
1789323463489291800,12.032291748046875,-0.5296045541763306,0.39766156673431396,-0.023823043331503868
1789323463508141800,12.051141845703125,-0.10873081535100937,-0.17714570462703705,0.05803048983216286
1789323463526992000,12.069991943359375,0.1588202863931656,0.21990501880645752,-0.051922015845775604
1789323463545842200,12.08884228515625,0.07146912813186646,0.7623373866081238,-0.3133646547794342
1789323463564692200,12.107692138671876,-0.13988402485847473,-0.18691925704479218,-0.5888567566871643
1789323463583542500,12.12654248046875,-0.0024433890357613564,-0.5143333673477173,-0.21868331730365753
1789323463602392600,12.145392578125,0.17592400312423706,-0.3958290219306946,0.1588202863931656
1789323463621243000,12.164242919921875,0.08307522535324097,-0.3158080279827118,0.42331716418266296
1789323463649518000,12.19251806640625,-0.12094775587320328,-0.5241069197654724,0.629172682762146
1789323463668368100,12.2113681640625,-0.2101314514875412,-0.5143333673477173,0.3921639323234558
1789323463687218200,12.23021826171875,-0.1429382562637329,-0.35917818546295166,-0.0390942245721817
1789323463706068500,12.249068359375,-0.09345962852239609,-0.2651077210903168,-0.39949411153793335
1789323463724918500,12.26791845703125,-0.15149012207984924,-0.21746163070201874,-0.497229665517807
1789323463743768800,12.286768798828126,-0.36223241686820984,-0.30725616216659546,-0.7330167293548584
1789323463762619000,12.305618896484376,-0.39827242493629456,-0.15454435348510742,-0.8790091872215271
1789323463781469000,12.324468994140625,0.07207997888326645,-0.11300674080848694,-0.7592831254005432
1789323463800319200,12.3433193359375,0.19241689145565033,-0.4459185004234314,-0.44103172421455383
1789323463828594400,12.371594482421875,-0.2473931461572647,-0.04092676565051079,-0.28037887811660767
1789323463847444500,12.390444580078125,-0.4318690001964569,-0.08002099394798279,-0.21379654109477997
1789323463866294800,12.409294677734374,-0.42881476879119873,0.007941014133393764,-0.15515519678592682
1789323463885144800,12.428144775390624,-0.30786702036857605,0.45385950803756714,-0.4355340898036957
1789323463903995000,12.446994873046876,-0.3799470067024231,0.569309651851654,-0.6963658928871155
1789323463922845200,12.46584521484375,-0.5509842038154602,0.7085828185081482,-0.5601469278335571
1789323463941695200,12.4846953125,-0.6474980711936951,0.660936713218689,-0.04703523963689804
1789323463960545300,12.503545166015625,-0.5399889945983887,0.1569877415895462,0.5864133834838867
1789323463979395600,12.5223955078125,-0.16615045070648193,0.129499614238739,1.0598199367523193
1789323463998245600,12.54124560546875,0.34879377484321594,0.23884128034114838,1.0811996459960938
1789323464017095700,12.560095703125,0.41048935055732727,0.3292466700077057,0.6890357136726379
1789323464035946000,12.578946044921874,0.3170297145843506,0.3158080279827118,0.41293275356292725
1789323464054796000,12.597796142578124,0.258999228477478,0.38605546951293945,0.3005368411540985
1789323464073646300,12.616646240234376,0.2217375487089157,0.6157340407371521,0.30786702036857605
1789323464092496400,12.635496337890626,0.24433889985084534,0.8612946271896362,0.3671191930770874
1789323464111346400,12.654346435546875,0.265718549489975,0.8014315962791443,0.5680879354476929
1789323464130196700,12.67319677734375,0.17958909273147583,0.5766398310661316,0.837471604347229
1789323464149046800,12.692046875,0.09040539711713791,0.3823903799057007,0.841747522354126
1789323464167896800,12.710896728515625,0.16676130890846252,0.1710372269153595,0.6499415040016174
1789323464186747100,12.7297470703125,0.3127537965774536,0.051922015845775604,0.5296045541763306
1789323464205597200,12.74859716796875,0.3035911023616791,-0.011606098152697086,0.5265503525733948
1789323464224447200,12.767447265625,0.2241809368133545,0.07146912813186646,0.46302223205566406
1789323464243297500,12.786297607421876,0.21929416060447693,0.1960819661617279,0.314586341381073
1789323464262147600,12.805147705078125,0.13682979345321655,0.08612946420907974,0.27060532569885254
1789323464280997600,12.82399755859375,0.06963659077882767,-0.03787253051996231,0.2217375487089157
1789323464299848000,12.842847900390625,0.04581354558467865,-0.1459924876689911,0.12400199472904205
1789323464318698000,12.861697998046875,0.05497625470161438,-0.16676130890846252,0.12216944992542267
1789323464337548000,12.880548095703125,0.04092676565051079,-0.1832541823387146,0.27060532569885254
1789323464356398300,12.8993984375,-0.00916270911693573,-0.0787992998957634,0.32374903559684753
1789323464375248400,12.918248291015624,0.023212196305394173,0.0916270911693573,0.17714570462703705
1789323464394098400,12.937098388671876,0.13927318155765533,0.18630841374397278,0.08551861345767975
1789323464412948700,12.95594873046875,0.15943112969398499,0.2217375487089157,0.12522368133068085
1789323464431798800,12.974798828125,0.09468132257461548,0.3292466700077057,0.16065283119678497
1789323464450648800,12.99364892578125,0.11972606182098389,0.37200596928596497,0.20768806338310242
1789323464469499100,13.0124990234375,0.21318569779396057,0.3029802441596985,0.3414636254310608
1789323464488349200,13.03134912109375,0.1820324808359146,0.2877090573310852,0.4214846193790436
1789323464507199200,13.05019921875,0.06902574002742767,0.3921639323234558,0.3255815804004669
1789323464526049500,13.069049560546874,0.06047387793660164,0.45202696323394775,0.17225892841815948
1789323464544899600,13.087899658203124,0.11239589750766754,0.4086568057537079,0.08368607610464096
1789323464563749600,13.10674951171875,0.129499614238739,0.39827242493629456,0.007941014133393764
1789323464582599700,13.125599609375,0.06902574002742767,-0.062306419014930725,0.15149012207984924
1789323464601450000,13.144449951171875,-0.004886778071522713,-1.166107416152954,0.32252734899520874
1789323464620300000,13.163300048828125,-0.01710372418165207,-0.9761339426040649,0.20646637678146362
1789323464639150300,13.182150390625,-0.0787992998957634,-0.1985253542661667,-0.04703523963689804
1789323464658000400,13.20100048828125,-0.1185043677687645,0.2626643180847168,-0.314586341381073
1789323464676850400,13.219850341796874,-0.0659715011715889,0.1716480851173401,-0.3384093940258026
1789323464695700500,13.238700439453124,-0.0018325417768210173,-0.2895416021347046,-0.10934165865182877
1789323464733400800,13.27640087890625,0.1313321590423584,-0.4819584786891937,0.015271181240677834
1789323464752251000,13.2952509765625,0.21623992919921875,-0.25594499707221985,0.05375456064939499
1789323464771101000,13.314100830078125,0.3035911023616791,0.01832541823387146,0.1050657257437706
1789323464789951200,13.332951171875,0.33291175961494446,0.12216944992542267,0.1710372269153595
1789323464808801300,13.35180126953125,0.28098973631858826,-0.0024433890357613564,0.23334364593029022
1789323464827651300,13.3706513671875,0.20585553348064423,-0.05986303091049194,0.2113531529903412
1789323464846501600,13.389501708984374,0.182643324136734,0.1172826737165451,0.036039989441633224
1789323464865351700,13.4083515625,0.25533416867256165,0.2724378705024719,-0.19058434665203094
1789323464884201700,13.42720166015625,0.30969956517219543,0.26877278089523315,-0.22845686972141266
1789323464903052000,13.446052001953126,0.24067382514476776,0.22601348161697388,-0.09529217332601547
1789323464921902000,13.464902099609375,0.1557660549879074,-0.09284878522157669,0.043981000781059265
1789323464940752100,13.483752197265625,0.18142163753509521,-0.4984513521194458,0.018936265259981155
1789323464959602200,13.502602294921875,0.29503923654556274,-0.6090146899223328,0.04092676565051079
1789323464978452500,13.521452392578125,0.38422292470932007,-0.497229665517807,0.1423274129629135
1789323464997302500,13.540302490234374,0.42453885078430176,-0.09956810623407364,0.13805148005485535
1789323465016152600,13.559152587890624,0.45202696323394775,0.21868331730365753,0.025655584409832954
1789323465035003000,13.5780029296875,0.4214846193790436,0.1979145109653473,0.022601349279284477
1789323465053853000,13.59685302734375,0.36223241686820984,-0.14110571146011353,0.13377554714679718
1789323465072703000,13.615702880859375,0.30664533376693726,-0.26694026589393616,0.13744063675403595
1789323465091553000,13.634552978515625,0.21379654109477997,0.06169557198882103,0.030542362481355667
1789323465110403300,13.6534033203125,0.15393351018428802,0.5253286361694336,-0.06291726976633072
1789323465129253400,13.67225341796875,0.19241689145565033,0.6554391384124756,-0.04459185153245926
1789323465148103400,13.691103515625,0.29320669174194336,0.5601469278335571,0.09834641218185425
1789323465166953500,13.709953369140624,0.3958290219306946,0.5155550837516785,0.21929416060447693
1789323465185803800,13.7288037109375,0.45202696323394775,0.5002838969230652,0.16737215220928192
1789323465204653800,13.74765380859375,0.3555130958557129,0.47768256068229675,0.05619794875383377
1789323465223504000,13.76650390625,0.20463383197784424,0.45202696323394775,0.03176405653357506
1789323465242354000,13.78535400390625,0.23028941452503204,0.48012593388557434,0.09345962852239609
1789323465261204200,13.804204345703125,0.3518480062484741,0.4422534108161926,0.1966928243637085
1789323465289479200,13.832479248046875,0.33291175961494446,0.5216635465621948,0.27976804971694946
1789323465308329500,13.85132958984375,0.1704263836145401,0.7134696245193481,0.1172826737165451
1789323465327179500,13.870179443359374,0.0012216945178806782,0.712247908115387,-0.08368607610464096
1789323465346029600,13.889029541015624,-0.08979454636573792,0.37078428268432617,-0.11178504675626755
1789323465364880000,13.9078798828125,-0.08735115826129913,0.13866232335567474,-0.01832541823387146
1789323465383730000,13.92672998046875,0.004886778071522713,0.07391251623630524,0.03176405653357506
1789323465402580000,13.945580078125,0.05131116881966591,0.07085828483104706,0.0030542362947016954
1789323465421430000,13.964429931640625,0.01954711228609085,0.1820324808359146,-0.034818295389413834
1789323465440280000,13.983280029296875,-0.07146912813186646,0.3249707520008087,-0.12155860662460327
1789323465459130400,14.00213037109375,-0.0922379344701767,0.39643988013267517,-0.25594499707221985
1789323465477980400,14.02098046875,-0.023212196305394173,0.26816195249557495,-0.2510582208633423
1789323465496830500,14.03983056640625,-0.00916270911693573,0.05131116881966591,-0.05070032179355621
1789323465515680500,14.058680419921876,-0.07757759839296341,-0.5418215394020081,0.030542362481355667
1789323465534530800,14.07753076171875,-0.11117420345544815,-0.8344173431396484,-0.14721418917179108
1789323465553380900,14.096380859375,-0.11178504675626755,-0.5283828973770142,-0.34757208824157715
1789323465572231000,14.11523095703125,-0.024433890357613564,-0.13866232335567474,-0.40987852215766907
1789323465591081000,14.1340810546875,0.12705622613430023,0.07513421028852463,-0.3249707520008087
1789323465609931300,14.15293115234375,0.1582094430923462,-0.20035789906978607,-0.1979145109653473
1789323465628781300,14.17178125,0.08918370306491852,-0.836860716342926,-0.0024433890357613564
1789323465647631400,14.19063134765625,0.0012216945178806782,-1.2681188583374023,0.13377554714679718
1789323465666481400,14.2094814453125,-0.05619794875383377,-1.0537115335464478,0.07574506103992462
1789323465685331500,14.22833154296875,0.004886778071522713,-0.3390202224254608,-0.09468132257461548
1789323465704181800,14.247181640625,0.07696675509214401,0.1563768982887268,-0.11667182296514511
1789323465723031800,14.26603173828125,0.0012216945178806782,0.3939964771270752,-0.12644538283348083
1789323465741881900,14.2848818359375,-0.09284878522157669,0.38727715611457825,-0.20707722008228302
1789323465760732000,14.30373193359375,-0.07085828483104706,0.314586341381073,-0.22967857122421265
1789323465779582200,14.322582275390625,0.037261683493852615,0.29503923654556274,-0.17531315982341766
1789323465798432300,14.341432373046874,0.09529217332601547,0.3921639323234558,-0.07391251623630524
1789323465817282300,14.3602822265625,0.06169557198882103,0.4825693368911743,-0.021379653364419937
1789323465836132400,14.37913232421875,0.014660334214568138,0.446529358625412,-0.036039989441633224
1789323465854982400,14.397982421875,-0.0024433890357613564,0.2632751762866974,0
1789323465883257600,14.426257568359375,0.03298575058579445,0.11117420345544815,-0.04337015375494957
1789323465902107600,14.445107666015625,-0.09712471067905426,0.2736595869064331,-0.07757759839296341
1789323465920958000,14.4639580078125,-0.13927318155765533,0.4746283292770386,-0.11545012891292572
1789323465949233200,14.492233154296875,-0.0525328628718853,0.6041279435157776,-0.3176405727863312
1789323465968083200,14.511083251953124,-0.05925218388438225,0.6529957056045532,-0.3817795515060425
1789323465986933200,14.529933349609376,-0.05070032179355621,0.03237490355968475,-0.031153209507465363
1789323466005783300,14.548783203125,-0.01832541823387146,-0.5283828973770142,0.11483928561210632
1789323466024633300,14.56763330078125,0.023823043331503868,-0.07146912813186646,0.01710372418165207
1789323466043483600,14.586483642578125,-0.20035789906978607,0.33718767762184143,-0.1172826737165451
1789323466062333700,14.605333740234375,-0.2980934679508209,-0.02504473738372326,-0.1435490995645523
1789323466081183700,14.624183837890625,-0.2113531529903412,-0.8240329623222351,-0.11606097966432571
1789323466109459000,14.652458984375,-0.18875180184841156,-1.5992745161056519,-0.3139754831790924
1789323466128309000,14.67130908203125,-0.054365407675504684,-1.4990955591201782,-0.2113531529903412
1789323466156584200,14.699584228515626,0.12888877093791962,-0.9578084945678711,0.05925218388438225
1789323466175434200,14.718434326171876,0.0910162404179573,-0.554649293422699,0.07513421028852463
1789323466194284300,14.7372841796875,0.12094775587320328,-0.3170297145843506,0.10078980028629303
1789323466213134300,14.75613427734375,0.22723518311977386,-0.1563768982887268,0.18142163753509521
1789323466231984600,14.774984619140625,0.3261924386024475,0.004275931045413017,0.08063183724880219
1789323466250834700,14.793834716796875,0.3823903799057007,0.1429382562637329,-0.10262233763933182
1789323466269684700,14.812684814453124,0.3781144618988037,0.2583884000778198,-0.12461283802986145
1789323466288534800,14.83153466796875,0.29748260974884033,0.32313820719718933,0.0390942245721817
1789323466307384800,14.850384765625,0.24189551174640656,0.40010493993759155,0.16431790590286255
1789323466326235100,14.869235107421876,0.30847787857055664,0.5858024954795837,0.028098974376916885
1789323466345085200,14.888085205078125,0.474017471075058,0.8900044560432434,-0.1954711228609085
1789323466363935200,14.906935302734375,0.53143709897995,1.0702043771743774,-0.11483928561210632
1789323466382785300,14.925785400390625,0.3915531039237976,0.33596599102020264,0.3255815804004669
1789323466401635300,14.94463525390625,0.3683409094810486,-0.3805578351020813,0.28098973631858826
1789323466420485400,14.9634853515625,0.4844018816947937,-0.3799470067024231,0.27121618390083313
1789323466439335700,14.982335693359374,0.5955760478973389,0.08612946420907974,0.1325538605451584
1789323466458185700,15.001185791015626,0.5870242118835449,0.53143709897995,-0.11056335270404816
1789323466477035800,15.020035888671876,0.6071822047233582,0.8845068216323853,-0.1423274129629135
1789323466495885800,15.0388857421875,0.6047387719154358,0.5412106513977051,0.04337015375494957
1789323466514736000,15.057736083984375,0.7250757217407227,0.2217375487089157,0.3158080279827118
1789323466533586200,15.076586181640625,0.7831062078475952,0.29626092314720154,0.31886225938796997
1789323466552436200,15.095436279296875,0.7360709309577942,0.6749862432479858,0.1563768982887268
1789323466571286300,15.114286376953125,0.5583143830299377,0.8557969927787781,0.12888877093791962
1789323466590136300,15.13313623046875,0.3897205591201782,0.9150491952896118,0.2235700935125351
1789323466608986400,15.151986328125,0.42331716418266296,1.2461284399032593,0.18997350335121155
1789323466627836700,15.170836669921876,0.5234960913658142,1.52475106716156,0.01038440316915512
1789323466646686700,15.189686767578126,0.4886777997016907,1.2088667154312134,0.06413896381855011
1789323466665536800,15.208536865234375,0.3683409094810486,0.8069292306900024,0.3274141252040863
1789323466684386800,15.22738671875,0.3054236173629761,0.5247178077697754,0.38605546951293945
1789323466703236900,15.24623681640625,0.2779355049133301,0.3927747905254364,0.17470231652259827
1789323466722087200,15.265087158203125,0.25716668367385864,0.6071822047233582,-0.09040539711713791
1789323466740937200,15.283937255859374,0.2638860046863556,0.8472451567649841,-0.22540263831615448
1789323466759787300,15.302787353515624,0.18814095854759216,0.8472451567649841,-0.06352811306715012
1789323466788062500,15.3310625,-0.025655584409832954,-1.355546474456787,0.19241689145565033
1789323466806912500,15.34991259765625,0.05986303091049194,-1.1777135133743286,-0.006719320081174374
1789323466825762600,15.368762451171875,-0.0659715011715889,-0.10934165865182877,-0.08307522535324097
1789323466844612600,15.387612548828125,-0.13316470384597778,0.5638120174407959,-0.17714570462703705
1789323466863462700,15.406462646484375,-0.10262233763933182,0.16798299551010132,-0.30969956517219543
1789323466882313000,15.42531298828125,-0.028098974376916885,-0.7788302302360535,-0.25716668367385864
1789323466901163000,15.4441630859375,-0.042759306728839874,-1.3421077728271484,0.006719320081174374
1789323466920013000,15.463012939453124,-0.04947862774133682,-1.3439403772354126,0.053143709897994995
1789323466938863000,15.481863037109376,-0.04703523963689804,-0.939483106136322,-0.1569877415895462
1789323466957713400,15.50071337890625,-0.014049487188458443,-0.48928865790367126,-0.33718767762184143
1789323466976563500,15.5195634765625,-0.021990500390529633,-0.4453076422214508,-0.29748260974884033
1789323466995413500,15.53841357421875,-0.0781884491443634,-0.4049917459487915,-0.13438639044761658
1789323467014263600,15.557263671875,-0.11117420345544815,-0.5118899941444397,-0.03237490355968475
1789323467033113600,15.576113525390625,-0.13621893525123596,-0.48928865790367126,0.11545012891292572
1789323467051963600,15.594963623046874,-0.16370706260204315,-0.061084724962711334,0.21929416060447693
1789323467070814000,15.61381396484375,-0.12461283802986145,0.33352261781692505,0.09529217332601547
1789323467089664000,15.6326640625,0.01588202826678753,0.41537612676620483,-0.006108472589403391
1789323467108514000,15.65151416015625,0.09345962852239609,0.3298575282096863,0.20157960057258606
1789323467127364000,15.670364013671875,0.01038440316915512,0.33535513281822205,0.4330907166004181
1789323467146214400,15.68921435546875,-0.08124268800020218,0.37689274549484253,0.3689517378807068
1789323467165064400,15.708064453125,-0.129499614238739,0.24617144465446472,0.27060532569885254
1789323467183914500,15.72691455078125,-0.11667182296514511,0.1960819661617279,0.2504473626613617
1789323467202764500,15.7457646484375,-0.01038440316915512,0.37322768568992615,0.19119518995285034
1789323467221614600,15.764614501953124,0.08246438205242157,0.5772506594657898,0.1172826737165451
1789323467240464600,15.783464599609376,0.08002099394798279,0.7562289237976074,0.15515519678592682
1789323467259315000,15.80231494140625,-0.021990500390529633,0.5082249045372009,0.16065283119678497
1789323467287590000,15.83058984375,-0.1973036676645279,-0.033596597611904144,-0.2217375487089157
1789323467306440200,15.849440185546875,-0.28037887811660767,-0.1966928243637085,-0.2351761907339096
1789323467325290200,15.868290283203125,-0.17470231652259827,-0.1447708010673523,-0.17470231652259827
1789323467344140300,15.887140380859375,0.024433890357613564,0.004886778071522713,-0.1056765764951706
1789323467362990300,15.905990234375,0.03787253051996231,0.04581354558467865,-0.07269082218408585
1789323467381840600,15.924840576171874,0.01954711228609085,-0.2229592502117157,-0.03542914241552353
1789323467400690700,15.943690673828126,0.021990500390529633,0.10384403169155121,-0.04703523963689804
1789323467419540700,15.962540771484376,0.055587101727724075,0.4587462842464447,-0.06291726976633072
1789323467438390800,15.981390869140625,0.00916270911693573,0.3805578351020813,0.17409147322177887
1789323467457240800,16.00024072265625,0.09834641218185425,-0.053143709897994995,0.2241809368133545
1789323467476091000,16.0190908203125,0.10873081535100937,-0.27854636311531067,0.17592400312423706
1789323467494941200,16.037941162109377,-0.02870982140302658,-0.21196399629116058,0.1185043677687645
1789323467513791200,16.056791259765625,-0.06963659077882767,-0.0787992998957634,0.0647498071193695
1789323467532641300,16.075641357421876,-0.15515519678592682,-0.1050657257437706,0.018936265259981155
1789323467551491300,16.0944912109375,-0.23151111602783203,-0.15515519678592682,-0.0653606578707695
1789323467570341600,16.113341552734376,-0.24556060135364532,-0.23823043704032898,-0.26694026589393616
1789323467589191700,16.132191650390624,-0.2761029601097107,-0.26632940769195557,-0.5082249045372009
1789323467608041700,16.151041748046875,-0.3042019307613373,-0.288930743932724,-0.7959339618682861
1789323467626891800,16.169891845703123,-0.32130566239356995,-0.3658975064754486,-0.9883508682250977
1789323467645741800,16.188741943359375,-0.36284327507019043,-0.474017471075058,-0.9816315174102783
1789323467664592100,16.207592041015626,-0.38422292470932007,-0.578472375869751,-0.8203678727149963
1789323467683442200,16.226442138671874,-0.35795649886131287,-0.8576295375823975,-0.6536065936088562
1789323467702292200,16.245292236328126,-0.3310792148113251,-0.7947123050689697,-0.47768256068229675
1789323467721142300,16.264142333984374,-0.28343313932418823,-0.5540384650230408,-0.41537612676620483
1789323467739992600,16.28299267578125,-0.3365768492221832,-0.5405998229980469,-0.5277720093727112
1789323467758842600,16.301842529296874,-0.6878139972686768,-0.9614735841751099,-0.7043069005012512
1789323467777692700,16.320692626953125,-0.7507312893867493,-0.6169557571411133,-0.7446228265762329
1789323467796542700,16.339542724609377,-0.6994200944900513,-0.9553651213645935,-0.7495095729827881
1789323467815392800,16.358392822265625,-0.5595360994338989,-0.8478559851646423,-0.577861487865448
1789323467834243000,16.3772431640625,-0.27915719151496887,-0.38727715611457825,-0.4349232614040375
1789323467853093000,16.396093017578124,0.1172826737165451,-0.13744063675403595,-0.5760289430618286
1789323467871943200,16.414943115234376,0.3970507085323334,0.2498365342617035,-0.8148702383041382
1789323467890793200,16.433793212890624,0.44103172421455383,0.883895993232727,-0.9345963001251221
1789323467909643500,16.4526435546875,0.33413344621658325,1.49848473072052,-0.7934905886650085
1789323467928493600,16.47149365234375,0.11972606182098389,0.8845068216323853,-0.21257483959197998
1789323467947343600,16.490343505859375,0.0397050715982914,0.12766708433628082,-0.08429691940546036
1789323467966193700,16.509193603515627,-0.036039989441633224,0.16615045070648193,-0.26999449729919434
1789323467985043700,16.528043701171875,0.0781884491443634,0.684759795665741,-0.41048935055732727
1789323468003894000,16.54689404296875,0.13927318155765533,0.7366818189620972,-0.19119518995285034
1789323468022744000,16.565744140625,0.04886778071522713,0.18569757044315338,0.17775654792785645
1789323468041594000,16.584593994140626,-0.05925218388438225,-0.4355340898036957,0.5051707029342651
1789323468060444200,16.603444091796874,-0.05497625470161438,-0.8423583507537842,0.7226322889328003
1789323468079294500,16.62229443359375,0.03420744836330414,-0.7275190949440002,0.8386932611465454
1789323468098144500,16.64114453125,-0.017714571207761765,-0.37200596928596497,0.7965448498725891
1789323468116994600,16.65999462890625,-0.25594499707221985,0.07635590434074402,0.6438329815864563
1789323468135844600,16.6788447265625,-0.418430358171463,0.5112791657447815,0.4068242609500885
1789323468154695000,16.69769482421875,-0.45141613483428955,0.578472375869751,0.21318569779396057
1789323468173545000,16.716544921875,-0.3915531039237976,0.3274141252040863,0.2993151545524597
1789323468192395000,16.73539501953125,-0.32008397579193115,0.04581354558467865,0.4874561131000519
1789323468211245000,16.7542451171875,-0.3164188861846924,0.1178935244679451,0.40254834294319153
1789323468230095000,16.77309521484375,-0.284654825925827,0.39888325333595276,0.09834641218185425
1789323468248945400,16.7919453125,-0.3176405727863312,0.47890424728393555,-0.25594499707221985
1789323468267795500,16.81079541015625,-0.416597843170166,0.10017894953489304,-0.38849884271621704
1789323468286645500,16.8296455078125,-0.47707170248031616,-0.16859383881092072,-0.2742704153060913
1789323468305495800,16.848495849609375,-0.43614494800567627,-0.2235700935125351,-0.045202698558568954
1789323468324345900,16.867345947265626,-0.34879377484321594,-0.4159869849681854,0.17348061501979828
1789323468343196000,16.88619580078125,-0.3005368411540985,-0.7214106321334839,0.29626092314720154
1789323468362046000,16.9050458984375,-0.2522799074649811,-0.9730796813964844,0.3042019307613373
1789323468380896000,16.92389599609375,-0.13499724864959717,-1.0750911235809326,0.3567348122596741
1789323468399746300,16.942746337890625,-0.08674030750989914,-0.8496885299682617,0.5265503525733948
1789323468418596400,16.961596435546873,-0.14782503247261047,-0.20524467527866364,0.6310052275657654
1789323468437446400,16.9804462890625,-0.291374146938324,0.08796200156211853,0.5283828973770142
1789323468456296400,16.99929638671875,-0.4282039403915405,0.061084724962711334,0.3542914092540741
1789323468475146800,17.018146728515624,-0.48928865790367126,-0.05070032179355621,0.288930743932724
1789323468493996800,17.036996826171876,-0.48989951610565186,-0.18081079423427582,0.2241809368133545
1789323468512846800,17.055846923828124,-0.33230090141296387,-0.06047387793660164,0.07391251623630524
1789323468531697200,17.074697265625,-0.10262233763933182,0.3035911023616791,-0.0647498071193695
1789323468550547200,17.093547119140624,0.05070032179355621,0.5595360994338989,-0.08796200156211853
1789323468569397200,17.112397216796875,0.15087927877902985,0.5650337338447571,0.04459185153245926
1789323468588247300,17.131247314453127,0.1588202863931656,0.6212316751480103,0.27121618390083313
1789323468607097600,17.15009765625,0.12033691257238388,0.3286358118057251,0.4294256269931793
1789323468625947600,17.16894775390625,0.1319430023431778,0.07391251623630524,0.4691306948661804
1789323468644797700,17.187797607421874,0.11667182296514511,0.047646086663007736,0.3396310806274414
1789323468663647700,17.206647705078126,0.021990500390529633,0.07391251623630524,0.14660334587097168
1789323468682498000,17.225498046875,-0.06291726976633072,0.3035911023616791,-0.031153209507465363
1789323468701348000,17.24434814453125,-0.05131116881966591,0.5448757410049438,-0.16798299551010132
1789323468720198100,17.2631982421875,0.021379653364419937,0.503948986530304,-0.17592400312423706
1789323468739048200,17.282048095703125,0.05803048983216286,0.3164188861846924,-0.022601349279284477
1789323468757898500,17.3008984375,0.026877280324697495,0.08612946420907974,0.12461283802986145
1789323468776748500,17.31974853515625,0.021379653364419937,-0.21318569779396057,0.13499724864959717
1789323468795598600,17.3385986328125,0.004275931045413017,-0.5027272701263428,0.0647498071193695
1789323468814448600,17.35744873046875,-0.11606097966432571,-0.4990622103214264,0.013438640162348747
1789323468833299000,17.376298828125,-0.26755109429359436,-0.18936264514923096,-0.053143709897994995
1789323468852149000,17.39514892578125,-0.3261924386024475,0.05803048983216286,-0.10384403169155121
1789323468870999000,17.4139990234375,-0.27976804971694946,-0.0787992998957634,-0.04886778071522713
1789323468889849300,17.432849365234375,-0.1172826737165451,-0.29687178134918213,0.05925218388438225
1789323468908699400,17.451699462890623,0.024433890357613564,-0.3524588644504547,0.03176405653357506
1789323468936974600,17.479974609375,-0.022601349279284477,-0.3432961702346802,-0.20402298867702484
1789323468955824600,17.49882470703125,-0.1704263836145401,-0.31825143098831177,-0.2742704153060913
1789323468974674700,17.5176748046875,-0.21318569779396057,-0.35917818546295166,-0.23945212364196777
1789323468993525000,17.53652490234375,-0.09284878522157669,-0.39766156673431396,-0.08674030750989914
1789323469012375000,17.555375,0.01832541823387146,-0.48989951610565186,0.1056765764951706
1789323469031225000,17.57422509765625,-0.009773556143045425,-0.6743753552436829,0.24189551174640656
1789323469050075400,17.593075439453123,-0.12155860662460327,-0.8148702383041382,0.25533416867256165
1789323469068925400,17.611925537109375,-0.19974705576896667,-0.7036960124969482,0.18142163753509521
1789323469087775500,17.630775390625,-0.23945212364196777,-0.284654825925827,0.03665083646774292
1789323469106625500,17.64962548828125,-0.2211267054080963,0.07757759839296341,0.007330167107284069
1789323469125475800,17.668475830078126,-0.16676130890846252,0.12888877093791962,0.09590301662683487
1789323469144326000,17.687325927734374,-0.12094775587320328,0.07513421028852463,0.15515519678592682
1789323469163176000,17.706176025390626,-0.12033691257238388,0.02504473738372326,0.062306419014930725
1789323469182026200,17.725026123046874,-0.16370706260204315,-0.024433890357613564,-0.12033691257238388
1789323469200876300,17.743876220703125,-0.21807247400283813,-0.08185353130102158,-0.2510582208633423
1789323469219726300,17.762726318359373,-0.2492256760597229,-0.04886778071522713,-0.3139754831790924
1789323469238576600,17.78157666015625,-0.22784602642059326,-0.04886778071522713,-0.2583884000778198
1789323469257426700,17.8004267578125,-0.15393351018428802,-0.1692046970129013,-0.12400199472904205
1789323469276276700,17.81927685546875,-0.08612946420907974,-0.19180603325366974,-0.014660334214568138
1789323469295126800,17.838126708984376,-0.07635590434074402,-0.08490777015686035,-0.03665083646774292
1789323469313977000,17.85697705078125,-0.08063183724880219,-0.021379653364419937,-0.16492876410484314
1789323469332827100,17.8758271484375,-0.03542914241552353,-0.04031591862440109,-0.1979145109653473
1789323469351677200,17.89467724609375,0.033596597611904144,0.061084724962711334,-0.0653606578707695
1789323469370527500,17.913527587890623,0.03787253051996231,0.24067382514476776,0.1185043677687645
1789323469389377500,17.93237744140625,-0.0397050715982914,0.3512371778488159,0.16553960740566254
1789323469408227600,17.9512275390625,-0.0787992998957634,0.4092676639556885,0.08490777015686035
1789323469427078000,17.970077880859375,-0.033596597611904144,0.47707170248031616,-0.031153209507465363
1789323469445928000,17.988927978515626,0.06047387793660164,0.624285876750946,-0.20646637678146362
1789323469464778000,18.007778076171874,0.17286977171897888,0.7598940134048462,-0.29748260974884033
1789323469483628300,18.026628173828126,0.10384403169155121,0.2241809368133545,-0.028098974376916885
1789323469502478300,18.045478271484374,0.06047387793660164,-0.6065713167190552,-0.0781884491443634
1789323469521328400,18.064328369140625,-0.016492875292897224,-0.6126797795295715,-0.06169557198882103
1789323469540178700,18.0831787109375,-0.0390942245721817,-0.18691925704479218,0.11300674080848694
