time,seconds_elapsed,z,y,x
1789324444116101400,0.130101318359375,-0.09895725548267365,-0.1832541823387146,0.20463383197784424
1789324444134951200,0.148951171875,-0.25777754187583923,-0.5815265774726868,0.09284878522157669
1789324444153801200,0.16780126953125,-0.33596599102020264,-0.6151232123374939,0.13805148005485535
1789324444172651000,0.186651123046875,-0.2095206081867218,-0.3365768492221832,0.1692046970129013
1789324444191500800,0.205500732421875,-0.021379653364419937,-0.04337015375494957,0.12827792763710022
1789324444210350600,0.2243505859375,0.07330167293548584,0.04703523963689804,0.062306419014930725
1789324444229200600,0.24320068359375,0.16187451779842377,-0.1716480851173401,0.03420744836330414
1789324444248050400,0.262050537109375,0.237008735537529,-0.367730051279068,0.05008947476744652
1789324444266900200,0.280900146484375,0.30847787857055664,-0.2730487287044525,-0.053143709897994995
1789324444285750000,0.29975,0.314586341381073,-0.07269082218408585,-0.14110571146011353
1789324444304600000,0.31860009765625,0.420873761177063,-0.056808795779943466,-0.1185043677687645
1789324444323449900,0.337449951171875,0.4569137394428253,-0.10017894953489304,-0.05803048983216286
1789324444342299600,0.356299560546875,0.45324867963790894,0.0781884491443634,-0.03176405653357506
1789324444361149700,0.375149658203125,0.4080459773540497,0.18630841374397278,0.03298575058579445
1789324444379999500,0.39399951171875,0.3927747905254364,-0.16370706260204315,0.21990501880645752
1789324444398849300,0.412849365234375,0.4343124032020569,-0.005497625097632408,0.49112120270729065
1789324444417699300,0.43169921875,0.261442631483078,0.3414636254310608,0.5283828973770142
1789324444436549000,0.450549072265625,0.03787253051996231,0.15149012207984924,0.22967857122421265
1789324444455399000,0.46939892578125,0.0781884491443634,0.038483377546072006,0.04214845970273018
1789324444474249000,0.4882490234375,0.1973036676645279,0.27854636311531067,0.0653606578707695
1789324444493098800,0.5070986328125,0.1582094430923462,0.4282039403915405,0.056808795779943466
1789324444511948500,0.525948486328125,0.15515519678592682,0.6352811455726624,-0.013438640162348747
1789324444530798600,0.544798583984375,0.1563768982887268,0.6474980711936951,-0.024433890357613564
1789324444549648400,0.5636484375,0.07757759839296341,0.3029802441596985,0.04459185153245926
1789324444568498400,0.58249853515625,-0.0030542362947016954,0.023212196305394173,0.0794101431965828
1789324444587348200,0.60134814453125,0.012216945178806782,-0.07269082218408585,0.054365407675504684
1789324444606198000,0.620197998046875,0.07391251623630524,0.0794101431965828,-0.03665083646774292
1789324444625048000,0.639048095703125,0.13316470384597778,0.2229592502117157,-0.0922379344701767
1789324444643897900,0.65789794921875,0.11545012891292572,0.24067382514476776,-0.03787253051996231
1789324444662747600,0.67674755859375,0.036039989441633224,0.051922015845775604,-0.006719320081174374
1789324444681597700,0.69559765625,-0.0781884491443634,-0.08979454636573792,0.045202698558568954
1789324444700447500,0.714447509765625,-0.13499724864959717,-0.08246438205242157,0.2101314514875412
1789324444719297500,0.733297607421875,-0.11667182296514511,0.07085828483104706,0.32130566239356995
1789324444738147300,0.752147216796875,-0.1820324808359146,-0.03298575058579445,0.3127537965774536
1789324444756997400,0.770997314453125,-0.26816195249557495,-0.08490777015686035,0.17286977171897888
1789324444775847200,0.78984716796875,-0.2626643180847168,0.055587101727724075,0.08063183724880219
1789324444794697200,0.808697265625,-0.15515519678592682,0.030542362481355667,0.11117420345544815
1789324444813547000,0.827547119140625,-0.051922015845775604,0.01038440316915512,0.183865025639534
1789324444832397000,0.84639697265625,-0.024433890357613564,-0.0030542362947016954,0.09284878522157669
1789324444851246800,0.865246826171875,-0.14171656966209412,-0.11911521852016449,-0.01588202826678753
1789324444870097000,0.884096923828125,-0.24067382514476776,-0.2113531529903412,-0.05375456064939499
1789324444888946700,0.90294677734375,-0.1979145109653473,-0.1301104724407196,-0.04886778071522713
1789324444907796700,0.921796630859375,-0.10995250940322876,-0.01832541823387146,0.015271181240677834
1789324444926646500,0.940646484375,-0.08124268800020218,-0.01954711228609085,-0.02076880633831024
1789324444945496600,0.95949658203125,-0.12094775587320328,0.022601349279284477,-0.12827792763710022
1789324444964346400,0.978346435546875,-0.07269082218408585,0.22723518311977386,-0.1832541823387146
1789324444983196400,0.997196533203125,-0.0390942245721817,0.3665083646774292,-0.11911521852016449
1789324445002046200,1.016046142578125,0.0012216945178806782,0.3805578351020813,-0.0659715011715889
1789324445020896300,1.034896240234375,0.031153209507465363,0.3011476993560791,-0.14721418917179108
1789324445039746000,1.05374609375,-0.08246438205242157,0.182643324136734,-0.258999228477478
1789324445058596000,1.07259619140625,-0.13621893525123596,0.1569877415895462,-0.3005368411540985
1789324445077446000,1.09144580078125,-0.1056765764951706,0.1453816443681717,-0.17348061501979828
1789324445096296000,1.1102958984375,-0.04886778071522713,0.08612946420907974,-0.038483377546072006
1789324445115145700,1.129145751953125,-0.03237490355968475,-0.05925218388438225,0.04214845970273018
1789324445133995800,1.147995849609375,-0.09590301662683487,-0.04337015375494957,0.04459185153245926
1789324445152845600,1.166845458984375,-0.13316470384597778,0.08674030750989914,-0.11972606182098389
1789324445171695600,1.185695556640625,-0.07757759839296341,0.2895416021347046,-0.26694026589393616
1789324445190545700,1.204545654296875,0.01832541823387146,0.2987042963504791,-0.182643324136734
1789324445209395500,1.2233955078125,0.09651386737823486,0.24494975805282593,-0.01588202826678753
1789324445228245500,1.24224560546875,0.09895725548267365,-0.006719320081174374,0.07269082218408585
1789324445247095300,1.26109521484375,0.043981000781059265,-0.25594499707221985,0.10262233763933182
1789324445265945300,1.2799453125,-0.05803048983216286,-0.5338805317878723,0.11972606182098389
1789324445284795400,1.29879541015625,-0.13377554714679718,-0.5497625470161438,0.19180603325366974
1789324445303645200,1.317645263671875,-0.07452336698770523,-0.27854636311531067,0.16431790590286255
1789324445322495200,1.3364951171875,0.04153761267662048,0.04886778071522713,0.01710372418165207
1789324445341345300,1.35534521484375,0.1441599577665329,0.2480039894580841,-0.07085828483104706
1789324445360195000,1.374195068359375,0.14110571146011353,0.08551861345767975,-0.05497625470161438
1789324445379045000,1.393045166015625,-0.004886778071522713,-0.13866232335567474,0.05375456064939499
1789324445397895000,1.41189501953125,-0.08979454636573792,-0.17897824943065643,0.09040539711713791
1789324445416745000,1.430744873046875,-0.08002099394798279,-0.0787992998957634,0.05741964280605316
1789324445435595000,1.449594970703125,-0.055587101727724075,0.021379653364419937,-0.012827792204916477
1789324445454444800,1.46844482421875,-0.04092676565051079,-0.09712471067905426,-0.014049487188458443
1789324445473294800,1.487294921875,-0.08918370306491852,-0.4062134325504303,0.14721418917179108
1789324445492145000,1.506144775390625,-0.13682979345321655,-0.5320479869842529,0.2907632887363434
1789324445510994700,1.52499462890625,-0.06291726976633072,-0.4605788290500641,0.2113531529903412
1789324445529844700,1.5438447265625,-0.004886778071522713,-0.3035911023616791,-0.0018325417768210173
1789324445548694800,1.56269482421875,-0.015271181240677834,-0.1453816443681717,-0.1960819661617279
1789324445567544600,1.581544677734375,0.07391251623630524,0.04031591862440109,-0.27121618390083313
1789324445586394600,1.60039453125,0.10017894953489304,0.26999449729919434,-0.18691925704479218
1789324445605244700,1.61924462890625,0.07452336698770523,0.22845686972141266,-0.08796200156211853
1789324445624094500,1.638094482421875,0.1960819661617279,-0.1429382562637329,-0.18997350335121155
1789324445642944500,1.656944580078125,-0.022601349279284477,-0.34451785683631897,-0.1575985997915268
1789324445661794600,1.675794677734375,-0.04153761267662048,-0.4068242609500885,-0.12216944992542267
1789324445680644600,1.69464453125,0.0794101431965828,-0.34451785683631897,-0.12155860662460327
1789324445699494400,1.713494384765625,0.07269082218408585,-0.037261683493852615,-0.17897824943065643
1789324445718344400,1.732344482421875,0.05131116881966591,0.5760289430618286,-0.19974705576896667
1789324445737194500,1.751194580078125,-0.007330167107284069,0.9620844125747681,-0.1844758689403534
1789324445756044300,1.770044189453125,0.09468132257461548,1.3799803256988525,-0.09529217332601547
1789324445774894300,1.788894287109375,0.32008397579193115,2.026867628097534,0.15943112969398499
1789324445793744400,1.807744384765625,0.6389462351799011,2.6792523860931396,0.5570927262306213
1789324445812594400,1.826594482421875,0.971247136592865,2.2156193256378174,0.8429692387580872
1789324445831444200,1.8454443359375,1.3732609748840332,0.4966188073158264,1.0158389806747437
1789324445850294300,1.864294189453125,0.8955020904541016,-0.4703523814678192,0.5344913601875305
1789324445869144300,1.883144287109375,0.522885262966156,0.13438639044761658,-0.3017585575580597
1789324445887994400,1.901994384765625,0.92054682970047,0.8686248064041138,-0.8612946271896362
1789324445906844200,1.92084423828125,1.372650146484375,0.8448017835617065,-0.7678350210189819
1789324445925694200,1.939694091796875,1.3946406841278076,0.261442631483078,-0.021990500390529633
1789324445944544300,1.958544189453125,1.174659252166748,0.06963659077882767,0.3646758198738098
1789324445963394300,1.977394287109375,1.2125318050384521,0.5002838969230652,0
1789324445982244400,1.996244384765625,1.381201982498169,1.4923762083053589,-0.8948912620544434
1789324446001094100,2.01509423828125,1.5278053283691406,2.211954355239868,-2.0372519493103027
1789324446019944200,2.033944091796875,1.1318999528884888,2.171027421951294,-2.7042970657348633
1789324446038794200,2.052794189453125,0.36223241686820984,1.7018967866897583,-2.567467451095581
1789324446057644300,2.071644287109375,-0.25533416867256165,0.3689517378807068,-1.668911099433899
1789324446076494300,2.090494384765625,-0.5161659121513367,-0.7281299233436584,-0.9382613897323608
1789324446095344000,2.10934423828125,-0.5149442553520203,-1.0598199367523193,-0.7470661997795105
1789324446114194200,2.128194091796875,-0.5015056133270264,-0.48073679208755493,-1.037218689918518
1789324446133044200,2.147044189453125,-0.34818294644355774,0.5430431962013245,-1.7073944807052612
1789324446151894300,2.165894287109375,-0.07269082218408585,1.0946383476257324,-2.2101216316223145
1789324446170744300,2.184744384765625,0.11056335270404816,1.096470832824707,-2.477672815322876
1789324446189594400,2.203594482421875,0.08307522535324097,-0.28221142292022705,-2.4856138229370117
1789324446208444200,2.222444091796875,-0.1966928243637085,-1.8320072889328003,-2.0170938968658447
1789324446227294200,2.241294189453125,-0.3946073353290558,-1.5033714771270752,-2.043360471725464
1789324446246144300,2.260144287109375,-0.4715740978717804,-0.9920159578323364,-2.156367063522339
1789324446264994300,2.278994384765625,-0.735460102558136,-0.8038749694824219,-2.2253928184509277
1789324446283844400,2.29784423828125,-0.7873821258544922,-0.5961869359016418,-2.290142774581909
1789324446302694400,2.3166943359375,-0.7250757217407227,-0.4813476502895355,-2.3982627391815186
1789324446321544400,2.33554443359375,-0.763559103012085,-0.3530697226524353,-2.6389365196228027
1789324446340394500,2.35439453125,-0.9492566585540771,0.49417543411254883,-3.0311005115509033
1789324446359244300,2.373244384765625,-1.4074684381484985,1.3255385160446167,-3.1160082817077637
1789324446387519500,2.40151953125,-1.7727551460266113,2.836240291595459,-3.1697628498077393
1789324446415794400,2.42979443359375,-1.8778208494186401,3.6914262771606445,-2.8747236728668213
1789324446434644500,2.44864453125,-1.7086161375045776,3.8704044818878174,-3.2656657695770264
1789324446453494500,2.46749462890625,-1.419074535369873,3.839862108230591,-4.191786766052246
1789324446472344600,2.486344482421875,-1.2473500967025757,3.629730701446533,-4.474608898162842
1789324446491194600,2.505194580078125,-0.7183563709259033,4.275472640991211,-3.0671403408050537
1789324446510044700,2.524044677734375,-0.5222744345664978,4.883265495300293,-2.2388315200805664
1789324446528894700,2.542894775390625,-0.6395570635795593,3.342632532119751,-4.179569721221924
1789324446547744800,2.561744873046875,-0.1960819661617279,4.119706630706787,-2.530205726623535
1789324446566594800,2.5805947265625,-0.12827792763710022,3.3927221298217773,-1.0677610635757446
1789324446585444900,2.59944482421875,-0.24311721324920654,3.7812209129333496,-1.6829605102539062
1789324446604295000,2.618294921875,-0.31825143098831177,3.9278242588043213,-1.8582737445831299
1789324446623145000,2.63714501953125,0.0036650835536420345,3.2766611576080322,-1.6096588373184204
1789324446641995000,2.6559951171875,0.5192201733589172,1.7929130792617798,-0.9126058220863342
1789324446660844800,2.6748447265625,0.9620844125747681,0.3243598937988281,-0.12339114397764206
1789324446679694800,2.69369482421875,1.3714284896850586,-0.4074351191520691,0.29381752014160156
1789324446698545000,2.712544921875,1.683571457862854,-0.7287407517433167,0.48073679208755493
1789324446717395000,2.73139501953125,1.9126391410827637,-0.818535327911377,0.5082249045372009
1789324446736245000,2.750244873046875,1.9749455451965332,-1.1483927965164185,0.6578825116157532
1789324446755095000,2.769094970703125,1.7208330631256104,-1.0494356155395508,0.7317950129508972
1789324446773945300,2.7879453125,1.5119233131408691,-0.6175665855407715,0.92054682970047
1789324446792795400,2.80679541015625,1.412966012954712,-1.6066046953201294,1.4691640138626099
1789324446811645400,2.8256455078125,1.7000643014907837,-2.252270221710205,1.1178505420684814
1789324446830495500,2.84449560546875,0.8655705451965332,-3.612016201019287,0.6597150564193726
1789324446849345500,2.863345458984375,0.6432221531867981,-4.312734127044678,0.3671191930770874
1789324446868195600,2.882195556640625,-0.21685077250003815,-4.177126407623291,1.2479609251022339
1789324446887045600,2.901045654296875,-1.5192534923553467,-2.2272255420684814,1.8491109609603882
1789324446905895700,2.919895751953125,-1.4764941930770874,0.6456655263900757,1.926688551902771
1789324446924745700,2.938745849609375,-0.2987042963504791,1.0506572723388672,1.7128920555114746
1789324446943595800,2.957595703125,0.01588202826678753,0.2480039894580841,1.8283421993255615
1789324446962445800,2.97644580078125,-0.20768806338310242,0.1429382562637329,1.5552934408187866
1789324446981295900,2.9952958984375,-0.29503923654556274,0.24189551174640656,0.7831062078475952
1789324447000146000,3.01414599609375,0.1575985997915268,-0.1710372269153595,0.3573456406593323
1789324447018996000,3.032995849609375,1.0616525411605835,-1.3439403772354126,-0.3836120665073395
1789324447037846000,3.051845947265625,1.6023286581039429,-0.6896465420722961,-0.5033381581306458
1789324447056696000,3.070696044921875,1.0060654878616333,-0.5632011890411377,0.8545753359794617
1789324447075546000,3.089546142578125,1.1954281330108643,-2.5106585025787354,1.4209071397781372
1789324447094396200,3.108396240234375,0.8429692387580872,-3.4922900199890137,1.6377578973770142
1789324447113246200,3.12724609375,0.7934905886650085,-2.7892048358917236,1.3763152360916138
1789324447132096300,3.14609619140625,1.0280559062957764,-1.9077523946762085,1.0054545402526855
1789324447150946300,3.1649462890625,0.8026533126831055,-1.5925551652908325,1.7183897495269775
1789324447169796400,3.18379638671875,0.2724378705024719,-0.4886777997016907,1.455114483833313
1789324447188646400,3.202646484375,0.284654825925827,-0.5803049206733704,0.41232189536094666
1789324447207496400,3.221496337890625,0.4831801950931549,-0.9633061289787292,0.49295374751091003
1789324447226346800,3.2403466796875,0.8264763355255127,-1.530248761177063,0.46485477685928345
1789324447245196800,3.25919677734375,1.0024003982543945,-1.3793694972991943,0.3054236173629761
1789324447264046800,3.278046875,1.0072871446609497,-0.7012526392936707,0.420873761177063
1789324447282897000,3.29689697265625,0.6933116316795349,-0.011606098152697086,0.2907632887363434
1789324447301747000,3.315746826171875,0.023212196305394173,0.767224133014679,0.16798299551010132
1789324447320597000,3.334596923828125,-0.46302223205566406,1.159998893737793,0.208298921585083
1789324447339447000,3.353447021484375,-0.550373375415802,1.3524922132492065,0.04886778071522713
1789324447358297000,3.372297119140625,-0.5717530250549316,1.1019684076309204,-0.3133646547794342
1789324447377147400,3.3911474609375,-0.7965448498725891,1.2577345371246338,-0.497229665517807
1789324447395997400,3.40999755859375,-0.9260444641113281,1.1288456916809082,-0.726908266544342
1789324447414847500,3.428847412109375,-0.9694145917892456,0.8203678727149963,-0.9419264793395996
1789324447433697500,3.447697509765625,-1.032942771911621,0.8674030900001526,-1.1398409605026245
1789324447452547600,3.466547607421875,-1.2613996267318726,0.6658235192298889,-1.419074535369873
1789324447471397600,3.485397705078125,-1.2052016258239746,0.3268032968044281,-1.5143667459487915
1789324447490248000,3.504248046875,-1.2919420003890991,0.21379654109477997,-1.450838565826416
1789324447509098000,3.523097900390625,-1.4050250053405762,0.6426113247871399,-1.4911545515060425
1789324447527948000,3.541947998046875,-1.871712327003479,0.6902574300765991,-1.5100908279418945
1789324447546798000,3.560798095703125,-2.197293996810913,0.9492566585540771,-1.4954304695129395
1789324447565648100,3.579648193359375,-1.7923022508621216,0.9327637553215027,-1.7715333700180054
1789324447584498200,3.598498291015625,-1.13800847530365,0.5485408306121826,-1.9395164251327515
1789324447603348500,3.617348388671875,-1.0231691598892212,0.4715740978717804,-2.0024337768554688
1789324447622198500,3.636198486328125,-1.1422843933105469,0.4966188073158264,-2.2675414085388184
1789324447641048600,3.655048583984375,-1.1538904905319214,0.32008397579193115,-2.4117014408111572
1789324447659898600,3.673898681640625,-2.008542060852051,-0.6377245187759399,-1.4771050214767456
1789324447678748700,3.692748779296875,-2.4703426361083984,-0.07330167293548584,-1.3255385160446167
1789324447697599000,3.711598876953125,-2.058631658554077,0.5021164417266846,-1.9517333507537842
1789324447716449000,3.730448974609375,-1.9101957082748413,-0.9119949340820312,-1.4062467813491821
1789324447735299000,3.749299072265625,-1.9071414470672607,-1.9560092687606812,-1.1954281330108643
1789324447754149000,3.768149169921875,-0.8478559851646423,-1.4600013494491577,-1.175881028175354
1789324447772999200,3.786999267578125,0.44103172421455383,-0.5894675850868225,-0.3255815804004669
1789324447791849500,3.805849365234375,0.9352071285247803,-0.03787253051996231,0.7983773946762085
1789324447810699500,3.824699462890625,0.7641699314117432,0.14110571146011353,1.6799063682556152
1789324447829549600,3.843549560546875,0.37567105889320374,0.9541434049606323,1.880264163017273
1789324447848399600,3.862399658203125,0.2363978922367096,1.207645058631897,1.987162470817566
1789324447867250000,3.88125,0.2211267054080963,0.29259583353996277,1.8014649152755737
1789324447886100000,3.900099853515625,0.11667182296514511,-0.1044548824429512,1.4019708633422852
1789324447904950000,3.918949951171875,0.10811996459960938,-0.601073682308197,0.20035789906978607
1789324447923800000,3.937800048828125,-0.7434011101722717,-0.781884491443634,-0.9877400398254395
1789324447942650000,3.956650146484375,-1.5748405456542969,0.01038440316915512,-0.499673068523407
1789324447961500400,3.97550048828125,-1.6163781881332397,-0.21746163070201874,1.1221264600753784
1789324447980350500,3.9943505859375,-0.5583143830299377,-0.393385648727417,1.7587056159973145
1789324447999200500,4.013200439453125,-0.6804838180541992,-1.0549331903457642,1.3102673292160034
1789324448018050600,4.032050537109375,-1.3035480976104736,-1.1141854524612427,0.707361102104187
1789324448036900900,4.05090087890625,-1.3964731693267822,-0.30481278896331787,0.726908266544342
1789324448055751000,4.0697509765625,-0.8680139780044556,0.4831801950931549,1.4221287965774536
1789324448074601000,4.08860107421875,-0.1698155403137207,0.2486148327589035,2.275482416152954
1789324448093451300,4.107451171875,0.3390202224254608,-0.21318569779396057,2.2626545429229736
1789324448112301300,4.12630126953125,0.791047215461731,0.056808795779943466,2.160032272338867
1789324448131151400,4.1451513671875,0.9877400398254395,0.1423274129629135,2.0311434268951416
1789324448150001400,4.16400146484375,1.0897514820098877,0.23151111602783203,1.8460568189620972
1789324448168851700,4.182851806640625,1.372650146484375,0.2498365342617035,1.9474574327468872
1789324448187701800,4.20170166015625,1.3702067136764526,0.2357870489358902,2.130711555480957
1789324448206551800,4.2205517578125,1.0133955478668213,0.265718549489975,2.260822057723999
1789324448225402000,4.239402099609375,0.2211267054080963,-0.7049177289009094,2.203402519226074
1789324448244252200,4.258252197265625,0.20219044387340546,-1.6475313901901245,1.839948296546936
1789324448263102200,4.277102294921875,0.37078428268432617,-2.1844661235809326,1.4050250053405762
1789324448281952300,4.2959521484375,0.4569137394428253,-1.2137534618377686,1.0616525411605835
1789324448300802600,4.314802490234375,0.6413896083831787,-0.16676130890846252,0.7922688722610474
1789324448319652600,4.333652587890625,0.5387672781944275,-0.19424942135810852,0.6927008032798767
1789324448338502700,4.352502685546875,0.38666632771492004,-0.2095206081867218,0.6994200944900513
1789324448357353000,4.37135302734375,0.32008397579193115,0.09468132257461548,0.4593571424484253
1789324448376203000,4.390203125,0.12400199472904205,0.11117420345544815,0.23090025782585144
1789324448395053000,4.409052978515625,0.020157959312200546,0.2620534598827362,0.09345962852239609
1789324448413903400,4.4279033203125,-0.08307522535324097,0.3133646547794342,-0.0024433890357613564
1789324448432753400,4.44675341796875,-0.19119518995285034,0.5302154421806335,-0.1850867122411728
1789324448451603500,4.465603515625,-0.28098973631858826,0.6975875496864319,-0.3567348122596741
1789324448470453800,4.484453857421875,-0.2730487287044525,0.8753440976142883,-0.6762079000473022
1789324448489303800,4.5033037109375,-0.27915719151496887,1.0549331903457642,-1.0017894506454468
1789324448508153900,4.52215380859375,-0.3701734244823456,0.8955020904541016,-1.2705622911453247
1789324448527004200,4.541004150390625,-0.517998456954956,0.8863393664360046,-1.4154094457626343
1789324448545854200,4.559854248046875,-0.648108959197998,0.9046648144721985,-1.6475313901901245
1789324448564704300,4.578704345703125,-0.739736020565033,0.8283088803291321,-1.8564411401748657
1789324448583554600,4.597554443359375,-0.8014315962791443,0.5864133834838867,-1.9486790895462036
1789324448602404600,4.616404541015625,-0.8411366939544678,0.7360709309577942,-1.997546911239624
1789324448621255000,4.6352548828125,-0.8454126119613647,0.6994200944900513,-2.127046585083008
1789324448640105000,4.65410498046875,-0.7256865501403809,0.3530697226524353,-2.2510485649108887
1789324448658955000,4.672955078125,-0.9009997248649597,0.0018325417768210173,-2.2095108032226562
1789324448677805300,4.691805419921875,-0.9132166504859924,-0.25411245226860046,-2.223560333251953
1789324448696655400,4.7106552734375,-0.8234221339225769,-0.2345653474330902,-2.275482416152954
1789324448715505400,4.72950537109375,-0.7660024762153625,-0.16309621930122375,-2.3084681034088135
1789324448734355700,4.748355712890625,-0.6157340407371521,-0.21379654109477997,-2.318241596221924
1789324448753205800,4.767205810546875,-0.33230090141296387,-0.22723518311977386,-2.2876992225646973
1789324448772056000,4.78605615234375,-0.0910162404179573,-0.0390942245721817,-2.145371913909912
1789324448790906000,4.804906005859375,0.07024743407964706,0.0390942245721817,-1.92363440990448
1789324448809756200,4.823756103515625,0.237008735537529,-0.004886778071522713,-1.654861569404602
1789324448828606500,4.8426064453125,0.34818294644355774,0.1704263836145401,-1.3659307956695557
1789324448847456500,4.86145654296875,0.46302223205566406,0.21440738439559937,-1.0983033180236816
1789324448866306600,4.880306640625,0.33169007301330566,0.11361759155988693,-0.7409577369689941
1789324448885156900,4.899156982421875,0.1569877415895462,0.06841489672660828,-0.3573456406593323
1789324448904007000,4.9180068359375,0.0787992998957634,0.12827792763710022,0.06780404597520828
1789324448922857200,4.936857177734375,0.1954711228609085,0.08124268800020218,0.5265503525733948
1789324448941707300,4.955707275390625,0.2736595869064331,0.08063183724880219,0.8356390595436096
1789324448960557300,4.974557373046875,0.1954711228609085,0.05864133685827255,1.0121738910675049
1789324448979407600,4.99340771484375,0.19241689145565033,-0.012216945178806782,1.1441168785095215
1789324448998257700,5.012257568359375,0.15271180868148804,0.01710372418165207,1.243685007095337
1789324449017107700,5.031107666015625,0.07757759839296341,0.03542914241552353,1.3427186012268066
1789324449035958000,5.0499580078125,0.10750912129878998,0.07696675509214401,1.3970839977264404
1789324449054808000,5.06880810546875,0.07146912813186646,0.24128466844558716,1.3799803256988525
1789324449073658400,5.087658447265625,0.0018325417768210173,0.390942245721817,1.2925528287887573
1789324449092508400,5.10650830078125,-0.007330167107284069,0.37261682748794556,1.3120999336242676
1789324449111358700,5.125358642578125,0.08307522535324097,0.29626092314720154,1.4887111186981201
1789324449130208800,5.144208740234375,0.22540263831615448,0.12583453953266144,1.5607911348342896
1789324449149058800,5.163058837890625,0.33291175961494446,0.07146912813186646,1.5131449699401855
1789324449167909000,5.1819091796875,0.4746283292770386,-0.004275931045413017,1.4490060806274414
1789324449186759200,5.20075927734375,0.6029062271118164,-0.04031591862440109,1.5235294103622437
1789324449205609500,5.219609375,0.6878139972686768,-0.20402298867702484,1.6304277181625366
1789324449224459500,5.23845947265625,0.7238540053367615,-0.4324798583984375,1.6640242338180542
1789324449243309600,5.2573095703125,0.6762079000473022,-0.5833591222763062,1.6670784950256348
1789324449262160000,5.276159912109375,0.6218425035476685,-0.8539644479751587,1.683571457862854
1789324449281010000,5.295010009765625,0.6731536984443665,-0.9791881442070007,1.7165571451187134
1789324449299860200,5.313860107421875,0.7128587365150452,-1.0469921827316284,1.7739768028259277
1789324449318710300,5.332710205078125,0.5589252710342407,-1.151447057723999,1.8747665882110596
1789324449337560600,5.351560546875,0.4984513521194458,-1.6915124654769897,1.7739768028259277
1789324449356410600,5.37041064453125,0.3005368411540985,-2.0690159797668457,1.6114914417266846
1789324449375261000,5.389260986328125,0.26816195249557495,-1.4123551845550537,1.4428975582122803
1789324449394111000,5.408111083984375,0.4343124032020569,-0.6920899152755737,1.376926064491272
1789324449412961300,5.426961181640625,0.5790832042694092,-0.446529358625412,1.0995250940322876
1789324449431811300,5.445811279296875,0.656660795211792,-0.09590301662683487,0.8020424246788025
1789324449450661600,5.46466162109375,0.5711421966552734,0.03176405653357506,0.5057815313339233
1789324449469511700,5.48351171875,0.46241137385368347,0.07635590434074402,0.3701734244823456
1789324449488361700,5.50236181640625,0.41476529836654663,0.18630841374397278,0.23028941452503204
1789324449507212000,5.5212119140625,0.3255815804004669,0.29626092314720154,0.029320668429136276
1789324449526062000,5.54006201171875,0.1820324808359146,0.4844018816947937,-0.2107423096895218
1789324449544912400,5.558912353515625,0.11300674080848694,0.7427902817726135,-0.4734066128730774
1789324449563762400,5.577762451171875,0.043981000781059265,0.8863393664360046,-0.8252546191215515
1789324449582612700,5.59661279296875,-0.05497625470161438,1.0659284591674805,-1.0787562131881714
1789324449601462800,5.615462890625,-0.23151111602783203,1.1581664085388184,-1.2430741786956787
1789324449620313000,5.63431298828125,-0.42881476879119873,1.2375766038894653,-1.3885321617126465
1789324449639163100,5.6531630859375,-0.6303943991661072,1.3206517696380615,-1.525972843170166
1789324449658013400,5.672013427734375,-0.7043069005012512,1.2070342302322388,-1.644477128982544
1789324449676863500,5.690863525390625,-0.8276980519294739,1.0677610635757446,-1.6896798610687256
1789324449695713800,5.7097138671875,-1.0341644287109375,0.8105943202972412,-1.8387266397476196
1789324449714563800,5.728563720703125,-1.1764918565750122,0.6224533319473267,-1.9285211563110352
1789324449733414100,5.7474140625,-1.2876659631729126,0.5577035546302795,-2.0280892848968506
1789324449752264200,5.76626416015625,-1.3200409412384033,0.44103172421455383,-2.0891740322113037
1789324449771114500,5.785114501953125,-1.3634874820709229,0.32191649079322815,-2.069626808166504
1789324449789964500,5.803964599609375,-1.2803359031677246,0.18142163753509521,-2.163086414337158
1789324449808814600,5.822814697265625,-1.1483927965164185,0.09590301662683487,-2.260822057723999
1789324449827665000,5.841664794921875,-0.9297095537185669,-0.11483928561210632,-2.2999162673950195
1789324449846515000,5.860514892578125,-0.6536065936088562,-0.2651077210903168,-2.3524491786956787
1789324449865365200,5.879365234375,-0.44958359003067017,-0.26999449729919434,-2.3341238498687744
1789324449884215300,5.89821533203125,-0.3646758198738098,-0.17286977171897888,-2.105056047439575
1789324449903065600,5.917065673828125,-0.25350162386894226,-0.08185353130102158,-1.7128920555114746
1789324449921916000,5.935916015625,-0.08857285231351852,0.04092676565051079,-1.3610440492630005
1789324449940766000,5.954765869140625,0.08124268800020218,-0.04031591862440109,-1.0042328834533691
1789324449959616000,5.973615966796875,0.29320669174194336,-0.006108472589403391,-0.5760289430618286
1789324449978466300,5.99246630859375,0.5638120174407959,-0.08368607610464096,-0.16004198789596558
1789324449997316400,6.01131640625,0.5143333673477173,0.034818295389413834,0.18569757044315338
1789324450016166700,6.030166748046875,0.38544461131095886,-0.18142163753509521,0.46302223205566406
1789324450035016700,6.0490166015625,0.3243598937988281,-0.4159869849681854,0.7470661997795105
1789324450053866200,6.0678662109375,0.24617144465446472,-0.47585001587867737,1.031110167503357
1789324450072716300,6.08671630859375,0.2211267054080963,-0.37139514088630676,1.2143644094467163
1789324450091566600,6.105566650390625,0.25350162386894226,-0.28160059452056885,1.2681188583374023
1789324450110416600,6.124416748046875,0.28343313932418823,-0.2736595869064331,1.2125318050384521
1789324450129267000,6.143266845703125,0.27121618390083313,-0.18753011524677277,1.1697725057601929
1789324450148117000,6.162116943359375,0.22051586210727692,-0.28404396772384644,1.211920976638794
1789324450166967300,6.18096728515625,0.2339545041322708,-0.40193748474121094,1.3384426832199097
1789324450185817300,6.1998173828125,0.4282039403915405,-0.31947311758995056,1.4600013494491577
1789324450204667600,6.218667724609375,0.5393781065940857,-0.27915719151496887,1.5290271043777466
1789324450223517700,6.237517578125,0.6450546979904175,-0.2480039894580841,1.5791164636611938
1789324450242368000,6.256367919921875,0.739736020565033,-0.26999449729919434,1.604161262512207
1789324450261218000,6.275218017578125,0.7849387526512146,-0.23090025782585144,1.6579158306121826
1789324450280068400,6.294068359375,0.8124268651008606,-0.3701734244823456,1.6970100402832031
1789324450298918400,6.31291845703125,0.8057075142860413,-0.5937435626983643,1.766035795211792
1789324450317768700,6.331768798828125,0.7794411182403564,-0.7012526392936707,1.8008540868759155
1789324450336618800,6.35061865234375,0.7568397521972656,-0.527161180973053,1.789247989654541
1789324450355469000,6.369468994140625,0.7098045349121094,-0.4715740978717804,1.7550405263900757
1789324450383744300,6.397744140625,0.601073682308197,-0.8112051486968994,1.803297519683838
1789324450402594600,6.416594482421875,0.5974085927009583,-1.235133171081543,1.709837794303894
1789324450421444600,6.435444580078125,0.37689274549484253,-1.5125341415405273,1.5522392988204956
1789324450440295000,6.454294921875,0.291374146938324,-1.035386085510254,1.5326920747756958
1789324450459145000,6.47314501953125,0.42637139558792114,-0.5118899941444397,1.5339138507843018
1789324450477995300,6.491995361328125,0.4734066128730774,-0.42698222398757935,1.2516260147094727
1789324450496845600,6.510845458984375,0.4862344264984131,-0.20157960057258606,0.8222004175186157
1789324450515695600,6.529695556640625,0.41415444016456604,0.13560809195041656,0.48012593388557434
1789324450534546000,6.5485458984375,0.2480039894580841,0.17409147322177887,0.16615045070648193
1789324450553396000,6.56739599609375,0.14660334587097168,0.22784602642059326,-0.04886778071522713
1789324450572246300,6.586246337890625,0.12583453953266144,0.17592400312423706,-0.291374146938324
1789324450591096300,6.605096435546875,0.06780404597520828,0.3292466700077057,-0.5057815313339233
1789324450609946600,6.623946533203125,-0.07635590434074402,0.6108472347259521,-0.6890357136726379
1789324450628796700,6.642796630859375,-0.20157960057258606,0.8557969927787781,-0.8448017835617065
1789324450647647000,6.66164697265625,-0.2767138183116913,0.9138274788856506,-1.1056334972381592
1789324450666497000,6.6804970703125,-0.2883199155330658,1.109298586845398,-1.4257938861846924
1789324450685347300,6.699347412109375,-0.393385648727417,1.38731050491333,-1.6035504341125488
1789324450704197600,6.71819775390625,-0.5259394645690918,1.4538928270339966,-1.6615809202194214
1789324450723047700,6.737047607421875,-0.6529957056045532,1.4215179681777954,-1.7122812271118164
1789324450741898000,6.75589794921875,-0.786771297454834,1.1917630434036255,-1.7611490488052368
1789324450760748000,6.774748046875,-0.9040539264678955,1.0201148986816406,-1.9291319847106934
1789324450779598300,6.793598388671875,-1.1044118404388428,0.8637380003929138,-2.0250349044799805
1789324450798448400,6.812448486328125,-1.1465603113174438,0.6468872427940369,-2.191185474395752
1789324450817298700,6.831298583984375,-1.207645058631897,0.46729815006256104,-2.1759142875671387
1789324450845574000,6.859573974609375,-1.1202938556671143,0.17592400312423706,-2.3774938583374023
1789324450864424200,6.878424072265625,-0.9278770089149475,0.15026842057704926,-2.4611799716949463
1789324450883274200,6.897274169921875,-0.6303943991661072,0.026877280324697495,-2.4416327476501465
1789324450902124500,6.91612451171875,-0.45508119463920593,0.07146912813186646,-2.278536558151245
1789324450920974800,6.934974853515625,-0.3158080279827118,0.09773556143045425,-2.108110189437866
1789324450939825000,6.953824951171875,-0.13316470384597778,0.15515519678592682,-1.8552194833755493
1789324450958675200,6.97267529296875,0.08368607610464096,0.3555130958557129,-1.4807701110839844
1789324450977525200,6.991525146484375,0.2357870489358902,0.45080527663230896,-1.0292776823043823
1789324450996375600,7.01037548828125,0.16859383881092072,0.4343124032020569,-0.5717530250549316
1789324451015225600,7.0292255859375,-0.007330167107284069,0.3023693859577179,-0.2217375487089157
1789324451034076000,7.048075927734375,-0.08551861345767975,0.13988402485847473,0.15943112969398499
1789324451052926000,7.066926025390625,0.08674030750989914,0.13927318155765533,0.47707170248031616
1789324451071776300,7.0857763671875,0.2107423096895218,-0.07696675509214401,0.6413896083831787
1789324451090626600,7.10462646484375,0.28037887811660767,-0.03298575058579445,0.813648521900177
1789324451109476600,7.1234765625,0.2736595869064331,-0.18569757044315338,1.0030112266540527
1789324451128327000,7.142326904296875,0.24189551174640656,-0.07452336698770523,1.1764918565750122
1789324451147177000,7.161177001953125,0.16676130890846252,-0.1056765764951706,1.2058124542236328
1789324451166027300,7.18002734375,0.07207997888326645,-0.2351761907339096,1.1080769300460815
1789324451184877300,7.198877197265625,-0.036039989441633224,-0.29320669174194336,1.0445488691329956
1789324451203727600,7.2177275390625,-0.055587101727724075,-0.4446968138217926,1.230857253074646
1789324451222578000,7.236577880859375,0.1820324808359146,-0.2754921019077301,1.5919443368911743
1789324451241428000,7.255427978515625,0.47829338908195496,-0.1563768982887268,1.8197903633117676
1789324451260278300,7.2742783203125,0.6187883019447327,-0.12705622613430023,1.825287938117981
1789324451279128300,7.29312841796875,0.6285618543624878,-0.20524467527866364,1.821012020111084
1789324451297978600,7.311978515625,0.6762079000473022,-0.43919917941093445,1.9474574327468872
1789324451316828700,7.33082861328125,0.754396378993988,-0.5595360994338989,2.0158722400665283
1789324451345104100,7.359104248046875,0.7348492741584778,-0.6914790868759155,2.040917158126831
1789324451363954400,7.377954345703125,0.6420004963874817,-0.6975875496864319,2.0396952629089355
1789324451382804500,7.396804443359375,0.6536065936088562,-0.6780404448509216,2.058020830154419
1789324451401654800,7.41565478515625,0.5699204802513123,-0.8557969927787781,2.081233024597168
1789324451420504800,7.4345048828125,0.6096255779266357,-1.2113101482391357,1.9187475442886353
1789324451439355100,7.453355224609375,0.4886777997016907,-1.5785056352615356,1.7642031908035278
1789324451458205200,7.472205078125,0.4227063059806824,-1.5876684188842773,1.6133239269256592
1789324451477055500,7.491055419921875,0.40987852215766907,-0.8527427911758423,1.456336259841919
1789324451495905500,7.509905517578125,0.4984513521194458,-0.47585001587867737,1.339664340019226
1789324451514755800,7.528755859375,0.4459185004234314,-0.448361873626709,1.133732557296753
1789324451533606100,7.547606201171875,0.4062134325504303,-0.3029802441596985,0.6297835111618042
1789324451552456200,7.566456298828125,0.3268032968044281,-0.02870982140302658,0.3035911023616791
1789324451571306500,7.585306396484375,0.1966928243637085,0.013438640162348747,0.12278030067682266
1789324451590156500,7.604156494140625,0.13377554714679718,0.06719319522380829,-0.10811996459960938
1789324451609006800,7.6230068359375,0.05803048983216286,0.3023693859577179,-0.3671191930770874
1789324451627857200,7.641857177734375,-0.04703523963689804,0.6621584296226501,-0.6084038615226746
1789324451646707200,7.660707275390625,-0.1441599577665329,0.9382613897323608,-0.837471604347229
1789324451665557500,7.6795576171875,-0.2608317732810974,1.1905412673950195,-1.0750911235809326
1789324451684407800,7.69840771484375,-0.3701734244823456,1.254069447517395,-1.3224843740463257
1789324451703257900,7.7172578125,-0.45019441843032837,1.226581335067749,-1.566288709640503
1789324451722108200,7.736108154296875,-0.5332696437835693,1.1771026849746704,-1.7104486227035522
1789324451740958200,7.754958251953125,-0.7366818189620972,1.100746750831604,-1.7519862651824951
1789324451759808500,7.77380859375,-1.041494607925415,1.0304993391036987,-1.719611406326294
1789324451778658600,7.792658447265625,-1.1618314981460571,0.9620844125747681,-1.867436408996582
1789324451797508900,7.8115087890625,-1.2271921634674072,0.7690566778182983,-1.9315754175186157
1789324451816359200,7.830359130859375,-1.221083641052246,0.48012593388557434,-2.142317771911621
1789324451844634400,7.85863427734375,-1.243685007095337,0.3946073353290558,-2.335956335067749
1789324451863484700,7.877484619140625,-1.1862653493881226,0.183865025639534,-2.44041109085083
1789324451882334700,7.896334716796875,-1.0433270931243896,-0.04825693368911743,-2.4709534645080566
1789324451901185000,7.91518505859375,-0.8026533126831055,-0.13438639044761658,-2.5106585025787354
1789324451920035000,7.93403515625,-0.5381564497947693,-0.12827792763710022,-2.471564292907715
1789324451938885400,7.952885498046875,-0.2620534598827362,0.12339114397764206,-2.220506191253662
1789324451957735700,7.971735595703125,-0.10262233763933182,0.19913621246814728,-1.7379368543624878
1789324451976585700,7.990585693359375,-0.08368607610464096,0.2504473626613617,-1.262621283531189
1789324451995436000,8.00943603515625,-0.043981000781059265,0.18142163753509521,-0.8362498879432678
1789324452014286000,8.0282861328125,0.053143709897994995,0.031153209507465363,-0.4691306948661804
1789324452033136400,8.047136474609376,0.22723518311977386,-0.014660334214568138,-0.17531315982341766
1789324452051986400,8.065986328125,0.3836120665073395,-0.0018325417768210173,0.01588202826678753
1789324452070836700,8.084836669921875,0.35856732726097107,-0.1832541823387146,0.14049486815929413
1789324452089687000,8.10368701171875,0.32069480419158936,-0.2773246467113495,0.41232189536094666
1789324452108537000,8.122537109375,0.32069480419158936,-0.33169007301330566,0.7843278646469116
1789324452127387400,8.141387451171875,0.3286358118057251,-0.32008397579193115,1.035386085510254
1789324452146237400,8.160237548828125,0.30847787857055664,-0.16798299551010132,1.1447277069091797
1789324452165087700,8.179087646484374,0.2773246467113495,-0.1569877415895462,1.2027583122253418
1789324452193363000,8.207363037109374,0.2339545041322708,-0.21623992919921875,1.2571237087249756
1789324452212213200,8.226213134765626,0.2211267054080963,-0.3390202224254608,1.3230952024459839
1789324452231063600,8.2450634765625,0.30603447556495667,-0.2626643180847168,1.4667205810546875
1789324452249913600,8.26391357421875,0.5002838969230652,-0.2644968628883362,1.6395903825759888
1789324452268764000,8.282763916015625,0.731184184551239,-0.17897824943065643,1.7519862651824951
1789324452287614000,8.301614013671875,0.7256865501403809,-0.3139754831790924,1.705561876296997
1789324452306464300,8.32046435546875,0.6236750483512878,-0.4953971207141876,1.728774070739746
1789324452325314600,8.339314453125,0.5583143830299377,-0.5173876285552979,1.872934103012085
1789324452344164600,8.35816455078125,0.6352811455726624,-0.6169557571411133,1.9327970743179321
1789324452363015000,8.377014892578124,0.7470661997795105,-0.6707102656364441,1.987162470817566
1789324452381865000,8.395864990234376,0.7721109390258789,-0.6462764143943787,2.0195374488830566
1789324452400715300,8.41471533203125,0.7892146706581116,-0.7440119385719299,2.0042662620544434
1789324452419565600,8.433565673828125,0.7189671993255615,-0.8069292306900024,1.9602851867675781
1789324452438415600,8.45241552734375,0.624285876750946,-1.0262234210968018,1.8973679542541504
1789324452457266000,8.471265869140625,0.4569137394428253,-1.296217918395996,1.660359263420105
1789324452476116000,8.490115966796875,0.2895416021347046,-1.6481422185897827,1.30476975440979
1789324452494966300,8.50896630859375,0.2602209448814392,-0.9767447710037231,1.1044118404388428
1789324452513816300,8.52781640625,0.41110020875930786,-0.4428642690181732,1.0024003982543945
1789324452532666600,8.54666650390625,0.4416425824165344,-0.4471401870250702,0.7886037826538086
1789324452551517000,8.565516845703126,0.3524588644504547,-0.4202629029750824,0.3646758198738098
1789324452570367000,8.584366943359376,0.2895416021347046,-0.08490777015686035,0.14782503247261047
1789324452589217300,8.60321728515625,0.14721418917179108,0.24494975805282593,-0.006108472589403391
1789324452608067300,8.6220673828125,0.05375456064939499,0.4489727318286896,-0.13377554714679718
1789324452626917600,8.640917724609375,0.07574506103992462,0.4049917459487915,-0.34573954343795776
1789324452645768000,8.659767822265625,0.11422843486070633,0.5289937257766724,-0.6725428104400635
1789324452674043100,8.688043212890625,0.018936265259981155,0.5680879354476929,-0.9455915689468384
1789324452692893400,8.7068935546875,-0.1441599577665329,0.6316160559654236,-1.1172395944595337
1789324452711743500,8.725743408203124,-0.30969956517219543,0.8631271719932556,-1.2913310527801514
1789324452730593800,8.74459375,-0.3811686933040619,1.018282413482666,-1.410522699356079
1789324452749443800,8.76344384765625,-0.41048935055732727,1.1453386545181274,-1.483824372291565
1789324452768294100,8.782294189453125,-0.4868452548980713,1.211920976638794,-1.5882792472839355
1789324452787144400,8.80114453125,-0.5851916670799255,1.1819894313812256,-1.6157673597335815
1789324452805994500,8.819994384765625,-0.8393041491508484,1.0799779891967773,-1.5381897687911987
1789324452824844800,8.8388447265625,-1.0531007051467896,0.9339854717254639,-1.6640242338180542
1789324452843694800,8.85769482421875,-1.2131426334381104,0.7342383861541748,-1.927910327911377
1789324452862545200,8.876545166015624,-1.235133171081543,0.7275190949440002,-2.312744140625
1789324452881395200,8.895395263671874,-1.3255385160446167,0.3817795515060425,-2.3897109031677246
1789324452900245500,8.91424560546875,-1.2473500967025757,0.16065283119678497,-2.585181951522827
1789324452919095800,8.933095703125,-1.0030112266540527,0.22845686972141266,-2.695134401321411
1789324452937945900,8.95194580078125,-0.652384877204895,0.17409147322177887,-2.5925121307373047
1789324452956796200,8.970796142578125,-0.5638120174407959,0.2767138183116913,-2.185076951980591
1789324452975646200,8.989646240234375,-0.5650337338447571,0.4569137394428253,-1.8112385272979736
1789324452994496500,9.00849658203125,-0.3646758198738098,0.25655585527420044,-1.5424656867980957
1789324453013346800,9.027346923828125,-0.07452336698770523,0.1716480851173401,-1.243685007095337
1789324453032196900,9.04619677734375,0.1056765764951706,0.10323318839073181,-0.8576295375823975
1789324453051047200,9.065047119140624,0.17409147322177887,-0.024433890357613564,-0.48073679208755493
1789324453069897200,9.083897216796874,0.1325538605451584,-0.023823043331503868,-0.0653606578707695
1789324453088747500,9.10274755859375,0.24311721324920654,-0.12644538283348083,0.2345653474330902
1789324453107597600,9.12159765625,0.33535513281822205,-0.23028941452503204,0.47585001587867737
1789324453126447900,9.14044775390625,0.3127537965774536,-0.17958909273147583,0.7886037826538086
1789324453145298200,9.159298095703125,0.2767138183116913,-0.2742704153060913,1.0390511751174927
1789324453164148200,9.178148193359375,0.3133646547794342,-0.22845686972141266,1.1673290729522705
1789324453182998500,9.19699853515625,0.30603447556495667,-0.01588202826678753,1.230857253074646
1789324453201848600,9.2158486328125,0.2852656841278076,-0.12522368133068085,1.207645058631897
1789324453220699000,9.234698974609374,0.19119518995285034,-0.32374903559684753,1.2449066638946533
1789324453239549000,9.253548828125,0.13866232335567474,-0.45080527663230896,1.300493836402893
1789324453258399200,9.272399169921876,0.19424942135810852,-0.3536805510520935,1.334777593612671
1789324453286674400,9.30067431640625,0.42514967918395996,-0.3054236173629761,1.4679423570632935
1789324453305524700,9.319524658203125,0.5222744345664978,-0.12033691257238388,1.6114914417266846
1789324453324375000,9.338375,0.5882459282875061,-0.4446968138217926,1.6854039430618286
1789324453343225000,9.35722509765625,0.707361102104187,-0.5711421966552734,1.7367150783538818
1789324453362075400,9.376075439453125,0.7678350210189819,-0.6358919739723206,1.7202222347259521
1789324453380925400,9.394925537109375,0.7531746625900269,-0.5809157490730286,1.7409909963607788
1789324453399775700,9.413775634765624,0.6780404448509216,-0.8441908955574036,1.7898588180541992
1789324453418625800,9.432625732421876,0.7537854909896851,-1.0219475030899048,1.8271205425262451
1789324453437476000,9.45147607421875,0.8038749694824219,-0.9327637553215027,1.825287938117981
1789324453456326400,9.470326416015626,0.7574505805969238,-0.9101623892784119,1.7025076150894165
1789324453475176400,9.489176513671875,0.6725428104400635,-1.0653176307678223,1.616989016532898
1789324453494026800,9.50802685546875,0.448361873626709,-1.640201210975647,1.6554723978042603
1789324453512876800,9.526876708984375,0.40071579813957214,-1.5626236200332642,1.412966012954712
1789324453531727000,9.54572705078125,0.5387672781944275,-1.0463813543319702,1.248571753501892
1789324453550577200,9.5645771484375,0.6041279435157776,-0.6768187880516052,1.2131426334381104
1789324453569427500,9.583427490234374,0.5088357925415039,-0.5167768001556396,0.8222004175186157
1789324453588277800,9.60227783203125,0.38666632771492004,-0.13621893525123596,0.4618005156517029
1789324453607127800,9.6211279296875,0.24189551174640656,0.11361759155988693,0.22906772792339325
1789324453625978000,9.63997802734375,0.23212195932865143,0.19974705576896667,0.00916270911693573
1789324453644828200,9.658828125,0.22784602642059326,0.39888325333595276,-0.16309621930122375
1789324453663678500,9.677678466796875,0.16065283119678497,0.4746283292770386,-0.3298575282096863
1789324453682528500,9.696528564453125,0.11606097966432571,0.4422534108161926,-0.5864133834838867
1789324453701378800,9.71537890625,0.012216945178806782,0.5967977643013,-0.8814526200294495
1789324453720229000,9.73422900390625,-0.1820324808359146,0.9034430980682373,-1.0744802951812744
1789324453739079200,9.7530791015625,-0.3139754831790924,1.0347752571105957,-1.1734375953674316
1789324453757929500,9.771929443359374,-0.4227063059806824,1.2369656562805176,-1.3708176612854004
1789324453786204700,9.80020458984375,-0.47585001587867737,1.349437952041626,-1.6292059421539307
1789324453805054700,9.8190546875,-0.6297835111618042,1.3995274305343628,-1.682349681854248
1789324453823905000,9.837905029296875,-0.8228112459182739,1.0152281522750854,-1.7715333700180054
1789324453842755300,9.85675537109375,-1.0085088014602661,0.9284878373146057,-2.0415279865264893
1789324453861605400,9.87560546875,-1.1954281330108643,0.8197570443153381,-2.2760932445526123
1789324453880455700,9.89445556640625,-1.323706030845642,0.5369347333908081,-2.3280153274536133
1789324453899305700,9.9133056640625,-1.295607089996338,0.4196520745754242,-2.3194634914398193
1789324453918156000,9.932156005859374,-1.035386085510254,0.40254834294319153,-2.4092578887939453
1789324453937006000,9.951006103515626,-0.7464553713798523,0.4220954477787018,-2.367720365524292
1789324453955856400,9.9698564453125,-0.5424323678016663,0.3365768492221832,-2.373828887939453
1789324453974706400,9.98870654296875,-0.3005368411540985,0.12400199472904205,-2.3897109031677246
1789324453993556700,10.007556640625,-0.19424942135810852,0.09468132257461548,-2.205235004425049
1789324454012406800,10.02640673828125,-0.06902574002742767,-0.01832541823387146,-1.872934103012085
1789324454031257000,10.045257080078125,0.1453816443681717,0.06413896381855011,-1.4905437231063843
1789324454050107400,10.064107421875,0.261442631483078,0.07757759839296341,-1.1172395944595337
1789324454068957400,10.08295751953125,0.25716668367385864,0.045202698558568954,-0.7684458494186401
1789324454087807700,10.101807861328124,0.2492256760597229,-0.07024743407964706,-0.35978904366493225
1789324454106657800,10.12065771484375,0.31825143098831177,0.09773556143045425,0.07330167293548584
1789324454125508000,10.139508056640626,0.34635040163993835,0.12705622613430023,0.4453076422214508
1789324454144358100,10.158358154296875,0.3286358118057251,0.11972606182098389,0.6957550048828125
1789324454163208400,10.17720849609375,0.25655585527420044,0.007330167107284069,0.9706363081932068
1789324454182058500,10.19605859375,0.28404396772384644,-0.007941014133393764,1.1813786029815674
1789324454200908800,10.21490869140625,0.27854636311531067,-0.11117420345544815,1.2375766038894653
1789324454219759000,10.233759033203125,0.2339545041322708,-0.21562908589839935,1.1764918565750122
1789324454238609200,10.252609130859375,0.15454435348510742,-0.20524467527866364,1.1508362293243408
1789324454257459500,10.27145947265625,0.1056765764951706,-0.15515519678592682,1.1917630434036255
1789324454276309500,10.2903095703125,0.07635590434074402,-0.3005368411540985,1.3433294296264648
1789324454295159800,10.309159912109376,0.1960819661617279,-0.28098973631858826,1.45939040184021
1789324454314009900,10.328009765625,0.3781144618988037,-0.061084724962711334,1.4844352006912231
1789324454332860200,10.346860107421875,0.4563029110431671,-0.1423274129629135,1.5271944999694824
1789324454351710200,10.365710205078125,0.47829338908195496,-0.14660334587097168,1.6670784950256348
1789324454370560500,10.384560546875,0.4886777997016907,-0.2229592502117157,1.715335488319397
1789324454389410600,10.40341064453125,0.5387672781944275,-0.40254834294319153,1.742823600769043
1789324454408260900,10.4222607421875,0.6035171151161194,-0.6621584296226501,1.7739768028259277
1789324454427111000,10.44111083984375,0.6279509663581848,-0.8619054555892944,1.8301746845245361
1789324454445961200,10.459961181640624,0.6896465420722961,-0.869846522808075,1.8155144453048706
1789324454464811300,10.478811279296876,0.7256865501403809,-0.9871291518211365,1.8173469305038452
1789324454483661600,10.49766162109375,0.6187883019447327,-1.2247487306594849,1.8197903633117676
1789324454502511900,10.516511962890625,0.5063923597335815,-1.460612177848816,1.6683002710342407
1789324454521362000,10.53536181640625,0.27915719151496887,-1.6566941738128662,1.5107016563415527
1789324454540212200,10.554212158203125,0.25716668367385864,-1.3653199672698975,1.3793694972991943
1789324454559062300,10.573062255859375,0.3787252902984619,-0.9248227477073669,1.3592115640640259
1789324454577912600,10.59191259765625,0.4489727318286896,-0.739736020565033,1.1520578861236572
1789324454596762600,10.6107626953125,0.37200596928596497,-0.418430358171463,0.938872218132019
1789324454615613000,10.629613037109374,0.2345653474330902,-0.18753011524677277,0.6957550048828125
1789324454634463000,10.648462890625,0.16248537600040436,0.19119518995285034,0.4324798583984375
1789324454653313300,10.667313232421876,0.11239589750766754,0.41171106696128845,0.11911521852016449
1789324454672163300,10.686163330078125,0.05803048983216286,0.5222744345664978,-0.1178935244679451
1789324454691013600,10.705013671875,-0.02626643143594265,0.6047387719154358,-0.4715740978717804
1789324454709863700,10.72386376953125,-0.19424942135810852,0.9559759497642517,-0.6878139972686768
1789324454728714000,10.7427138671875,-0.2993151545524597,1.0024003982543945,-0.8765658140182495
1789324454747564000,10.76156396484375,-0.3127537965774536,1.1874871253967285,-1.1435060501098633
1789324454766414300,10.780414306640624,-0.41232189536094666,1.1227372884750366,-1.419074535369873
1789324454785264400,10.799264404296874,-0.5760289430618286,1.1679399013519287,-1.5339138507843018
1789324454804114700,10.81811474609375,-0.790436327457428,1.252847671508789,-1.5778948068618774
1789324454822964700,10.83696484375,-1.0115630626678467,1.152668833732605,-1.621264934539795
1789324454841815000,10.85581494140625,-1.0995250940322876,1.142895221710205,-1.6817388534545898
1789324454860665000,10.8746650390625,-1.1117420196533203,1.1532796621322632,-1.8051300048828125
1789324454879515400,10.893515380859375,-1.096470832824707,0.893058717250824,-1.9694479703903198
1789324454898365400,10.912365478515625,-1.1984822750091553,0.7947123050689697,-2.1233813762664795
1789324454917215700,10.9312158203125,-1.2155860662460327,0.20157960057258606,-2.307246446609497
1789324454936065800,10.950065673828124,-1.1948171854019165,0.32252734899520874,-2.5106585025787354
1789324454954916000,10.968916015625,-0.9981244206428528,0.19974705576896667,-2.630995512008667
1789324454973766100,10.98776611328125,-0.7452336549758911,0.28098973631858826,-2.555861234664917
1789324454992616400,11.006616455078126,-0.5424323678016663,0.3781144618988037,-2.3286261558532715
1789324455011466500,11.025466552734375,-0.342074453830719,0.265718549489975,-2.13315486907959
1789324455030316800,11.04431689453125,-0.16187451779842377,0.2620534598827362,-1.7538188695907593
1789324455049166800,11.063166748046875,0.021990500390529633,0.3426853120326996,-1.2662863731384277
1789324455068017200,11.08201708984375,0.13682979345321655,0.34696123003959656,-0.8863393664360046
1789324455086867200,11.1008671875,0.09040539711713791,0.15393351018428802,-0.5436540842056274
1789324455105717500,11.119717529296874,0.06047387793660164,0.09956810623407364,-0.16859383881092072
1789324455124567600,11.138567626953124,0.06902574002742767,0.01038440316915512,0.1966928243637085
1789324455143417900,11.15741796875,0.13744063675403595,-0.06352811306715012,0.4453076422214508
1789324455162268000,11.176267822265626,0.18875180184841156,-0.10078980028629303,0.731184184551239
1789324455181118200,11.1951181640625,0.19180603325366974,-0.29626092314720154,1.0133955478668213
1789324455199968300,11.21396826171875,0.21746163070201874,-0.1569877415895462,1.2479609251022339
1789324455218818300,11.232818359375,0.25289076566696167,-0.12766708433628082,1.3053805828094482
1789324455237668600,11.251668701171875,0.288930743932724,-0.23028941452503204,1.2607887983322144
1789324455256519000,11.270518798828125,0.19913621246814728,-0.3365768492221832,1.2931636571884155
1789324455275369000,11.289368896484374,0.13377554714679718,-0.3561239540576935,1.355546474456787
1789324455294219000,11.308218994140624,0.06413896381855011,-0.47829338908195496,1.404414176940918
1789324455313069300,11.3270693359375,0.13316470384597778,-0.34757208824157715,1.4270155429840088
1789324455341344500,11.355344482421875,0.337798535823822,-0.2107423096895218,1.5778948068618774
1789324455360194600,11.374194580078125,0.49234288930892944,-0.3011476993560791,1.7953563928604126
1789324455379044900,11.393044921875,0.5937435626983643,-0.41537612676620483,1.9071414470672607
1789324455397895000,11.41189501953125,0.6438329815864563,-0.6383354067802429,1.899200439453125
1789324455416745200,11.4307451171875,0.7110261917114258,-0.6316160559654236,1.8466676473617554
1789324455435595300,11.44959521484375,0.6994200944900513,-0.7641699314117432,1.7257198095321655
1789324455454445600,11.468445556640624,0.7104153633117676,-0.8747332692146301,1.644477128982544
1789324455473295600,11.487295654296876,0.790436327457428,-1.0378295183181763,1.714113712310791
1789324455492146000,11.50614599609375,0.7495095729827881,-1.0439379215240479,1.7519862651824951
1789324455510996000,11.524995849609375,0.6988092660903931,-1.2284138202667236,1.6108806133270264
1789324455529846000,11.543845947265625,0.42881476879119873,-1.6792954206466675,1.589500904083252
1789324455548696300,11.5626962890625,0.35795649886131287,-1.6450880765914917,1.4227396249771118
1789324455567546400,11.58154638671875,0.5387672781944275,-1.0750911235809326,1.4221287965774536
1789324455586396700,11.600396728515625,0.7036960124969482,-0.730573296546936,1.1783243417739868
1789324455605246700,11.619246826171874,0.6542174220085144,-0.5858024954795837,0.7745543122291565
1789324455624097000,11.638096923828124,0.4703523814678192,-0.3176405727863312,0.420873761177063
1789324455642947000,11.656947021484376,0.3414636254310608,-0.13316470384597778,0.1692046970129013
1789324455661797400,11.67579736328125,0.23151111602783203,0.04947862774133682,0.08429691940546036
1789324455680647400,11.6946474609375,0.17897824943065643,0.11911521852016449,-0.11972606182098389
1789324455699497500,11.71349755859375,0.07269082218408585,0.26938363909721375,-0.38849884271621704
1789324455718347800,11.73234765625,-0.04886778071522713,0.5864133834838867,-0.6126797795295715
1789324455737197800,11.75119775390625,-0.11972606182098389,0.8741224408149719,-0.8197570443153381
1789324455756048100,11.770048095703125,-0.1954711228609085,1.2546802759170532,-1.0665392875671387
1789324455774898200,11.788898193359374,-0.3274141252040863,1.3334795236587524,-1.3194301128387451
1789324455793748500,11.80774853515625,-0.4330907166004181,1.3102673292160034,-1.521696925163269
1789324455812598500,11.8265986328125,-0.5381564497947693,1.3084348440170288,-1.5962202548980713
1789324455831448600,11.845448486328126,-0.8020424246788025,1.2907202243804932,-1.6475313901901245
1789324455850299000,11.864298828125,-1.054322361946106,1.086086392402649,-1.7031185626983643
1789324455869149000,11.88314892578125,-1.132510781288147,0.9046648144721985,-1.8698798418045044
1789324455887999200,11.901999267578125,-1.1257915496826172,0.7879929542541504,-2.035419464111328
1789324455906849300,11.920849365234375,-1.1874871253967285,0.731184184551239,-2.2394423484802246
1789324455925699600,11.939699462890625,-1.2620104551315308,0.33291175961494446,-2.2974729537963867
1789324455944549600,11.958549560546874,-1.1777135133743286,0.1973036676645279,-2.4495737552642822
1789324455963399700,11.977399658203124,-0.888171911239624,0.09712471067905426,-2.5772409439086914
1789324455982250000,11.99625,-0.6218425035476685,0.24494975805282593,-2.593733787536621
1789324456001100000,12.01510009765625,-0.3958290219306946,0.19974705576896667,-2.565023899078369
1789324456019950000,12.0339501953125,-0.16615045070648193,0.15515519678592682,-2.364665985107422
1789324456038800400,12.05280029296875,0.0916270911693573,0.12339114397764206,-1.92363440990448
1789324456057650400,12.071650390625,0.30481278896331787,0.12705622613430023,-1.3866996765136719
1789324456076500700,12.090500732421875,0.29687178134918213,0.12888877093791962,-0.8808417320251465
1789324456095350800,12.109350830078125,0.3035911023616791,0.12522368133068085,-0.4966188073158264
1789324456114200800,12.128200927734374,0.25716668367385864,0.09712471067905426,-0.16615045070648193
1789324456133051100,12.147051025390626,0.2748812735080719,-0.07207997888326645,0.11178504675626755
1789324456151901200,12.165901123046876,0.3298575282096863,-0.14904673397541046,0.4178195297718048
1789324456170751500,12.18475146484375,0.3701734244823456,-0.27854636311531067,0.7403468489646912
1789324456189601500,12.2036015625,0.41293275356292725,-0.2779355049133301,1.0017894506454468
1789324456208451600,12.22245166015625,0.40987852215766907,-0.4599680006504059,1.1709941625595093
1789324456227302000,12.241302001953125,0.3836120665073395,-0.4043808877468109,1.2681188583374023
1789324456246152000,12.26015185546875,0.24189551174640656,-0.5632011890411377,1.2809467315673828
1789324456265002000,12.279001953125,0.20219044387340546,-0.546097457408905,1.2461284399032593
1789324456283852300,12.297852294921874,0.14049486815929413,-0.4227063059806824,1.3096565008163452
1789324456302702300,12.316702392578126,0.2583884000778198,-0.47585001587867737,1.414798617362976
1789324456321552400,12.335552490234376,0.4043808877468109,-0.3414636254310608,1.59988534450531
1789324456340402700,12.354402587890625,0.46607646346092224,-0.30725616216659546,1.7061727046966553
1789324456359252700,12.373252685546875,0.4752391576766968,-0.3970507085323334,1.6915124654769897
1789324456378102800,12.392102783203125,0.5118899941444397,-0.3689517378807068,1.6267626285552979
1789324456396953000,12.410953125,0.6132906675338745,-0.3298575282096863,1.6224867105484009
1789324456415803100,12.42980322265625,0.7043069005012512,-0.6340594291687012,1.7214438915252686
1789324456434653400,12.4486533203125,0.6615476012229919,-0.6004628539085388,1.74709951877594
1789324456453503500,12.46750341796875,0.6090146899223328,-0.6554391384124756,1.593776822090149
1789324456472353500,12.486353515625,0.629172682762146,-0.841747522354126,1.6511964797973633
1789324456491203800,12.505203857421876,0.6536065936088562,-1.2699514627456665,1.826509714126587
1789324456510054000,12.524053955078125,0.5674771070480347,-1.4948196411132812,1.6860147714614868
1789324456528904000,12.542904052734375,0.27854636311531067,-1.5962202548980713,1.3677634000778198
1789324456547754000,12.56175390625,0.18630841374397278,-1.1422843933105469,1.155722975730896
1789324456566604300,12.580604248046875,0.38605546951293945,-0.648108959197998,1.2106993198394775
1789324456585454300,12.599454345703125,0.527161180973053,-0.284654825925827,1.199093222618103
1789324456604304600,12.6183046875,0.5277720093727112,-0.08918370306491852,0.916270911693573
1789324456623154700,12.63715478515625,0.416597843170166,-0.01832541823387146,0.6352811455726624
1789324456642004700,12.656004638671876,0.2473931461572647,0.05497625470161438,0.43736663460731506
1789324456660854800,12.674854736328125,0.11667182296514511,0.1820324808359146,0.31825143098831177
1789324456679705000,12.693705078125,0.08918370306491852,0.24494975805282593,-0.0024433890357613564
1789324456698555100,12.71255517578125,0.024433890357613564,0.527161180973053,-0.34635040163993835
1789324456717405200,12.7314052734375,-0.04337015375494957,0.8454126119613647,-0.656660795211792
1789324456736255500,12.75025537109375,-0.14660334587097168,0.9431481957435608,-0.8338065147399902
1789324456755105500,12.76910546875,-0.25655585527420044,1.01706063747406,-1.0243908166885376
1789324456773955600,12.78795556640625,-0.418430358171463,1.132510781288147,-1.2241379022598267
1789324456792806000,12.806805908203126,-0.5906893014907837,1.2461284399032593,-1.4031925201416016
1789324456811656000,12.825656005859376,-0.7091936469078064,1.3053805828094482,-1.5229185819625854
1789324456830506000,12.844506103515625,-0.8276980519294739,1.362876534461975,-1.5974419116973877
1789324456849356300,12.863356201171875,-1.0024003982543945,1.262621283531189,-1.6279842853546143
1789324456868206300,12.882206298828125,-1.1270132064819336,1.2882769107818604,-1.8216228485107422
1789324456887056400,12.901056396484375,-1.2864443063735962,1.1997040510177612,-2.0280892848968506
1789324456905906400,12.919906494140625,-1.3586006164550781,1.13800847530365,-2.321295976638794
1789324456924756700,12.9387568359375,-1.4282371997833252,0.679872989654541,-2.3689420223236084
1789324456943606800,12.957606689453126,-1.362265706062317,0.43614494800567627,-2.517988681793213
1789324456962456800,12.976456787109376,-1.0989142656326294,0.3274141252040863,-2.6523752212524414
1789324456981307100,12.99530712890625,-0.7470661997795105,0.43858832120895386,-2.5460877418518066
1789324457000157200,13.0141572265625,-0.4984513521194458,0.5515950918197632,-2.266319751739502
1789324457019007200,13.03300732421875,-0.4312581717967987,0.5344913601875305,-2.003044605255127
1789324457037857300,13.051857177734375,-0.37322768568992615,0.5070032477378845,-1.5265836715698242
1789324457056707300,13.070707275390625,-0.1429382562637329,0.5027272701263428,-0.9938485026359558
1789324457075557600,13.0895576171875,0.07207997888326645,0.36223241686820984,-0.6120689511299133
1789324457094407700,13.10840771484375,0.15393351018428802,0.21990501880645752,-0.37567105889320374
1789324457113257700,13.1272578125,0.08918370306491852,0.06719319522380829,-0.10689827054738998
1789324457132107800,13.146107666015626,-0.02504473738372326,-0.10934165865182877,0.1966928243637085
1789324457150958000,13.1649580078125,0.042759306728839874,-0.038483377546072006,0.5289937257766724
1789324457169808100,13.18380810546875,0.09895725548267365,-0.3035911023616791,0.8270871639251709
1789324457188658200,13.202658203125,0.1832541823387146,-0.2730487287044525,1.0598199367523193
1789324457207508200,13.22150830078125,0.21685077250003815,-0.2736595869064331,1.2045907974243164
1789324457226358500,13.240358642578125,0.23151111602783203,-0.1973036676645279,1.2717839479446411
1789324457245208600,13.25920849609375,0.12216944992542267,-0.33474430441856384,1.3372210264205933
1789324457264058600,13.27805859375,0.08124268800020218,-0.3830012381076813,1.3775368928909302
1789324457282908700,13.29690869140625,0.031153209507465363,-0.448361873626709,1.410522699356079
1789324457301759000,13.315759033203125,0.06658235192298889,-0.4752391576766968,1.474050760269165
1789324457320609000,13.334609130859375,0.17714570462703705,-0.4556920528411865,1.5571260452270508
1789324457339459000,13.353458984375,0.27060532569885254,-0.4434750974178314,1.6334819793701172
1789324457358309000,13.37230908203125,0.38483378291130066,-0.36162158846855164,1.6652460098266602
1789324457377159400,13.391159423828125,0.48928865790367126,-0.4746283292770386,1.7025076150894165
1789324457396009500,13.410009521484374,0.5949652194976807,-0.7153021693229675,1.7690900564193726
1789324457414859500,13.428859619140624,0.6615476012229919,-0.809983491897583,1.8411699533462524
1789324457433709600,13.44770947265625,0.6187883019447327,-0.8124268651008606,1.8307856321334839
1789324457452559600,13.4665595703125,0.6132906675338745,-0.7886037826538086,1.7361042499542236
1789324457471409700,13.48540966796875,0.7409577369689941,-0.7837170362472534,1.6408120393753052
1789324457490260000,13.504260009765625,0.7366818189620972,-1.0030112266540527,1.668911099433899
1789324457509110000,13.523110107421875,0.6792621612548828,-1.3500487804412842,1.6133239269256592
1789324457527960000,13.5419599609375,0.5564818382263184,-1.6542507410049438,1.469774842262268
1789324457546810000,13.56081005859375,0.5998520255088806,-1.3445512056350708,1.3738718032836914
1789324457565660200,13.57966015625,0.7348492741584778,-1.0640959739685059,1.3787586688995361
1789324457584510500,13.598510498046876,0.7238540053367615,-0.9914051294326782,1.2326897382736206
1789324457603360500,13.617360595703126,0.6371136903762817,-0.7843278646469116,0.8069292306900024
1789324457622210600,13.63621044921875,0.4837910234928131,-0.4605788290500641,0.48806697130203247
1789324457641060600,13.655060546875,0.395218163728714,-0.15332266688346863,0.24617144465446472
1789324457659910700,13.67391064453125,0.29320669174194336,0.12522368133068085,0.04886778071522713
1789324457678760700,13.6927607421875,0.16737215220928192,0.3793361485004425,-0.16126367449760437
1789324457697611000,13.711611083984375,0.09468132257461548,0.6206207871437073,-0.46729815006256104
1789324457716461000,13.7304609375,-0.04886778071522713,0.8997780084609985,-0.6700994372367859
1789324457735311000,13.74931103515625,-0.12766708433628082,0.9529217481613159,-0.8405258059501648
1789324457754161200,13.7681611328125,-0.19241689145565033,1.1593880653381348,-1.0799779891967773
1789324457773011200,13.78701123046875,-0.2877090573310852,1.1948171854019165,-1.3316470384597778
1789324457791861200,13.805861328125,-0.4428642690181732,1.2149752378463745,-1.5412440299987793
1789324457810711600,13.824711669921875,-0.6218425035476685,1.1893196105957031,-1.6237083673477173
1789324457829561600,13.8435615234375,-0.9400939345359802,1.0146173238754272,-1.5882792472839355
1789324457848411600,13.86241162109375,-1.106244444847107,0.938872218132019,-1.7397693395614624
1789324457867261700,13.88126171875,-1.2381874322891235,0.9229902029037476,-1.8478893041610718
1789324457886111700,13.90011181640625,-1.1868761777877808,0.7769976854324341,-1.9993793964385986
1789324457904961800,13.9189619140625,-1.0726478099822998,0.8020424246788025,-2.1624755859375
1789324457923811800,13.937811767578125,-1.109298586845398,0.5686988234519958,-2.1728601455688477
1789324457942662000,13.956661865234375,-1.0995250940322876,0.3035911023616791,-2.4013168811798096
1789324457961512200,13.97551220703125,-0.971247136592865,0.208298921585083,-2.5839602947235107
1789324457980362200,13.9943623046875,-0.6896465420722961,0.182643324136734,-2.553417921066284
1789324457999212300,14.01321240234375,-0.4862344264984131,0.10323318839073181,-2.3194634914398193
1789324458018062300,14.032062255859374,-0.3426853120326996,0.11300674080848694,-2.0445821285247803
1789324458036912400,14.050912353515624,-0.1716480851173401,0.06169557198882103,-1.7507646083831787
1789324458055762400,14.069762451171876,0.028098974376916885,0.08246438205242157,-1.3402752876281738
1789324458074612500,14.088612548828126,0.2351761907339096,0.07391251623630524,-0.873511552810669
1789324458093462500,14.107462646484375,0.37506023049354553,0.06841489672660828,-0.45263782143592834
1789324458112312600,14.1263125,0.3793361485004425,0.10140064358711243,-0.12278030067682266
1789324458131162600,14.14516259765625,0.30603447556495667,-0.055587101727724075,0.11911521852016449
1789324458150012700,14.1640126953125,0.2895416021347046,-0.2852656841278076,0.42392799258232117
1789324458168863000,14.182863037109374,0.3158080279827118,-0.38910970091819763,0.7403468489646912
1789324458187713000,14.201713134765624,0.4190412163734436,-0.2864873707294464,0.916270911693573
1789324458206563000,14.22056298828125,0.4947862923145294,-0.2608317732810974,0.9651386737823486
1789324458225413000,14.2394130859375,0.4575245976448059,-0.21990501880645752,0.9932376146316528
1789324458244263200,14.25826318359375,0.3408527672290802,-0.3243598937988281,1.1209046840667725
1789324458263113200,14.27711328125,0.2504473626613617,-0.4477510452270508,1.2656755447387695
1789324458281963300,14.29596337890625,0.23090025782585144,-0.46546560525894165,1.3714284896850586
1789324458300813300,14.314813232421875,0.24372805655002594,-0.5033381581306458,1.4874894618988037
1789324458319663400,14.333663330078124,0.42392799258232117,-0.5961869359016418,1.6114914417266846
1789324458338513400,14.352513427734374,0.5760289430618286,-0.5051707029342651,1.7226656675338745
1789324458357363500,14.371363525390626,0.6169557571411133,-0.5137225389480591,1.7116703987121582
1789324458376213500,14.390213623046876,0.6022953987121582,-0.5112791657447815,1.7104486227035522
1789324458395063600,14.4090634765625,0.6206207871437073,-0.767224133014679,1.7623707056045532
1789324458413913600,14.42791357421875,0.726908266544342,-0.893058717250824,1.8075734376907349
1789324458432763600,14.446763671875,0.8002098798751831,-0.9181034564971924,1.7861937284469604
1789324458451613700,14.46561376953125,0.8863393664360046,-1.1013575792312622,1.7886371612548828
1789324458470463700,14.484463623046874,0.9297095537185669,-1.26872980594635,1.9040873050689697
1789324458489313800,14.503313720703124,0.818535327911377,-1.5210859775543213,1.808184266090393
1789324458508163800,14.522163818359376,0.6352811455726624,-1.5131449699401855,1.4905437231063843
1789324458527014000,14.541013916015626,0.5375455617904663,-1.2186403274536133,1.2113101482391357
1789324458545864000,14.559864013671875,0.5442649126052856,-0.7800519466400146,1.109298586845398
1789324458564714000,14.5787138671875,0.6053496599197388,-0.6395570635795593,1.2406307458877563
1789324458583564000,14.59756396484375,0.660936713218689,-0.45385950803756714,1.064706802368164
1789324458602414000,14.6164140625,0.6420004963874817,-0.14721418917179108,0.7391251921653748
1789324458621264100,14.63526416015625,0.5473191738128662,0.1435490995645523,0.4691306948661804
1789324458640114200,14.6541142578125,0.4343124032020569,0.33352261781692505,0.2498365342617035
1789324458658964200,14.672964111328126,0.29503923654556274,0.5387672781944275,0.0030542362947016954
1789324458677814300,14.691814208984376,0.19180603325366974,0.6352811455726624,-0.3139754831790924
1789324458696664300,14.710664306640625,0.10689827054738998,0.7238540053367615,-0.6780404448509216
1789324458715514400,14.729514404296875,-0.02076880633831024,0.9290986657142639,-0.9016105532646179
1789324458734364400,14.748364501953125,-0.22723518311977386,1.123958945274353,-1.0335536003112793
1789324458753214500,14.76721435546875,-0.3665083646774292,1.2192511558532715,-1.2137534618377686
1789324458772064500,14.786064453125,-0.4844018816947937,1.3860887289047241,-1.427626371383667
1789324458790914600,14.80491455078125,-0.5540384650230408,1.5284161567687988,-1.625540852546692
1789324458809764600,14.8237646484375,-0.6462764143943787,1.511312484741211,-1.7434344291687012
1789324458828614700,14.84261474609375,-0.833195686340332,1.4184637069702148,-1.7177788019180298
1789324458847464700,14.861464599609375,-1.0085088014602661,1.321873426437378,-1.9218018054962158
1789324458866314800,14.880314697265625,-1.1538904905319214,1.1318999528884888,-2.1178839206695557
1789324458885164800,14.899164794921875,-1.2638429403305054,1.045770525932312,-2.263265371322632
1789324458904014800,14.918014892578125,-1.2491827011108398,0.6994200944900513,-2.3115224838256836
1789324458922865000,14.936864990234374,-1.1520578861236572,0.7006418108940125,-2.3603901863098145
1789324458941715000,14.95571484375,-0.9804098606109619,0.5723638534545898,-2.4898898601531982
1789324458960564700,14.974564697265626,-0.7488987445831299,0.5619794726371765,-2.4990525245666504
1789324458979414800,14.993414794921875,-0.5809157490730286,0.5094466209411621,-2.420253276824951
1789324458998264800,15.012264892578125,-0.40010493993759155,0.4324798583984375,-2.252270221710205
1789324459017115000,15.031114990234375,-0.1973036676645279,0.5051707029342651,-1.7874153852462769
1789324459035965000,15.04996484375,-0.0647498071193695,0.573585569858551,-1.203369140625
1789324459054815000,15.06881494140625,0.011606098152697086,0.5088357925415039,-0.7488987445831299
1789324459073665000,15.0876650390625,0.010995250195264816,0.32374903559684753,-0.4080459773540497
1789324459092515000,15.10651513671875,0.04886778071522713,0.24128466844558716,-0.12827792763710022
1789324459111365000,15.125365234375,0.09834641218185425,0.29259583353996277,0.11300674080848694
1789324459130215000,15.14421484375,0.1319430023431778,0.27915719151496887,0.3640649616718292
1789324459149065000,15.16306494140625,0.16798299551010132,0.13560809195041656,0.6377245187759399
1789324459167915000,15.1819150390625,0.21623992919921875,0.062306419014930725,0.860683798789978
1789324459186765000,15.20076513671875,0.19974705576896667,-0.05008947476744652,1.0195040702819824
1789324459205615000,15.219614990234374,0.12644538283348083,-0.13316470384597778,1.1942063570022583
1789324459224465200,15.238465087890624,0.10140064358711243,-0.20463383197784424,1.339664340019226
1789324459243315200,15.257315185546876,0.07696675509214401,-0.21807247400283813,1.4386216402053833
1789324459262165200,15.276165283203126,0.1178935244679451,-0.14843589067459106,1.4899327754974365
1789324459281015000,15.29501513671875,0.18875180184841156,-0.008551862090826035,1.540633201599121
1789324459299865000,15.313864990234375,0.2754921019077301,0.021379653364419937,1.6035504341125488
1789324459318715100,15.332715087890625,0.34696123003959656,-0.06413896381855011,1.6982316970825195
1789324459337565200,15.351565185546875,0.41171106696128845,-0.2492256760597229,1.8045191764831543
1789324459356415200,15.370415283203124,0.4966188073158264,-0.45263782143592834,1.9132499694824219
1789324459384690200,15.398690185546876,0.5986303091049194,-0.5241069197654724,2.0775678157806396
1789324459403540200,15.417540283203126,0.5289937257766724,-0.5247178077697754,2.101390838623047
1789324459422390300,15.436390380859375,0.44042086601257324,-0.6462764143943787,2.0445821285247803
1789324459441240300,15.455240234375,0.46363306045532227,-0.7482879161834717,2.000601053237915
1789324459460090000,15.474090087890625,0.5528167486190796,-0.9883508682250977,2.0745136737823486
1789324459478940200,15.492940185546875,0.4868452548980713,-1.285833477973938,2.047025442123413
1789324459497790200,15.511790283203124,0.3304683566093445,-1.4270155429840088,1.7208330631256104
1789324459516640300,15.53064013671875,0.2870981991291046,-1.1441168785095215,1.3799803256988525
1789324459535490300,15.549490234375,0.3689517378807068,-0.869846522808075,1.2852226495742798
1789324459554340000,15.568340087890626,0.4489727318286896,-0.7342383861541748,1.1899304389953613
1789324459573190100,15.587190185546875,0.46241137385368347,-0.48806697130203247,0.8729007244110107
1789324459592040200,15.606040283203125,0.3042019307613373,-0.1557660549879074,0.6029062271118164
1789324459610890200,15.62489013671875,0.08185353130102158,-0.15943112969398499,0.47646087408065796
1789324459639165200,15.653165283203125,-0.15026842057704926,0.05925218388438225,0.13744063675403595
1789324459658015200,15.67201513671875,-0.14782503247261047,0.3139754831790924,-0.16615045070648193
1789324459676865000,15.690864990234376,-0.20157960057258606,0.5412106513977051,-0.44042086601257324
1789324459695715000,15.709715087890626,-0.367730051279068,0.7696675658226013,-0.6371136903762817
1789324459714565000,15.728565185546875,-0.5137225389480591,0.7317950129508972,-0.7776085734367371
1789324459733415200,15.747415283203125,-0.6145123243331909,0.9571976661682129,-1.031110167503357
1789324459752265200,15.76626513671875,-0.7024743556976318,1.1068552732467651,-1.2723948955535889
1789324459771115000,15.785114990234375,-0.767224133014679,1.2613996267318726,-1.4154094457626343
1789324459789965000,15.803965087890624,-0.8551861643791199,1.326149344444275,-1.5314704179763794
1789324459808815000,15.822815185546874,-1.0928057432174683,1.0476030111312866,-1.6121022701263428
1789324459827665000,15.841664794921876,-1.2387982606887817,1.1038010120391846,-1.7782527208328247
1789324459846515000,15.860514892578125,-1.3634874820709229,0.9315420985221863,-1.955398440361023
1789324459865365000,15.879364990234375,-1.353713870048523,0.7855495810508728,-2.176525115966797
1789324459884215000,15.898215087890625,-1.412966012954712,0.48806697130203247,-2.2302796840667725
1789324459903064800,15.91706494140625,-1.372650146484375,0.31092125177383423,-2.4617908000946045
1789324459921915000,15.935914794921874,-1.2149752378463745,0.3042019307613373,-2.7281203269958496
1789324459950189800,15.96418994140625,-0.7757760286331177,0.37261682748794556,-2.654818534851074
1789324459969040000,15.983039794921876,-0.6157340407371521,0.17286977171897888,-2.3891000747680664
1789324459987889700,16.0018896484375,-0.446529358625412,0.006108472589403391,-1.9150824546813965
1789324460006739700,16.02073974609375,-0.18019993603229523,0.1973036676645279,-1.4154094457626343
1789324460025589800,16.03958984375,0.024433890357613564,0.38849884271621704,-0.994459331035614
1789324460044439600,16.058439453125,0.08857285231351852,0.2608317732810974,-0.6071822047233582
1789324460063289600,16.07728955078125,0.09284878522157669,0.02626643143594265,-0.18997350335121155
1789324460082139600,16.0961396484375,0.11911521852016449,-0.04031591862440109,0.1948602795600891
1789324460100989400,16.114989501953126,0.2089097648859024,-0.10628741979598999,0.43614494800567627
1789324460119839500,16.133839599609374,0.25533416867256165,-0.1313321590423584,0.7055285573005676
1789324460138689500,16.152689453125,0.24494975805282593,-0.2363978922367096,1.0262234210968018
1789324460157539600,16.17153955078125,0.27854636311531067,-0.20280128717422485,1.2650647163391113
1789324460176389400,16.190389404296877,0.2602209448814392,-0.20035789906978607,1.3157650232315063
1789324460195239400,16.209239501953125,0.1692046970129013,-0.3665083646774292,1.3102673292160034
1789324460214089500,16.22808935546875,0.051922015845775604,-0.4844018816947937,1.3885321617126465
1789324460232939300,16.246939208984376,0.007941014133393764,-0.5112791657447815,1.4300698041915894
1789324460251789300,16.265789306640624,0.05864133685827255,-0.43736663460731506,1.3879213333129883
1789324460270639000,16.28463916015625,0.1966928243637085,-0.41171106696128845,1.431902289390564
1789324460289489200,16.3034892578125,0.40254834294319153,-0.49417543411254883,1.6322602033615112
1789324460308339200,16.322339111328127,0.6328377723693848,-0.6126797795295715,1.84850013256073
1789324460327189000,16.34118896484375,0.7769976854324341,-0.7788302302360535,1.9120283126831055
1789324460346039000,16.3600390625,0.7898254990577698,-0.7934905886650085,1.8912594318389893
1789324460364888800,16.378888916015626,0.739736020565033,-0.7366818189620972,1.8643821477890015
1789324460383739000,16.39773876953125,0.7568397521972656,-0.8845068216323853,1.8417809009552002
1789324460402589000,16.4165888671875,0.8539644479751587,-1.0103414058685303,1.852776050567627
1789324460421438700,16.435438720703125,0.9284878373146057,-1.1013575792312622,1.8478893041610718
1789324460440288800,16.454288818359377,0.8362498879432678,-1.0952491760253906,1.770311713218689
1789324460459138600,16.473138671875,0.6737645268440247,-1.0854755640029907,1.7092269659042358
1789324460477988600,16.491988525390624,0.5192201733589172,-1.4477843046188354,1.6762412786483765
1789324460496838700,16.510838623046876,0.49234288930892944,-1.7043402194976807,1.3689850568771362
1789324460515688400,16.5296884765625,0.5375455617904663,-1.340886116027832,1.113574504852295
1789324460534538500,16.54853857421875,0.6145123243331909,-0.8533536195755005,0.9895725846290588
1789324460553388300,16.56738818359375,0.6487197875976562,-0.6071822047233582,0.9052756428718567
1789324460572238300,16.58623828125,0.6407787799835205,-0.42392799258232117,0.6200099587440491
1789324460591088400,16.60508837890625,0.5650337338447571,-0.09956810623407364,0.24189551174640656
1789324460609938200,16.623938232421875,0.3811686933040619,0.182643324136734,-0.11972606182098389
1789324460628788200,16.642788330078126,0.18875180184841156,0.45141613483428955,-0.3151971995830536
1789324460647638000,16.661637939453126,0.1050657257437706,0.6859814524650574,-0.5674771070480347
1789324460666488000,16.680488037109374,-0.023212196305394173,1.0243908166885376,-0.70308518409729
1789324460685337900,16.699337890625,-0.15210096538066864,1.1160179376602173,-0.9718579649925232
1789324460704188000,16.71818798828125,-0.2620534598827362,1.3230952024459839,-1.220472812652588
1789324460723037700,16.73703759765625,-0.40010493993759155,1.3255385160446167,-1.3964731693267822
1789324460751312600,16.765312744140626,-0.518609344959259,1.2369656562805176,-1.678073763847351
1789324460770162700,16.78416259765625,-0.7715001106262207,1.1673290729522705,-1.7177788019180298
1789324460789012500,16.803012451171874,-1.0262234210968018,1.1795459985733032,-1.7501537799835205
1789324460807862500,16.821862548828125,-1.2125318050384521,1.0958600044250488,-1.9682261943817139
1789324460826712300,16.84071240234375,-1.3592115640640259,0.8521319031715393,-2.127657413482666
1789324460845562400,16.859562255859377,-1.3543246984481812,0.7892146706581116,-2.3945975303649902
1789324460864412200,16.878412109375,-1.2632321119308472,0.5137225389480591,-2.420253276824951
1789324460883262200,16.89726220703125,-1.161220669746399,0.4294256269931793,-2.4355244636535645
1789324460902112000,16.916112060546876,-0.9883508682250977,0.418430358171463,-2.6499316692352295
1789324460920962000,16.934962158203124,-0.6865923404693604,0.30786702036857605,-2.8631174564361572
1789324460939811800,16.953811767578124,-0.4330907166004181,0.2492256760597229,-2.624886989593506
1789324460958661600,16.97266162109375,-0.28037887811660767,0.20280128717422485,-2.1661407947540283
1789324460977511700,16.99151171875,-0.04581354558467865,0.10873081535100937,-1.7868045568466187
1789324460996361500,17.010361572265627,0.04703523963689804,0.09773556143045425,-1.4013599157333374
1789324461015211500,17.02921142578125,0.17714570462703705,0.18936264514923096,-0.9602518677711487
1789324461034061300,17.048061279296874,0.2632751762866974,0.14965757727622986,-0.527161180973053
1789324461052911400,17.066911376953126,0.30847787857055664,0.021379653364419937,-0.12278030067682266
1789324461071761200,17.08576123046875,0.3439069986343384,-0.07635590434074402,0.17470231652259827
1789324461090611200,17.104611083984373,0.39888325333595276,-0.1429382562637329,0.41232189536094666
1789324461109461000,17.1234609375,0.41048935055732727,-0.042759306728839874,0.6688777208328247
1789324461128311000,17.14231103515625,0.4049917459487915,-0.2754921019077301,0.8912261724472046
1789324461147160800,17.161160888671876,0.3658975064754486,-0.34573954343795776,1.13800847530365
1789324461166010600,17.1800107421875,0.3518480062484741,-0.2638860046863556,1.3096565008163452
1789324461184860700,17.198860595703124,0.3500154912471771,-0.33291175961494446,1.327981948852539
1789324461203710500,17.21771044921875,0.2351761907339096,-0.3243598937988281,1.3224843740463257
1789324461222560500,17.236560546875,0.16065283119678497,-0.3787252902984619,1.404414176940918
1789324461241410300,17.255410400390623,0.19302773475646973,-0.24617144465446472,1.501538872718811
1789324461260260000,17.274260009765626,0.2870981991291046,-0.16431790590286255,1.5528501272201538
1789324461279110100,17.293110107421874,0.365286648273468,-0.12644538283348083,1.5882792472839355
1789324461297960000,17.3119599609375,0.41171106696128845,-0.34635040163993835,1.719611406326294
1789324461316810000,17.33081005859375,0.527161180973053,-0.6487197875976562,1.8668255805969238
1789324461335659800,17.34965966796875,0.6597150564193726,-0.7024743556976318,1.9437923431396484
1789324461354509600,17.368509521484373,0.7379034757614136,-0.7281299233436584,1.9566200971603394
1789324461373359600,17.387359619140625,0.7049177289009094,-1.0072871446609497,1.9291319847106934
1789324461392209400,17.40620947265625,0.7372926473617554,-1.2894985675811768,1.8875943422317505
1789324461411059500,17.4250595703125,0.7983773946762085,-1.3524922132492065,1.9083632230758667
1789324461429909200,17.4439091796875,0.675597071647644,-1.3163758516311646,1.8130710124969482
1789324461448759000,17.462759033203124,0.46668729186058044,-1.4777158498764038,1.640201210975647
1789324461467609000,17.481609130859376,0.34512871503829956,-1.475272536277771,1.5180318355560303
1789324461486459000,17.500458984375,0.41293275356292725,-1.1764918565750122,1.3952515125274658
1789324461505308700,17.51930859375,0.6041279435157776,-0.6737645268440247,1.2937744855880737
1789324461524158700,17.53815869140625,0.6200099587440491,-0.4837910234928131,1.090362310409546
1789324461543008500,17.557008544921874,0.5845808386802673,-0.2089097648859024,0.8118160367012024
1789324461561858300,17.5758583984375,0.5338805317878723,-0.1301104724407196,0.40254834294319153
1789324461580708400,17.594708251953126,0.4068242609500885,0.11422843486070633,0.06841489672660828
1789324461599558100,17.61355810546875,0.2113531529903412,0.3158080279827118,-0.05925218388438225
1789324461618408000,17.632407958984373,0.13805148005485535,0.469741553068161,-0.21807247400283813
1789324461637258000,17.651258056640625,0.12888877093791962,0.5925218462944031,-0.5858024954795837
1789324461656107800,17.670107666015625,0.051922015845775604,0.7934905886650085,-0.9474241137504578
1789324461674957600,17.68895751953125,-0.1710372269153595,1.2143644094467163,-1.1331216096878052
1789324461693807600,17.7078076171875,-0.4563029110431671,1.290109395980835,-1.2516260147094727
1789324461712657400,17.726657470703124,-0.5900784730911255,1.3500487804412842,-1.4734399318695068
1789324461731507200,17.745507080078124,-0.6377245187759399,1.4758833646774292,-1.6628025770187378
1789324461750357000,17.76435693359375,-0.809983491897583,1.4367891550064087,-1.7599272727966309
1789324461769207000,17.78320703125,-0.9926267862319946,1.4917653799057007,-1.8662147521972656
1789324461788056800,17.802056884765626,-1.1679399013519287,1.3482162952423096,-2.0965042114257812
1789324461806906600,17.82090673828125,-1.3445512056350708,1.0989142656326294,-2.2418859004974365
1789324461825756700,17.839756591796874,-1.4221287965774536,0.8448017835617065,-2.3750505447387695
1789324461844606500,17.8586064453125,-1.3689850568771362,0.629172682762146,-2.333512783050537
1789324461863456300,17.877456298828125,-1.1777135133743286,0.5864133834838867,-2.455071449279785
1789324461882306000,17.89630615234375,-0.9284878373146057,0.5888567566871643,-2.5631914138793945
1789324461901156000,17.915156005859377,-0.6780404448509216,0.4489727318286896,-2.517988681793213
1789324461920006000,17.934005859375,-0.46424391865730286,0.3658975064754486,-2.2876992225646973
1789324461938855700,17.952855712890624,-0.3054236173629761,0.2779355049133301,-1.9163042306900024
1789324461957705500,17.97170556640625,-0.182643324136734,0.363454133272171,-1.520475149154663
1789324461976555500,17.990555419921876,-0.10995250940322876,0.35978904366493225,-1.1025793552398682
1789324461995405300,18.0094052734375,0.037261683493852615,0.36284327507019043,-0.7159129977226257
1789324462014255000,18.028255126953123,0.08979454636573792,0.2767138183116913,-0.390942245721817
1789324462033105000,18.04710498046875,0.10689827054738998,0.1441599577665329,-0.11483928561210632
1789324462051955000,18.065954833984375,0.1185043677687645,0.09712471067905426,0.16737215220928192
1789324462070804700,18.0848046875,0.15943112969398499,0.012827792204916477,0.4343124032020569
1789324462089654500,18.103654541015626,0.1954711228609085,0.014660334214568138,0.7372926473617554
1789324462108504300,18.12250439453125,0.17225892841815948,-0.1172826737165451,0.962695300579071
1789324462127354000,18.14135400390625,0.16798299551010132,-0.3304683566093445,1.1459494829177856
1789324462146204200,18.1602041015625,0.2217375487089157,-0.1985253542661667,1.2681188583374023
1789324462165054000,18.179053955078125,0.19119518995285034,-0.2363978922367096,1.2607887983322144
1789324462183903700,18.19790380859375,0.16859383881092072,-0.3542914092540741,1.2766708135604858
1789324462202753500,18.21675341796875,0.16615045070648193,-0.39643988013267517,1.3787586688995361
1789324462221603300,18.235603271484376,0.29259583353996277,-0.25716668367385864,1.4502277374267578
1789324462240453400,18.254453369140624,0.40010493993759155,-0.31092125177383423,1.478326678276062
1789324462259303200,18.27330322265625,0.47585001587867737,-0.3823903799057007,1.641422986984253
1789324462278153000,18.292153076171875,0.5173876285552979,-0.6029062271118164,1.8118493556976318
1789324462297002800,18.311002685546875,0.5760289430618286,-0.726908266544342,1.8515543937683105
1789324462315852500,18.3298525390625,0.6224533319473267,-0.7641699314117432,1.8332289457321167
1789324462344127200,18.358127197265624,0.5839699506759644,-0.8081509470939636,1.9535658359527588
1789324462362977300,18.376977294921875,0.6340594291687012,-0.8955020904541016,1.9022547006607056
1789324462381827000,18.3958271484375,0.7959339618682861,-0.9785773158073425,1.8149036169052124
1789324462400676900,18.4146767578125,0.7470661997795105,-1.2546802759170532,1.7629815340042114
1789324462419526700,18.433526611328126,0.5479300022125244,-1.4990955591201782,1.660359263420105
1789324462438376400,18.45237646484375,0.3775036036968231,-1.6658568382263184,1.52475106716156
1789324462457226200,18.471226318359374,0.41476529836654663,-1.4893219470977783,1.4300698041915894
1789324462476076300,18.490076171875,0.577861487865448,-1.0335536003112793,1.2766708135604858
1789324462494926000,18.508926025390625,0.6682668924331665,-0.5192201733589172,1.1361758708953857
1789324462513775900,18.52777587890625,0.5748072862625122,-0.4679090082645416,0.9107732772827148
1789324462532625700,18.546625732421877,0.5222744345664978,-0.2602209448814392,0.5925218462944031
1789324462551475500,18.565475341796876,0.4428642690181732,0.056808795779943466,0.21562908589839935
1789324462570325200,18.5843251953125,0.2644968628883362,0.3836120665073395,-0.018936265259981155
1789324462589175000,18.603175048828124,0.11911521852016449,0.35856732726097107,-0.2101314514875412
1789324462608024800,18.62202490234375,0.02870982140302658,0.5485408306121826,-0.4844018816947937
1789324462626874600,18.64087451171875,-0.03420744836330414,0.7763868570327759,-0.7293516397476196
1789324462645724700,18.659724609375,-0.1185043677687645,1.012784719467163,-0.8863393664360046
1789324462664574500,18.678574462890627,-0.29626092314720154,1.2400199174880981,-1.0928057432174683
1789324462683424300,18.69742431640625,-0.46729815006256104,1.3995274305343628,-1.3230952024459839
1789324462702274000,18.716274169921874,-0.6328377723693848,1.5198643207550049,-1.4801592826843262
1789324462721123800,18.735123779296874,-0.7898254990577698,1.5296379327774048,-1.6096588373184204
1789324462739973600,18.7539736328125,-1.0072871446609497,1.427626371383667,-1.6004961729049683
1789324462758823400,18.772823486328125,-1.090362310409546,1.566288709640503,-1.7501537799835205
1789324462777673200,18.791673095703125,-1.1899304389953613,1.4899327754974365,-1.9309645891189575
1789324462796523000,18.81052294921875,-1.3476054668426514,1.1166287660598755,-2.103834390640259
1789324462815372800,18.829372802734376,-1.507036566734314,0.790436327457428,-2.2327229976654053
1789324462843647500,18.8576474609375,-1.3096565008163452,0.5051707029342651,-2.426361560821533
1789324462862497300,18.876497314453125,-1.0195040702819824,0.3646758198738098,-2.451406478881836
1789324462881347000,18.89534716796875,-0.8154810667037964,0.42881476879119873,-2.306635618209839
1789324462900196900,18.91419677734375,-0.6865923404693604,0.41048935055732727,-2.1349875926971436
1789324462919047000,18.933046875,-0.5741963982582092,0.23884128034114838,-1.7996324300765991
1789324462937896700,18.951896728515624,-0.4556920528411865,0.34940463304519653,-1.3512704372406006
1789324462956746500,18.97074658203125,-0.27121618390083313,0.3897205591201782,-0.9126058220863342
1789324462975596300,18.98959619140625,-0.12278030067682266,0.2596100866794586,-0.5234960913658142
1789324462994446000,19.008446044921875,-0.09345962852239609,0.15393351018428802,-0.20585553348064423
1789324463013295900,19.0272958984375,-0.08918370306491852,0.036039989441633224,-0.024433890357613564
1789324463032145700,19.046145751953127,-0.06658235192298889,0.07757759839296341,0.17531315982341766
1789324463050995500,19.064995361328126,0.04581354558467865,-0.06719319522380829,0.4587462842464447
1789324463069845200,19.08384521484375,0.1447708010673523,-0.11239589750766754,0.7690566778182983
1789324463088695000,19.102695068359374,0.20157960057258606,-0.32008397579193115,0.9724688529968262
1789324463107544800,19.121544921875,0.25289076566696167,-0.4214846193790436,1.1270132064819336
1789324463126394600,19.14039453125,0.3518480062484741,-0.28037887811660767,1.1508362293243408
1789324463145244400,19.159244384765625,0.4159869849681854,-0.06841489672660828,1.0256125926971436
1789324463164094200,19.17809423828125,0.38483378291130066,-0.15332266688346863,0.9584193229675293
1789324463182944000,19.196944091796876,0.3304683566093445,-0.3970507085323334,1.1422843933105469
1789324463201793800,19.215793701171876,0.3384093940258026,-0.5662553906440735,1.4245721101760864
1789324463220643600,19.2346435546875,0.4324798583984375,-0.6835380792617798,1.5094798803329468
1789324463239493400,19.253493408203123,0.44958359003067017,-0.6743753552436829,1.6102697849273682
1789324463258343200,19.27234326171875,0.38544461131095886,-0.6071822047233582,1.7403801679611206
1789324463277193000,19.29119287109375,0.3549022674560547,-0.5436540842056274,1.8454458713531494
1789324463296042500,19.31004248046875,0.5192201733589172,-0.5809157490730286,1.9993793964385986
1789324463314892300,19.328892333984374,0.7824953198432922,-0.5833591222763062,2.0885632038116455
1789324463343167000,19.3571669921875,0.9749122262001038,-0.6603258848190308,1.9841082096099854
1789324463362016800,19.376016845703123,0.911384105682373,-1.0848647356033325,1.9059197902679443
1789324463380866600,19.394866455078127,0.6927008032798767,-1.281557559967041,1.7587056159973145
1789324463399716400,19.41371630859375,0.5405998229980469,-1.1160179376602173,1.5461307764053345
1789324463418566100,19.432566162109374,0.3830012381076813,-1.1410627365112305,1.5589585304260254
1789324463437416000,19.451416015625,0.25777754187583923,-1.3952515125274658,1.6090480089187622
1789324463456265700,19.470265625,0.27121618390083313,-1.3940298557281494,1.4294589757919312
1789324463475115500,19.489115478515625,0.49173203110694885,-0.9645278453826904,1.113574504852295
1789324463493965300,19.50796533203125,0.5650337338447571,-0.444085955619812,0.6829272508621216
1789324463512815000,19.526815185546877,0.49295374751091003,-0.12461283802986145,0.2736595869064331
1789324463531665000,19.545664794921876,0.31886225938796997,-0.10078980028629303,0.1844758689403534
1789324463550514700,19.5645146484375,0.2089097648859024,-0.2767138183116913,-0.0012216945178806782
1789324463569364500,19.583364501953124,0.10384403169155121,0.21379654109477997,-0.312142938375473
1789324463588214300,19.60221435546875,-0.10201149433851242,0.624896764755249,-0.5479300022125244
1789324463607063800,19.621063720703123,-0.26877278089523315,0.9254335761070251,-0.6426113247871399
1789324463625913600,19.63991357421875,-0.3042019307613373,1.1899304389953613,-0.7971556782722473
1789324463644763400,19.658763427734375,-0.2980934679508209,1.4270155429840088,-1.0164498090744019
1789324463663613200,19.67761328125,-0.45447036623954773,1.5821707248687744,-1.1874871253967285
1789324463682463000,19.696462890625,-0.6395570635795593,1.300493836402893,-1.4306806325912476
1789324463701312800,19.715312744140626,-0.8441908955574036,1.180156946182251,-1.5473524332046509
1789324463720162600,19.73416259765625,-1.1245697736740112,1.0335536003112793,-1.6982316970825195
1789324463739012000,19.75301220703125,-1.2840009927749634,1.1080769300460815,-1.9560092687606812
1789324463757862000,19.77186181640625,-1.43312406539917,0.9028322696685791,-2.0213699340820312
1789324463776711700,19.790711669921876,-1.3940298557281494,0.7379034757614136,-2.1954615116119385
1789324463795561500,19.8095615234375,-1.277281641960144,0.5937435626983643,-2.3139657974243164
1789324463814411300,19.828411376953124,-1.1795459985733032,0.42576053738594055,-2.3463406562805176
1789324463842686000,19.85668603515625,-0.8686248064041138,0.3280249834060669,-2.6358823776245117
1789324463861535700,19.87553564453125,-0.6817055344581604,0.4428642690181732,-2.6010639667510986
1789324463880385300,19.89438525390625,-0.5589252710342407,0.37261682748794556,-2.3237392902374268
1789324463899235000,19.913235107421876,-0.39949411153793335,0.3164188861846924,-1.9120283126831055
1789324463918084900,19.9320849609375,-0.2107423096895218,0.3762819170951843,-1.5504066944122314
1789324463936934700,19.9509345703125,-0.021990500390529633,0.3249707520008087,-1.295607089996338
1789324463955784400,19.969784423828123,0.0653606578707695,0.14049486815929413,-0.9254335761070251
1789324463974634200,19.98863427734375,0.13560809195041656,0.130721315741539,-0.49295374751091003
1789324463993483800,20.00748388671875,0.1844758689403534,0.13377554714679718,-0.12705622613430023
1789324464012333600,20.02633349609375,0.19974705576896667,-0.0659715011715889,0.20402298867702484
1789324464031183400,20.045183349609374,0.2858765125274658,-0.13805148005485535,0.5320479869842529
1789324464050033200,20.064033203125,0.35856732726097107,-0.31092125177383423,0.8405258059501648
1789324464068883000,20.082883056640625,0.38666632771492004,-0.31092125177383423,1.0970816612243652
1789324464087732700,20.101732666015625,0.3176405727863312,-0.395218163728714,1.2803359031677246
1789324464106582300,20.120582275390625,0.3268032968044281,-0.624896764755249,1.4019708633422852
1789324464125432000,20.13943212890625,0.37261682748794556,-0.42881476879119873,1.4392324686050415
1789324464144281900,20.15828173828125,0.3115321099758148,-0.3946073353290558,1.3488271236419678
1789324464163131600,20.177131591796876,0.2724378705024719,-0.418430358171463,1.2632321119308472
1789324464181981400,20.1959814453125,0.2101314514875412,-0.5632011890411377,1.3970839977264404
1789324464200831000,20.2148310546875,0.41048935055732727,-0.5100574493408203,1.5455199480056763
1789324464219680800,20.2336806640625,0.577861487865448,-0.5955760478973389,1.608437180519104
1789324464238530600,20.252530517578126,0.6529957056045532,-0.754396378993988,1.7452670335769653
1789324464257380400,20.27138037109375,0.6505523324012756,-0.8283088803291321,1.9260777235031128
1789324464276230100,20.290230224609374,0.6872031688690186,-0.8851176500320435,1.9993793964385986
1789324464295079700,20.30907958984375,0.8063184022903442,-0.8790091872215271,1.9120283126831055
1789324464313929500,20.327929443359373,0.8313631415367126,-0.8851176500320435,1.770311713218689
1789324464342204200,20.3562041015625,0.8399149775505066,-1.0317209959030151,1.7635923624038696
1789324464361053700,20.3750537109375,0.8393041491508484,-1.111131191253662,1.8008540868759155
1789324464379903500,20.393903564453126,0.781884491443634,-1.3292036056518555,1.5919443368911743
1789324464398753300,20.412753173828126,0.5931326746940613,-1.5467416048049927,1.3677634000778198
1789324464417603000,20.43160302734375,0.4618005156517029,-1.2833900451660156,1.2589561939239502
1789324464436452900,20.450452880859373,0.5638120174407959,-1.0298885107040405,1.0243908166885376
1789324464455302400,20.469302490234377,0.7165238261222839,-0.6542174220085144,0.9938485026359558
1789324464474152200,20.488152099609376,0.7018635272979736,-0.5363239049911499,0.7330167293548584
1789324464493002000,20.507001953125,0.5833591222763062,-0.2877090573310852,0.4214846193790436
1789324464511851500,20.5258515625,0.40071579813957214,0.09345962852239609,0.04825693368911743
1789324464530701300,20.544701416015624,0.23090025782585144,0.25411245226860046,-0.1056765764951706
1789324464549551000,20.563551025390623,0.10323318839073181,0.24617144465446472,-0.16370706260204315
1789324464568400600,20.582400634765627,0.036039989441633224,0.5686988234519958,-0.36162158846855164
1789324464587250400,20.60125048828125,-0.051922015845775604,0.8832851648330688,-0.5412106513977051
1789324464606100200,20.620100341796874,-0.12705622613430023,1.064706802368164,-0.7207997441291809
1789324464624950000,20.638949951171874,-0.30786702036857605,1.2846118211746216,-0.9144383668899536
1789324464643799600,20.657799560546874,-0.47890424728393555,1.3096565008163452,-1.1691616773605347
1789324464662649300,20.6766494140625,-0.5919110178947449,1.4410650730133057,-1.4349565505981445
1789324464681499100,20.6954990234375,-0.7769976854324341,1.4856568574905396,-1.5907225608825684
1789324464700348700,20.7143486328125,-0.9608627557754517,1.252847671508789,-1.6059937477111816
1789324464719198500,20.733198486328124,-1.1807677745819092,1.3059914112091064,-1.5925551652908325
1789324464738048300,20.75204833984375,-1.1972606182098389,0.9107732772827148,-1.9144716262817383
1789324464756898000,20.77089794921875,-1.298661231994629,0.7385143637657166,-2.0739028453826904
1789324464775747600,20.78974755859375,-1.2803359031677246,0.6432221531867981,-2.4214749336242676
1789324464794597400,20.808597412109375,-1.2723948955535889,0.46546560525894165,-2.5277624130249023
1789324464813447200,20.827447265625,-1.2003148794174194,0.49356457591056824,-2.5656347274780273
1789324464841721600,20.8557216796875,-0.8380824327468872,0.4850127100944519,-2.5870144367218018
1789324464860571400,20.8745712890625,-0.610236406326294,0.6090146899223328,-2.4819488525390625
1789324464879421000,20.8934208984375,-0.33413344621658325,0.5137225389480591,-2.1869094371795654
1789324464898270700,20.912270751953123,-0.08551861345767975,0.6230642199516296,-1.7257198095321655
1789324464917120500,20.93112060546875,0.02748812735080719,0.629172682762146,-1.332257866859436
1789324464935970000,20.949969970703126,0.08857285231351852,0.4752391576766968,-0.9846857786178589
1789324464954819800,20.96881982421875,0.02870982140302658,0.19180603325366974,-0.6273401379585266
1789324464973669600,20.987669677734374,0.04337015375494957,0.14049486815929413,-0.3158080279827118
1789324464992519200,21.006519287109374,0.12522368133068085,0.17348061501979828,-0.026877280324697495
1789324465011369000,21.025368896484373,0.16553960740566254,-0.21807247400283813,0.33230090141296387
1789324465030218800,21.04421875,0.1698155403137207,-0.21990501880645752,0.6786513328552246
1789324465049068300,21.063068359375,0.20280128717422485,-0.24250635504722595,0.8411366939544678
1789324465067918000,21.08191796875,0.2095206081867218,-0.16370706260204315,0.9663603901863098
1789324465086767600,21.100767578125,0.12278030067682266,-0.30481278896331787,1.1410627365112305
1789324465105617400,21.119617431640624,0.0916270911693573,-0.3255815804004669,1.317597508430481
1789324465124467200,21.13846728515625,0.13805148005485535,-0.2492256760597229,1.372650146484375
1789324465143316700,21.157316650390626,0.17592400312423706,-0.20585553348064423,1.2571237087249756
1789324465162166500,21.17616650390625,0.18569757044315338,-0.22784602642059326,1.2045907974243164
1789324465181016000,21.19501611328125,0.1692046970129013,-0.28404396772384644,1.3903647661209106
1789324465199865900,21.213865966796874,0.2608317732810974,-0.3897205591201782,1.5601803064346313
1789324465218715600,21.232715576171874,0.4092676639556885,-0.4300364851951599,1.5846141576766968
1789324465237565200,21.251565185546873,0.474017471075058,-0.5393781065940857,1.5913335084915161
1789324465256415000,21.2704150390625,0.5094466209411621,-0.6029062271118164,1.6786845922470093
1789324465275264500,21.289264404296876,0.5906893014907837,-0.6981984376907349,1.8087950944900513
1789324465294114300,21.3081142578125,0.6945333480834961,-0.8203678727149963,1.8613280057907104
1789324465312964000,21.326964111328124,0.7250757217407227,-1.1453386545181274,1.8136818408966064
1789324465331813600,21.345813720703124,0.7391251921653748,-1.0622633695602417,1.7880263328552246
1789324465350663400,21.364663330078123,0.8307522535324097,-1.183211088180542,1.8246771097183228
1789324465369513000,21.383512939453126,0.7446228265762329,-1.309045672416687,1.8851510286331177
1789324465407212300,21.42121240234375,0.45447036623954773,-1.7012859582901,1.6078263521194458
1789324465426062000,21.44006201171875,0.44958359003067017,-1.3964731693267822,1.3781477212905884
1789324465444911900,21.458911865234374,0.6279509663581848,-0.9413156509399414,1.2559019327163696
1789324465463761400,21.477761474609373,0.7275190949440002,-0.550373375415802,1.09219491481781
1789324465482611200,21.496611083984376,0.6474980711936951,-0.35795649886131287,0.6536065936088562
1789324465501460700,21.515460693359376,0.4306473135948181,-0.04703523963689804,0.33230090141296387
1789324465520310500,21.534310546875,0.24006296694278717,0.15393351018428802,0.10323318839073181
1789324465539160000,21.55316015625,0.13744063675403595,0.2345653474330902,-0.06291726976633072
1789324465558009900,21.572009765625,0.0922379344701767,0.312142938375473,-0.2748812735080719
1789324465576859400,21.590859375,-0.006108472589403391,0.5387672781944275,-0.5473191738128662
1789324465595709200,21.609709228515626,-0.08918370306491852,0.7446228265762329,-0.8209787011146545
1789324465614558700,21.628558837890626,-0.20219044387340546,1.0060654878616333,-0.9474241137504578
1789324465633408500,21.647408447265626,-0.3115321099758148,1.035996913909912,-1.113574504852295
1789324465652258000,21.666258056640626,-0.3817795515060425,1.2442958354949951,-1.3224843740463257
1789324465671107800,21.68510791015625,-0.527161180973053,1.3011046648025513,-1.5510175228118896
1789324465689957400,21.703957275390625,-0.6426113247871399,1.2607887983322144,-1.6408120393753052
1789324465708807200,21.72280712890625,-0.8796200752258301,1.159998893737793,-1.6799063682556152
1789324465727656700,21.74165673828125,-1.0201148986816406,1.180156946182251,-1.9187475442886353
1789324465746506500,21.760506591796876,-1.2180293798446655,0.9846857786178589,-2.0024337768554688
1789324465765356000,21.77935595703125,-1.2094775438308716,0.7959339618682861,-2.133765935897827
1789324465784205800,21.798205810546875,-1.1373976469039917,0.8637380003929138,-2.2705955505371094
1789324465803055400,21.817055419921875,-1.1221264600753784,0.6603258848190308,-2.422085762023926
1789324465821905200,21.8359052734375,-1.0030112266540527,0.5008947253227234,-2.6383256912231445
1789324465840754700,21.854754638671874,-0.791047215461731,0.4581354558467865,-2.7910375595092773
1789324465859604500,21.8736044921875,-0.5815265774726868,0.4355340898036957,-2.659705400466919
1789324465878454000,21.8924541015625,-0.37139514088630676,0.28343313932418823,-2.163086414337158
1789324465897303800,21.9113037109375,-0.183865025639534,0.3530697226524353,-1.683571457862854
1789324465916153300,21.9301533203125,-0.08246438205242157,0.444085955619812,-1.2565127611160278
1789324465935003100,21.949003173828125,0.016492875292897224,0.3646758198738098,-0.911384105682373
1789324465953852700,21.967852783203124,0.05741964280605316,0.06780404597520828,-0.6536065936088562
1789324465972702200,21.9867021484375,0.12278030067682266,-0.09468132257461548,-0.38605546951293945
1789324465991552000,22.005552001953124,0.15210096538066864,-0.09529217332601547,-0.09345962852239609
1789324466010401500,22.024401611328123,0.15026842057704926,-0.1832541823387146,0.21257483959197998
1789324466029251300,22.043251220703127,0.17409147322177887,-0.14110571146011353,0.5131117105484009
1789324466048100900,22.062100830078126,0.2492256760597229,-0.28404396772384644,0.7238540053367615
1789324466066950700,22.08095068359375,0.2748812735080719,-0.3683409094810486,0.9297095537185669
1789324466085800200,22.09980029296875,0.21562908589839935,-0.37689274549484253,1.0885298252105713
1789324466104650000,22.11864990234375,0.18569757044315338,-0.38910970091819763,1.170383334159851
1789324466123499500,22.13749951171875,0.1710372269153595,-0.36223241686820984,1.2430741786956787
1789324466142349000,22.15634912109375,0.1979145109653473,-0.2767138183116913,1.3151541948318481
1789324466161198800,22.17519873046875,0.2651077210903168,-0.12766708433628082,1.2876659631729126
1789324466180048400,22.19404833984375,0.3042019307613373,-0.2999260127544403,1.2949961423873901
1789324466198898200,22.212898193359376,0.39888325333595276,-0.5125008225440979,1.452060341835022
1789324466217747700,22.231747802734375,0.5839699506759644,-0.6145123243331909,1.5803382396697998
1789324466236597500,22.250597412109375,0.6432221531867981,-0.6578825116157532,1.625540852546692
1789324466255447000,22.269447021484375,0.5748072862625122,-0.6187883019447327,1.6267626285552979
1789324466274296600,22.288296630859374,0.5522059202194214,-0.6554391384124756,1.7336609363555908
1789324466293146400,22.307146484375,0.6328377723693848,-0.8686248064041138,1.8246771097183228
1789324466311996000,22.325995849609374,0.7360709309577942,-1.0665392875671387,1.8142926692962646
1789324466330845400,22.344845458984373,0.9095515608787537,-0.7745543122291565,1.797799825668335
1789324466349695200,22.3636953125,0.8203678727149963,-1.1923738718032837,1.8582737445831299
1789324466368544800,22.382544677734376,0.7067502737045288,-1.502760648727417,1.8179577589035034
1789324466387394600,22.40139453125,0.7036960124969482,-1.5009280443191528,1.7177788019180298
1789324466406244000,22.420244140625,0.6639909744262695,-1.2650647163391113,1.5827815532684326
1789324466425093600,22.43909375,0.7024743556976318,-0.9071081876754761,1.4160202741622925
1789324466443943400,22.457943359375,0.8026533126831055,-0.6817055344581604,1.2381874322891235
1789324466462793000,22.47679296875,0.8264763355255127,-0.4734066128730774,0.9779664874076843
1789324466481642800,22.495642822265626,0.730573296546936,-0.3530697226524353,0.731184184551239
1789324466500492300,22.5144921875,0.5351021885871887,0,0.43981003761291504
1789324466519341800,22.533341796875,0.3274141252040863,0.37200596928596497,0.22601348161697388
1789324466538191600,22.552191650390625,0.11667182296514511,0.49234288930892944,0.04459185153245926
1789324466557041200,22.571041259765625,0.045202698558568954,0.5094466209411621,-0.17714570462703705
1789324466575890700,22.589890625,-0.08674030750989914,1.1074661016464233,-0.5076140761375427
1789324466594740200,22.608740234375,-0.2651077210903168,1.7171679735183716,-0.5980194807052612
1789324466613590000,22.627590087890624,-0.4220954477787018,1.3720393180847168,-0.7605048418045044
1789324466632439600,22.646439453125,-0.4453076422214508,1.438010811805725,-1.0897514820098877
1789324466651289300,22.665289306640624,-0.38849884271621704,1.2577345371246338,-1.5925551652908325
1789324466670139000,22.684138916015623,-0.6230642199516296,1.1013575792312622,-1.8332289457321167
1789324466688988400,22.702988525390627,-1.1819894313812256,0.869235634803772,-1.7550405263900757
1789324466707838200,22.721838134765626,-1.538800597190857,0.7006418108940125,-1.7000643014907837
1789324466726687700,22.740687744140626,-1.5931659936904907,0.9932376146316528,-1.6298168897628784
1789324466745537300,22.759537353515626,-1.4074684381484985,1.2840009927749634,-1.7354934215545654
1789324466764386800,22.77838671875,-1.2412415742874146,1.1215155124664307,-1.8045191764831543
1789324466783236600,22.797236572265625,-1.123958945274353,0.994459331035614,-1.8753774166107178
1789324466802086100,22.816086181640625,-1.086086392402649,0.6969767212867737,-2.0622966289520264
1789324466820935700,22.834935791015624,-1.1441168785095215,0.39888325333595276,-2.341453790664673
1789324466839785500,22.853785400390624,-1.0561549663543701,0.20585553348064423,-2.685971736907959
1789324466858635000,22.872635009765624,-0.6920899152755737,0.45447036623954773,-2.6523752212524414
1789324466877484500,22.891484619140623,-0.43614494800567627,0.469741553068161,-2.1343767642974854
1789324466896334000,22.910333984375,-0.2492256760597229,0.3658975064754486,-1.604161262512207
1789324466915183900,22.929183837890626,-0.11483928561210632,0.4587462842464447,-1.2870551347732544
1789324466934033400,22.948033447265626,-0.02076880633831024,0.5540384650230408,-1.073258638381958
1789324466952883000,22.966883056640626,-0.0012216945178806782,0.5344913601875305,-0.763559103012085
1789324466971732700,22.985732666015625,-0.08307522535324097,0.3671191930770874,-0.342074453830719
1789324466990582300,23.004582275390625,-0.10201149433851242,0.20219044387340546,0.06169557198882103
1789324467009431800,23.023431884765625,-0.051922015845775604,0.04825693368911743,0.3927747905254364
1789324467028281300,23.04228125,0.026877280324697495,-0.2632751762866974,0.6511631608009338
1789324467047131100,23.061131103515624,0.13805148005485535,-0.5137225389480591,0.9040539264678955
1789324467065980700,23.079980712890624,0.25411245226860046,-0.5222744345664978,1.1783243417739868
1789324467084830200,23.098830322265623,0.38727715611457825,-0.21501824259757996,1.4618338346481323
1789324467103679700,23.1176796875,0.4294256269931793,-0.3133646547794342,1.5296379327774048
1789324467122529500,23.136529541015626,0.3921639323234558,-0.32374903559684753,1.4691640138626099
1789324467150803700,23.1648037109375,0.22906772792339325,-0.47951510548591614,1.4160202741622925
1789324467169653500,23.183653564453124,0.15943112969398499,-0.3695625960826874,1.4661097526550293
1789324467188503000,23.2025029296875,0.0916270911693573,-0.4422534108161926,1.4667205810546875
1789324467207352600,23.2213525390625,0.1325538605451584,-0.46241137385368347,1.5375789403915405
1789324467226202000,23.2402021484375,0.24067382514476776,-0.5662553906440735,1.6420338153839111
1789324467245052000,23.259052001953126,0.393385648727417,-0.6627692580223083,1.7012859582901
1789324467263901400,23.2779013671875,0.5528167486190796,-0.7165238261222839,1.7086161375045776
1789324467282751000,23.2967509765625,0.6774296164512634,-0.883895993232727,1.7214438915252686
1789324467311025400,23.325025390625,0.8276980519294739,-1.0848647356033325,1.6890690326690674
1789324467329875000,23.343875,0.9602518677711487,-1.106244444847107,1.621264934539795
1789324467348724500,23.362724365234374,0.9425373077392578,-1.0928057432174683,1.6524181365966797
1789324467367574000,23.381573974609374,0.8057075142860413,-1.3243168592453003,1.6243191957473755
1789324467386423800,23.400423828125,0.652384877204895,-1.5949985980987549,1.572397232055664
1789324467405273300,23.4192734375,0.5931326746940613,-1.709837794303894,1.4325132369995117
1789324467424123000,23.438122802734377,0.6285618543624878,-1.2137534618377686,1.226581335067749
1789324467442972400,23.456972412109376,0.7324058413505554,-0.5919110178947449,1.0708152055740356
1789324467461822000,23.475822021484376,0.7947123050689697,-0.43858832120895386,0.9339854717254639
1789324467480671500,23.49467138671875,0.7934905886650085,-0.37444937229156494,0.6456655263900757
1789324467499521300,23.513521240234375,0.7488987445831299,-0.19363857805728912,0.4343124032020569
1789324467518370800,23.532370849609375,0.6401679515838623,-0.03298575058579445,0.13377554714679718
1789324467537220400,23.551220458984375,0.4569137394428253,0.005497625097632408,-0.14171656966209412
1789324467556070000,23.57006982421875,0.28160059452056885,0.038483377546072006,-0.3939964771270752
1789324467574919400,23.58891943359375,0.12644538283348083,0.41232189536094666,-0.5522059202194214
1789324467593769200,23.607769287109374,0.012216945178806782,0.7336275577545166,-0.731184184551239
1789324467612618800,23.62661865234375,-0.09834641218185425,1.068982720375061,-0.9132166504859924
1789324467631468300,23.64546826171875,-0.2363978922367096,1.3120999336242676,-1.0763128995895386
1789324467650317800,23.66431787109375,-0.4086568057537079,1.3457728624343872,-1.2168077230453491
1789324467669167400,23.68316748046875,-0.5302154421806335,1.290109395980835,-1.3989166021347046
1789324467688017000,23.702016845703124,-0.8588512539863586,1.3273711204528809,-1.4581687450408936
1789324467706866400,23.720866455078124,-1.0488247871398926,1.2595670223236084,-1.5314704179763794
1789324467725716000,23.739716064453123,-1.0757020711898804,1.332257866859436,-1.7251089811325073
1789324467744565800,23.758565673828127,-1.2106993198394775,1.0298885107040405,-1.9651719331741333
1789324467763415300,23.777415283203126,-1.271173119544983,0.6432221531867981,-2.19179630279541
1789324467782264800,23.796264892578126,-1.281557559967041,0.70308518409729,-2.3988735675811768
