time,seconds_elapsed,z,y,x
1788880991292721700,0.1357216796875,0.3163909912109375,0.5754464864730835,0.2781273424625397
1788880991302751700,0.145751708984375,0.22593946754932404,0.5638390779495239,0.34342941641807556
1788880991312781800,0.15578173828125,0.08738505095243454,0.4929547905921936,0.3653307259082794
1788880991322812000,0.16581201171875,-0.0342458114027977,0.4205848276615143,0.3309418559074402
1788880991332841700,0.175841796875,-0.0797128900885582,0.4020713269710541,0.24767786264419556
1788880991342871600,0.18587158203125,-0.012640056200325489,0.4189426898956299,0.13982842862606049
1788880991352902700,0.195902587890625,0.28760820627212524,0.1429731696844101,0.14437949657440186
1788880991362932700,0.2059326171875,0.6094796061515808,-0.11330334842205048,0.25310245156288147
1788880991372962800,0.215962890625,0.7327584028244019,-0.24965639412403107,0.3213701844215393
1788880991382992600,0.22599267578125,0.7151567339897156,-0.43164676427841187,0.3541446030139923
1788880991393022700,0.236022705078125,0.6257776021957397,-0.6672585010528564,0.3362888991832733
1788880991403052800,0.246052734375,0.4857023358345032,-0.8585512638092041,0.25660941004753113
1788880991413083000,0.256082763671875,0.2670131325721741,-0.9595434069633484,0.09452971816062927
1788880991423112700,0.26611279296875,0.01944718509912491,-0.9102116823196411,-0.05102766305208206
1788880991433142800,0.276142822265625,-0.24056123197078705,-0.8447607755661011,-0.1300833374261856
1788880991443173600,0.286173583984375,-0.41916531324386597,-0.7534786462783813,-0.08452118188142776
1788880991453203700,0.29620361328125,-0.4633740484714508,-0.32589849829673767,0.09215132892131805
1788880991463233800,0.30623388671875,-0.3665279448032379,0.2325311303138733,0.269045889377594
1788880991473263600,0.316263671875,-0.22080855071544647,0.6691859364509583,0.3075788915157318
1788880991483293700,0.326293701171875,-0.11261974275112152,0.9279463887214661,0.22851110994815826
1788880991493323800,0.33632373046875,-0.006321270018815994,1.0203253030776978,0.15720230340957642
1788880991503353900,0.346353759765625,0.06135658547282219,0.9798954129219055,0.11267444491386414
1788880991513383700,0.3563837890625,0.024082718417048454,0.6894164681434631,0.18253926932811737
1788880991523413800,0.366413818359375,-0.056311726570129395,0.3065239489078522,0.3490172028541565
1788880991533443600,0.376443603515625,-0.15290936827659607,-0.10469715297222137,0.4402126371860504
1788880991543473700,0.3864736328125,-0.2955309748649597,-0.5557166337966919,0.39477476477622986
1788880991553503700,0.396503662109375,-0.4429630637168884,-0.8652172088623047,0.2757298946380615
1788880991563533800,0.406533935546875,-0.46598154306411743,-0.9265863299369812,0.1972016543149948
1788880991573564000,0.41656396484375,-0.3240337371826172,-0.5807069540023804,0.13681766390800476
1788880991583594800,0.4265947265625,-0.1995566189289093,-0.17099079489707947,0.12509432435035706
1788880991593624800,0.436624755859375,-0.08561725914478302,-0.0960254818201065,0.18787595629692078
1788880991603654700,0.446654541015625,-0.16291213035583496,-0.2403506636619568,0.1110563576221466
1788880991613684700,0.456684814453125,-0.3346383571624756,-0.22939229011535645,-0.07102769613265991
1788880991623714600,0.466714599609375,-0.523320734500885,-0.08432462066411972,-0.243646040558815
1788880991633744600,0.47674462890625,-0.5937733054161072,-0.08494247496128082,-0.31376948952674866
1788880991643774700,0.486774658203125,-0.508342444896698,-0.022943703457713127,-0.2567428946495056
1788880991653804800,0.4968046875,-0.35286927223205566,0.061127498745918274,-0.08111117035150528
1788880991663835000,0.5068349609375,-0.23477405309677124,-0.01957784965634346,0.12268038094043732
1788880991673865000,0.516864990234375,-0.15914346277713776,-0.17333438992500305,0.32587239146232605
1788880991683894500,0.52689453125,-0.13355140388011932,-0.1526098996400833,0.46037694811820984
1788880991693924600,0.536924560546875,-0.15305745601654053,-0.05146703124046326,0.47258514165878296
1788880991703954700,0.54695458984375,-0.19159504771232605,0.000822761096060276,0.3609338104724884
1788880991713985800,0.55698583984375,-0.10212402045726776,-0.04021069034934044,0.2100263088941574
1788880991724015600,0.567015625,-0.0016277055256068707,-0.13990147411823273,0.02508999966084957
1788880991734045700,0.577045654296875,0.08887077122926712,-0.27876347303390503,-0.12065734714269638
1788880991744075800,0.58707568359375,0.19864521920681,-0.4484274387359619,-0.1584787666797638
1788880991754105900,0.59710595703125,0.29300713539123535,-0.6108448505401611,-0.1686248779296875
1788880991764136000,0.607135986328125,0.3362506330013275,-0.6785321235656738,-0.18135829269886017
1788880991774165500,0.61716552734375,0.3546789288520813,-0.6307267546653748,-0.180062934756279
1788880991784195600,0.627195556640625,0.36494338512420654,-0.5343281626701355,-0.166104257106781
1788880991794225700,0.6372255859375,0.3290650248527527,-0.46048903465270996,-0.12427692115306854
1788880991804255700,0.647255859375,0.2717475891113281,-0.5494685173034668,-0.019467666745185852
1788880991814285800,0.657285888671875,0.15411975979804993,-0.6568384170532227,0.1131335198879242
1788880991824316000,0.66731591796875,-0.035962946712970734,-0.7854201793670654,0.23374298214912415
1788880991834346800,0.6773466796875,-0.3104160726070404,-0.8555134534835815,0.29022809863090515
1788880991844376800,0.687376953125,-0.5993469953536987,-0.8590132594108582,0.22506016492843628
1788880991854407000,0.697406982421875,-0.5980873703956604,-0.7485445141792297,0.0799088403582573
1788880991864436700,0.707436767578125,-0.026717938482761383,-0.5803819894790649,-0.019888978451490402
1788880991874466600,0.717466552734375,0.46340784430503845,-0.2696482837200165,-0.11079464852809906
1788880991884496600,0.72749658203125,0.5363583564758301,-0.26809266209602356,-0.24844501912593842
1788880991894526700,0.737526611328125,0.5478967428207397,-0.2884290814399719,-0.1428363025188446
1788880991904556800,0.747556884765625,0.5032498240470886,-0.2543688714504242,0.08261934667825699
1788880991914587000,0.7575869140625,0.3880217671394348,-0.1328813135623932,0.2508251368999481
1788880991924616700,0.76761669921875,0.3545221984386444,0.06625787913799286,0.33421146869659424
1788880991934646800,0.777646728515625,0.2982621192932129,0.2932140827178955,0.32516124844551086
1788880991944676600,0.787676513671875,0.2504275143146515,0.4166834354400635,0.24286991357803345
1788880991954706700,0.797706787109375,0.15568208694458008,0.5076969861984253,0.10823487490415573
1788880991964737500,0.807737548828125,0.04810647293925285,0.5223954319953918,-0.027254540473222733
1788880991974767600,0.817767578125,-0.07500533759593964,0.40488505363464355,-0.11964279413223267
1788880991984797700,0.827797607421875,-0.16563357412815094,0.10415428876876831,-0.23192504048347473
1788880991994827800,0.837827880859375,-0.25267472863197327,-0.04212382435798645,-0.2725110948085785
1788880992004857900,0.84785791015625,-0.3093869984149933,-0.03222586214542389,-0.27791935205459595
1788880992014888000,0.857887939453125,-0.22475653886795044,0.012552260421216488,-0.33406969904899597
1788880992024917800,0.867917724609375,-0.08478610217571259,0.05764646828174591,-0.39159759879112244
1788880992034947600,0.877947509765625,0.009151047095656395,0.00784934964030981,-0.44617027044296265
1788880992044977700,0.887977783203125,0.06142035871744156,-0.11439955979585648,-0.47180014848709106
1788880992055007700,0.8980078125,0.1048346757888794,-0.23138903081417084,-0.4826386868953705
1788880992065037800,0.908037841796875,0.15551230311393738,-0.26425179839134216,-0.47563084959983826
1788880992075067600,0.918067626953125,0.18036039173603058,-0.09828677773475647,-0.44769084453582764
1788880992085098800,0.9280986328125,0.16690027713775635,0.06328142434358597,-0.3434557318687439
1788880992095128800,0.93812890625,0.1252865195274353,-0.033442188054323196,-0.24335843324661255
1788880992105159000,0.948158935546875,0.1038619726896286,-0.18462920188903809,-0.1473570615053177
1788880992115188700,0.958188720703125,0.11652210354804993,-0.32541561126708984,-0.07561656087636948
1788880992125218600,0.968218505859375,0.14167246222496033,-0.34183481335639954,-0.007363739889115095
1788880992135248600,0.97824853515625,0.11462780088186264,-0.21182860434055328,0.030480844900012016
1788880992145278700,0.98827880859375,0.03414440155029297,-0.016342846676707268,0.044416703283786774
1788880992155308800,0.998308837890625,-0.025383641943335533,0.16481095552444458,0.08901160210371017
1788880992165339000,1.0083388671875,-0.028397943824529648,0.13186506927013397,0.11861973255872726
1788880992175368700,1.01836865234375,-0.005797560326755047,0.08234945684671402,0.19874945282936096
1788880992185398800,1.028398681640625,0.018820395693182945,0.010547980666160583,0.30891796946525574
1788880992195430000,1.038429931640625,0.005818843375891447,-0.06952475011348724,0.4292316138744354
1788880992205459700,1.048459716796875,-0.05107821151614189,-0.08915480971336365,0.488290399312973
1788880992215489500,1.058489501953125,-0.07230653613805771,-0.10028229653835297,0.45693379640579224
1788880992225519600,1.06851953125,-0.07686314731836319,-0.02125256322324276,0.38606399297714233
1788880992235549700,1.0785498046875,-0.05552483722567558,0.1701701283454895,0.26159849762916565
1788880992245579800,1.088579833984375,-0.050834011286497116,0.27324378490448,0.152457594871521
1788880992255609900,1.09860986328125,-0.06455621123313904,0.25929415225982666,0.1121879294514656
1788880992265639700,1.1086396484375,-0.06806209683418274,0.22388726472854614,0.12890812754631042
1788880992275669800,1.118669677734375,-0.07239958643913269,0.1560613512992859,0.16822198033332825
1788880992285699800,1.128699951171875,-0.09827104955911636,0.12272992730140686,0.15936172008514404
1788880992295729700,1.138729736328125,-0.11207501590251923,0.12403994798660278,0.09068410843610764
1788880992305760500,1.148760498046875,-0.12063084542751312,0.07755057513713837,0.02728467807173729
1788880992315790600,1.15879052734375,-0.0960695743560791,-0.053733941167593,0.016430698335170746
1788880992325820700,1.168820556640625,-0.0426635704934597,-0.15279987454414368,0.03542514145374298
1788880992335850800,1.178850830078125,0.012790899723768234,-0.1978302001953125,0.060304660350084305
1788880992345880800,1.188880859375,0.04808799549937248,-0.1449388712644577,0.14160849153995514
1788880992355910400,1.198910400390625,0.08335038274526596,-0.01274489052593708,0.22779637575149536
1788880992365940200,1.208940185546875,0.0925479456782341,0.08674374222755432,0.2992550730705261
1788880992375970300,1.21897021484375,0.06789027154445648,0.16304543614387512,0.34331414103507996
1788880992386000400,1.22900048828125,0.028180425986647606,0.2220453917980194,0.3542165458202362
1788880992396030500,1.239030517578125,-0.001348170917481184,0.20042851567268372,0.3357352614402771
1788880992406060500,1.249060546875,-0.006099076010286808,0.07646887749433517,0.28733107447624207
1788880992416091400,1.25909130859375,0.015500758774578571,-0.023294471204280853,0.22359098494052887
1788880992426121200,1.269121337890625,0.008989926427602768,-0.05420949310064316,0.16535647213459015
1788880992436151300,1.2791513671875,-0.041936375200748444,-0.058477744460105896,0.137703537940979
1788880992446181400,1.289181396484375,-0.0833650603890419,-0.040674325078725815,0.11442399770021439
1788880992456211500,1.29921142578125,-0.07431244850158691,-0.014964167028665543,0.07473570108413696
1788880992466241300,1.3092412109375,-0.0549488440155983,0.021161198616027832,0.01232654694467783
1788880992476271400,1.319271240234375,-0.06064454838633537,0.04026138782501221,-0.04481237381696701
1788880992486301400,1.329301513671875,-0.07419326901435852,0.05629688501358032,-0.0696762427687645
1788880992496331500,1.33933154296875,-0.09753747284412384,0.03967050462961197,-0.05562860146164894
1788880992506361300,1.349361328125,-0.11192116886377335,-0.09271819144487381,-0.012005666270852089
1788880992516392400,1.359392333984375,-0.11433292925357819,-0.2860546410083771,0.06948812305927277
1788880992526422300,1.36942236328125,-0.09112940728664398,-0.38577258586883545,0.1574576050043106
1788880992536452400,1.379452392578125,-0.06899268925189972,-0.4348072409629822,0.23406928777694702
1788880992546482400,1.389482421875,-0.050850991159677505,-0.3942103981971741,0.2762584984302521
1788880992556512300,1.39951220703125,0.00017624115571379662,-0.21660950779914856,0.2380136400461197
1788880992566542300,1.409542236328125,0.046348847448825836,-0.045526500791311264,0.19253505766391754
1788880992576572400,1.419572509765625,0.030658302828669548,0.055452845990657806,0.1378403753042221
1788880992586602500,1.4296025390625,-0.06164931133389473,-0.12469395250082016,0.1307428479194641
1788880992596632300,1.43963232421875,-0.077614426612854,-0.4020262360572815,0.0653609037399292
1788880992606662400,1.449662353515625,-0.021881142631173134,-0.4804094135761261,-0.06952273100614548
1788880992616693200,1.459693359375,0.05161970481276512,-0.37872806191444397,-0.18490152060985565
1788880992626723300,1.469723388671875,0.07036465406417847,-0.2135736495256424,-0.22447523474693298
1788880992636753400,1.47975341796875,0.08082528412342072,-0.054449766874313354,-0.21594220399856567
1788880992646783200,1.489783203125,0.14154651761054993,0.15188665688037872,-0.16532830893993378
1788880992656813300,1.499813232421875,0.195560485124588,0.3969685733318329,-0.045785125344991684
1788880992666843400,1.509843505859375,0.1921018362045288,0.4793736934661865,0.09383348375558853
1788880992676873500,1.51987353515625,0.1155250295996666,0.30437976121902466,0.16774019598960876
1788880992686903300,1.5299033203125,0.05371293053030968,-0.06923303008079529,0.21425746381282806
1788880992696933400,1.539933349609375,0.11458906531333923,-0.2212747484445572,0.2823267877101898
1788880992706964200,1.549964111328125,0.21246346831321716,-0.16034531593322754,0.38991227746009827
1788880992716994300,1.559994384765625,0.27282243967056274,-0.1160430982708931,0.5559161305427551
1788880992727024400,1.5700244140625,0.38601452112197876,-0.023576844483613968,0.7658985257148743
1788880992737054500,1.580054443359375,0.5204519629478455,0.0609646700322628,0.8907219767570496
1788880992747084300,1.590084228515625,0.6290016174316406,0.14148226380348206,0.8796595931053162
1788880992757114400,1.6001142578125,0.6415714621543884,0.17960995435714722,0.7260266542434692
1788880992767144400,1.61014453125,0.5265507102012634,0.14182376861572266,0.5144016742706299
1788880992777174300,1.62017431640625,0.3640070855617523,0.09300641715526581,0.29703739285469055
1788880992787204400,1.630204345703125,0.2710978388786316,0.17002011835575104,0.0878291204571724
1788880992797235200,1.640235107421875,0.27598100900650024,0.2812366485595703,-0.07789912819862366
1788880992807265300,1.650265380859375,0.36163783073425293,0.34136196970939636,-0.14788289368152618
1788880992817295400,1.66029541015625,0.4519224166870117,0.276233047246933,-0.13813279569149017
1788880992827325400,1.670325439453125,0.5264962911605835,0.09383710473775864,-0.12459104508161545
1788880992837355300,1.680355224609375,0.526970624923706,-0.12164271622896194,-0.17566514015197754
1788880992847385300,1.69038525390625,0.4100261628627777,-0.27288398146629333,-0.28259509801864624
1788880992857415400,1.70041552734375,0.2808316946029663,-0.3846038579940796,-0.39142942428588867
1788880992867445500,1.710445556640625,0.169084370136261,-0.4423987567424774,-0.5576955676078796
1788880992877475300,1.720475341796875,0.056885380297899246,-0.363309770822525,-0.7607029676437378
1788880992887506200,1.730506103515625,-0.36837494373321533,-0.3311128318309784,-0.9526302814483643
1788880992897536300,1.740536376953125,-0.8244040012359619,-0.4119110107421875,-1.0694340467453003
1788880992907566300,1.75056640625,-0.9607566595077515,-0.02105838432908058,-1.2894058227539062
1788880992917596400,1.760596435546875,-0.7181721925735474,-0.2860194742679596,-1.7615666389465332
1788880992927626500,1.77062646484375,-0.04759707674384117,-0.6725549101829529,-2.23565936088562
1788880992937656300,1.78065625,0.8216395378112793,-0.6833526492118835,-2.3512279987335205
1788880992947686400,1.790686279296875,1.558384656906128,-0.9410349130630493,-2.3521182537078857
1788880992957716500,1.800716552734375,1.97966468334198,-1.4191319942474365,-2.3132150173187256
1788880992967746300,1.810746337890625,2.123436689376831,-1.7045146226882935,-2.2396397590637207
1788880992977777200,1.820777099609375,2.0953261852264404,-1.6475591659545898,-2.1416287422180176
1788880992987807200,1.83080712890625,1.9464638233184814,-1.434747576713562,-2.0589256286621094
1788880992997837300,1.84083740234375,1.7017674446105957,-1.3810899257659912,-2.0215067863464355
1788880993007867400,1.850867431640625,1.3540799617767334,-1.5662288665771484,-2.0482139587402344
1788880993017897500,1.8608974609375,1.0364532470703125,-2.1375861167907715,-2.1208815574645996
1788880993027927300,1.87092724609375,0.9242949485778809,-2.9605157375335693,-2.183370351791382
1788880993037957400,1.880957275390625,0.964561402797699,-3.6336779594421387,-2.2071213722229004
1788880993047987500,1.890987548828125,1.0261578559875488,-4.15316915512085,-2.27441143989563
1788880993058017300,1.901017333984375,1.0542134046554565,-4.271888256072998,-2.2343590259552
1788880993068048100,1.911048095703125,1.0189251899719238,-4.21890926361084,-1.9991590976715088
1788880993078078200,1.921078125,0.7206969261169434,-3.843064546585083,-1.625784993171692
1788880993088108300,1.9311083984375,0.44463619589805603,-3.137214422225952,-1.1729518175125122
1788880993098138400,1.941138427734375,0.39580661058425903,-2.4257709980010986,-0.6634407639503479
1788880993108168400,1.95116845703125,0.5113682746887207,-1.957731008529663,-0.20101740956306458
1788880993118198300,1.9611982421875,0.6463961601257324,-1.9424349069595337,0.09151912480592728
1788880993128228400,1.971228271484375,0.6606332063674927,-2.3298628330230713,0.1557968407869339
1788880993138258400,1.981258544921875,0.5650864243507385,-2.9264183044433594,0.024022305384278297
1788880993148289500,1.99128955078125,0.4687742590904236,-3.5712978839874268,-0.1725611835718155
1788880993158319400,2.0013193359375,0.4154015779495239,-4.212296009063721,-0.33025333285331726
1788880993168349200,2.01134912109375,0.4178457260131836,-4.6697163581848145,-0.37596192955970764
1788880993178379300,2.021379150390625,0.5378674268722534,-4.732512950897217,-0.25361791253089905
1788880993188409300,2.031409423828125,0.8372501134872437,-4.33012056350708,0.120716892182827
1788880993198439400,2.041439453125,1.4280998706817627,-4.0300116539001465,0.8352880477905273
1788880993208469500,2.051469482421875,2.1088619232177734,-4.260148525238037,1.7383887767791748
1788880993218499300,2.061499267578125,2.668931007385254,-4.629721164703369,2.6191108226776123
1788880993228529400,2.071529296875,3.0237605571746826,-4.558494567871094,3.144057273864746
1788880993238560500,2.081560546875,3.1759490966796875,-4.1226348876953125,3.074146032333374
1788880993248590600,2.091590576171875,3.2034120559692383,-3.67063570022583,2.511000156402588
1788880993258620200,2.1016201171875,3.2994251251220703,-3.418612003326416,1.7707586288452148
1788880993268650200,2.111650146484375,3.5543363094329834,-3.454691171646118,1.1795060634613037
1788880993278680300,2.121680419921875,4.260857105255127,-3.4520392417907715,0.8142333030700684
1788880993288710400,2.13171044921875,5.004517555236816,-3.4124820232391357,0.7212982177734375
1788880993298740500,2.141740478515625,5.54366397857666,-3.2276852130889893,0.7703294157981873
1788880993308770300,2.151770263671875,5.770366668701172,-2.783132791519165,0.7906914949417114
1788880993318801400,2.161801513671875,6.01013708114624,-2.620316505432129,0.773162305355072
1788880993328831500,2.17183154296875,6.251760482788086,-2.5672271251678467,0.8433710932731628
1788880993338861600,2.181861572265625,6.594154357910156,-2.781451940536499,0.9448729753494263
1788880993348891100,2.19189111328125,7.086246967315674,-3.4811267852783203,0.8614869117736816
1788880993358925000,2.201925048828125,7.510360240936279,-4.380361557006836,0.8757010102272034
1788880993368955100,2.211955078125,7.8088459968566895,-5.175027370452881,1.1144917011260986
1788880993378985200,2.221985107421875,8.008957862854004,-5.677947044372559,1.4141007661819458
1788880993389015000,2.23201513671875,8.133927345275879,-5.862054824829102,1.7998642921447754
1788880993399046000,2.2420458984375,8.208669662475586,-5.5985107421875,2.3412811756134033
1788880993409076000,2.252075927734375,8.325017929077148,-4.767116069793701,2.8194572925567627
1788880993419106000,2.26210595703125,8.471786499023438,-3.8393397331237793,3.1288094520568848
1788880993429136100,2.27213623046875,8.391191482543945,-2.623501777648926,3.3477530479431152
1788880993439166000,2.282166015625,7.931905269622803,-1.3460274934768677,3.506781816482544
1788880993449196000,2.292196044921875,7.180139064788818,-0.38087761402130127,3.636286973953247
1788880993459226000,2.30222607421875,6.242316722869873,0.2623918950557709,3.853802442550659
1788880993469256200,2.312256103515625,5.058597564697266,0.8356395959854126,4.278685569763184
1788880993479287000,2.322287109375,3.7283198833465576,0.830673336982727,5.0948100090026855
1788880993489317000,2.332317138671875,2.431142568588257,0.642748236656189,5.417506694793701
1788880993499347000,2.342346923828125,1.1542000770568848,0.3952772319316864,5.331787586212158
1788880993509377000,2.352376953125,0.012117290869355202,0.32456669211387634,5.003942966461182
1788880993519407000,2.362406982421875,-0.9608830213546753,0.40028488636016846,4.473329544067383
1788880993529437200,2.372437255859375,-1.6112703084945679,0.2718270421028137,3.6598470211029053
1788880993539467000,2.382467041015625,-2.205953359603882,0.5143659114837646,2.7606565952301025
1788880993549498000,2.392498046875,-2.723712921142578,0.9827056527137756,2.1257567405700684
1788880993559528200,2.402528076171875,-3.1094746589660645,1.2356494665145874,1.7786507606506348
1788880993569558000,2.41255810546875,-3.392385959625244,0.9923695921897888,1.3951455354690552
1788880993579588000,2.422588134765625,-3.7419300079345703,0.552730143070221,0.9880430698394775
1788880993589618000,2.432617919921875,-3.99190616607666,0.01540498249232769,0.45379742980003357
1788880993599648000,2.44264794921875,-4.133412837982178,-0.5839980244636536,-0.23623666167259216
1788880993609678000,2.452677978515625,-4.138627052307129,-1.2717978954315186,-0.9249970316886902
1788880993619708200,2.462708251953125,-3.8529865741729736,-1.7581523656845093,-1.4421461820602417
1788880993629739000,2.472739013671875,-3.415318012237549,-2.2718582153320312,-1.7883411645889282
1788880993639769000,2.48276904296875,-3.1748688220977783,-2.9609456062316895,-1.884610652923584
1788880993649799200,2.492799072265625,-3.247292995452881,-3.2422757148742676,-1.884443998336792
1788880993659829200,2.502829345703125,-3.304978132247925,-3.186260223388672,-2.012716054916382
1788880993669859000,2.512859130859375,-3.1975505352020264,-2.6716060638427734,-2.3021278381347656
1788880993679889000,2.522888916015625,-3.0565378665924072,-2.053279161453247,-2.572476387023926
1788880993689919000,2.5329189453125,-2.9608614444732666,-1.486000418663025,-2.6951608657836914
1788880993699950000,2.5429501953125,-2.9818036556243896,-1.1655741930007935,-2.4069318771362305
1788880993709980000,2.55297998046875,-3.0183167457580566,-1.0897347927093506,-1.9860278367996216
1788880993720010000,2.563010009765625,-3.025358200073242,-1.161272644996643,-1.666713833808899
1788880993730040000,2.5730400390625,-2.7678918838500977,-0.9777196645736694,-1.2706413269042969
1788880993740070100,2.583070068359375,-2.3544273376464844,-0.3484618663787842,-0.9357224702835083
1788880993750100200,2.593100341796875,-1.87784743309021,0.4330286979675293,-0.5228357315063477
1788880993760130000,2.603130126953125,-1.4848253726959229,1.352906584739685,-0.3853481709957123
1788880993770159900,2.613159912109375,-1.318124532699585,2.297966718673706,-0.5767509341239929
1788880993780191000,2.62319091796875,-1.4544434547424316,2.8865368366241455,-0.5461357831954956
1788880993790221000,2.633220947265625,-1.777998924255371,3.3248634338378906,-0.6793494820594788
1788880993800251000,2.6432509765625,-2.0287039279937744,3.3829903602600098,-0.6355340480804443
1788880993810281000,2.653281005859375,-2.0540828704833984,3.197570562362671,-0.5893352031707764
1788880993820311000,2.66331103515625,-1.9485772848129272,2.987245559692383,-0.7022678852081299
1788880993830341000,2.673341064453125,-1.631395697593689,2.80782151222229,-0.8874492049217224
1788880993840371200,2.68337109375,-1.4288820028305054,2.8352153301239014,-1.1788709163665771
1788880993850402000,2.693402099609375,-1.565656304359436,3.1898915767669678,-1.4273788928985596
1788880993860432100,2.70343212890625,-1.9968688488006592,3.7605555057525635,-2.059565782546997
1788880993870462000,2.7134619140625,-1.8152968883514404,3.5335283279418945,-1.9435831308364868
1788880993880492000,2.723491943359375,-1.412668228149414,3.139786958694458,-1.1761149168014526
1788880993890522000,2.733522216796875,-1.229655385017395,2.4632136821746826,-0.8023570775985718
1788880993900552000,2.743552001953125,-2.458052396774292,2.2250993251800537,-1.0469951629638672
1788880993910582000,2.75358203125,-2.789126396179199,2.277400016784668,-1.003206729888916
1788880993920613000,2.763613037109375,-2.6625170707702637,2.159174919128418,-0.9571518898010254
1788880993930643200,2.773643310546875,-2.11191463470459,1.3243118524551392,-0.8069211840629578
1788880993940673000,2.783673095703125,-1.1981955766677856,0.8915526866912842,-0.46224287152290344
1788880993950703000,2.793703125,-0.7613480687141418,0.49390482902526855,-0.15722855925559998
1788880993960733200,2.803733154296875,-0.7751240730285645,0.2707822918891907,0.041465625166893005
1788880993970763000,2.813762939453125,-1.1281343698501587,0.21580590307712555,-0.00016326503828167915
1788880993980793000,2.82379296875,-1.471868872642517,0.1377161741256714,-0.4096892476081848
1788880993990824000,2.833823974609375,-1.510521411895752,0.40536269545555115,-0.7962180376052856
1788880994000854000,2.84385400390625,-1.5774089097976685,0.8109557032585144,-1.145340919494629
1788880994010884000,2.853884033203125,-1.6318106651306152,1.4435110092163086,-1.6768547296524048
1788880994020914200,2.8639140625,-1.3391327857971191,1.5443909168243408,-1.9801368713378906
1788880994030944000,2.873944091796875,-0.8438873887062073,1.7423253059387207,-2.150158405303955
1788880994040974000,2.88397412109375,0.10695194453001022,1.782199501991272,-2.040994882583618
1788880994051004200,2.894004150390625,1.1125789880752563,1.306593894958496,-1.8536181449890137
1788880994061035300,2.90403515625,1.6144963502883911,-0.032141733914613724,-1.624578833580017
1788880994071064800,2.91406494140625,1.790889859199524,-1.7014663219451904,-1.5152952671051025
1788880994081095000,2.924094970703125,1.9878108501434326,-3.278285264968872,-1.4722909927368164
1788880994091125000,2.934125,2.36667537689209,-4.562747955322266,-1.289271593093872
1788880994101155000,2.944155029296875,2.411702871322632,-5.225136756896973,-1.1896501779556274
1788880994111185200,2.95418505859375,2.1766180992126465,-5.720887660980225,-1.2693054676055908
1788880994121215200,2.96421533203125,1.9026544094085693,-5.503206253051758,-1.4800251722335815
1788880994131246000,2.97424609375,1.9701496362686157,-5.069217205047607,-1.4524738788604736
1788880994141276200,2.984276123046875,2.255211591720581,-4.699159145355225,-1.244119644165039
1788880994151306200,2.99430615234375,2.4273293018341064,-4.384346961975098,-0.5036347508430481
1788880994161336000,3.004336181640625,2.3461906909942627,-5.103639602661133,0.55152428150177
1788880994171366000,3.014365966796875,1.925777792930603,-6.723689556121826,1.8291338682174683
1788880994181396000,3.02439599609375,1.5695555210113525,-7.629659652709961,3.114143133163452
1788880994191426000,3.034426025390625,1.248414158821106,-6.4366278648376465,3.7519872188568115
1788880994201457000,3.044456787109375,1.2545585632324219,-4.133086204528809,2.9062607288360596
1788880994211487000,3.054487060546875,1.5101613998413086,-3.923917293548584,1.5583643913269043
1788880994221517000,3.06451708984375,1.7515021562576294,-4.111071586608887,0.8911104202270508
1788880994231547100,3.074547119140625,1.7189871072769165,-3.8129849433898926,0.6866369247436523
1788880994241577200,3.0845771484375,1.4387152194976807,-3.368417501449585,0.4954323470592499
1788880994251607000,3.09460693359375,1.1360669136047363,-2.582345724105835,0.5389909148216248
1788880994261638100,3.10463818359375,0.959808349609375,-2.0128848552703857,0.6841683387756348
1788880994271668000,3.11466796875,0.8434327244758606,-1.7641029357910156,0.8707461357116699
1788880994281698000,3.124697998046875,0.7573380470275879,-1.569512128829956,1.1121761798858643
1788880994291728100,3.13472802734375,0.7556490898132324,-1.369370460510254,1.3797554969787598
1788880994301758000,3.144758056640625,0.851090669631958,-0.9833150506019592,1.8701268434524536
1788880994311788000,3.1547880859375,0.8971966505050659,-0.5551453232765198,2.4069037437438965
1788880994321818000,3.164818115234375,0.7640183568000793,-0.5130705833435059,2.753310441970825
1788880994331849200,3.17484912109375,0.6482436060905457,-1.244430661201477,2.851036787033081
1788880994341879000,3.184879150390625,0.6076178550720215,-2.4133388996124268,2.9132702350616455
1788880994351909000,3.1949091796875,0.6227637529373169,-3.6527953147888184,2.7958836555480957
1788880994361939200,3.204939208984375,0.5752838850021362,-5.341306209564209,2.391258478164673
1788880994371969300,3.21496923828125,0.2534254491329193,-6.798176288604736,1.8681973218917847
1788880994381999400,3.224999267578125,-0.17801356315612793,-7.385924816131592,1.1738896369934082
1788880994392030200,3.2350302734375,-0.5466217994689941,-7.748322010040283,0.4794566035270691
1788880994402060300,3.245060302734375,-0.8770124912261963,-8.407052993774414,-0.13841620087623596
1788880994412090400,3.25509033203125,-1.230516791343689,-8.753055572509766,-0.6129432916641235
1788880994422120200,3.2651201171875,-1.48614501953125,-8.593036651611328,-0.9511836767196655
1788880994432150000,3.27514990234375,-1.3413182497024536,-7.701075553894043,-1.0331569910049438
1788880994442180000,3.28518017578125,-0.5881016850471497,-5.743208408355713,-0.8128315806388855
1788880994452210200,3.295210205078125,0.3189525604248047,-2.4692602157592773,-0.42102938890457153
1788880994462241300,3.3052412109375,1.24677312374115,-0.4162833094596863,0.1030716672539711
1788880994472271000,3.31527099609375,1.9015169143676758,1.0152875185012817,0.5590274333953857
1788880994482301200,3.32530126953125,2.290213108062744,1.8754432201385498,0.8305303454399109
1788880994492331300,3.335331298828125,2.4992799758911133,2.05737566947937,0.9401630759239197
1788880994502361300,3.345361328125,2.488495111465454,1.527054786682129,0.9013102650642395
1788880994512391200,3.35539111328125,2.0197644233703613,0.8576786518096924,0.8479496836662292
1788880994522422000,3.365422119140625,1.0804476737976074,0.24364450573921204,0.7676013112068176
1788880994532452000,3.3754521484375,-0.2259249985218048,-0.07723675668239594,0.5431089401245117
1788880994542482200,3.385482177734375,-1.4312182664871216,-0.03782756254076958,0.18431086838245392
1788880994552512300,3.39551220703125,-2.3145079612731934,0.041655413806438446,-0.15554456412792206
1788880994562542000,3.4055419921875,-2.8319029808044434,0.8266589045524597,-0.40736693143844604
1788880994572572200,3.415572265625,-2.88936185836792,1.9168323278427124,-0.6041321754455566
1788880994582602200,3.425602294921875,-2.751227855682373,2.6366617679595947,-0.8065119385719299
1788880994592633300,3.43563330078125,-2.5044021606445312,3.1788923740386963,-0.9884925484657288
1788880994602663200,3.4456630859375,-2.1027212142944336,4.243528366088867,-1.1444480419158936
1788880994612693000,3.45569287109375,-1.4023611545562744,6.107371807098389,-1.254441261291504
1788880994622723000,3.46572314453125,-0.019997388124465942,5.546253204345703,-1.9675668478012085
1788880994632753200,3.475753173828125,1.702122449874878,3.545184373855591,-1.9662799835205078
1788880994642783200,3.485783203125,3.381470203399658,1.2163512706756592,-1.3853667974472046
1788880994652814000,3.49581396484375,4.407083034515381,-0.7719376087188721,-0.45510125160217285
1788880994662844200,3.50584423828125,4.552875518798828,-1.6244874000549316,0.463855504989624
1788880994672874200,3.515874267578125,4.268247127532959,-1.937050223350525,1.2478890419006348
1788880994682904300,3.525904296875,3.8762385845184326,-2.360008955001831,1.7637460231781006
1788880994692934400,3.535934326171875,3.4045114517211914,-2.7351276874542236,2.036953926086426
1788880994702964000,3.5459638671875,2.5253233909606934,-3.9154341220855713,1.3165857791900635
1788880994712994000,3.555994140625,2.2522919178009033,-4.205126762390137,1.061185598373413
1788880994723025200,3.566025146484375,2.1209495067596436,-4.516714572906494,1.03673255443573
1788880994733055200,3.57605517578125,1.997924566268921,-4.610188007354736,1.0011248588562012
1788880994743085000,3.5860849609375,2.0172009468078613,-3.6194474697113037,0.790160059928894
1788880994753115100,3.596115234375,2.146193265914917,-3.0526134967803955,0.7879311442375183
1788880994763145200,3.606145263671875,2.3739013671875,-2.4823858737945557,0.8459352850914001
1788880994773175300,3.61617529296875,2.635127305984497,-1.7110893726348877,0.966369092464447
1788880994783206100,3.6262060546875,2.9698140621185303,-0.9476994276046753,0.9926674962043762
1788880994793236200,3.636236328125,3.0240721702575684,-0.5232376456260681,0.43041786551475525
1788880994803266300,3.646266357421875,1.8763823509216309,-1.1931065320968628,-1.5677353143692017
1788880994813296000,3.656296142578125,1.1148697137832642,-0.7872322797775269,-2.975987672805786
1788880994823326200,3.666326171875,0.9885206818580627,0.19443683326244354,-3.667126178741455
1788880994833356000,3.67635595703125,0.8467265963554382,0.4601019024848938,-4.335607051849365
1788880994843387100,3.68638720703125,0.6691262125968933,0.4550972878932953,-4.758288860321045
1788880994853417200,3.696417236328125,0.33738648891448975,0.3409983813762665,-4.504181385040283
1788880994863447300,3.706447265625,-0.15120211243629456,-1.123543381690979,-3.1470253467559814
1788880994873477000,3.71647705078125,-0.51344233751297,-1.015000343322754,-1.9957770109176636
1788880994883507200,3.726507080078125,-0.6153756380081177,-0.35045236349105835,-1.460616946220398
1788880994893537300,3.736537353515625,0.4662584662437439,0.5615874528884888,-2.9701051712036133
1788880994903568400,3.746568359375,1.1145374774932861,0.25081202387809753,-4.603672504425049
1788880994913598200,3.75659814453125,0.7155953645706177,0.01086585782468319,-4.816878318786621
1788880994923628000,3.7666279296875,0.1126415878534317,1.5957438945770264,-3.8581697940826416
1788880994933658000,3.776658203125,0.2827732264995575,2.746345043182373,-3.005631923675537
1788880994943688200,3.786688232421875,0.3228655159473419,3.2331063747406006,-2.788978099822998
1788880994953718300,3.79671826171875,0.2510780394077301,3.3835039138793945,-2.7868525981903076
1788880994963749000,3.8067490234375,0.07144781947135925,3.6469883918762207,-2.739194393157959
1788880994973779200,3.816779296875,-0.005374991800636053,3.9382970333099365,-2.4930238723754883
1788880994983809300,3.826809326171875,0.08335274457931519,4.293544769287109,-2.2326693534851074
1788880994993839400,3.83683935546875,0.12358826398849487,4.7126078605651855,-2.0378267765045166
1788880995003869200,3.846869140625,0.18013064563274384,5.240414142608643,-1.7526426315307617
1788880995013899000,3.85689892578125,0.4050593078136444,5.533941268920898,-1.2781744003295898
1788880995023929000,3.86692919921875,0.818152666091919,5.8632049560546875,-0.649617612361908
1788880995033960200,3.876960205078125,1.2812142372131348,5.834184169769287,-0.0033023119904100895
1788880995043990000,3.886989990234375,1.717465877532959,5.668606758117676,0.530646026134491
1788880995054020000,3.89702001953125,2.03062105178833,5.6439008712768555,1.1002476215362549
1788880995064050200,3.90705029296875,2.245706796646118,5.04302453994751,1.7883878946304321
1788880995074080300,3.917080322265625,2.341712236404419,4.328763484954834,2.303391456604004
1788880995084110300,3.9271103515625,2.465057849884033,3.1999521255493164,2.3065924644470215
1788880995094141200,3.93714111328125,2.331831216812134,2.4530904293060303,2.1787030696868896
1788880995104171300,3.947171142578125,2.0793182849884033,2.026136636734009,2.08819580078125
1788880995114201000,3.957201171875,1.8111941814422607,1.3111724853515625,2.082536458969116
1788880995124231200,3.967231201171875,1.7414052486419678,0.4405633509159088,2.311950206756592
1788880995134261200,3.97726123046875,1.982854962348938,-0.6083861589431763,2.5842957496643066
1788880995144291000,3.987291015625,2.2096633911132812,-1.3168210983276367,2.8245038986206055
1788880995154322200,3.997322265625,2.3283472061157227,-1.9265726804733276,3.1209542751312256
1788880995164352300,4.007352294921875,2.454470634460449,-2.6429526805877686,3.546011209487915
1788880995174382300,4.01738232421875,2.4250171184539795,-3.1815309524536133,4.066104412078857
1788880995184412200,4.027412109375,2.14345645904541,-3.5285274982452393,4.509018898010254
1788880995194442200,4.037442138671875,1.6728575229644775,-3.9405784606933594,4.697996616363525
1788880995204472300,4.047472412109375,1.1692851781845093,-4.285241603851318,4.5459675788879395
1788880995214503200,4.057503173828125,0.7960951328277588,-4.5082926750183105,4.164965629577637
1788880995224533000,4.067532958984375,0.9437610507011414,-4.7037224769592285,3.7160441875457764
1788880995234563000,4.07756298828125,0.9635456800460815,-4.577578544616699,3.124267339706421
1788880995244593200,4.08759326171875,0.41447189450263977,-4.45911169052124,2.9133639335632324
1788880995254623200,4.097623291015625,0.22802799940109253,-4.521347999572754,3.378835916519165
1788880995264653300,4.1076533203125,0.4150005280971527,-4.340954303741455,3.6564688682556152
1788880995274684200,4.11768408203125,0.6537902355194092,-3.1297407150268555,3.0560333728790283
1788880995284714200,4.12771435546875,1.0087565183639526,-1.7046626806259155,2.3826489448547363
1788880995294744300,4.137744384765625,1.2618460655212402,-0.36479759216308594,1.8661229610443115
1788880995304774400,4.1477744140625,1.206416368484497,0.3507751524448395,1.5350611209869385
1788880995314804000,4.157803955078125,0.8522385954856873,0.6368757486343384,1.1538480520248413
1788880995324834000,4.167833984375,0.6841851472854614,0.6793555617332458,0.8029654026031494
1788880995334865200,4.177865234375,0.7472991943359375,0.5809968113899231,0.5634706616401672
1788880995344895200,4.187895263671875,0.9102579951286316,0.2297765016555786,0.49310222268104553
1788880995354924800,4.1979248046875,1.1490353345870972,-0.15545503795146942,0.6108608841896057
1788880995364954600,4.20795458984375,1.2803022861480713,-0.2819693088531494,0.6878193020820618
1788880995374984700,4.217984619140625,1.0869518518447876,-0.04013754427433014,0.8241639733314514
1788880995385014800,4.228014892578125,0.9037194848060608,0.13296660780906677,1.096379280090332
1788880995395045600,4.238045654296875,0.7837030291557312,0.16354529559612274,1.1413246393203735
1788880995405075700,4.24807568359375,0.7754839658737183,0.18006809055805206,0.8627431988716125
1788880995415105800,4.258105712890625,0.7748086452484131,0.30662184953689575,0.5122647881507874
1788880995425135600,4.268135498046875,0.9210875630378723,0.641334593296051,0.14554354548454285
1788880995435165700,4.278165771484375,1.2218314409255981,0.9325407147407532,-0.31441590189933777
1788880995445195800,4.28819580078125,1.141898512840271,-0.25593268871307373,-1.1456550359725952
1788880995455226600,4.2982265625,0.8960806131362915,-0.5483875870704651,-1.9953930377960205
1788880995465256700,4.308256591796875,0.6013802289962769,1.15241539478302,-2.6472558975219727
1788880995475286800,4.318286865234375,0.54604172706604,2.9815239906311035,-3.0768043994903564
1788880995485316900,4.32831689453125,0.20123741030693054,4.893051624298096,-3.471982955932617
1788880995495346700,4.3383466796875,-0.08954165130853653,6.0255937576293945,-3.744105339050293
1788880995505376800,4.348376708984375,-0.13388168811798096,6.050379753112793,-4.013997554779053
1788880995515408000,4.358407958984375,0.053551651537418365,5.202444553375244,-4.2765021324157715
1788880995525438000,4.36843798828125,0.5103442668914795,3.631951332092285,-3.6013975143432617
1788880995535467500,4.378467529296875,1.0363292694091797,1.1364567279815674,-1.7166869640350342
1788880995545497600,4.38849755859375,1.3953512907028198,-0.38964617252349854,-1.3017739057540894
1788880995555527700,4.398527587890625,1.8978838920593262,-1.4629147052764893,-2.0048136711120605
1788880995565557800,4.408557861328125,2.150930166244507,-1.8164639472961426,-3.035452127456665
1788880995575588600,4.418588623046875,1.5442616939544678,-0.5829632878303528,-3.7795987129211426
1788880995585618700,4.42861865234375,0.22194147109985352,1.1310077905654907,-3.9690465927124023
1788880995595648800,4.438648681640625,-1.0909894704818726,2.478135108947754,-3.837291955947876
1788880995605678800,4.448678955078125,-1.4914042949676514,2.95893931388855,-3.785320520401001
1788880995615709000,4.458708984375,-1.313105821609497,2.973534107208252,-3.748971939086914
1788880995625738500,4.468738525390625,-1.0843077898025513,2.713747024536133,-3.487619161605835
1788880995635769900,4.478769775390625,-0.8646849393844604,2.0280933380126953,-2.979404926300049
1788880995645799700,4.488799560546875,-0.7603415250778198,1.249802589416504,-2.209399700164795
1788880995655829800,4.498829833984375,-0.7133302092552185,0.5247154235839844,-1.5370434522628784
1788880995665859600,4.508859619140625,-0.7041534781455994,-0.22786758840084076,-0.9473660588264465
1788880995675889700,4.5188896484375,-0.5430972576141357,-0.8341906070709229,-0.7160836458206177
1788880995685919700,4.528919677734375,-0.4015859365463257,-1.1321258544921875,-0.559227466583252
1788880995695950800,4.538950927734375,-0.3863883912563324,-1.32816481590271,-0.24677953124046326
1788880995705980700,4.548980712890625,-0.3932287096977234,-1.4600732326507568,0.03388115391135216
1788880995716010800,4.5590107421875,-0.5159743428230286,-1.1858453750610352,0.36498185992240906
1788880995726040800,4.569040771484375,-0.6932452917098999,-0.9207895398139954,0.6048480272293091
1788880995736070700,4.579070556640625,-0.7601296305656433,-0.6972689628601074,0.6197898387908936
1788880995746100700,4.589100830078125,-0.7255277037620544,-0.48038187623023987,0.47934189438819885
1788880995756131600,4.599131591796875,-0.526084303855896,-0.3308945298194885,0.21471379697322845
1788880995766161700,4.60916162109375,-0.2805667221546173,0.02659890055656433,-0.08991508930921555
1788880995776191700,4.619191650390625,-0.20299062132835388,0.5652258396148682,-0.2711680829524994
1788880995786221800,4.629221923828125,-0.22529911994934082,1.2346419095993042,-0.22596222162246704
1788880995796251600,4.639251708984375,-0.2825804352760315,1.5774188041687012,-0.06948268413543701
1788880995806281700,4.64928173828125,-0.28501057624816895,1.4050809144973755,0.18463827669620514
1788880995816312800,4.659312744140625,-0.15375950932502747,0.8806613683700562,0.47233545780181885
1788880995826343000,4.669343017578125,0.036207765340805054,0.39536893367767334,0.7126522064208984
1788880995836372700,4.679372802734375,-0.04076630622148514,0.03305410221219063,0.8147405385971069
1788880995846402600,4.689402587890625,-0.18161477148532867,-0.008324496448040009,0.7510696649551392
1788880995856432600,4.6994326171875,-0.24022696912288666,0.1170763224363327,0.5783319473266602
1788880995866463700,4.709463623046875,-0.24935121834278107,0.3104521632194519,0.42083683609962463
1788880995876493600,4.71949365234375,-0.17794930934906006,0.23407261073589325,0.4310944974422455
1788880995886523600,4.729523681640625,-0.07589378207921982,0.05129985883831978,0.5559152960777283
1788880995896553700,4.7395537109375,-0.025014685466885567,-0.015217605046927929,0.648891270160675
1788880995906583800,4.749583740234375,-0.017601244151592255,0.10151833295822144,0.7340764999389648
1788880995916614000,4.75961376953125,-0.04967629536986351,0.25832217931747437,0.8809850811958313
1788880995926644700,4.769644775390625,-0.08343053609132767,0.4007789194583893,1.070620059967041
1788880995936674800,4.7796748046875,-0.09842348098754883,0.4926358163356781,1.2436394691467285
1788880995946704600,4.78970458984375,-0.09308090806007385,0.38742977380752563,1.3269453048706055
1788880995956734700,4.799734619140625,-0.1136537492275238,0.04653618112206459,1.3327112197875977
1788880995966764800,4.809764892578125,-0.1549074351787567,-0.2970616817474365,1.3533437252044678
1788880995976794600,4.819794677734375,-0.12597569823265076,-0.620682418346405,1.3425788879394531
1788880995986825700,4.82982568359375,-0.1794314682483673,-0.8470317125320435,1.3835958242416382
1788880995996855800,4.839855712890625,-0.2634441554546356,-1.0164697170257568,1.4322504997253418
1788880996006886000,4.849885986328125,-0.2948111295700073,-1.1715104579925537,1.4782453775405884
1788880996016915700,4.859915771484375,-0.265167772769928,-1.277279019355774,1.5127977132797241
1788880996026945800,4.86994580078125,-0.13260625302791595,-1.4101086854934692,1.4976850748062134
1788880996036975600,4.8799755859375,-0.014499866403639317,-1.4802589416503906,1.5044896602630615
1788880996047006700,4.8900068359375,-0.01889115199446678,-1.5241029262542725,1.4926079511642456
1788880996057036500,4.90003662109375,-0.17983995378017426,-1.5107357501983643,1.4718626737594604
1788880996067066600,4.910066650390625,-0.43175047636032104,-1.4951902627944946,1.4203251600265503
1788880996077096700,4.9200966796875,-0.6821566820144653,-1.4956315755844116,1.2880717515945435
1788880996087126800,4.930126708984375,-0.8439533114433289,-1.4391520023345947,1.1851195096969604
1788880996097156900,4.940156982421875,-0.7137700319290161,-1.3772133588790894,1.0602437257766724
1788880996107187700,4.950187744140625,-0.5864363312721252,-1.2532179355621338,0.9199444055557251
1788880996117217800,4.9602177734375,-0.7769896388053894,-0.869175910949707,0.8295620083808899
1788880996127248000,4.970247802734375,-0.8899391293525696,-0.13810011744499207,0.6169400215148926
1788880996137278000,4.98027783203125,-0.8015941977500916,0.9830209016799927,0.23266597092151642
1788880996147307500,4.9903076171875,-0.8604039549827576,2.0269200801849365,-0.28396278619766235
1788880996157338600,5.000338623046875,-1.0992807149887085,2.4914798736572266,-0.7790223360061646
1788880996167368700,5.01036865234375,-1.3657195568084717,2.3743438720703125,-1.1683623790740967
1788880996177398800,5.020398681640625,-1.497015357017517,1.9935423135757446,-1.4980276823043823
1788880996187428600,5.0304287109375,-1.4713244438171387,1.6136409044265747,-1.7671339511871338
1788880996197458700,5.040458740234375,-1.4491381645202637,1.20848548412323,-1.882398247718811
1788880996207488800,5.05048876953125,-1.3671138286590576,0.6769483089447021,-1.7756999731063843
1788880996217519900,5.060519775390625,-1.2123260498046875,0.1468925178050995,-1.5113351345062256
1788880996227549700,5.0705498046875,-1.0673922300338745,-0.43631497025489807,-1.1531562805175781
1788880996237579800,5.080579833984375,-0.8755625486373901,-0.837353527545929,-0.7737968564033508
1788880996247609600,5.090609619140625,-0.7800189852714539,-0.7945349812507629,-0.3991798162460327
1788880996257639700,5.1006396484375,-0.7628479599952698,-0.52705317735672,-0.06012915447354317
1788880996267670500,5.11067041015625,-0.7734318971633911,-0.21641623973846436,0.2036905139684677
1788880996277700600,5.12070068359375,-0.7128937244415283,0.06014147400856018,0.36780214309692383
1788880996287730700,5.130730712890625,-0.6123042702674866,0.19366544485092163,0.36959898471832275
1788880996297760800,5.1407607421875,-0.48403340578079224,0.27817073464393616,0.15605373680591583
1788880996307790800,5.150790771484375,-0.33821335434913635,0.3168667256832123,-0.24103796482086182
1788880996317820700,5.160820556640625,-0.20363749563694,0.12628909945487976,-0.6342135071754456
1788880996327851800,5.170851806640625,-0.03745492175221443,-0.3063720464706421,-0.9000686407089233
1788880996337881900,5.1808818359375,0.2471911758184433,-0.9150112867355347,-1.0684951543807983
1788880996347912000,5.190911865234375,0.5910955667495728,-1.653432011604309,-1.1893798112869263
1788880996357938200,5.200938232421875,0.8524010181427002,-2.3213746547698975,-1.176047682762146
1788880996367968000,5.210968017578125,0.9971398115158081,-2.5948901176452637,-0.9040827751159668
1788880996377997800,5.220997802734375,1.0513496398925781,-2.4265196323394775,-0.5633172392845154
1788880996388029000,5.23102880859375,1.0051034688949585,-1.9411159753799438,-0.2132658064365387
1788880996398059000,5.24105908203125,1.0041918754577637,-1.3048394918441772,0.12246144562959671
1788880996408088800,5.2510888671875,1.1094807386398315,-0.8029590845108032,0.3518642485141754
1788880996418119000,5.261118896484375,1.2809126377105713,-0.5344665050506592,0.5054498910903931
1788880996428149000,5.27114892578125,1.4983516931533813,-0.6952638626098633,0.4968907833099365
1788880996438180000,5.28118017578125,1.6437722444534302,-1.8235007524490356,0.09135935455560684
1788880996448210000,5.2912099609375,1.407087802886963,-3.4331250190734863,-0.5923476219177246
1788880996458240000,5.301239990234375,1.00091552734375,-4.815474510192871,-1.2560501098632812
1788880996468270000,5.31127001953125,0.6613443493843079,-5.604583740234375,-1.7206177711486816
1788880996478300200,5.321300048828125,0.3764221966266632,-5.663602828979492,-1.9108117818832397
1788880996488330000,5.331330078125,0.17074812948703766,-5.212127208709717,-1.9678829908370972
1788880996498360800,5.34136083984375,0.024670202285051346,-4.631805896759033,-2.055896759033203
1788880996508391000,5.351390869140625,-0.03643283247947693,-4.115673542022705,-2.130030870437622
1788880996518421000,5.3614208984375,0.005627129692584276,-3.5638182163238525,-2.1142024993896484
1788880996528451000,5.371451171875,0.11070214956998825,-2.92482590675354,-2.0003252029418945
1788880996538481000,5.38148095703125,0.23252791166305542,-2.422025442123413,-1.9059648513793945
1788880996548512000,5.391511962890625,0.25599780678749084,-2.140558958053589,-1.9361861944198608
1788880996558542000,5.4015419921875,0.1627519577741623,-1.9389948844909668,-2.0571677684783936
1788880996568572200,5.411572265625,0.02036045677959919,-1.737831711769104,-2.236480236053467
1788880996578602000,5.42160205078125,-0.08135615289211273,-1.5061627626419067,-2.409578800201416
1788880996588631800,5.4316318359375,-0.10762717574834824,-1.167377233505249,-2.5115442276000977
1788880996598662000,5.441661865234375,-0.10716083645820618,-0.7895663976669312,-2.604247808456421
1788880996608693000,5.45169287109375,-0.09201224148273468,-0.5777798295021057,-2.8088762760162354
1788880996618722800,5.461722900390625,-0.027218839153647423,-0.4566347599029541,-3.052598237991333
1788880996628753000,5.4717529296875,0.0635715201497078,-0.06687340885400772,-3.1420834064483643
1788880996638783000,5.481782958984375,0.09152169525623322,0.3321973979473114,-3.1034462451934814
1788880996648813000,5.49181298828125,0.01818116568028927,0.6369959115982056,-2.9593193531036377
1788880996658844000,5.501843994140625,-0.145728200674057,0.701059103012085,-2.803666353225708
1788880996668874000,5.5118740234375,-0.30482518672943115,0.5720987319946289,-2.628422260284424
1788880996678904000,5.521904052734375,-0.3750467002391815,0.3328581750392914,-2.470388412475586
1788880996688934100,5.53193408203125,-0.3115289807319641,0.03192071244120598,-2.2049400806427
1788880996698964000,5.5419638671875,-0.2193111777305603,-0.3076241910457611,-1.7879459857940674
1788880996708993800,5.551993896484375,-0.2696467936038971,-0.6023846864700317,-1.3293241262435913
1788880996719025000,5.56202490234375,-0.333905428647995,-0.6642763018608093,-0.8465291261672974
1788880996729055000,5.572054931640625,-0.39593151211738586,-0.49690914154052734,-0.34305235743522644
1788880996739085000,5.5820849609375,-0.40708982944488525,-0.22933579981327057,0.15295729041099548
1788880996749115000,5.592114990234375,-0.41819173097610474,0.019044451415538788,0.4663471579551697
1788880996759145000,5.60214501953125,-0.3947387933731079,0.2499139904975891,0.5615089535713196
1788880996769176000,5.612176025390625,-0.38149863481521606,0.4969349503517151,0.5367394089698792
1788880996779206100,5.6222060546875,-0.36422592401504517,0.879302442073822,0.6130887866020203
1788880996789236000,5.632236083984375,-0.3563331365585327,1.3675955533981323,0.8008038401603699
1788880996799265800,5.642265869140625,-0.3248930275440216,1.7934446334838867,0.9846234321594238
1788880996809296000,5.6522958984375,-0.2911246716976166,2.0847949981689453,1.1251530647277832
1788880996819327000,5.662326904296875,-0.22058531641960144,2.2978334426879883,1.2743538618087769
1788880996829356800,5.672356689453125,-0.18846972286701202,2.5273211002349854,1.5304242372512817
1788880996839387000,5.682386962890625,-0.15216749906539917,2.580744981765747,1.8077861070632935
1788880996849417000,5.6924169921875,-0.06133878603577614,2.504420757293701,2.118213653564453
1788880996859447000,5.702447021484375,0.048669278621673584,2.352466583251953,2.385866403579712
1788880996869477000,5.71247705078125,0.145920991897583,2.1457576751708984,2.594571113586426
1788880996879508000,5.722508056640625,0.2656656801700592,1.8790171146392822,2.742872476577759
1788880996889538000,5.7325380859375,0.34002354741096497,1.7260470390319824,2.84443998336792
1788880996899568000,5.742568115234375,0.38525456190109253,1.649335503578186,2.8254363536834717
1788880996909598000,5.752597900390625,0.3910194933414459,1.601980209350586,2.672703266143799
1788880996919628000,5.7626279296875,0.3630918264389038,1.5883872509002686,2.415645122528076
1788880996929659000,5.772658935546875,0.28393256664276123,1.6999452114105225,2.0898702144622803
1788880996939689000,5.78268896484375,0.22271911799907684,1.8571852445602417,1.7793816328048706
1788880996949719000,5.792718994140625,0.22356733679771423,1.8743594884872437,1.5027010440826416
1788880996959748900,5.802748779296875,0.1951502114534378,1.7623493671417236,1.24162757396698
1788880996969779000,5.812779052734375,0.05365726351737976,1.7129932641983032,1.135512351989746
1788880996979810000,5.82281005859375,-0.06806514412164688,1.6132944822311401,1.0418893098831177
1788880996989840100,5.832840087890625,-0.1475525051355362,1.4207247495651245,0.9020419120788574
1788880996999870000,5.842869873046875,-0.24713808298110962,1.1123716831207275,0.7052780985832214
1788880997009900000,5.852900146484375,-0.4030134379863739,0.9496124982833862,0.47917917370796204
1788880997019929900,5.862929931640625,-0.5499985218048096,0.8702054023742676,0.16344322264194489
1788880997029961000,5.8729609375,-0.6856237053871155,0.7634440660476685,-0.22913521528244019
1788880997039990800,5.88299072265625,-0.7534139752388,0.7264409065246582,-0.5997290015220642
1788880997050020900,5.893020751953125,-0.815357506275177,0.8404433727264404,-0.9212324619293213
1788880997060051000,5.903051025390625,-0.816116213798523,1.0820168256759644,-1.1135176420211792
1788880997070081000,5.9130810546875,-0.8029210567474365,1.2129749059677124,-1.0342795848846436
1788880997080111000,5.923111083984375,-0.7070819735527039,1.2451716661453247,-0.8515825271606445
1788880997090142000,5.933141845703125,-0.5503597259521484,1.1495304107666016,-0.6241754293441772
1788880997100172000,5.943172119140625,-0.36113250255584717,0.98448646068573,-0.41463714838027954
1788880997110202000,5.9532021484375,-0.23714716732501984,0.9600713849067688,-0.2064645141363144
1788880997120232000,5.96323193359375,-0.11481691151857376,0.9161819219589233,-0.046941887587308884
1788880997130262000,5.973261962890625,-0.005327700637280941,0.961712121963501,0.05583695322275162
1788880997140292900,5.98329296875,0.06826135516166687,0.977444589138031,0.12028643488883972
1788880997150323000,5.993322998046875,0.07867671549320221,0.9545408487319946,0.20435896515846252
1788880997160353000,6.00335302734375,0.03971116989850998,0.9743583798408508,0.3077932298183441
1788880997170383000,6.013383056640625,0.032412245869636536,0.949468195438385,0.3406316041946411
1788880997180413000,6.023412841796875,0.15101002156734467,0.9775639772415161,0.255178302526474
1788880997190444000,6.033444091796875,0.35360202193260193,0.9016963839530945,0.14362913370132446
1788880997200474000,6.04347412109375,0.5088610649108887,0.7240648865699768,0.07971435785293579
1788880997210504000,6.05350390625,0.5566195249557495,0.4468596577644348,0.12215635925531387
1788880997220534000,6.063533935546875,0.5743218064308167,-0.08862687647342682,0.2519191801548004
1788880997230563800,6.073563720703125,0.6297836899757385,-0.6324316263198853,0.3671725392341614
1788880997240595000,6.083594970703125,0.6601174473762512,-0.9119867086410522,0.5214765071868896
1788880997250624800,6.093624755859375,0.740303635597229,-1.065690517425537,0.6395911574363708
1788880997260654800,6.10365478515625,0.955099880695343,-1.1460670232772827,0.6334914565086365
1788880997270685000,6.113684814453125,1.0845167636871338,-1.0892173051834106,0.5981438159942627
1788880997280715000,6.123715087890625,1.14994215965271,-0.9780735373497009,0.6029599905014038
1788880997290745900,6.133745849609375,1.209333896636963,-0.8817890882492065,0.5916743278503418
1788880997300776000,6.14377587890625,1.2011452913284302,-0.7487698197364807,0.6290305256843567
1788880997310806000,6.153805908203125,1.2019681930541992,-0.810628354549408,0.6631927490234375
1788880997320836000,6.163836181640625,1.1861170530319214,-1.1752089262008667,0.5852594971656799
1788880997330866000,6.173865966796875,1.140938639640808,-1.7597051858901978,0.3573741316795349
1788880997340896000,6.18389599609375,0.9152628183364868,-3.040475845336914,-0.3237767517566681
1788880997350926800,6.1939267578125,0.5623912811279297,-4.292539119720459,-1.1330783367156982
1788880997360957400,6.20395751953125,0.2748422920703888,-4.867511749267578,-1.704264521598816
1788880997370987500,6.213987548828125,0.17701134085655212,-4.861959457397461,-1.9905120134353638
1788880997381017300,6.224017333984375,0.21440225839614868,-4.401320457458496,-2.01853346824646
1788880997391047400,6.23404736328125,0.32999569177627563,-3.7683463096618652,-1.8894978761672974
1788880997401078500,6.24407861328125,0.3981243371963501,-3.193711757659912,-1.7788970470428467
1788880997411108600,6.254108642578125,0.4136947691440582,-2.7314071655273438,-1.8114001750946045
1788880997421138400,6.264138427734375,0.380928099155426,-2.457387924194336,-1.970616340637207
1788880997431168500,6.27416845703125,0.31981760263442993,-2.3287477493286133,-2.246140241622925
1788880997441198600,6.284198486328125,0.3734591603279114,-2.1628377437591553,-2.5411853790283203
1788880997451229700,6.294229736328125,0.48048439621925354,-1.838300347328186,-2.7502973079681396
1788880997461259300,6.30425927734375,0.4366103410720825,-1.323603868484497,-2.8279781341552734
1788880997471289300,6.314289306640625,0.3928668797016144,-0.6522209644317627,-2.765803337097168
1788880997481319400,6.3243193359375,0.42778149247169495,-0.1409800499677658,-2.7893905639648438
1788880997491349500,6.334349609375,0.4944614768028259,0.23323430120944977,-2.978553533554077
1788880997501380400,6.34438037109375,0.5212819576263428,0.6372309923171997,-3.1895668506622314
1788880997511410400,6.354410400390625,0.4706032872200012,0.950646162033081,-3.3620831966400146
1788880997521440500,6.3644404296875,0.374853253364563,1.1446748971939087,-3.469144582748413
1788880997531470600,6.374470703125,0.23371796309947968,1.1892658472061157,-3.500680923461914
1788880997541500700,6.384500732421875,0.10566189885139465,1.268693447113037,-3.3626387119293213
1788880997551531500,6.394531494140625,0.015029201284050941,1.2409435510635376,-3.0714616775512695
1788880997561561600,6.4045615234375,0.06525521725416183,1.0977697372436523,-2.5189595222473145
1788880997571591400,6.41459130859375,0.148841992020607,0.7574217319488525,-1.923675537109375
1788880997581621500,6.42462158203125,0.1495610922574997,0.3246365487575531,-1.539050817489624
1788880997591651300,6.4346513671875,0.1505611091852188,0.03540634736418724,-1.14132821559906
1788880997601682400,6.444682373046875,0.15433472394943237,-0.07265294343233109,-0.6331040859222412
1788880997611712500,6.45471240234375,0.14451964199543,-0.00037688203155994415,-0.17629343271255493
1788880997621742600,6.46474267578125,0.11260925978422165,0.16943272948265076,0.18451827764511108
1788880997631772400,6.4747724609375,0.06524761021137238,0.40552645921707153,0.4514674246311188
1788880997641802500,6.484802490234375,0.022316735237836838,0.5681333541870117,0.6844419240951538
1788880997651833600,6.49483349609375,-0.008165274746716022,0.7233615517616272,0.9110646843910217
1788880997661863700,6.50486376953125,0.007245222572237253,0.9652500152587891,1.2324291467666626
1788880997671893200,6.514893310546875,0.0623265840113163,1.172829031944275,1.5315039157867432
1788880997681923300,6.52492333984375,0.1083122119307518,1.3463764190673828,1.793340802192688
1788880997691953400,6.534953369140625,0.13289213180541992,1.3223729133605957,1.971834659576416
1788880997701984500,6.544984619140625,0.1766139715909958,1.0473495721817017,2.1384854316711426
1788880997712014300,6.555014404296875,0.20048655569553375,0.7779788374900818,2.3464200496673584
1788880997722044400,6.56504443359375,0.20777058601379395,0.6751871705055237,2.594146490097046
1788880997732074500,6.575074462890625,0.21598456799983978,0.8132691383361816,2.8545022010803223
1788880997742104600,6.5851044921875,0.17315396666526794,0.8275057673454285,3.0794146060943604
1788880997752135400,6.595135498046875,0.12561893463134766,0.5587131977081299,3.236860752105713
1788880997762165500,6.60516552734375,0.14648212492465973,0.4259437918663025,3.378450632095337
1788880997772195600,6.615195556640625,0.20974019169807434,0.5131596326828003,3.5187041759490967
1788880997782225400,6.625225341796875,0.2050681710243225,0.7577750086784363,3.597622871398926
1788880997792255500,6.63525537109375,0.3100784718990326,1.0804587602615356,3.5007216930389404
1788880997802286300,6.645286376953125,0.4063437879085541,1.3422563076019287,3.2319936752319336
1788880997812316400,6.65531640625,0.3735666573047638,1.6650588512420654,2.9784276485443115
1788880997822346500,6.665346435546875,0.39673441648483276,2.0867390632629395,2.795112371444702
1788880997832376600,6.67537646484375,0.37949419021606445,2.3581433296203613,2.664820432662964
1788880997842406400,6.685406494140625,0.2932961881160736,2.472473382949829,2.520402193069458
1788880997852437500,6.6954375,0.15931282937526703,2.4058728218078613,2.334850311279297
1788880997862467600,6.705467529296875,-0.058473363518714905,2.0523757934570312,2.0958340167999268
1788880997872497700,6.71549755859375,-0.24471566081047058,1.5778886079788208,1.7505686283111572
1788880997882527500,6.725527587890625,-0.3927801549434662,1.128618597984314,1.3341095447540283
1788880997892557300,6.735557373046875,-0.4797438085079193,0.8870797157287598,0.9484060406684875
1788880997902588400,6.74558837890625,-0.5600053668022156,0.958374559879303,0.6112768650054932
1788880997912618500,6.755618408203125,-0.6172955632209778,1.2641422748565674,0.385899156332016
1788880997922648300,6.7656484375,-0.6032201647758484,1.5419420003890991,0.18744304776191711
1788880997932678400,6.775678466796875,-0.556554913520813,1.6768934726715088,-0.010996812954545021
1788880997942708500,6.78570849609375,-0.5221173167228699,1.742089033126831,-0.13336420059204102
1788880997952739600,6.795739501953125,-0.4805957078933716,1.636425256729126,-0.23886851966381073
1788880997962769400,6.805769287109375,-0.454622358083725,1.4866561889648438,-0.3651210069656372
1788880997972799500,6.815799560546875,-0.5524003505706787,1.267218828201294,-0.5046069622039795
1788880997982829600,6.82582958984375,-0.6644995808601379,0.9563302397727966,-0.5658086538314819
1788880997992859400,6.835859375,-0.7119051814079285,0.6998206973075867,-0.5374846458435059
1788880998002890500,6.845890380859375,-0.7059177756309509,0.4743877351284027,-0.4271312355995178
1788880998012920300,6.85592041015625,-0.675264835357666,0.4419480562210083,-0.34712907671928406
1788880998022950400,6.865950439453125,-0.6046795845031738,0.6009149551391602,-0.26716676354408264
1788880998032980500,6.87598046875,-0.6061280965805054,0.7362834215164185,-0.15685035288333893
1788880998043010600,6.886010498046875,-0.627617597579956,0.8613630533218384,-0.06088091433048248
1788880998053041400,6.89604150390625,-0.5158441662788391,0.947457492351532,0.0018889933126047254
1788880998063071500,6.906071533203125,-0.39183416962623596,0.9924145340919495,0.061725858598947525
1788880998073101600,6.9161015625,-0.23071424663066864,0.9679096937179565,0.11752627044916153
1788880998083131600,6.926131591796875,-0.04257514700293541,0.8014100790023804,0.160148486495018
1788880998093162500,6.93616259765625,0.2164183259010315,0.4606061577796936,0.21801818907260895
1788880998103192600,6.946192626953125,0.4756985306739807,0.10569249093532562,0.26456373929977417
1788880998113222400,6.956222412109375,0.699686586856842,-0.17341850697994232,0.26389023661613464
1788880998123252500,6.96625244140625,0.9231026768684387,-0.5099142789840698,0.27886736392974854
1788880998133282300,6.9762822265625,1.080202341079712,-0.9370672106742859,0.27206510305404663
1788880998143313400,6.9863134765625,1.1651159524917603,-1.4619908332824707,0.23997154831886292
1788880998153343500,6.996343505859375,1.223618507385254,-1.9361504316329956,0.193456768989563
1788880998163373600,7.00637353515625,1.2602338790893555,-2.236285924911499,0.17967195808887482
1788880998173403400,7.0164033203125,1.3405427932739258,-2.3501157760620117,0.15120968222618103
1788880998183433500,7.02643359375,1.4319456815719604,-2.3291282653808594,0.07859711349010468
1788880998193464600,7.036464599609375,1.478234887123108,-2.187520742416382,-0.002687356434762478
1788880998203494700,7.04649462890625,1.3981940746307373,-2.031592845916748,-0.08639378845691681
1788880998213524500,7.0565244140625,1.1904656887054443,-2.597992181777954,-0.5147120952606201
1788880998223554300,7.06655419921875,0.9022397398948669,-3.3184258937835693,-1.1097296476364136
1788880998233584400,7.07658447265625,0.5628214478492737,-3.3842971324920654,-1.4912761449813843
1788880998243615500,7.086615478515625,0.24616815149784088,-3.270362615585327,-1.7528293132781982
1788880998253645300,7.096645263671875,0.07324244827032089,-3.0004043579101562,-1.8959633111953735
1788880998263675400,7.10667529296875,-0.0512440949678421,-2.7903292179107666,-2.0368223190307617
1788880998273705500,7.11670556640625,-0.12224716693162918,-2.8795700073242188,-2.2849936485290527
1788880998283735600,7.126735595703125,-0.14838697016239166,-3.023236036300659,-2.494734764099121
1788880998293766400,7.136766357421875,-0.13374383747577667,-3.0127005577087402,-2.5915584564208984
1788880998303796500,7.14679638671875,-0.03447337448596954,-2.874603748321533,-2.5121119022369385
1788880998313826600,7.15682666015625,0.0891292616724968,-2.6367151737213135,-2.2073512077331543
1788880998323856600,7.166856689453125,0.1635969579219818,-2.3808650970458984,-1.8074973821640015
1788880998333886500,7.176886474609375,0.13737520575523376,-2.114375114440918,-1.5601290464401245
1788880998343917300,7.186917236328125,0.13417084515094757,-2.1117985248565674,-1.486441969871521
1788880998353947400,7.196947509765625,0.2560749053955078,-2.2856738567352295,-1.4839199781417847
1788880998363977000,7.20697705078125,0.4030710756778717,-2.4132726192474365,-1.4332505464553833
1788880998374007000,7.217007080078125,0.40533584356307983,-2.2606191635131836,-1.2779126167297363
1788880998384037000,7.227037109375,0.3441846966743469,-2.045823812484741,-1.199440360069275
1788880998394068000,7.23706787109375,0.3936944603919983,-1.6467119455337524,-1.399314522743225
1788880998404098000,7.24709814453125,0.4621869921684265,-1.112856388092041,-1.6277137994766235
1788880998414127900,7.2571279296875,0.42534294724464417,-0.6990354657173157,-1.8511799573898315
1788880998424158000,7.267157958984375,0.29620036482810974,-0.37687602639198303,-2.0503439903259277
1788880998434188800,7.277188720703125,0.2487337738275528,-0.07867760956287384,-2.2070724964141846
1788880998444219000,7.287218994140625,0.24190156161785126,0.3174782991409302,-2.192262887954712
1788880998454249000,7.2972490234375,0.21457646787166595,0.6453185081481934,-2.0001511573791504
1788880998464279000,7.307279052734375,0.14785055816173553,0.27742862701416016,-1.6491572856903076
1788880998474308900,7.317308837890625,0.12750613689422607,-0.15502400696277618,-1.1272804737091064
1788880998484340000,7.327340087890625,0.1124068945646286,-0.3943978250026703,-0.69696444272995
1788880998494370000,7.3373701171875,0.06082545965909958,-0.22449587285518646,-0.2950045168399811
1788880998504400100,7.347400146484375,0.007255176547914743,0.015633907169103622,0.08905528485774994
1788880998514430000,7.357429931640625,-0.09987207502126694,0.13629508018493652,0.2812148630619049
1788880998524459800,7.367459716796875,-0.12681692838668823,0.2663092315196991,0.39343518018722534
1788880998534491000,7.377490966796875,-0.15272974967956543,0.46205076575279236,0.5254701972007751
1788880998544521000,7.38752099609375,-0.20287196338176727,0.614521324634552,0.6367447376251221
1788880998554550800,7.39755078125,-0.34131932258605957,0.8215136528015137,0.7720370888710022
1788880998564580900,7.407580810546875,-0.447736531496048,1.0170999765396118,0.9024014472961426
1788880998574611000,7.41761083984375,-0.5386499166488647,1.278074860572815,1.0486228466033936
1788880998584642000,7.42764208984375,-0.6303303241729736,1.6620986461639404,1.2581321001052856
1788880998594671900,7.437671875,-0.7071247100830078,2.0229086875915527,1.4225255250930786
1788880998604702000,7.447701904296875,-0.7137773633003235,2.31889271736145,1.4736254215240479
1788880998614732000,7.45773193359375,-0.6586449146270752,2.6983444690704346,1.4755043983459473
1788880998624761900,7.467761962890625,-0.5960080623626709,3.179696798324585,1.536680817604065
1788880998634793000,7.47779296875,-0.5696139931678772,3.5644638538360596,1.6973294019699097
1788880998644822800,7.48782275390625,-0.5304728150367737,3.7088334560394287,1.9068994522094727
1788880998654852900,7.497852783203125,-0.44737523794174194,3.4800314903259277,2.0646800994873047
1788880998664883000,7.507883056640625,-0.3275326192378998,3.0779263973236084,2.2470741271972656
1788880998674913800,7.517913818359375,-0.21343481540679932,2.487908124923706,2.4646289348602295
1788880998684944000,7.52794384765625,-0.1875293254852295,2.077167510986328,2.62127685546875
1788880998694974000,7.537973876953125,-0.26737889647483826,1.9182960987091064,2.6494877338409424
1788880998705004000,7.548004150390625,-0.3382139801979065,1.8212519884109497,2.5645670890808105
1788880998715034000,7.5580341796875,-0.3261578679084778,1.6162828207015991,2.4033031463623047
1788880998725065000,7.56806494140625,-0.2799658477306366,1.5000022649765015,2.1731762886047363
1788880998735095000,7.578094970703125,-0.15418075025081635,1.479353666305542,1.8362821340560913
1788880998745124900,7.588124755859375,0.07346037775278091,1.1776480674743652,1.5633623600006104
1788880998755155000,7.598155029296875,0.3082609176635742,0.7324709296226501,1.2992966175079346
1788880998765184800,7.608184814453125,0.3214350938796997,0.5123744606971741,0.9687586426734924
1788880998775215900,7.6182158203125,0.23639395833015442,0.6414565443992615,0.7508798241615295
1788880998785246000,7.628245849609375,0.11340773105621338,0.9819034934043884,0.6360869407653809
1788880998795276000,7.638276123046875,-0.05965832620859146,1.2550402879714966,0.5407527089118958
1788880998805305900,7.648305908203125,-0.09391644597053528,1.0357118844985962,0.29463478922843933
1788880998815336000,7.6583359375,-0.33950117230415344,0.6171357035636902,-0.07893504947423935
1788880998825367000,7.668366943359375,-0.5435508489608765,0.25412923097610474,-0.5405460596084595
1788880998835397000,7.678397216796875,-0.6871436834335327,0.01262233778834343,-0.8741634488105774
1788880998845427000,7.688427001953125,-0.5141868591308594,-0.21249081194400787,-1.076515793800354
1788880998855456800,7.698456787109375,-0.2838018834590912,-0.6161972880363464,-1.1567647457122803
1788880998865488100,7.708488037109375,-0.12713152170181274,-0.9209137558937073,-1.0823744535446167
1788880998875518000,7.71851806640625,0.12144049257040024,-0.6689321398735046,-0.9090855121612549
1788880998885547800,7.7285478515625,1.0564078092575073,-0.5403311252593994,-0.8495737314224243
1788880998895577900,7.738577880859375,1.948184847831726,-0.37754619121551514,-0.9236713647842407
1788880998905608000,7.74860791015625,2.259134531021118,-0.7851083874702454,-1.0334949493408203
1788880998915639000,7.75863916015625,2.493760824203491,-1.3235888481140137,-0.9219819903373718
1788880998925668900,7.7686689453125,2.5768790245056152,-1.7926666736602783,-0.7005026936531067
1788880998935699000,7.778698974609375,2.4574525356292725,-2.110955238342285,-0.3033614754676819
1788880998945729000,7.78872900390625,2.1338720321655273,-1.9154200553894043,0.17629766464233398
1788880998955759000,7.798759033203125,1.7366913557052612,-1.1943774223327637,0.33167925477027893
1788880998965790000,7.8087900390625,1.4860669374465942,-0.6902183890342712,0.19926270842552185
1788880998975819800,7.81881982421875,1.3469356298446655,-0.5461392402648926,-0.043800532817840576
1788880998985849900,7.828849853515625,1.171062707901001,-0.6595944762229919,-0.24340379238128662
1788880998995880000,7.8388798828125,0.9522493481636047,-1.035043478012085,-0.2885294556617737
1788880999005910800,7.848910888671875,0.6781270503997803,-1.2528775930404663,-0.22619731724262238
1788880999015940900,7.85894091796875,0.5393223166465759,-1.4282711744308472,-0.03458792343735695
1788880999025971000,7.868970947265625,0.46256205439567566,-1.383004903793335,0.20849916338920593
1788880999036001000,7.8790009765625,0.4001029431819916,-0.9973264932632446,0.3976898789405823
1788880999046031000,7.889031005859375,0.38838717341423035,-0.4650295376777649,0.5034156441688538
1788880999056062000,7.89906201171875,0.3381578326225281,-0.005409222561866045,0.5886136293411255
1788880999066092000,7.909092041015625,0.24418862164020538,0.2539026439189911,0.6420124769210815
1788880999076122000,7.9191220703125,0.10649388283491135,0.4422147870063782,0.7447002530097961
1788880999086152000,7.92915185546875,-0.09895719587802887,0.744738757610321,0.9151239395141602
1788880999096181800,7.939181640625,-0.37705299258232117,1.1111929416656494,1.0985931158065796
1788880999106212900,7.949212890625,-0.7285005450248718,1.3663994073867798,1.3474286794662476
1788880999116243000,7.959242919921875,-1.0536574125289917,1.5763310194015503,1.5993962287902832
1788880999126273000,7.96927294921875,-1.35395085811615,2.245779275894165,1.9924744367599487
1788880999136302800,7.979302734375,-1.4111219644546509,1.2373415231704712,1.5349141359329224
1788880999146334000,7.989333984375,-1.2878416776657104,-4.07300329208374,-1.5367244482040405
1788880999156364000,7.999364013671875,-1.1982353925704956,-5.3104939460754395,-2.7802248001098633
1788880999166394000,8.00939404296875,-1.0567715167999268,-4.5358195304870605,-3.1517856121063232
1788880999176424000,8.019423828125,-0.7674432992935181,-3.7731895446777344,-3.4347383975982666
1788880999186453800,8.029453857421874,-0.214390367269516,-3.043579578399658,-3.412799835205078
1788880999196485000,8.039485107421875,0.4431440830230713,-2.295099973678589,-3.031681776046753
1788880999206515000,8.049514892578125,0.7786962985992432,-1.7090989351272583,-2.4721357822418213
1788880999216544800,8.059544677734374,0.871651828289032,-1.4084378480911255,-2.0351433753967285
1788880999226574800,8.069574951171875,0.8083382248878479,-1.4572100639343262,-1.8366235494613647
1788880999236605000,8.07960498046875,0.7303882837295532,-1.5534868240356445,-1.840362310409546
1788880999246636000,8.089635986328124,0.6346682906150818,-1.4840418100357056,-1.9901694059371948
1788880999256665900,8.099665771484375,0.498696893453598,-1.2262136936187744,-2.2048709392547607
1788880999266696000,8.109696044921876,0.5107642412185669,-0.7240884304046631,-2.357309341430664
1788880999276726000,8.11972607421875,0.5479211807250977,-0.2923540771007538,-2.491776466369629
1788880999286756000,8.129756103515625,0.5209709405899048,-0.16582976281642914,-2.736988067626953
1788880999296787000,8.139786865234376,0.4763941466808319,-0.2425628900527954,-2.9658045768737793
1788880999306816800,8.149816650390624,0.4439241886138916,-0.333732008934021,-2.9950218200683594
1788880999316846800,8.159846923828125,0.43161213397979736,-0.2682968080043793,-2.755341053009033
1788880999326877000,8.169876953125,0.40006017684936523,-0.009667729027569294,-2.313324213027954
1788880999336907800,8.17990771484375,0.33449554443359375,0.16363534331321716,-2.052194833755493
1788880999346937900,8.189937744140625,0.21869659423828125,0.1814272701740265,-1.9322603940963745
1788880999356969000,8.199968994140624,0.15137560665607452,0.033862579613924026,-1.737214207649231
1788880999366998800,8.209998779296875,0.11166193336248398,0.1030755415558815,-1.388236403465271
1788880999377028900,8.22002880859375,0.04029747098684311,0.2860855758190155,-0.9739415049552917
1788880999387060000,8.23006005859375,-0.041676171123981476,0.26386502385139465,-0.6023423671722412
1788880999397090000,8.240090087890625,-0.13624875247478485,0.25838184356689453,-0.31332820653915405
1788880999407120000,8.250119873046875,-0.23010405898094177,0.3732525408267975,-0.014552101492881775
1788880999417150000,8.26014990234375,-0.3146868646144867,0.41111046075820923,0.1981830596923828
1788880999427180000,8.270179931640625,-0.3609091341495514,0.47300297021865845,0.3908311128616333
1788880999437211100,8.280211181640626,-0.45229285955429077,0.6005502939224243,0.6296354532241821
1788880999447240700,8.29024072265625,-0.5438088178634644,0.928597629070282,0.9807908535003662
1788880999457270800,8.300270751953125,-0.6165722012519836,1.2991482019424438,1.2641693353652954
1788880999467300900,8.31030078125,-0.6833223104476929,1.464902400970459,1.4327099323272705
1788880999477331000,8.3203310546875,-0.7515717148780823,1.453546404838562,1.5630545616149902
1788880999487361800,8.33036181640625,-0.8274439573287964,1.5038870573043823,1.7636902332305908
1788880999497391900,8.340391845703126,-0.9136701822280884,1.5978941917419434,2.002880811691284
1788880999507422000,8.350421875,-0.9684075117111206,1.6315932273864746,2.2499406337738037
1788880999517452000,8.3604521484375,-0.9761677384376526,1.5104427337646484,2.463153600692749
1788880999527483000,8.37048291015625,-0.9440295100212097,1.4526563882827759,2.661872625350952
1788880999537513000,8.380512939453125,-0.8952813744544983,1.464503526687622,2.796644449234009
1788880999547543000,8.39054296875,-0.8607792258262634,1.4703474044799805,2.846471071243286
1788880999557572900,8.40057275390625,-0.8335137963294983,1.4013444185256958,2.8449931144714355
1788880999567603000,8.41060302734375,-0.8602267503738403,1.4430238008499146,2.8735244274139404
1788880999577633800,8.4206337890625,-0.9949406385421753,1.6839131116867065,2.966726064682007
1788880999587664000,8.430663818359376,-1.1510827541351318,2.019455671310425,3.0871920585632324
1788880999597694000,8.44069384765625,-1.3154398202896118,2.235196590423584,3.207470655441284
1788880999607724000,8.45072412109375,-1.3963029384613037,2.3231546878814697,3.2668681144714355
1788880999617755000,8.4607548828125,-1.4816529750823975,2.272585868835449,3.212074041366577
1788880999627785000,8.470784912109375,-1.5016138553619385,2.2038605213165283,3.024519205093384
1788880999637815000,8.48081494140625,-1.4166494607925415,2.167689800262451,2.717404365539551
1788880999647845000,8.49084521484375,-1.3718420267105103,2.243866205215454,2.3940203189849854
1788880999657875000,8.500875,-1.3130332231521606,2.3979129791259766,2.045980215072632
1788880999667906000,8.510906005859376,-1.222597599029541,2.5620665550231934,1.6597216129302979
1788880999677935900,8.520935791015624,-1.1985546350479126,2.6518261432647705,1.2401306629180908
1788880999687966000,8.530966064453125,-1.2094242572784424,2.5877387523651123,0.8428751826286316
1788880999697995800,8.540995849609375,-1.1811822652816772,2.3931257724761963,0.4420880973339081
1788880999708025900,8.55102587890625,-1.1253752708435059,2.2114861011505127,0.04043445363640785
1788880999718057000,8.561056884765625,-1.0825109481811523,2.1232824325561523,-0.2750082015991211
1788880999728087000,8.571087158203126,-0.9981746673583984,2.0507984161376953,-0.5876787900924683
1788880999738116900,8.581116943359374,-1.0029926300048828,1.8853639364242554,-0.7848342061042786
1788880999748147000,8.59114697265625,-0.9779798984527588,1.7103103399276733,-0.8502746224403381
1788880999758177000,8.601177001953126,-0.9233472943305969,1.5431890487670898,-0.8448715806007385
1788880999768208100,8.6112080078125,-0.7979276776313782,1.4861350059509277,-0.8856918215751648
1788880999778237700,8.62123779296875,-0.7344192862510681,1.3799235820770264,-0.9451276659965515
1788880999788267800,8.631267822265626,-0.731833815574646,1.1353574991226196,-0.9442946910858154
1788880999798297900,8.6412978515625,-0.6796609163284302,0.8119797110557556,-0.8639793395996094
1788880999808329000,8.651328857421875,-0.5465421676635742,0.45033881068229675,-0.7228602170944214
1788880999818358800,8.66135888671875,-0.40309950709342957,-0.021697957068681717,-0.5112608671188354
1788880999828388900,8.671388916015625,-0.22674153745174408,-0.329355388879776,-0.28750577569007874
1788880999838419000,8.6814189453125,-0.12286119908094406,-0.4285280406475067,-0.07248883694410324
1788880999848449000,8.691448974609376,-0.10836311429738998,-0.3357417583465576,0.15492480993270874
1788880999858479900,8.70147998046875,-0.03166992962360382,-0.11277259886264801,0.3321680426597595
1788880999868510000,8.711510009765625,0.18175895512104034,0.24748052656650543,0.34682103991508484
1788880999878540000,8.7215400390625,0.3695879876613617,0.42289894819259644,0.24901217222213745
1788880999888569900,8.73156982421875,0.5218332409858704,0.3326317071914673,0.12880519032478333
1788880999898600000,8.741599853515625,0.6470851898193359,0.03655184060335159,0.05167871341109276
1788880999908630800,8.751630859375,0.7359186410903931,-0.3909287750720978,0.004437989089637995
1788880999918660900,8.761660888671875,0.8030899167060852,-0.8275538086891174,0.014292217791080475
1788880999928691000,8.77169091796875,0.88074791431427,-1.221150279045105,0.08914243429899216
1788880999938721000,8.781720947265624,0.9935293197631836,-1.5727615356445312,0.2319459170103073
1788880999948752000,8.791751953125,1.133196234703064,-1.894997000694275,0.3914787471294403
1788880999958782000,8.801781982421875,1.3145755529403687,-2.1872968673706055,0.5696823000907898
1788880999968812000,8.81181201171875,1.4887197017669678,-2.4187309741973877,0.6780144572257996
1788880999978842000,8.821842041015625,1.6436938047409058,-2.6324853897094727,0.6641023755073547
1788880999988872000,8.831871826171875,1.7741155624389648,-2.9638538360595703,0.488226979970932
1788880999998903000,8.841903076171874,1.7688970565795898,-3.8811776638031006,-0.022242937237024307
1788881000008932900,8.851932861328125,1.529363751411438,-5.034509181976318,-0.8620864748954773
1788881000018963000,8.861962890625,1.3196277618408203,-5.105910301208496,-1.4521485567092896
1788881000028992800,8.87199267578125,1.1512341499328613,-4.4189605712890625,-1.731543779373169
1788881000039022800,8.88202294921875,0.9810402989387512,-3.605717897415161,-1.8551578521728516
1788881000049054000,8.892053955078126,0.8470273613929749,-2.9117090702056885,-1.9833332300186157
1788881000059084000,8.902083984375,0.8554163575172424,-2.471606731414795,-2.171983480453491
1788881000069113900,8.91211376953125,0.9070232510566711,-2.1144840717315674,-2.364302396774292
1788881000079144000,8.92214404296875,0.9662889838218689,-1.718605399131775,-2.5238988399505615
1788881000089175000,8.932175048828125,1.0330734252929688,-1.357650637626648,-2.722313165664673
1788881000099205000,8.942205078125,1.0898808240890503,-0.9764739274978638,-2.946495532989502
1788881000109235000,8.95223486328125,1.1052039861679077,-0.7230014801025391,-3.1284360885620117
1788881000119264800,8.9622646484375,1.090843677520752,-0.6404948830604553,-3.2534573078155518
1788881000129294800,8.972294921875,1.0521891117095947,-0.6243554353713989,-3.354294776916504
1788881000139326000,8.982325927734376,0.9833510518074036,-0.5833076238632202,-3.432457447052002
1788881000149355800,8.992355712890625,0.8381295800209045,-0.4067998230457306,-3.413943290710449
1788881000159385900,9.0023857421875,0.6386380195617676,-0.24260050058364868,-3.2621660232543945
1788881000169416000,9.012416015625,0.5100477337837219,-0.25180813670158386,-3.078382968902588
1788881000179447000,9.022447021484375,0.44029131531715393,-0.4241652488708496,-2.9112610816955566
1788881000189476900,9.032476806640625,0.3535114526748657,-0.6569780111312866,-2.7132904529571533
1788881000199507000,9.0425068359375,0.2882392406463623,-0.7472008466720581,-2.4383554458618164
1788881000209537000,9.052537109375,0.273059606552124,-1.0524815320968628,-2.244481325149536
1788881000219566800,9.06256689453125,0.37181228399276733,-1.2751429080963135,-2.0367543697357178
1788881000229598000,9.072597900390624,0.42335936427116394,-1.132939338684082,-1.7824093103408813
1788881000239627800,9.082627685546875,0.39078277349472046,-0.7815215587615967,-1.5630165338516235
1788881000249657900,9.092657958984375,0.3416488468647003,-0.3925776779651642,-1.4015986919403076
1788881000259688000,9.10268798828125,0.27897003293037415,-0.10626869648694992,-1.2360731363296509
1788881000269718000,9.112718017578125,0.2504139244556427,0.07071711868047714,-1.0144580602645874
1788881000279748900,9.122748779296876,0.21611374616622925,0.17965957522392273,-0.7198114395141602
1788881000289779000,9.132779052734374,0.18575197458267212,0.36512696743011475,-0.3554426431655884
1788881000299809000,9.14280908203125,0.13032546639442444,0.5757009983062744,0.06454797834157944
1788881000309839000,9.152839111328126,0.05648390203714371,0.7423397302627563,0.4753788113594055
1788881000319870000,9.162869873046875,0.010634920559823513,0.8263483643531799,0.7938076853752136
1788881000329900000,9.172900146484375,-0.012285828590393066,0.9611696600914001,1.0630568265914917
1788881000339929900,9.182929931640626,-0.024387765675783157,1.161561369895935,1.3502447605133057
1788881000349960000,9.1929599609375,-0.081720270216465,1.2899391651153564,1.624760627746582
1788881000359989000,9.202989013671875,-0.16521036624908447,1.249658226966858,1.8430119752883911
1788881000370019800,9.213019775390626,-0.2674163579940796,1.078520655632019,1.997687578201294
1788881000380050000,9.2230498046875,-0.3686004877090454,0.9520838856697083,2.158111810684204
1788881000390080000,9.233080078125,-0.4733457863330841,0.9257376790046692,2.3490653038024902
1788881000400110000,9.243110107421876,-0.5720793008804321,0.9054792523384094,2.5219173431396484
1788881000410140200,9.25314013671875,-0.6645607948303223,0.8711386919021606,2.645817995071411
1788881000420171000,9.2631708984375,-0.7420100569725037,0.9339301586151123,2.776374340057373
1788881000430201000,9.273201171875,-0.8120486736297607,1.0355274677276611,2.925386905670166
1788881000440231200,9.283231201171875,-0.8660897612571716,1.1749995946884155,3.0643038749694824
1788881000450261000,9.293260986328125,-0.9204200506210327,1.2702572345733643,3.190032720565796
1788881000460291800,9.303291748046876,-0.9929085969924927,1.313759684562683,3.3075361251831055
1788881000470322000,9.313322021484375,-1.0604411363601685,1.357795238494873,3.4085288047790527
1788881000480352000,9.32335205078125,-1.1023213863372803,1.428464412689209,3.5154316425323486
1788881000490382000,9.333382080078126,-1.1164401769638062,1.5036883354187012,3.5654828548431396
1788881000500412000,9.343411865234375,-1.107477068901062,1.6140036582946777,3.5178778171539307
1788881000510443000,9.353443115234375,-1.073123812675476,1.7888851165771484,3.421389102935791
1788881000520473000,9.36347314453125,-1.1220746040344238,2.0513296127319336,3.2074058055877686
1788881000530503000,9.3735029296875,-1.2367581129074097,2.4138782024383545,2.8213343620300293
1788881000540533000,9.383532958984375,-1.3414998054504395,2.7859110832214355,2.2898523807525635
1788881000550564000,9.393564208984374,-1.3299976587295532,3.0797719955444336,1.648826241493225
1788881000560594200,9.40359423828125,-1.3112369775772095,3.205810546875,1.0835572481155396
1788881000570624000,9.4136240234375,-1.3048118352890015,3.176389217376709,0.5421649217605591
1788881000580653800,9.42365380859375,-1.232151746749878,2.8095033168792725,0.12262198328971863
1788881000590684000,9.433683837890625,-1.1351810693740845,2.2185473442077637,-0.14075258374214172
1788881000600715000,9.443715087890626,-1.0533932447433472,1.6406551599502563,-0.3064669668674469
1788881000610744800,9.453744873046874,-0.9882472157478333,1.2275044918060303,-0.4227750897407532
1788881000620775000,9.46377490234375,-0.8218553066253662,1.0029675960540771,-0.5541845560073853
1788881000630805000,9.473804931640625,-0.6699050068855286,0.9681077003479004,-0.6918102502822876
1788881000640836000,9.483836181640624,-0.5888919234275818,0.9584092497825623,-0.7704696655273438
1788881000650866000,9.493865966796875,-0.5497965812683105,0.9372457265853882,-0.7898879051208496
1788881000660896000,9.50389599609375,-0.5973137617111206,0.8536536693572998,-0.7717829346656799
1788881000670926000,9.513926025390624,-0.6431382894515991,0.7160760760307312,-0.7002140879631042
1788881000680956000,9.523955810546875,-0.6876879334449768,0.6103560328483582,-0.5855852365493774
1788881000690986800,9.53398681640625,-0.6653228402137756,0.4507727026939392,-0.41343340277671814
1788881000701016800,9.544016845703124,-0.6386683583259583,0.2605105936527252,-0.23691827058792114
1788881000711047000,9.554046875,-0.488807737827301,0.1678689420223236,-0.07686226814985275
1788881000721077000,9.564076904296876,-0.29938456416130066,0.21697551012039185,0.012368809431791306
1788881000731107000,9.574107177734374,-0.12514550983905792,0.22653299570083618,0.0742783322930336
1788881000741138000,9.584137939453125,0.08324551582336426,0.24193938076496124,0.14479804039001465
1788881000751168000,9.59416796875,0.2702917754650116,0.1166129782795906,0.25445249676704407
1788881000761198000,9.604197998046875,0.43435314297676086,0.04156962037086487,0.31968075037002563
1788881000771228200,9.614228271484375,0.5588302612304688,0.008688977919518948,0.3651609420776367
1788881000781259000,9.624259033203124,0.6182219386100769,-0.03993182256817818,0.3627651631832123
1788881000791289000,9.6342890625,0.6858441829681396,-0.10157395154237747,0.3022218644618988
1788881000801319000,9.64431884765625,0.8016695976257324,-0.2746242880821228,0.22425463795661926
1788881000811349000,9.654348876953126,0.919482946395874,-0.5050265789031982,0.15108957886695862
1788881000821379800,9.6643798828125,1.0649272203445435,-0.8274821043014526,0.16381417214870453
1788881000831410000,9.674409912109375,1.2131115198135376,-1.1378017663955688,0.24094006419181824
1788881000841440000,9.68443994140625,1.329881191253662,-1.4167656898498535,0.3302946984767914
1788881000851470000,9.694469970703125,1.4103385210037231,-1.7135368585586548,0.377912700176239
1788881000861500000,9.7045,1.5164921283721924,-2.0190091133117676,0.3289281129837036
1788881000871531000,9.714531005859374,1.6177546977996826,-2.5244505405426025,0.1256740391254425
1788881000881561000,9.72456103515625,1.5756818056106567,-3.742568254470825,-0.5023323893547058
1788881000891591200,9.734591064453125,1.4678541421890259,-4.730220317840576,-1.2204066514968872
1788881000901621000,9.74462109375,1.348596453666687,-4.646153450012207,-1.5297526121139526
1788881000911652000,9.754652099609375,1.2324252128601074,-3.9413461685180664,-1.5672829151153564
1788881000921682000,9.764681884765626,1.190382480621338,-3.1359434127807617,-1.567246437072754
1788881000931712000,9.7747119140625,1.1610958576202393,-2.484879970550537,-1.6313508749008179
1788881000941741800,9.784741943359375,1.1570098400115967,-2.154419183731079,-1.8402239084243774
1788881000951772000,9.79477197265625,1.1551628112792969,-2.0324511528015137,-2.1576709747314453
1788881000961803000,9.804802978515625,1.1449415683746338,-1.9573842287063599,-2.489654541015625
1788881000971833000,9.8148330078125,1.1397883892059326,-1.7587015628814697,-2.7961156368255615
1788881000981863000,9.82486279296875,1.1276986598968506,-1.4483119249343872,-3.0097315311431885
1788881000991893000,9.83489306640625,1.1039501428604126,-1.1809996366500854,-3.16872239112854
1788881001001924000,9.844924072265625,1.0879402160644531,-0.9913545846939087,-3.240591526031494
1788881001011954200,9.8549541015625,1.085813283920288,-0.8273216485977173,-3.2392420768737793
1788881001021983700,9.864983642578125,1.0800968408584595,-0.6709568500518799,-3.207815408706665
1788881001032013800,9.875013916015625,0.9831979274749756,-0.49417656660079956,-3.1434638500213623
1788881001042044000,9.8850439453125,0.8261875510215759,-0.3503704071044922,-3.072136878967285
1788881001052075000,9.895074951171875,0.7154132127761841,-0.3937498927116394,-3.0300049781799316
1788881001062104800,9.905104736328125,0.606859028339386,-0.4732671082019806,-2.9778308868408203
1788881001072135000,9.915135009765624,0.5621222853660583,-0.6155747175216675,-2.9274420738220215
1788881001082165000,9.9251650390625,0.5307188034057617,-0.7909888625144958,-2.8327908515930176
1788881001092196000,9.935196044921875,0.4523983299732208,-0.9849996566772461,-2.668492555618286
1788881001102226000,9.945225830078124,0.5426675081253052,-1.2209004163742065,-2.455362319946289
1788881001112256000,9.955256103515625,0.6569790244102478,-1.14041268825531,-2.074054002761841
1788881001122286000,9.9652861328125,0.5529021620750427,-0.8545240163803101,-1.720662236213684
1788881001132316000,9.97531591796875,0.46134865283966064,-0.5927553176879883,-1.4908545017242432
1788881001142346800,9.9853466796875,0.38243547081947327,-0.43882834911346436,-1.3091903924942017
1788881001152376800,9.995376953125,0.3074750602245331,-0.22417962551116943,-0.9921586513519287
1788881001162407000,10.005406982421874,0.23164792358875275,0.024776935577392578,-0.5937865376472473
1788881001172437000,10.01543701171875,0.12976694107055664,0.14954526722431183,-0.25752702355384827
1788881001182467800,10.0254677734375,0.0858737900853157,0.19997942447662354,0.039941929280757904
1788881001192498000,10.035497802734374,0.07002343237400055,0.3579854369163513,0.3911842107772827
1788881001202528000,10.045528076171875,0.05103696510195732,0.6440746784210205,0.771919310092926
1788881001212558000,10.05555810546875,0.005190673284232616,1.0659420490264893,1.1495544910430908
1788881001222588200,10.065588134765624,-0.011117460206151009,1.4564259052276611,1.4854134321212769
1788881001232619000,10.075618896484375,-0.025717303156852722,1.6000536680221558,1.7582685947418213
1788881001242649000,10.085649169921876,-0.06507696211338043,1.4943679571151733,1.9759149551391602
1788881001252679000,10.095678955078125,-0.1153336837887764,1.3299989700317383,2.1710336208343506
1788881001262709000,10.105708984375,-0.17350618541240692,1.1773484945297241,2.3550467491149902
1788881001272739800,10.11573974609375,-0.24198445677757263,1.0550739765167236,2.5448367595672607
1788881001282770000,10.12577001953125,-0.3188922703266144,1.0197961330413818,2.7500126361846924
1788881001292800000,10.135800048828125,-0.4231361746788025,1.04709792137146,2.9667863845825195
1788881001302830000,10.145830078125,-0.5327915549278259,1.0170066356658936,3.158329486846924
1788881001312861000,10.15586083984375,-0.6101769804954529,0.9612511992454529,3.320749282836914
1788881001322891000,10.16589111328125,-0.7022008895874023,0.8613898158073425,3.451500177383423
1788881001332921000,10.175921142578124,-0.8074578642845154,0.8222847580909729,3.597532033920288
1788881001342951200,10.185951171875,-0.9012607932090759,0.9480512142181396,3.8035993576049805
1788881001352981000,10.19598095703125,-1.00002121925354,1.1445097923278809,4.034562110900879
1788881001363015700,10.206015625,-1.0824271440505981,1.2153456211090088,4.196321964263916
1788881001373045500,10.21604541015625,-1.1343159675598145,1.1577999591827393,4.242576599121094
1788881001383075600,10.22607568359375,-1.0378600358963013,1.1739616394042969,4.211198329925537
1788881001393105400,10.23610546875,-0.977698802947998,1.2897140979766846,4.009230613708496
1788881001403136500,10.246136474609376,-1.0454914569854736,1.6739027500152588,3.67073130607605
1788881001413166600,10.25616650390625,-1.2497506141662598,2.2362663745880127,3.16162109375
1788881001423196700,10.26619677734375,-1.4013398885726929,2.6792221069335938,2.4447691440582275
1788881001433226500,10.2762265625,-1.466551661491394,3.061380624771118,1.6709991693496704
1788881001443257600,10.286257568359375,-1.485005259513855,3.2372093200683594,0.9477573037147522
1788881001453287700,10.29628759765625,-1.4976028203964233,3.1258368492126465,0.3250476121902466
1788881001463317800,10.30631787109375,-1.4974925518035889,2.6121973991394043,-0.11242853850126266
1788881001473347600,10.31634765625,-1.4802062511444092,2.0630314350128174,-0.39526912569999695
1788881001483377400,10.32637744140625,-1.4152911901474,1.6334234476089478,-0.5851868391036987
1788881001493408500,10.336408447265624,-1.2600842714309692,1.3719959259033203,-0.7666870951652527
1788881001503438600,10.3464384765625,-1.0941061973571777,1.3064030408859253,-0.940318763256073
1788881001513468400,10.356468505859375,-1.0121734142303467,1.3010504245758057,-1.0660518407821655
1788881001523498500,10.36649853515625,-1.0116437673568726,1.1975698471069336,-1.0867688655853271
1788881001533529600,10.376529541015625,-1.070220708847046,1.0119158029556274,-1.0308890342712402
1788881001543559400,10.386559326171875,-1.1175779104232788,0.8055474758148193,-0.8912158608436584
1788881001553589500,10.396589599609374,-1.1088947057724,0.5967804789543152,-0.6995277404785156
1788881001563619600,10.40661962890625,-1.0523595809936523,0.3197547495365143,-0.43158501386642456
1788881001573650700,10.416650634765626,-0.9619756937026978,0.055266477167606354,-0.15873388946056366
1788881001583680500,10.426680419921874,-0.8231075406074524,-0.0903884619474411,0.06122830510139465
1788881001593710600,10.436710693359375,-0.6084760427474976,-0.14126622676849365,0.2006843239068985
1788881001603740400,10.446740478515625,-0.4383155405521393,-0.12875311076641083,0.28066304326057434
1788881001613771800,10.456771728515625,-0.26719826459884644,-0.04988301917910576,0.3208109736442566
1788881001623801300,10.46680126953125,-0.06881220638751984,-0.0005474286153912544,0.3321656286716461
1788881001633831400,10.47683154296875,0.09503793716430664,-0.03709682822227478,0.32475319504737854
1788881001643861500,10.486861572265624,0.22345557808876038,-0.1352526843547821,0.3223251700401306
1788881001653891600,10.4968916015625,0.31478151679039,-0.3072519600391388,0.34051090478897095
1788881001663922400,10.50692236328125,0.4016152322292328,-0.6289554834365845,0.39944586157798767
1788881001673952500,10.516952392578125,0.4998493194580078,-1.0012181997299194,0.46689555048942566
1788881001683982600,10.526982666015625,0.6172523498535156,-1.330584168434143,0.5254920721054077
1788881001694012700,10.5370126953125,0.7574801445007324,-1.5858509540557861,0.5628947019577026
1788881001704043500,10.54704345703125,0.9331158995628357,-1.7693225145339966,0.5818316340446472
1788881001714073600,10.557073486328125,1.0654850006103516,-1.8693078756332397,0.5760678648948669
1788881001724103400,10.567103515625,1.1910229921340942,-1.9673813581466675,0.5775331258773804
1788881001734133500,10.577133544921875,1.3144692182540894,-2.112175703048706,0.5317001342773438
1788881001744164400,10.587164306640625,1.4383994340896606,-2.4573373794555664,0.37662771344184875
1788881001754194400,10.5971943359375,1.4976038932800293,-3.2139947414398193,0.030277559533715248
1788881001764224500,10.607224609375,1.4121854305267334,-4.3543267250061035,-0.6243349313735962
1788881001774254600,10.617254638671875,1.3438897132873535,-4.687389373779297,-1.101936936378479
1788881001784285400,10.627285400390624,1.304648518562317,-4.241072654724121,-1.3027573823928833
1788881001794315500,10.6373154296875,1.2846319675445557,-3.650023937225342,-1.4607572555541992
1788881001804345600,10.647345703125,1.3061543703079224,-3.2125942707061768,-1.7019320726394653
1788881001814375700,10.657375732421874,1.3344042301177979,-2.7487404346466064,-1.9728316068649292
1788881001824405800,10.66740576171875,1.3137866258621216,-2.2623846530914307,-2.247258186340332
1788881001834436600,10.6774365234375,1.3008610010147095,-1.742648959159851,-2.550672769546509
1788881001844466400,10.687466552734374,1.2848846912384033,-1.1602119207382202,-2.8558757305145264
1788881001854496500,10.69749658203125,1.2083137035369873,-0.649230420589447,-3.1252529621124268
1788881001864526600,10.707526611328126,1.1447643041610718,-0.2913931608200073,-3.3633060455322266
1788881001874557400,10.717557373046875,1.0838878154754639,-0.06136655807495117,-3.5100350379943848
1788881001884587500,10.72758740234375,1.0266541242599487,0.03779704123735428,-3.5290420055389404
1788881001894617600,10.73761767578125,0.923492431640625,0.04949931800365448,-3.46325945854187
1788881001904647700,10.747647705078125,0.8129954934120178,-0.06027352064847946,-3.3904318809509277
1788881001914678500,10.757678466796875,0.700200080871582,-0.10780047625303268,-3.2270517349243164
1788881001924708600,10.76770849609375,0.5696412920951843,-0.18543320894241333,-3.070384979248047
1788881001934738700,10.77773876953125,0.47370976209640503,-0.33688369393348694,-2.9760043621063232
1788881001944768800,10.787768798828125,0.46599167585372925,-0.5284581780433655,-2.886611223220825
1788881001954799600,10.797799560546874,0.500558614730835,-0.7953944802284241,-2.7710559368133545
1788881001964829400,10.807829345703125,0.4957774579524994,-0.9257988333702087,-2.5141358375549316
1788881001974859500,10.817859619140625,0.3826764225959778,-0.7870312929153442,-2.1623504161834717
1788881001984889600,10.8278896484375,0.4043915867805481,-0.7362949252128601,-1.8916386365890503
1788881001994919400,10.83791943359375,0.4895871877670288,-0.5316213965415955,-1.5636537075042725
1788881002004950500,10.847950439453125,0.4563586413860321,-0.20527178049087524,-1.2327077388763428
1788881002014980600,10.857980712890624,0.43398088216781616,-0.0055046239867806435,-0.9658410549163818
1788881002025010700,10.8680107421875,0.36946582794189453,0.042341459542512894,-0.7249658703804016
1788881002035040500,10.87804052734375,0.2813500463962555,0.08774393796920776,-0.46270623803138733
1788881002045071600,10.888071533203124,0.21095548570156097,0.22939269244670868,-0.1552155464887619
1788881002055101700,10.898101806640625,0.138546884059906,0.4363399147987366,0.22434400022029877
1788881002065131800,10.9081318359375,0.08674920350313187,0.5708415508270264,0.58852618932724
1788881002075161300,10.918161376953124,0.028473295271396637,0.7735939025878906,0.9416990280151367
1788881002085192400,10.9281923828125,0.0025090728886425495,1.0646345615386963,1.3134806156158447
1788881002095222500,10.938222412109376,-0.0025952323339879513,1.3077367544174194,1.6852484941482544
1788881002105252600,10.948252685546874,-0.04677227884531021,1.3018064498901367,1.9333029985427856
1788881002115282400,10.958282470703125,-0.10566733777523041,1.0390506982803345,2.0487191677093506
1788881002125313500,10.9683134765625,-0.18234001100063324,0.8498472571372986,2.1771669387817383
1788881002135343600,10.978343505859375,-0.2660432457923889,0.8763499855995178,2.3832895755767822
1788881002145373700,10.988373779296875,-0.36255303025245667,1.0318958759307861,2.6230628490448
1788881002155403500,10.998403564453126,-0.4736194312572479,1.1509400606155396,2.81935977935791
1788881002165434600,11.0084345703125,-0.6060302257537842,1.1837928295135498,2.972564458847046
1788881002175464700,11.018464599609375,-0.7519544363021851,1.1675584316253662,3.0920424461364746
1788881002185494800,11.028494873046874,-0.8579775094985962,1.1155104637145996,3.2040534019470215
1788881002195524400,11.0385244140625,-0.9466956257820129,1.0493521690368652,3.285367012023926
1788881002205554400,11.048554443359375,-1.0149232149124146,1.0234270095825195,3.3633999824523926
1788881002215585500,11.05858544921875,-1.0732653141021729,1.0385181903839111,3.477600336074829
1788881002225615600,11.06861572265625,-1.030347466468811,1.1209174394607544,3.6044232845306396
1788881002235645400,11.0786455078125,-0.9377621412277222,1.3124719858169556,3.6778488159179688
1788881002245675500,11.088675537109374,-0.8370821475982666,1.6637834310531616,3.6365904808044434
1788881002255706600,11.09870654296875,-0.8322150707244873,2.1522107124328613,3.4536385536193848
1788881002265736700,11.10873681640625,-0.8849824070930481,2.5442423820495605,3.093658685684204
1788881002275766500,11.1187666015625,-0.8660716414451599,2.840585708618164,2.6083662509918213
1788881002285796600,11.128796630859375,-0.9133667349815369,3.0020761489868164,2.036787986755371
1788881002295827700,11.13882763671875,-0.954095721244812,2.9392383098602295,1.4089982509613037
1788881002305857500,11.148857421875,-0.9732002019882202,2.704935073852539,0.8279902935028076
1788881002315887400,11.158887451171875,-0.9690300822257996,2.3630309104919434,0.3576129972934723
1788881002325917400,11.16891748046875,-0.9342337846755981,1.925310492515564,0.06377871334552765
1788881002335948500,11.178948486328125,-0.8652547597885132,1.381112813949585,-0.06683886796236038
1788881002345978600,11.188978515625,-0.774408221244812,0.8987530469894409,-0.15146906673908234
1788881002356008400,11.199008544921876,-0.6906163096427917,0.5359702110290527,-0.22586221992969513
1788881002366035500,11.209035400390626,-0.6501871347427368,0.39481469988822937,-0.4114035964012146
1788881002376066600,11.219066650390625,-0.6184485554695129,0.38803717494010925,-0.6473771333694458
1788881002386096400,11.229096435546875,-0.5602467656135559,0.4568023681640625,-0.806210994720459
1788881002396126500,11.23912646484375,-0.5515688061714172,0.6051299571990967,-0.9111496210098267
1788881002406156500,11.249156494140625,-0.6628381013870239,0.6969008445739746,-0.9115075469017029
1788881002416187600,11.259187744140625,-0.7932982444763184,0.6578550934791565,-0.7945543527603149
1788881002426217200,11.26921728515625,-0.8167822360992432,0.6481124758720398,-0.6251360177993774
1788881002436247300,11.279247314453125,-0.7142907381057739,0.7065904140472412,-0.4467671811580658
1788881002446277400,11.28927734375,-0.5590503215789795,0.6898399591445923,-0.31394654512405396
1788881002456308500,11.29930859375,-0.4111059010028839,0.5521087050437927,-0.2174958437681198
1788881002466338300,11.30933837890625,-0.27270033955574036,0.3205902576446533,-0.11529571563005447
1788881002476368400,11.319368408203125,-0.1538577526807785,0.04036877304315567,0.009382542222738266
1788881002486398500,11.3293984375,-0.008106667548418045,-0.21147039532661438,0.12529504299163818
1788881002496429600,11.3394296875,0.26649412512779236,-0.3073498606681824,0.211302250623703
1788881002506459400,11.34945947265625,0.42929741740226746,-0.32865408062934875,0.31293967366218567
1788881002516489500,11.359489501953124,0.5452068448066711,-0.35822710394859314,0.3814319372177124
1788881002526519600,11.36951953125,0.6687127947807312,-0.44187912344932556,0.38173502683639526
1788881002536549400,11.37954931640625,0.7829325795173645,-0.6312196254730225,0.3524269461631775
1788881002546580500,11.38958056640625,0.8800714015960693,-0.9002500176429749,0.3637794852256775
1788881002556610300,11.3996103515625,0.9810853600502014,-1.2077089548110962,0.40259572863578796
1788881002566640400,11.409640380859376,1.0919804573059082,-1.4950603246688843,0.4457882046699524
1788881002576670500,11.41967041015625,1.2062867879867554,-1.6694064140319824,0.4421532452106476
1788881002586701300,11.429701416015625,1.3066911697387695,-1.7300224304199219,0.42720118165016174
1788881002596731400,11.4397314453125,1.346205711364746,-1.7734438180923462,0.39119794964790344
1788881002606761500,11.449761474609375,1.3527411222457886,-1.8941569328308105,0.3193320333957672
1788881002616791600,11.45979150390625,1.3441189527511597,-2.5687177181243896,0.012316269800066948
1788881002626822400,11.469822509765624,1.1756221055984497,-4.25576639175415,-0.8754657506942749
1788881002636852500,11.4798525390625,1.045117974281311,-4.773004531860352,-1.4915263652801514
1788881002646882600,11.489882568359375,0.9282680153846741,-4.266175746917725,-1.701417326927185
1788881002656912400,11.499912353515626,0.8576212525367737,-3.5273261070251465,-1.756407618522644
1788881002666943500,11.509943603515625,0.8942192196846008,-2.9367029666900635,-1.8948049545288086
1788881002676973300,11.519973388671875,0.9781602621078491,-2.5644798278808594,-2.1148407459259033
1788881002687003400,11.53000341796875,1.0452778339385986,-2.2256152629852295,-2.383178234100342
1788881002697033500,11.540033447265625,1.116754174232483,-1.7914782762527466,-2.6299543380737305
1788881002707064300,11.550064208984375,1.1821699142456055,-1.2531828880310059,-2.8292620182037354
1788881002717094400,11.560094482421874,1.2112938165664673,-0.7834751605987549,-3.0103743076324463
1788881002727124500,11.57012451171875,1.2154755592346191,-0.49825114011764526,-3.1878674030303955
1788881002737154600,11.580154541015625,1.1537553071975708,-0.3669590950012207,-3.358640432357788
1788881002747185400,11.590185302734374,1.0173287391662598,-0.32277804613113403,-3.4875919818878174
1788881002757215500,11.600215576171875,0.9031966924667358,-0.20581650733947754,-3.452613115310669
1788881002767245600,11.61024560546875,0.8388856053352356,-0.17319543659687042,-3.3719210624694824
1788881002777275400,11.620275390625,0.7999271750450134,-0.14235183596611023,-3.2391607761383057
1788881002787305500,11.630305419921875,0.7610713839530945,-0.07116580009460449,-2.9986624717712402
1788881002797336300,11.64033642578125,0.7060838341712952,-0.08878748118877411,-2.774620532989502
1788881002807366400,11.650366455078125,0.6119778752326965,-0.29233554005622864,-2.6172802448272705
1788881002817396500,11.660396484375,0.5402042865753174,-0.5793840885162354,-2.539048433303833
1788881002827427300,11.67042724609375,0.5058434009552002,-0.9140196442604065,-2.44734263420105
1788881002837457400,11.68045751953125,0.45100751519203186,-1.2008823156356812,-2.2643086910247803
1788881002847487500,11.690487548828125,0.45664435625076294,-1.2122020721435547,-1.9906824827194214
1788881002857517600,11.700517578125,0.43235570192337036,-0.9844191670417786,-1.6613539457321167
1788881002867547400,11.71054736328125,0.4052673578262329,-0.5765448808670044,-1.3246958255767822
1788881002877578500,11.72057861328125,0.35287606716156006,-0.23065775632858276,-1.0187206268310547
1788881002887608600,11.730608642578124,0.2562057375907898,-0.1093268096446991,-0.6880747675895691
1788881002897638400,11.740638427734375,0.17916597425937653,-0.13829751312732697,-0.4232669472694397
1788881002907668500,11.75066845703125,0.08963742107152939,-0.08125367760658264,-0.1787450909614563
1788881002917699300,11.76069921875,0.011791184544563293,0.044385381042957306,0.10181277990341187
1788881002927729400,11.7707294921875,-0.048404511064291,0.22116947174072266,0.40859854221343994
1788881002937759500,11.780759521484375,-0.08973235636949539,0.4851865768432617,0.7245463132858276
1788881002947789300,11.790789306640624,-0.11992248147726059,0.7277885675430298,1.0492557287216187
1788881002957820400,11.8008203125,-0.15812620520591736,0.8933514952659607,1.3932641744613647
1788881002967850500,11.8108505859375,-0.19941425323486328,1.012455701828003,1.7547560930252075
1788881002977880600,11.820880615234374,-0.2713904082775116,1.0552960634231567,2.0932998657226562
1788881002987910400,11.830910400390625,-0.3825739324092865,1.1127004623413086,2.429948091506958
1788881002997941500,11.84094140625,-0.514093279838562,1.159201741218567,2.732757806777954
1788881003007971600,11.8509716796875,-0.6463221311569214,1.1111929416656494,2.945976734161377
1788881003018001400,11.86100146484375,-0.7563665509223938,0.9773906469345093,3.083043098449707
1788881003028031200,11.87103125,-0.8476799130439758,0.8453325033187866,3.1874852180480957
1788881003038062300,11.881062255859375,-0.9288617372512817,0.877402663230896,3.3384292125701904
1788881003048092400,11.891092529296875,-1.027407169342041,0.9925486445426941,3.5145623683929443
1788881003058122500,11.90112255859375,-1.110993504524231,1.1293939352035522,3.6669230461120605
1788881003068152300,11.91115234375,-1.2139465808868408,1.1939960718154907,3.7584967613220215
1788881003078183400,11.921183349609375,-1.237607717514038,1.226287603378296,3.7950048446655273
1788881003088213500,11.931213623046874,-1.1921430826187134,1.2259479761123657,3.778264045715332
1788881003098243600,11.94124365234375,-1.158225417137146,1.2712639570236206,3.720371961593628
1788881003108273400,11.9512734375,-1.1756139993667603,1.4046586751937866,3.5845303535461426
1788881003118304500,11.961304443359374,-1.1672143936157227,1.8140376806259155,3.398474931716919
1788881003128334600,11.97133447265625,-1.1816571950912476,2.373892307281494,3.119452476501465
1788881003138364700,11.98136474609375,-1.220781922340393,2.809671640396118,2.7680695056915283
1788881003148394200,11.991394287109374,-1.2983726263046265,3.05586576461792,2.395766019821167
1788881003158425300,12.00142529296875,-1.3344700336456299,3.015385866165161,1.9826284646987915
1788881003168455400,12.011455322265626,-1.2842044830322266,2.7741663455963135,1.5100319385528564
1788881003178485500,12.021485595703124,-1.2688640356063843,2.5393948554992676,1.070015788078308
1788881003188515300,12.031515380859375,-1.2493641376495361,2.1700429916381836,0.6811631321907043
1788881003198546400,12.04154638671875,-1.1630594730377197,1.630125880241394,0.3626270890235901
1788881003208576500,12.051576416015624,-1.0285989046096802,1.0523961782455444,0.11284814774990082
1788881003218606600,12.061606689453125,-0.8721528649330139,0.6079323887825012,-0.10901942104101181
1788881003228636400,12.071636474609376,-0.80333411693573,0.4044986069202423,-0.3637728989124298
1788881003238667500,12.08166748046875,-0.7339140176773071,0.3848963975906372,-0.6565414071083069
1788881003248697600,12.091697509765625,-0.642768383026123,0.5672621726989746,-0.8944130539894104
1788881003258727400,12.1017275390625,-0.6963409185409546,0.7561815977096558,-1.0007812976837158
1788881003268757200,12.11175732421875,-0.7407499551773071,0.7578809857368469,-1.0011317729949951
1788881003278788400,12.121788330078125,-0.8601635694503784,0.6438277363777161,-0.8992133140563965
1788881003288818400,12.131818359375,-0.9281069040298462,0.5074536204338074,-0.7269011735916138
1788881003298848500,12.1418486328125,-0.8492729663848877,0.34975552558898926,-0.5349396467208862
1788881003308878300,12.15187841796875,-0.7089453935623169,0.19237816333770752,-0.38878852128982544
1788881003318909400,12.161909423828124,-0.5565016865730286,0.05086437612771988,-0.31196925044059753
1788881003328939500,12.171939453125,-0.4663883149623871,-0.06414556503295898,-0.22084707021713257
1788881003338969300,12.18196923828125,-0.33031031489372253,-0.12991298735141754,-0.11643613129854202
1788881003348999400,12.19199951171875,-0.1736954301595688,-0.11948325484991074,0.03474486619234085
1788881003359030500,12.202030517578125,0.1031341552734375,0.017060022801160812,0.17958010733127594
1788881003369060000,12.21206005859375,0.27525797486305237,0.09183891862630844,0.3022253215312958
1788881003379090200,12.222090087890624,0.3750045895576477,0.06506125628948212,0.35452112555503845
1788881003389120000,12.2321201171875,0.5159035921096802,-0.06379659473896027,0.3535488247871399
1788881003399151000,12.242151123046876,0.6452687382698059,-0.31925168633461,0.3807128369808197
1788881003409181200,12.25218115234375,0.7858045697212219,-0.6575202345848083,0.4796793758869171
1788881003419211300,12.262211181640625,0.9299246072769165,-0.9612535834312439,0.6183136105537415
1788881003429240800,12.27224072265625,1.076093316078186,-1.148790955543518,0.7093388438224792
1788881003439271000,12.28227099609375,1.2003698348999023,-1.2778925895690918,0.779914140701294
1788881003449302000,12.292302001953125,1.3106359243392944,-1.3282039165496826,0.8358879089355469
1788881003459332000,12.30233203125,1.4125933647155762,-1.4041486978530884,0.8006906509399414
1788881003469362000,12.31236181640625,1.5181858539581299,-1.699622392654419,0.6278533935546875
1788881003479392000,12.32239208984375,1.548925757408142,-2.806361436843872,0.07221150398254395
1788881003489423000,12.332423095703126,1.3760299682617188,-4.300744533538818,-0.8702889084815979
1788881003499453200,12.342453125,1.2724460363388062,-4.254629135131836,-1.3470884561538696
1788881003509483000,12.35248291015625,1.1411397457122803,-3.73223614692688,-1.5604835748672485
1788881003519513000,12.36251318359375,1.0515810251235962,-3.425720691680908,-1.7631257772445679
1788881003529544200,12.372544189453125,1.0818166732788086,-3.2518081665039062,-1.9697471857070923
1788881003539574300,12.38257421875,1.1030107736587524,-3.0241103172302246,-2.1712021827697754
1788881003549604000,12.39260400390625,1.1477869749069214,-2.6272130012512207,-2.339384078979492
1788881003559634000,12.402634033203125,1.1766538619995117,-2.085034132003784,-2.483595848083496
1788881003569665000,12.4126650390625,1.1439404487609863,-1.480718970298767,-2.6517081260681152
1788881003579695000,12.422695068359374,1.115038514137268,-0.8708462119102478,-2.814866781234741
1788881003589725000,12.432724853515625,1.0792150497436523,-0.45152536034584045,-2.9862310886383057
1788881003599755000,12.442755126953125,0.9941855669021606,-0.2901652753353119,-3.1882436275482178
1788881003609786000,12.4527861328125,0.8638206720352173,-0.3029138147830963,-3.405884265899658
1788881003619816200,12.462816162109375,0.7464193105697632,-0.37771713733673096,-3.579284906387329
1788881003629846000,12.472845947265625,0.684924304485321,-0.41262027621269226,-3.668484926223755
1788881003639876000,12.4828759765625,0.6116332411766052,-0.3059120774269104,-3.614993095397949
1788881003649907200,12.4929072265625,0.513239860534668,-0.05857577919960022,-3.4148988723754883
1788881003659937000,12.50293701171875,0.4371553957462311,0.12037914991378784,-3.2144815921783447
1788881003669967000,12.512967041015624,0.35973623394966125,0.16281476616859436,-3.0140514373779297
1788881003679997000,12.522996826171875,0.2974519729614258,0.020493239164352417,-2.8658220767974854
1788881003690028000,12.533028076171876,0.23973621428012848,-0.4251047372817993,-2.7355270385742188
1788881003700057900,12.543057861328125,0.16648739576339722,-0.8588628172874451,-2.521214485168457
1788881003710088000,12.553087890625,0.19200128316879272,-0.7574038505554199,-2.1117122173309326
1788881003720118000,12.563117919921876,0.17965534329414368,-0.47449010610580444,-1.6813328266143799
1788881003730149000,12.573149169921875,0.16390274465084076,-0.2603676915168762,-1.354589819908142
1788881003740179000,12.583178955078125,0.13011698424816132,-0.12637946009635925,-1.1041216850280762
1788881003750209000,12.593208984375,0.09706448763608932,0.03766780346632004,-0.8657940626144409
1788881003760239000,12.603239013671875,0.08676892518997192,0.30081579089164734,-0.533473014831543
1788881003770270200,12.613270263671875,0.0484716035425663,0.45110461115837097,-0.1745707392692566
1788881003780300000,12.623300048828124,-0.002585877198725939,0.5906988978385925,0.23196054995059967
1788881003790330000,12.633330078125,-0.05857990309596062,0.7821399569511414,0.6801737546920776
1788881003800360000,12.64335986328125,-0.07076278328895569,0.8973775506019592,1.085174560546875
1788881003810391000,12.65339111328125,-0.042339131236076355,0.9645954370498657,1.428871989250183
1788881003820420900,12.6634208984375,0.010997196659445763,1.065522313117981,1.778847336769104
1788881003830451000,12.673450927734375,0.03386096656322479,1.2095497846603394,2.0764729976654053
