time,seconds_elapsed,z,y,x
1790097492166868224,0.1308681640625,6.861418724060059,4.184747695922852,1.0103694200515747
1790097492176868096,0.1408681640625,7.547186650672013,4.569844307550389,1.2642079979840612
1790097492186868224,0.1508681640625,8.172912302659583,4.810745597849238,1.2103329004926386
1790097492196868096,0.1608681640625,8.564330807208014,4.884511087457182,1.1317018394917886
1790097492206868224,0.17086816406250002,8.61920240111235,4.318991279920757,1.548683917354739
1790097492216868096,0.18086816406250003,9.056368592446253,4.394023096285653,1.7777644075392085
1790097492226868224,0.19086816406250004,9.273178688933394,4.776104807473845,1.265550128135256
1790097492236868096,0.20086816406250005,9.787745625046252,4.8331486770649645,0.699640866873947
1790097492246868224,0.21086816406250006,10.027002022855068,4.835610561144049,0.0770216605711343
1790097492256868096,0.22086816406250007,9.892953230869532,4.909895866399776,-0.3789596622196245
1790097492266868224,0.23086816406250008,9.9974366551415,4.860916355015558,-0.4226288338863037
1790097492276868096,0.24086816406250008,10.337989409921086,4.719631125111653,-0.09999924816760242
1790097492286868224,0.2508681640625001,10.46423357137914,4.656910246522472,0.2904037630451365
1790097492296868096,0.26086816406250013,10.273935391915273,4.725299154538566,0.5091160999956545
1790097492306868224,0.27086816406250014,9.684025117638885,4.921296361709415,0.6065925465776247
1790097492316868096,0.28086816406250015,9.06859652688852,5.176983101010592,0.6110667306276486
1790097492326868224,0.29086816406250016,8.681375033744253,5.368609410493488,0.683003317105339
1790097492336868096,0.30086816406250017,8.195105842301166,5.477893838943965,0.6821600170889742
1790097492346868224,0.3108681640625002,7.545016168646222,5.390225314241588,0.5849594219978763
1790097492356868096,0.3208681640625002,6.515598673590987,4.118068030038522,1.2871833795877559
1790097492366868224,0.3308681640625002,6.543847082723627,4.5929869586595515,1.061403994600262
1790097492376868096,0.3408681640625002,5.947573637838807,5.053115211990842,0.8476247254739708
1790097492386868224,0.3508681640625002,5.941413170902051,5.633171431688035,0.3842253326602889
1790097492396868096,0.3608681640625002,6.283308510409635,6.188723739757841,-0.3530871872270017
1790097492406868224,0.3708681640625002,7.068873967899833,6.742138742983674,-1.283407430808367
1790097492416868096,0.38086816406250024,7.933036288610798,7.030807578857999,-2.05127979219864
1790097492426868224,0.39086816406250025,8.384147335111791,5.8664684727524925,-1.0531878802071648
1790097492436868096,0.40086816406250025,8.368819213951777,4.471969836752784,0.13750210326728315
1790097492446868224,0.41086816406250026,8.02390109652107,4.267877856151264,0.1877112625916853
1790097492456868096,0.42086816406250027,7.370406877537446,4.719227164792288,-0.15224570058055573
1790097492466868224,0.4308681640625003,6.642826837571917,5.185605085512823,-0.7535287464567901
1790097492476868096,0.4408681640625003,6.183913736219101,5.482107770180161,-1.4547212076667253
1790097492486868224,0.4508681640625003,6.253043448616189,5.6140723031172515,-1.8704444538744125
1790097492496868096,0.4608681640625003,6.835999029671002,5.509110178650962,-1.835063854492996
1790097492506868224,0.4708681640625003,7.792593035450042,5.227864908821845,-1.4537701866440726
1790097492516868096,0.4808681640625003,8.63094988422925,5.019206827358421,-0.9726963347373845
1790097492526868224,0.49086816406250033,9.159351170652869,4.798775892579841,-0.5295386952136352
1790097492536868096,0.5008681640625003,9.420713812205467,4.648823107462471,-0.25319096720511636
1790097492546868224,0.5108681640625004,9.539881707695441,4.6629702469057515,-0.1575472337328376
1790097492556868096,0.5208681640625004,9.233127976254453,4.891751303203379,-0.2198194802193532
1790097492566868224,0.5308681640625004,8.50792538923614,5.2503473772965314,-0.4105580711906158
1790097492576868096,0.5408681640625004,7.926106963192969,5.538965899341136,-0.5818108596225472
1790097492586868224,0.5508681640625004,7.70067992957762,5.7847333219137935,-0.9025576534790247
1790097492596868096,0.5608681640625004,7.886954688941895,5.961985435551563,-1.121002964175328
1790097492606868224,0.5708681640625004,8.643693494055597,6.050498517683754,-0.9626616807799138
1790097492616868096,0.5808681640625004,9.693421207244313,5.977540813756445,-0.5889164270698186
1790097492626868224,0.5908681640625004,10.462719260877348,5.663378563379831,-0.26389609499440364
1790097492636868096,0.6008681640625004,10.67590316999762,5.434574241786415,-0.24188306797894316
1790097492646868224,0.6108681640625004,10.050466008027076,5.2965631129590225,-0.4321523285237093
1790097492656868096,0.6208681640625004,8.954764018413627,5.286056830701993,-0.6381534254367895
1790097492666868224,0.6308681640625005,7.813960454468979,5.425888126535475,-0.8954734952732482
1790097492676868096,0.6408681640625005,6.919441581550627,5.804794065767018,-1.254669209264735
1790097492686868224,0.6508681640625005,6.305791913115019,6.149267096855602,-1.5718271230923218
1790097492696868096,0.6608681640625005,6.415083474209461,6.245849447464564,-1.8021242602872567
1790097492706868224,0.6708681640625005,7.553392056677709,6.049496271770829,-1.7741138124867228
1790097492716868096,0.6808681640625005,9.164422070669472,5.594369994946109,-1.3241278461381722
1790097492726868224,0.6908681640625005,10.31437786312101,5.232437783716082,-0.8713331302735732
1790097492736868096,0.7008681640625005,10.580681580657162,4.955280531156853,-0.6719349254474687
1790097492746868224,0.7108681640625005,10.250830069468012,4.703055692761017,-0.5470443663827174
1790097492756868096,0.7208681640625005,9.62710244190775,4.567548451649201,-0.4642967595776926
1790097492766868224,0.7308681640625005,8.658409248608939,4.673241068229785,-0.5411182412752295
1790097492776868096,0.7408681640625006,7.495284840645576,5.102124240088932,-0.6771345284654678
1790097492786868224,0.7508681640625006,6.710131487772219,5.54813304802299,-0.7147443710831166
1790097492796868096,0.7608681640625006,6.758478796984556,5.4986536183328365,-0.7564473640350213
1790097492806868224,0.7708681640625006,7.256616920777866,5.6956462295467745,-0.4124863795346415
1790097492816868096,0.7808681640625006,8.142689501732798,5.623964279735638,-0.14535667872604902
1790097492826868224,0.7908681640625006,9.341894767445032,5.21200922116095,-0.19567213647569742
1790097492836868096,0.8008681640625006,10.015078636819291,4.952141044022578,-0.26907408344118905
1790097492846868224,0.8108681640625006,9.800453866295788,5.106594071018428,-0.5080051611616769
1790097492856868096,0.8208681640625006,9.210907536195304,5.42382389981513,-0.7683747647664129
1790097492866868224,0.8308681640625006,8.562769358851265,5.5200155602381935,-0.7136269276598803
1790097492876868096,0.8408681640625006,8.213364099851558,5.459268029157782,-0.3053770215916112
1790097492886868224,0.8508681640625007,8.144693924725972,5.541515066463112,0.04503341826346938
1790097492896868096,0.8608681640625007,8.182248269997158,5.791359667407205,0.055591812374136365
1790097492906868224,0.8708681640625007,8.659520710218802,5.801074482554584,0.06964495971081114
1790097492916868096,0.8808681640625007,9.16622256083842,5.516921409019304,0.2696495272831381
1790097492926868224,0.8908681640625007,9.109986353833394,5.333336440896936,0.20611398610908604
1790097492936868096,0.9008681640625007,8.51606852061842,5.3374938893073,-0.07321569148978836
1790097492946868224,0.9108681640625007,7.482826822146949,5.490446261354594,-0.6219755871038156
1790097492956868096,0.9208681640625007,7.053835576951797,5.4257887128474085,-1.1205750072249796
1790097492966868224,0.9308681640625007,7.108755867622248,5.906067398421463,-0.7453411678949922
1790097492976868096,0.9408681640625007,7.006146692407575,6.4188959910145424,-0.4119749428901356
1790097492986868224,0.9508681640625007,6.962222352354912,6.301463390192802,-0.21008520015963625
1790097492996868096,0.9608681640625008,7.421379489814213,6.102456810517551,0.466055606729367
1790097493006868224,0.9708681640625008,7.797740681702652,5.829640886474735,0.7547990563373015
1790097493016868096,0.9808681640625008,8.390861789839494,5.436705864123395,0.9249173139714268
1790097493026868224,0.9908681640625008,8.850993439778287,5.430092788126808,0.8416353674237129
1790097493036868096,1.0008681640625008,8.714018682321703,5.669427730024169,0.4400473322661334
1790097493046868224,1.0108681640625008,8.25960393584557,5.646047310515271,0.3987242583420903
1790097493056868096,1.0208681640625008,7.695649112938542,5.549085466849356,0.437642619121873
1790097493066868224,1.0308681640625008,7.1772541307185325,5.301593656073688,0.6419597918790173
1790097493076868096,1.0408681640625008,7.364591945777609,5.15099725579725,1.223547777778561
1790097493086868224,1.0508681640625008,8.306123749282998,5.274419365261265,1.6692609761818364
1790097493096868096,1.0608681640625008,9.140429505214623,5.312353475134417,1.6627095634216171
1790097493106868224,1.0708681640625008,9.161003692903645,5.235007524539762,1.0744842795756788
1790097493116868096,1.0808681640625009,8.366723619244256,5.071529455304987,0.2537460349112236
1790097493126868224,1.0908681640625009,7.276787393426553,4.615694264723185,-0.08625691394617918
1790097493136868096,1.1008681640625009,6.719010472183359,4.024422873209401,0.24943772644215273
1790097493146868224,1.1108681640625009,6.5068060132752885,3.5928017909291756,0.533563364860794
1790097493156868096,1.120868164062501,7.256472321879928,3.4052626212689185,1.3497825879877725
1790097493166868224,1.130868164062501,7.8313954412627425,3.4273267067157795,2.373742695299536
1790097493176868096,1.140868164062501,6.8744240672206685,3.021775827448302,3.048007492475438
1790097493186868224,1.150868164062501,5.916911629258528,2.393012343597179,2.908441168709552
1790097493196868096,1.160868164062501,5.519518589849897,1.5678368635498061,2.6159702077183153
1790097493206868224,1.170868164062501,5.099044219131036,0.8973147996589096,1.4297820354020416
1790097493216868096,1.180868164062501,4.487564903754452,0.5165541250314203,-0.5240075884047065
1790097493226868224,1.190868164062501,3.5891633208858806,-0.542804201449326,0.1620025409475534
1790097493236868096,1.200868164062501,2.4072082023793273,-2.679376221960891,3.624575787364739
1790097493246868224,1.210868164062501,2.5325028097815676,-3.1836528753368656,3.6167879772677467
1790097493256868096,1.220868164062501,4.610609925032538,-0.9114003082386286,-0.23868636252187247
1790097493266868224,1.230868164062501,7.3918612755150646,2.388018472343249,-2.7751371437281933
1790097493276868096,1.240868164062501,7.636233482776828,3.8625668849863293,-2.9898212337360213
1790097493286868224,1.250868164062501,6.259249260868824,2.923883885936414,-2.655300646914534
1790097493296868096,1.260868164062501,6.353904726838853,1.3725656333981178,-2.444152592994989
1790097493306868224,1.270868164062501,6.051724444991574,-0.10551270763200415,-2.0525541056635617
1790097493316868096,1.280868164062501,4.722114263811906,-1.0734463373690513,-1.8912695501755818
1790097493326868224,1.290868164062501,7.306569903811042,-1.27540201921847,-1.556802680297826
1790097493336868096,1.300868164062501,7.364487232023781,-1.4296873062282063,-1.4887429508396335
1790097493346868224,1.310868164062501,6.851673463868139,-1.8353076848234957,-1.753684751178795
1790097493356868096,1.320868164062501,5.662222992483987,-1.6711315460463028,-3.3221684825486575
1790097493366868224,1.330868164062501,3.811934274625801,-1.216392839178382,-5.877626481511559
1790097493376868096,1.340868164062501,6.6422229000573125,-2.8558700690679033,-4.626418856653955
1790097493386868224,1.350868164062501,6.514208537779277,-4.474731337912506,-2.697991489174891
1790097493396868096,1.360868164062501,5.162814485746088,-5.687392419911665,-1.154403125191847
1790097493406868224,1.3708681640625011,6.510336356583284,-6.608412494313635,-0.9983523413307802
1790097493416868096,1.3808681640625011,7.758688416284313,-6.99491746358738,-1.6912466377389155
1790097493426868224,1.3908681640625011,10.109680938330724,-7.185885027095395,-2.822670045138411
1790097493436868096,1.4008681640625011,12.164280420325607,-7.432107816461832,-4.062231921948439
1790097493446868224,1.4108681640625012,12.844660245113191,-7.640087812645637,-5.161802078114372
1790097493456868096,1.4208681640625012,12.708563104095827,-7.998967432778159,-5.9442768962643475
1790097493466868224,1.4308681640625012,12.772129991610985,-8.182187463720815,-6.091483378082376
1790097493476868096,1.4408681640625012,11.926308859858787,-7.537420970399522,-4.913495253016815
1790097493486868224,1.4508681640625012,12.355422570728583,-7.068689968681269,-3.9006471913582477
1790097493496868096,1.4608681640625012,15.160160850959606,-8.818527514872617,-4.021922349831096
1790097493506868224,1.4708681640625012,14.104176042425772,-7.512054201673277,-4.674052957370327
1790097493516868096,1.4808681640625012,13.215248636038071,-7.086203855208477,-4.608593426553902
1790097493526868224,1.4908681640625012,13.131783944190422,-9.096661256104712,-6.796906496724004
1790097493536868096,1.5008681640625012,18.189976853456713,-8.463329383608306,-11.684390083298714
1790097493546868224,1.5108681640625012,24.448076051702174,-6.317511123647227,-18.21951958434012
1790097493556868096,1.5208681640625012,20.435790690839504,-6.20418846450027,-18.057273839199407
1790097493566868224,1.5308681640625013,12.786716115881536,-5.567067073960133,-14.338916067138015
1790097493576868096,1.5408681640625013,7.897695467524863,-5.567058337475489,-11.992453633438462
1790097493586868224,1.5508681640625013,3.943786430203976,-6.290620031072726,-8.388542122358613
1790097493596868096,1.5608681640625013,0.5794559703358542,-7.98077810726331,-4.681276163409975
1790097493606868224,1.5708681640625013,-1.1333234823969969,-11.672622153909092,-3.6042657060878014
1790097493616868096,1.5808681640625013,-1.1100723145585245,-11.52092673078662,-5.05917635573261
1790097493626868224,1.5908681640625013,-5.476518875506148,-8.649294231015432,-5.3801931889204715
1790097493636868096,1.6008681640625013,-2.9056261500789478,-8.014714543164649,-7.571169933507154
1790097493646868224,1.6108681640625013,-1.1972574923631076,-8.89457320425791,-6.800730683642962
1790097493656868096,1.6208681640625013,-0.9686371976431071,-8.596066794848225,-6.749591004359892
1790097493666868224,1.6308681640625013,-0.8143697897386821,-8.154746197835196,-6.449273994180735
1790097493676868096,1.6408681640625014,1.4885233591941995,-8.475024000499026,-6.742015010211397
1790097493686868224,1.6508681640625014,4.395864755853422,-9.019630552644502,-8.65697605633822
1790097493696868096,1.6608681640625014,2.714901497307486,-8.754578740905538,-10.75705542821375
1790097493706868224,1.6708681640625014,0.8106338148588361,-8.541426709720975,-13.039340217362902
1790097493716868096,1.6808681640625014,4.026237074105774,-8.095830990193244,-15.008396061714741
1790097493726868224,1.6908681640625014,11.275011716145954,-5.816278091091325,-16.869213585866046
1790097493736868096,1.7008681640625014,15.601349850712813,-4.314188123833289,-16.183543057766357
1790097493746868224,1.7108681640625014,9.362820733518957,-4.886523509322191,-15.85977059700343
1790097493756868096,1.7208681640625014,10.058300838280397,-4.696193177541452,-16.35924966374458
1790097493766868224,1.7308681640625014,11.733711865776023,-4.883939442857014,-16.35076439022399
1790097493776868096,1.7408681640625014,10.737659526536284,-3.387388030869886,-13.434683893699855
1790097493786868224,1.7508681640625015,11.559929905679109,-3.135226672424562,-9.970497676572183
1790097493796868096,1.7608681640625015,9.531491387047879,-3.320749217594709,-8.34463269570746
1790097493806868224,1.7708681640625015,6.221429746756407,-3.2600573880686707,-11.799221371269947
1790097493816868096,1.7808681640625015,7.169730809213208,-4.505144080140949,-10.158649304373863
1790097493826868224,1.7908681640625015,8.805520794366618,-5.15434419522003,-10.42507736682892
1790097493836868096,1.8008681640625015,7.054453667195478,-4.748142884436263,-10.782877158713742
1790097493846868224,1.8108681640625015,6.248006043688718,-5.838110045384408,-11.599525146467261
1790097493856868096,1.8208681640625015,4.450354768056051,-7.128317247450093,-9.509268565202314
1790097493866868224,1.8308681640625015,3.321331924102628,-7.388680825322793,-7.0885404219064
1790097493876868096,1.8408681640625015,3.539355610985903,-6.871520457798737,-4.654794764141726
1790097493886868224,1.8508681640625015,4.616525408456168,-6.0979860125041965,-3.0341888113986752
1790097493896868096,1.8608681640625016,6.087734615162771,-9.394932568881824,-1.0930311240727066
1790097493906868224,1.8708681640625016,5.823408881073587,-11.492183032455738,-0.582080572108623
1790097493916868096,1.8808681640625016,2.737010113682942,-11.197434800093813,-1.4096623737700353
1790097493926868224,1.8908681640625016,3.6398855301418043,-10.470403870523132,-4.610482100094565
1790097493936868096,1.9008681640625016,3.3234339860377826,-10.195789240362794,-7.5272797741095285
1790097493946868224,1.9108681640625016,10.177210257462335,-7.383756718177973,-9.13756820358782
1790097493956868096,1.9208681640625016,6.043124944834649,-7.196025575338565,-9.879397398647189
1790097493966868224,1.9308681640625016,5.003181737432744,-8.290226146013527,-9.6009166555706
1790097493976868096,1.9408681640625016,4.468720201185552,-7.743935687783694,-12.411613567253395
1790097493986868224,1.9508681640625016,3.1216171335368537,-7.919101227281328,-13.748075659830382
1790097493996868096,1.9608681640625016,1.843787953046387,-9.283605331960645,-10.348432032247
1790097494006868224,1.9708681640625016,2.240250726808872,-8.121501931501745,-7.31998812176355
1790097494016868096,1.9808681640625017,4.1284861298679205,-7.841816444902912,-5.496207205929
1790097494026868224,1.9908681640625017,5.817002798855236,-7.7447509329206,-6.1658856441589664
1790097494036868096,2.0008681640625015,7.798911880656526,-7.660251854528351,-5.9955031917254455
1790097494046868224,2.0108681640625017,8.815555228207641,-7.061396718318469,-4.210031963926657
1790097494056868096,2.0208681640625015,7.780894518985376,-5.984266044092717,-2.3148075769353698
1790097494066868224,2.0308681640625017,6.480263297471192,-4.98163750134588,-2.225381207960369
1790097494076868096,2.0408681640625015,6.431869209779373,-4.256847487281003,-4.429079538120675
1790097494086868224,2.0508681640625017,7.023181620652536,-3.90808612559574,-8.002384329024448
1790097494096868096,2.0608681640625015,6.331812303535491,-3.8045995307647997,-10.764041777645765
1790097494106868224,2.0708681640625017,4.68244311149922,-3.0452151722351894,-12.627633302490807
1790097494116868096,2.0808681640625015,4.984055629897916,-2.683529917512698,-12.184362325966923
1790097494126868224,2.0908681640625018,5.053488399299275,-2.0060901899774457,-9.679026267277328
1790097494136868096,2.1008681640625015,6.104508607110311,-1.1232764853370225,-5.289197333401541
1790097494146868224,2.1108681640625018,5.545282677224735,-0.366794483549229,-0.0347330998613995
1790097494156868096,2.1208681640625016,5.1802755719975275,-0.03704033694689643,4.570259857726674
1790097494166868224,2.130868164062502,4.7341486955997185,0.4928880297377291,6.882970090807829
1790097494176868096,2.1408681640625016,4.982215452861572,0.0216731970814337,5.361294030698285
1790097494186868224,2.150868164062502,7.667362389437187,-0.31497934656819,4.870756723273127
1790097494196868096,2.160868164062502,11.830577168193722,0.5256532099546345,5.342557621619761
1790097494206868224,2.170868164062502,13.833455502508182,2.9526800881103954,3.8815339030044016
1790097494216868096,2.1808681640625016,11.536028100462646,3.2609438515024345,1.6268507694828216
1790097494226868224,2.190868164062502,8.871377900721223,1.4731186305794441,0.23076984479692986
1790097494236868096,2.200868164062502,5.408674384641107,-0.28084542444011873,-1.762551544055622
1790097494246868224,2.210868164062502,4.853254499991589,-3.127916587435786,-4.835821515266728
1790097494256868096,2.2208681640625016,5.1714174353417155,-3.855130051073055,-7.377100469127533
1790097494266868224,2.230868164062502,4.963117066912038,-3.371424366328275,-7.571572899917176
1790097494276868096,2.240868164062502,7.657141595050372,-4.279869134560818,-6.3033426165012685
1790097494286868224,2.250868164062502,13.207433583626237,-4.64520260968979,-5.7568356885316305
1790097494296868096,2.2608681640625017,13.496410838259623,-4.121107846353909,-5.403515486474267
1790097494306868224,2.270868164062502,6.418811034266207,1.0434470130255056,-2.1770682121429057
1790097494316868096,2.280868164062502,4.196504983161638,3.3193570342817793,0.5111962404831245
1790097494326868224,2.290868164062502,7.599702721793855,-1.7867965964791352,-0.06593841296981767
1790097494336868096,2.3008681640625017,7.601176544174711,-3.176496813766837,-2.1189319146115424
1790097494346868224,2.310868164062502,7.581679139574722,-3.3444833153468636,-3.6364494375836194
1790097494356868096,2.320868164062502,6.631836074580805,-2.567334422002579,-4.249631466184715
1790097494366868224,2.330868164062502,6.323831545540751,-2.6968120842091867,-5.267210218412523
1790097494376868096,2.3408681640625018,7.255845551009201,-3.358541087293334,-6.996473885630465
1790097494386868224,2.350868164062502,8.057721843719484,-2.8903112289445136,-7.622597787837131
1790097494396868096,2.360868164062502,6.655167756441533,-1.5922685969115173,-6.01334104040845
1790097494406868224,2.370868164062502,5.690005653290683,-1.348771464864546,-4.637284488301757
1790097494416868096,2.380868164062502,6.9275118902138395,-1.2062053204397618,-4.2090559881439304
1790097494426868224,2.390868164062502,9.372759230619218,-0.7980017164086071,-4.931331282897534
1790097494436868096,2.4008681640625023,9.858399331930993,0.1981024705904858,-5.387299463938128
1790097494446868224,2.410868164062502,6.860031446784001,0.7331544524013498,-4.250060419187285
1790097494456868096,2.420868164062502,6.138174878121276,-0.26383672712902695,-3.3550450755894565
1790097494466868224,2.430868164062502,8.972438650382893,-1.218550894622296,-3.953446125855278
1790097494476868096,2.4408681640625023,10.618458594439744,-0.6222032880233089,-4.570731427569807
1790097494486868224,2.450868164062502,9.856952806503246,0.18202299182027226,-3.5501323139407717
1790097494496868096,2.460868164062502,7.727112653490093,-0.10755495186356306,-1.7884662092173313
1790097494506868224,2.470868164062502,7.7082672888011725,0.16519406120366742,0.7843569624626184
1790097494516868096,2.4808681640625023,7.401069885849787,-1.947252059804518,-0.07391819126107624
1790097494526868224,2.490868164062502,5.255446596956486,-5.067153329667631,-4.99050215446929
1790097494536868096,2.500868164062502,5.639849107490299,-7.165378471387325,-10.374948412250989
1790097494546868224,2.510868164062502,7.619252657767144,-6.84042100305953,-12.986737391269529
1790097494556868096,2.5208681640625024,8.231852210988603,-6.086010211440668,-12.912615233850984
1790097494566868224,2.530868164062502,9.04480278538637,-6.75087670860417,-11.62431908350486
1790097494576868096,2.540868164062502,8.519347584027123,-9.415868994653055,-11.99491055450735
1790097494586868224,2.550868164062502,9.001244200779864,-7.054596583195855,-12.345300192376023
1790097494596868096,2.5608681640625024,8.08872474677441,-5.42234105324617,-11.573239049226654
1790097494606868224,2.570868164062502,7.877825965881344,-5.260043008043351,-8.635033408544732
1790097494616868096,2.580868164062502,6.391235105750362,-6.656444627940454,-5.760557990867797
1790097494626868224,2.590868164062502,6.101432806556038,-5.037458228124541,-2.882390573826673
1790097494636868096,2.6008681640625024,6.3312386182918,-3.653053432919006,-0.3468725812461453
1790097494646868224,2.610868164062502,4.402440482262282,-2.7742398970142963,-0.36714534513361813
1790097494656868096,2.620868164062502,3.819987763994061,-1.9134988280358207,-2.3205635732998835
1790097494666868224,2.6308681640625022,3.5752500722658453,-3.520508019085721,-4.390832003656471
1790097494676868096,2.6408681640625025,6.590634574637634,-6.842243418762658,-5.054008393499953
1790097494686868224,2.6508681640625023,6.990400321767229,-9.410332821119908,-5.201720700362971
1790097494696868096,2.660868164062502,4.9564058776775335,-9.870739894680147,-5.040163678191961
1790097494706868224,2.6708681640625023,2.71258295084156,-8.722436193048244,-3.7013040950875906
1790097494716868096,2.6808681640625025,1.4911409862541747,-7.569237651715102,-2.9721094080920785
1790097494726868224,2.6908681640625023,2.656562311492684,-6.8468026118599035,-2.693665310390272
1790097494736868096,2.700868164062502,5.335737493681206,-6.419874012519604,-1.7071002846644592
1790097494746868224,2.7108681640625023,10.11428482138554,-7.068492667428178,0.28930163784090457
1790097494756868096,2.7208681640625025,9.317613271908971,-6.593950043347979,0.7466132392466533
1790097494766868224,2.7308681640625023,5.669441899691298,-5.846393810226684,0.019037970299820905
1790097494776868096,2.740868164062502,6.0762434817103586,-5.9181363993481995,-0.8762255796566207
1790097494786868224,2.7508681640625023,8.263206902453257,-6.832388873483384,-1.6852349830273174
1790097494796868096,2.7608681640625026,6.916855667303896,-6.8941741215499475,-2.755264123190939
1790097494806868224,2.7708681640625024,5.011455460525143,-5.506444178358,-5.163465976727878
1790097494816868096,2.780868164062502,5.2298544049311255,-3.064248269926006,-7.121782489732802
1790097494826868224,2.7908681640625024,7.3652244212343,1.874459709534941,-8.81775764853083
1790097494836868096,2.8008681640625026,11.84433070884495,-0.9765741186147248,-7.383146372483351
1790097494846868224,2.8108681640625024,10.921850912347951,-5.098534589233432,-6.662490293341375
1790097494856868096,2.820868164062502,9.283500890183086,-4.934228205575265,-7.668459622558314
1790097494866868224,2.8308681640625024,10.555841717737724,-7.162727852745348,-8.138599727404586
1790097494876868096,2.8408681640625026,9.919269075961594,-12.23748346798303,-9.481781734753815
1790097494886868224,2.8508681640625024,8.738541797721567,-14.511896975228625,-10.506950992929005
1790097494896868096,2.860868164062502,8.499855158832508,-15.43608443233865,-7.401540486213178
1790097494906868224,2.8708681640625024,8.025269024149555,-16.500042497259567,-4.073949850716697
1790097494916868096,2.8808681640625027,7.41344087628661,-15.59430453961397,-3.4177346235173807
1790097494926868224,2.8908681640625025,7.900017990152021,-11.781422076248866,-2.6803362765828704
1790097494936868096,2.9008681640625023,6.430908574118717,-9.947510415309107,0.3692851198283318
1790097494946868224,2.9108681640625025,6.317905404852943,-8.59200149874267,2.3893418815108296
1790097494956868096,2.9208681640625027,5.281338340927308,-7.877229478717508,3.131730928421021
1790097494966868224,2.9308681640625025,5.372257535684478,-8.093521413301504,2.976113408504761
1790097494976868096,2.9408681640625023,5.299552753799195,-8.645135095700049,1.6805565385774441
1790097494986868224,2.9508681640625025,4.801198654091712,-8.337022006625729,1.5216336977260165
1790097494996868096,2.9608681640625027,4.522680658333148,-7.316462787141462,1.8415737276493545
1790097495006868224,2.9708681640625025,3.81978851219487,-6.369185606086785,1.9539900011227431
1790097495016868096,2.9808681640625023,3.1152799648992593,-5.2843649075503,0.8511323102657535
1790097495026868224,2.9908681640625026,3.047969910095144,-5.026358403597149,0.49267047183765134
1790097495036868096,3.000868164062503,3.160723446181908,-5.293246044851912,0.8251193348435373
1790097495046868224,3.0108681640625026,4.6977526542810715,-5.039722685320029,-1.5323579101214901
1790097495056868096,3.0208681640625024,5.75214958057524,-5.698885649048252,-2.2732683862942977
1790097495066868224,3.0308681640625026,6.224089385579957,-5.699124739480761,-2.0307916484067405
1790097495076868096,3.040868164062503,8.325079915215568,-4.857926672464859,-3.728565972726943
1790097495086868224,3.0508681640625026,8.905361172177024,-6.883510151132553,-3.0433822949682163
1790097495096868096,3.0608681640625024,9.05203655287396,-6.564392163740944,-4.55283638290841
1790097495106868224,3.0708681640625026,9.159125155221176,-5.89190715797338,-5.985444177751104
1790097495116868096,3.080868164062503,9.089238823320311,-5.7506910149771056,-5.878972589350292
1790097495126868224,3.0908681640625026,9.285973370240445,-5.599585271753155,-5.302761499981745
1790097495136868096,3.1008681640625024,9.272859440887522,-5.6898976309684,-4.540493878082877
1790097495146868224,3.1108681640625027,9.20744012242149,-6.412771989385348,-4.322638890916049
1790097495156868096,3.120868164062503,8.906407932305937,-7.23206205314436,-4.155639375301183
1790097495166868224,3.1308681640625027,8.559954592058832,-7.201877226221237,-5.202133207407191
1790097495176868096,3.1408681640625025,8.999803413603813,-6.573710052151569,-6.13132547645389
1790097495186868224,3.1508681640625027,9.87793074595246,-6.215561272866355,-6.449938053596903
1790097495196868096,3.160868164062503,10.25425041416145,-6.406885582869598,-5.951968820453077
1790097495206868224,3.1708681640625027,10.252168521881128,-6.374258327484063,-4.764953298568299
1790097495216868096,3.1808681640625025,10.268934172649129,-5.886754353560994,-3.29081054346729
1790097495226868224,3.1908681640625027,9.645106893400836,-5.843444644774866,-2.041179182918286
1790097495236868096,3.200868164062503,9.13995656863385,-5.729979261363647,-3.287083404466319
1790097495246868224,3.2108681640625027,8.150089779899423,-6.5953747186604526,-4.418550768997217
1790097495256868096,3.2208681640625025,6.437441217651809,-6.179331798380341,-5.596959931616028
1790097495266868224,3.2308681640625028,7.823500133920053,-4.153062624510756,-9.637014874708987
1790097495276868096,3.240868164062503,7.093499672041663,-6.682243770539384,-5.661908475005481
1790097495286868224,3.250868164062503,5.267096669991329,-4.53633752523511,-3.3559801929863737
1790097495296868096,3.2608681640625026,5.703965781979734,-3.586064552476862,-0.6878582719428538
1790097495306868224,3.270868164062503,6.062663461388693,-2.96460556358881,1.3300557983402566
1790097495316868096,3.280868164062503,6.422416714263292,-2.481766674821369,0.9068588092443584
1790097495326868224,3.290868164062503,7.060119349593292,-2.7505982477292,-0.44879162835264985
1790097495336868096,3.3008681640625026,7.8325979713890455,-2.4937279836484203,-1.3878465218762397
1790097495346868224,3.310868164062503,9.03390553880797,-2.3874769388823163,-2.4681293570884515
1790097495356868096,3.320868164062503,9.792048158702805,-2.996377786816101,-3.130236747706545
1790097495366868224,3.330868164062503,10.28224076958173,-3.2382777284263953,-3.3006157880063878
1790097495376868096,3.3408681640625026,11.111141876070153,-2.862308187492765,-3.357324000106095
1790097495386868224,3.350868164062503,11.385562409983981,-2.8603774984143073,-3.6219020525100647
1790097495396868096,3.360868164062503,10.56769757016299,-3.412533695228576,-3.829975618482302
1790097495406868224,3.370868164062503,9.067210319393654,-4.174248011086135,-4.202728926755754
1790097495416868096,3.3808681640625027,7.937914587672862,-4.515660026061165,-4.000151935179524
1790097495426868224,3.390868164062503,7.397594146913685,-3.9088884170992224,-2.7442499004864196
1790097495436868096,3.400868164062503,8.008438880930322,-3.026068823500506,-3.348760668674111
1790097495446868224,3.410868164062503,9.108157809690772,-3.6839245640953644,-3.8166651669872023
1790097495456868096,3.4208681640625027,10.794169453017897,-4.468835752778573,-3.8209286826479665
1790097495466868224,3.430868164062503,11.779012718792403,-5.308937496619894,-3.523289620098296
1790097495476868096,3.440868164062503,8.090713108299905,-4.2456847208367785,-4.426975749242875
1790097495486868224,3.450868164062503,7.57209842174183,-2.6493251840836067,-5.327259914331642
1790097495496868096,3.4608681640625027,7.766689046344001,-1.6003133012563446,-5.511381118187867
1790097495506868224,3.470868164062503,6.978774405369175,-0.9560761401334514,-4.668376702989653
1790097495516868096,3.480868164062503,6.278677725241478,-0.555462435384675,-3.542011429919158
1790097495526868224,3.490868164062503,6.164570434871782,-0.7297201425425156,-2.969299932248766
1790097495536868096,3.500868164062503,6.306120904627678,-1.4057783370644072,-2.4768541208315695
1790097495546868224,3.510868164062503,7.463702298293323,-1.503969665975833,-1.5672530096232788
1790097495556868096,3.5208681640625032,8.525654487272128,-1.2380533972624774,-0.7595471442198971
1790097495566868224,3.530868164062503,7.6702601413771685,-1.4680240267114946,-0.08995289885847257
1790097495576868096,3.540868164062503,7.1386023086943675,-0.7331522300368251,1.1879035665522057
1790097495586868224,3.550868164062503,7.467425570593475,0.874831227588923,1.6406137362987674
1790097495596868096,3.5608681640625033,8.098350634745215,1.9317395996456028,1.1126239116886294
1790097495606868224,3.570868164062503,8.169434772056468,0.9892586016152526,0.13317607847663757
1790097495616868096,3.580868164062503,7.732888982683968,-1.4593914665832604,-0.1929801412675841
1790097495626868224,3.590868164062503,8.092549238998327,-1.446125427942484,-0.387351695830397
1790097495636868096,3.6008681640625033,10.091306311109157,-0.3020298023794184,-0.9588239359734415
1790097495646868224,3.610868164062503,12.07043363936777,-0.07971092813381025,-1.5646217811547816
1790097495656868096,3.620868164062503,11.292534542354591,-0.8289966899035655,-1.6734492234490261
1790097495666868224,3.630868164062503,8.778684002772156,-1.128763106403327,-1.4235819267949752
1790097495676868096,3.6408681640625034,8.991541721915297,-0.3476171704987709,-2.0057004468844704
1790097495686868224,3.650868164062503,9.845001746805089,-0.17105179408202617,-2.8114865116259935
1790097495696868096,3.660868164062503,7.942542366733561,-0.7805780120157435,-2.8858565841436334
1790097495706868224,3.670868164062503,5.134092596471333,-0.9838826216976635,-2.2223478206612617
1790097495716868096,3.6808681640625034,4.085965069834964,-0.6852539346315654,-1.6150235243410125
1790097495726868224,3.690868164062503,5.51268890904705,-0.20898678089268208,-0.8454646784095287
1790097495736868096,3.700868164062503,8.25394671956903,0.39948009982517274,-0.49735187238729506
1790097495746868224,3.710868164062503,10.395028772700677,0.37484130208042243,-0.5340351805415456
1790097495756868096,3.7208681640625034,8.068050378887389,0.07489543976473195,-0.5254440932508507
1790097495766868224,3.730868164062503,5.155650246859692,0.17034890671087555,-1.0077668339325478
1790097495776868096,3.740868164062503,4.8227267450366895,0.33728226106526976,-1.8111853688827992
1790097495786868224,3.7508681640625032,6.429657399977825,0.3628118185695064,-2.0192073485951076
1790097495796868096,3.7608681640625035,8.253443487493524,0.41072249363755103,-1.5434599214512774
1790097495806868224,3.7708681640625032,8.475452112715054,0.7413507555483108,-1.009365868112345
1790097495816868096,3.780868164062503,8.52725540100023,0.8214114046589546,-0.44979110763691815
1790097495826868224,3.7908681640625033,7.478190223063819,0.9312999267775343,-0.6578519754790083
1790097495836868096,3.8008681640625035,7.329719297626709,0.8391835086085366,-1.3351025133555836
1790097495846868224,3.8108681640625033,7.96660846538667,0.4647637159290665,-1.9590023048820728
1790097495856868096,3.820868164062503,8.297773429913326,-0.1887631786541807,-2.206518624873432
1790097495866868224,3.8308681640625033,8.400931121852102,-0.7885533854776496,-2.3746035195012816
1790097495876868096,3.8408681640625035,8.808440028279492,-1.0530262515970439,-2.6051563033879157
1790097495886868224,3.8508681640625033,9.027325340429138,-1.074242604137073,-3.19251612159279
1790097495896868096,3.860868164062503,8.628253794461152,-1.3267676678999725,-3.4825092115963714
1790097495906868224,3.8708681640625033,8.948379773920864,-1.3007888761980768,-3.6267532967224523
1790097495916868096,3.8808681640625036,10.739997723316934,-1.4178362098593946,-3.573454006512312
1790097495926868224,3.8908681640625034,13.339517556696322,-1.405947255626865,-4.046083204672483
1790097495936868096,3.900868164062503,14.15888484134521,-1.7246183947425633,-4.794757588774532
1790097495946868224,3.9108681640625034,12.316114923952718,-2.464122585699659,-5.1041198400866605
1790097495956868096,3.9208681640625036,10.478581518012609,-3.6622462848791217,-5.068524051449408
1790097495966868224,3.9308681640625034,10.035858373592442,-4.804201636561718,-4.958261141184022
1790097495976868096,3.940868164062503,9.241754855384135,-5.551336186602063,-4.6435465083484955
1790097495986868224,3.9508681640625034,6.978107219809802,-5.983862840092604,-3.93931886037461
1790097495996868096,3.9608681640625036,4.801337820430543,-5.990834883589073,-3.1393535410174156
1790097496006868224,3.9708681640625034,4.958943660746384,-5.964605176984033,-2.4145172329868165
1790097496016868096,3.980868164062503,7.478086427606793,-5.963316152300897,-2.201190824450152
1790097496026868224,3.9908681640625034,9.316958669770095,-5.726300856000981,-2.1607900420104573
1790097496036868096,4.000868164062504,8.202716138614658,-5.246106783845275,-2.3254228976505367
1790097496046868224,4.0108681640625035,6.509484890393077,-5.061462922725139,-2.614322825616684
1790097496056868096,4.020868164062503,7.849322260033784,-5.251634124054204,-2.904043041280348
1790097496066868224,4.030868164062503,10.096234482603546,-5.193516044226798,-3.0689015110423687
1790097496076868096,4.040868164062504,9.138405490538654,-4.915648013754716,-3.187316472956598
1790097496086868224,4.0508681640625035,6.885707423392767,-4.68748286598081,-4.228250372547006
1790097496096868096,4.060868164062503,9.495829491386889,-4.899180809128075,-4.509612164139164
1790097496106868224,4.070868164062503,10.698873023197976,-5.434786921532069,-4.217803621514916
1790097496116868096,4.080868164062504,9.473908253183424,-6.2612332703593365,-4.2324277629834866
1790097496126868224,4.0908681640625035,8.352710155625468,-7.008668963773522,-4.533022596428452
1790097496136868096,4.100868164062503,8.745727721397671,-7.72185563515565,-4.375043967863962
1790097496146868224,4.110868164062503,8.647232354080638,-8.277722959412952,-3.694890294255908
1790097496156868096,4.120868164062504,7.767320797208876,-7.976939919080938,-2.8100388570489
1790097496166868224,4.130868164062504,6.788535529685314,-6.803835619104746,-2.4436024054029732
1790097496176868096,4.140868164062503,6.365301693187037,-6.339611398196389,-1.9138775417549336
1790097496186868224,4.150868164062503,6.103249564495068,-5.851124969463377,-2.1436024923567563
1790097496196868096,4.160868164062504,6.279558176506757,-6.0102282960544935,-2.453110616563061
1790097496206868224,4.170868164062504,7.856811820353116,-6.256272105319107,-2.4034652031982024
1790097496216868096,4.180868164062503,8.232673138217933,-6.332908108769218,-2.077714953617483
1790097496226868224,4.190868164062504,7.85563432541186,-7.011779266853308,-2.3038928566526193
1790097496236868096,4.200868164062504,8.154953700430834,-7.951503584833911,-2.6648976067928176
1790097496246868224,4.210868164062504,8.878559317855926,-8.360092356184946,-2.984663157810351
1790097496256868096,4.220868164062503,9.57518579024169,-8.563264116116784,-3.4821527752221764
1790097496266868224,4.230868164062503,9.164191885642335,-9.244969420300857,-2.9842151951693845
1790097496276868096,4.240868164062504,8.538831236618572,-8.984055522640034,-2.5845960146674503
1790097496286868224,4.250868164062504,8.647024300184512,-8.319689125799297,-3.412522337402949
1790097496296868096,4.2608681640625035,8.23552613808051,-7.423652148133658,-3.779828647535539
1790097496306868224,4.270868164062504,7.736107900587193,-6.508770210752711,-3.369649204801202
1790097496316868096,4.280868164062504,7.574225527128983,-5.721980317145719,-3.1172577575590084
1790097496326868224,4.290868164062504,7.769265843423533,-5.117495439705425,-3.5520324064736295
1790097496336868096,4.3008681640625035,7.786555211037335,-4.555898270261794,-3.7936171954572413
1790097496346868224,4.310868164062503,7.615280446681165,-4.365577440370394,-3.8460545553402055
1790097496356868096,4.320868164062504,7.817982301149512,-4.9101476456732716,-3.7274957445443144
1790097496366868224,4.330868164062504,8.318843347896044,-5.561294210344713,-3.5941342724197285
1790097496376868096,4.3408681640625035,8.867210069357046,-6.05364934664914,-3.2463774054216232
1790097496386868224,4.350868164062504,9.382046750815064,-6.367545769177707,-2.7654630955264987
1790097496396868096,4.360868164062504,10.146588159027914,-6.684313290798721,-2.7034164999434753
1790097496406868224,4.370868164062504,10.868365966107362,-6.967072099302969,-3.058663373543153
1790097496416868096,4.380868164062504,10.498308090374989,-7.233584469771387,-3.0762693339630065
1790097496426868224,4.390868164062503,9.565134180888968,-7.403845055930997,-2.87672558463296
1790097496436868096,4.400868164062504,9.118009683551564,-7.311546432079673,-2.8918155582114418
1790097496446868224,4.410868164062504,8.78135989959976,-7.0084585442442755,-3.0361478071448182
1790097496456868096,4.420868164062504,8.048589386099659,-6.525977291776529,-3.3493813234908743
1790097496466868224,4.430868164062504,7.044298945112184,-6.061049704884781,-3.4928439767377863
1790097496476868096,4.440868164062504,6.460848620370089,-5.672445504727,-3.5371347544724614
1790097496486868224,4.450868164062504,6.348892088915479,-5.218524471415801,-3.4567029630639334
1790097496496868096,4.460868164062504,6.84539919512281,-4.418655420510556,-3.9601282573366134
1790097496506868224,4.470868164062503,7.212909967613599,-4.140160721390161,-4.364754339838444
1790097496516868096,4.480868164062504,7.1892286538429095,-4.488863777600031,-4.331495794544743
1790097496526868224,4.490868164062504,7.230217843673591,-4.978631007436752,-3.8244704400688403
1790097496536868096,4.500868164062504,7.665121827167981,-5.19322434083399,-3.4757419685845266
1790097496546868224,4.510868164062504,7.813769665941918,-5.168616509086073,-3.4378879070281982
1790097496556868096,4.520868164062504,7.975622796090982,-4.990015042506788,-3.6083886520487276
1790097496566868224,4.530868164062504,8.3757313187754,-4.667780660520456,-4.463574880788264
1790097496576868096,4.540868164062504,8.65078282884354,-4.597691367134047,-5.4351913782789785
1790097496586868224,4.5508681640625035,8.493701866846491,-4.99359204021781,-5.3210684264877335
1790097496596868096,4.560868164062504,8.142028484476278,-5.407295883450886,-4.5826344947602164
1790097496606868224,4.570868164062504,7.953536655701405,-5.923100713973403,-3.947082346132322
1790097496616868096,4.580868164062504,7.886243345305073,-6.113485172338412,-3.62144551405009
1790097496626868224,4.590868164062504,7.34300953774668,-5.808209633302643,-3.8180675658349723
1790097496636868096,4.600868164062504,6.485810686022153,-5.516865042454118,-4.216227409259187
1790097496646868224,4.610868164062504,6.311500796629346,-4.839784061846652,-4.306634369538866
1790097496656868096,4.620868164062504,6.448474938261419,-4.7410078657938906,-4.665777420294916
1790097496666868224,4.630868164062504,7.546338798691451,-4.72032925808361,-4.190719797413466
1790097496676868096,4.640868164062504,9.042004518486547,-4.5247574344805255,-3.8443182610942195
1790097496686868224,4.650868164062504,10.31753700760376,-4.577295642282131,-3.7176879437600556
1790097496696868096,4.660868164062504,10.512248358446323,-4.729262598777508,-3.89855717714617
1790097496706868224,4.6708681640625045,10.213293918059039,-4.815863754510822,-4.155873273963985
1790097496716868096,4.680868164062504,10.208047106352556,-4.810785722732542,-4.690487795234629
1790097496726868224,4.690868164062504,10.175069439225704,-4.889005614933051,-5.2428992248570765
1790097496736868096,4.700868164062504,9.751273014363603,-5.104018608327646,-5.163005885273238
1790097496746868224,4.710868164062504,9.516199161745687,-4.9747039848359105,-4.553596401970366
1790097496756868096,4.720868164062504,9.65310057976095,-4.3467726730926355,-4.076397540717409
1790097496766868224,4.730868164062504,9.745343785320415,-3.601839811603154,-4.07824345806822
1790097496776868096,4.740868164062504,9.382137429726331,-3.1269855273201026,-4.203917376463923
1790097496786868224,4.750868164062505,8.574192614787327,-2.9314127195554387,-3.7878861327986515
1790097496796868096,4.760868164062504,8.174220810689446,-2.929278840704196,-3.0145759839513113
1790097496806868224,4.770868164062504,8.62625999129524,-2.9971173465499303,-2.323668799023272
1790097496816868096,4.780868164062504,8.907899086779523,-3.256026532976771,-1.8481961724787497
1790097496826868224,4.790868164062504,8.767870988818835,-3.3715138020180673,-1.5140328552588285
1790097496836868096,4.800868164062504,8.720858891701491,-2.909189142186169,-1.4700501347916919
1790097496846868224,4.810868164062504,7.376502400484436,-2.416573835714389,-1.6204789031160214
1790097496856868096,4.820868164062504,5.601680099066745,-2.1712101684300342,-1.4067813977744519
1790097496866868224,4.830868164062505,5.243939642443198,-1.4589491878596053,-0.5700426593751444
1790097496876868096,4.840868164062504,6.573656324631023,-0.06329143589706221,-0.0492288366673127
1790097496886868224,4.850868164062504,9.109165206944615,1.4816843912488185,-0.903410538126087
1790097496896868096,4.860868164062504,9.89127245258367,1.6463053319021197,-2.0547981759909812
1790097496906868224,4.870868164062504,8.002087053485663,0.37813293760866973,-2.1672860150509456
1790097496916868096,4.8808681640625045,5.603380719119816,-0.3279372802978602,-2.1587587131738175
1790097496926868224,4.890868164062504,4.359109538990002,-0.2740524821448453,-2.0742335233914
1790097496936868096,4.900868164062504,4.131276605289862,-0.14587230211511748,-1.3119804592233262
1790097496946868224,4.910868164062505,5.197874355069793,0.465633839927787,0.025610593940972204
1790097496956868096,4.9208681640625045,8.005350349315334,1.3480792565533908,0.529145068103073
1790097496966868224,4.930868164062504,10.515250930540109,1.6095990891036993,0.2634751427210519
1790097496976868096,4.940868164062504,10.673289533332333,1.3505359993904025,-0.045362728001155345
1790097496986868224,4.950868164062504,9.457054185270236,1.4909640689648558,-1.809783421711308
1790097496996868096,4.9608681640625045,5.619367865444905,0.9160129739464445,-3.4722132592700894
1790097497006868224,4.970868164062504,3.486044890449599,0.7871774869678492,-3.55672353983842
1790097497016868096,4.980868164062504,4.068776581947743,0.37793429897314595,-2.4222628651050466
1790097497026868224,4.990868164062505,6.745623084743102,-0.05125400191051417,-0.9899488929733609
1790097497036868096,5.000868164062505,9.674275299816093,0.08540575401963163,-0.3572405159991547
1790097497046868224,5.010868164062504,9.449926724348101,0.43389481602488955,-0.09275746081665141
1790097497056868096,5.020868164062504,7.981719898763965,0.8250901792807808,-0.47176866113938654
1790097497066868224,5.030868164062504,10.529052096122317,1.1663553550040688,-2.3568910648590125
1790097497076868096,5.040868164062505,11.030761140421975,0.4793021898040245,-3.5545103067210735
1790097497086868224,5.050868164062504,9.859151708407282,0.09028100987406987,-3.5328640073074276
1790097497096868096,5.060868164062504,7.460004602416155,0.33985686879452354,-3.2578123923462736
1790097497106868224,5.070868164062505,6.382340772306175,0.6238611087342895,-3.5532562851247658
1790097497116868096,5.080868164062505,5.526467561784169,-0.017130924231952255,-3.5625843610873527
1790097497126868224,5.090868164062504,4.322725428906763,-0.5872847997839729,-2.735875854241818
1790097497136868096,5.100868164062504,5.47190507923339,-0.9593298627029812,-1.2165121968610988
1790097497146868224,5.110868164062504,10.061293497997815,-0.8483910774029761,-0.07265773204937201
1790097497156868096,5.120868164062505,14.268851992771205,-0.07867185693908457,-0.3967323028113312
1790097497166868224,5.1308681640625045,12.071477109082128,0.43916863229217884,-1.2380127536519667
1790097497176868096,5.140868164062504,6.849310801577346,0.2786485835661871,-2.701621849502805
1790097497186868224,5.150868164062505,5.360949646072085,-0.7051485132208242,-3.921788161116222
1790097497196868096,5.160868164062505,5.835924022556354,-1.9913083440492927,-4.271047714048858
1790097497206868224,5.1708681640625045,6.673824239283995,-2.9547219496610735,-3.5190765338368792
1790097497216868096,5.180868164062504,8.682238820389262,-3.189101290547751,-2.9221810924925826
1790097497226868224,5.190868164062504,11.611367150510853,-2.8611326550825127,-3.189128355186552
1790097497236868096,5.200868164062505,11.592978502085483,-2.6107598419942875,-3.4245100669394053
1790097497246868224,5.2108681640625045,8.317321487160932,-3.011854786608196,-3.7352694577105776
1790097497256868096,5.220868164062504,7.44012440887172,-3.8237130454945225,-3.7177719134909335
1790097497266868224,5.230868164062505,8.47131554668445,-4.338655619993043,-3.554932789081669
1790097497276868096,5.240868164062505,8.831092685659153,-4.805626377614097,-3.338936296795019
1790097497286868224,5.250868164062505,8.085664757283457,-4.973911204304611,-3.1084842730572357
1790097497296868096,5.260868164062504,6.299233529887378,-4.871362121878056,-3.411428247297081
1790097497306868224,5.270868164062504,5.034516032410936,-4.790070239816719,-3.719905558730343
1790097497316868096,5.280868164062505,6.218833047278504,-4.90540360178719,-4.015740394786183
1790097497326868224,5.290868164062505,9.37662957009912,-4.724089931798464,-3.9268035295742054
1790097497336868096,5.300868164062504,11.738494509521466,-4.370971544818457,-3.5576376401829966
1790097497346868224,5.310868164062505,11.975882347238072,-4.1956804875592155,-3.504231539209343
1790097497356868096,5.320868164062505,11.558937482980001,-4.511767967753096,-4.424728818556995
1790097497366868224,5.330868164062505,10.751409028077953,-5.615465772112524,-5.552968736466976
1790097497376868096,5.340868164062504,8.398992254325197,-6.566102900035978,-5.8114687815848765
1790097497386868224,5.350868164062504,6.4518509294578905,-7.258940351705781,-5.13972841020134
1790097497396868096,5.360868164062505,6.653116176895544,-7.702233719057218,-4.264663344142119
1790097497406868224,5.370868164062505,7.645485675813089,-7.184706067907187,-4.155029421952561
1790097497416868096,5.3808681640625045,7.580228072654382,-6.5869374133837075,-4.301997644984856
1790097497426868224,5.390868164062505,6.700299738548373,-6.446675032688883,-4.280530539652546
1790097497436868096,5.400868164062505,7.631777992654151,-6.287093793959012,-4.130209923625585
1790097497446868224,5.410868164062505,8.59383226169312,-5.953994260923328,-3.7422697684239696
1790097497456868096,5.4208681640625045,7.9103574388008795,-6.218752044791778,-3.335870263737605
1790097497466868224,5.430868164062504,7.481957114265269,-6.648388659840859,-3.6034460003452935
1790097497476868096,5.440868164062505,7.848691720778716,-6.596858327924574,-3.7818502751670975
1790097497486868224,5.450868164062505,8.009793868602648,-6.202216668423014,-3.556043238980874
1790097497496868096,5.4608681640625045,7.80485233141738,-5.965310676193987,-3.570248470223503
1790097497506868224,5.470868164062505,7.461243096819817,-6.0199368597112395,-3.9687467223856054
1790097497516868096,5.480868164062505,7.2038423966372305,-5.781727392191502,-4.240787406041907
1790097497526868224,5.490868164062505,6.978252976370662,-5.305435290123542,-4.323736279094983
1790097497536868096,5.500868164062505,7.130181947277592,-5.356476578315546,-4.141033587014148
1790097497546868224,5.510868164062504,7.464387871342719,-5.689281985474587,-3.8875037781459487
1790097497556868096,5.520868164062505,7.593569282768972,-5.9121400842519405,-3.4414389122086018
1790097497566868224,5.530868164062505,6.933096425384328,-6.149615214960165,-3.002782870276376
1790097497576868096,5.540868164062505,6.388618995623294,-6.499083915771845,-2.637841217777546
1790097497586868224,5.550868164062505,6.617190606569706,-6.498738421788248,-2.868593241835038
1790097497596868096,5.560868164062505,7.213677493436819,-6.066237005235216,-3.0727215502898075
1790097497606868224,5.570868164062505,7.620998784421089,-5.805585861206055,-2.9309557924616296
1790097497616868096,5.580868164062505,7.744952120929218,-5.810038046886273,-2.936138229666658
1790097497626868224,5.590868164062504,7.948384185509754,-5.758652014717713,-3.2191618939435545
1790097497636868096,5.600868164062505,8.241868729270221,-5.7034591873446265,-3.633239346934209
1790097497646868224,5.610868164062505,8.471367608302812,-5.958736258788627,-3.905024535915562
1790097497656868096,5.620868164062505,9.156518895022241,-6.4646061292256505,-4.233024412577612
1790097497666868224,5.630868164062505,9.943615191390851,-6.892809028699778,-4.533021146979519
1790097497676868096,5.640868164062505,9.701554656405122,-7.12179732978628,-4.555467400437873
1790097497686868224,5.650868164062505,8.70190334740027,-7.248202300936496,-4.405777327693112
1790097497696868096,5.660868164062505,8.035496188162238,-7.147089082019079,-4.303804007401922
1790097497706868224,5.6708681640625045,8.673769572421373,-6.458254477059638,-4.86245286130265
1790097497716868096,5.680868164062505,8.921484681986309,-5.921295348592327,-5.191716466103701
1790097497726868224,5.690868164062505,8.501929469103517,-6.338534314769609,-4.960338524056617
1790097497736868096,5.700868164062505,8.79845859232342,-7.7119602481094045,-4.913085909483564
1790097497746868224,5.710868164062505,9.577073018219318,-8.756172340097283,-5.150790934519438
1790097497756868096,5.720868164062505,9.33897592339397,-8.51815222816758,-5.246198567555475
1790097497766868224,5.730868164062505,8.328217843829506,-7.9262176931914725,-4.621017474453915
1790097497776868096,5.740868164062505,6.934803166915873,-6.771484413997364,-3.5975335912346167
1790097497786868224,5.750868164062505,6.0290528514225095,-5.239059875357023,-3.0998619658960487
1790097497796868096,5.760868164062505,6.202102635735252,-5.05367719462236,-3.1993457811186508
1790097497806868224,5.770868164062505,6.696538979969059,-5.6314759397258936,-2.7850836373517995
1790097497816868096,5.780868164062505,7.762195730840006,-5.963282564822902,-2.5150610036739884
1790097497826868224,5.7908681640625055,8.751596936623816,-6.0256410129564575,-3.090975616124542
1790097497836868096,5.800868164062505,8.771481649171301,-6.3131446454934865,-3.674213984445188
1790097497846868224,5.810868164062505,8.345208970499556,-6.405698553292828,-3.970768402327029
1790097497856868096,5.820868164062505,8.220647681247973,-5.727123109918729,-4.692591051247709
1790097497866868224,5.830868164062505,7.669070274100704,-5.19441855447878,-5.152384237922073
1790097497876868096,5.840868164062505,7.165287752915762,-5.104253823566115,-4.7182014644667305
1790097497886868224,5.850868164062505,7.650352064991807,-4.923075486450117,-4.2072241145711375
1790097497896868096,5.860868164062505,8.77464953193655,-4.5661937472271825,-4.207144818920753
1790097497906868224,5.870868164062506,9.160379801122605,-4.336450815709628,-4.628083575344823
1790097497916868096,5.880868164062505,8.319093733921054,-4.645974541897441,-4.530775135060616
1790097497926868224,5.890868164062505,7.567096060139721,-4.674806026795369,-4.797984378300799
1790097497936868096,5.900868164062505,7.186574649703994,-4.302490903778147,-5.449902362507752
1790097497946868224,5.910868164062505,6.83865676694261,-4.163875945497164,-5.514546623211422
1790097497956868096,5.920868164062505,7.75299342679331,-4.249152785162301,-4.830554277978936
1790097497966868224,5.930868164062505,9.98803027306329,-3.8265257021229004,-4.26294483857995
1790097497976868096,5.940868164062505,11.954163648598792,-3.3305003525618915,-4.509679046092045
1790097497986868224,5.950868164062506,12.332961730836475,-3.400086044453866,-4.879246431190235
1790097497996868096,5.960868164062505,11.030765927714604,-3.6066783687743516,-4.707736312655643
1790097498006868224,5.970868164062505,9.378718041747755,-3.2554445333937143,-4.933846128964457
1790097498016868096,5.980868164062505,7.275454149658943,-2.68943031802089,-5.134901649860174
1790097498026868224,5.990868164062505,6.274059346714902,-2.409603515025164,-5.120960342657393
1790097498036868096,6.0008681640625054,7.292191982851268,-1.723590029517319,-4.809234035968003
1790097498046868224,6.010868164062505,8.30376519210295,-1.3813453999391108,-4.194774744641745
1790097498056868096,6.020868164062505,9.076990694507435,-1.605458866492647,-3.5553470032490746
1790097498066868224,6.030868164062506,9.969690586157824,-1.501508888061049,-2.8980042050835357
1790097498076868096,6.0408681640625055,10.81622360688376,-0.9583257588986832,-2.797334779366311
1790097498086868224,6.050868164062505,10.117759807223981,-1.2194357267267475,-3.068774753946426
1790097498096868096,6.060868164062505,8.462616860398231,-2.295047668532325,-3.292522309344214
1790097498106868224,6.070868164062505,7.186570963757019,-2.8144303427980946,-3.034553430536045
1790097498116868096,6.0808681640625055,6.246432287892258,-2.310247688450785,-2.7750349746433485
1790097498126868224,6.090868164062505,6.220775711565855,-1.8560858240179594,-2.727796868734117
1790097498136868096,6.100868164062505,5.471691502606528,-1.6370521122928086,-2.229873305979065
1790097498146868224,6.110868164062506,5.012157956547747,-1.1282272260476434,-1.1737347919565884
1790097498156868096,6.120868164062506,5.286019429632556,-0.16782757989768995,-0.391519156941896
1790097498166868224,6.130868164062505,6.220932893215515,0.5154022561078909,-0.1437909578127394
1790097498176868096,6.140868164062505,6.219263029355906,0.9209553546737004,0.0981879831957188
1790097498186868224,6.150868164062505,6.816051681993468,1.2856006698041438,0.19298697640853474
1790097498196868096,6.160868164062506,7.786754102646295,1.2608804031803638,-0.268209121659727
1790097498206868224,6.170868164062505,7.88394817691965,0.8627279463548816,-1.0226856924431926
1790097498216868096,6.180868164062505,6.697631470847386,1.0284281402520148,-1.153192726608465
1790097498226868224,6.190868164062506,5.704107557983999,1.4337021654601914,-1.0181099652954388
1790097498236868096,6.200868164062506,5.471100116517213,1.4278913251011884,-0.9494012608044362
1790097498246868224,6.210868164062505,5.60707656336586,1.1729015429247136,-0.6300328023033543
1790097498256868096,6.220868164062505,5.746669867740354,1.0278147479288555,-0.5771632481124589
1790097498266868224,6.230868164062505,7.6701684631598255,0.7406537426319149,-0.3287673174282746
1790097498276868096,6.240868164062506,8.27830704525968,0.7446524131854495,-0.7556049364345513
1790097498286868224,6.2508681640625054,7.757933313108423,0.7263327881892048,-1.5369664740396352
1790097498296868096,6.260868164062505,6.503548898182533,0.46626630766611266,-2.071623087485487
1790097498306868224,6.270868164062506,5.676979180321554,0.38668789979395823,-2.305670633464179
1790097498316868096,6.280868164062506,6.47447406106231,0.3163707769440717,-2.12856897300555
1790097498326868224,6.2908681640625055,8.614886881561873,-0.007704704646642725,-1.9508898284334484
1790097498336868096,6.300868164062505,10.179593784433012,-0.3314005868967403,-1.8215848296323807
1790097498346868224,6.310868164062505,10.355050173941953,-0.3290015289634573,-2.1167823536039982
1790097498356868096,6.320868164062506,9.463500571384088,-0.24805049977531732,-2.5734372245154047
1790097498366868224,6.3308681640625055,8.40748966187965,-0.34864687989267706,-3.1126095550519457
1790097498376868096,6.340868164062505,8.59617473320691,-0.7114604762994526,-3.6809688433652696
1790097498386868224,6.350868164062506,9.408807059365687,-1.258510222034095,-4.306323161332718
1790097498396868096,6.360868164062506,9.652166790937468,-2.038079700136993,-4.929717699752918
1790097498406868224,6.370868164062506,8.95211234888204,-2.9922626365409846,-5.051789403974597
1790097498416868096,6.380868164062505,8.985294362942033,-3.810009178143038,-4.8343624359868045
1790097498426868224,6.390868164062505,9.95819849424471,-4.422806784773419,-4.792791792889351
1790097498436868096,6.400868164062506,9.74983439371342,-4.66087200839293,-4.9655251494344625
1790097498446868224,6.410868164062506,7.832415106394071,-4.640769511009572,-4.764356732525809
1790097498456868096,6.420868164062505,7.410787029908611,-4.639416544091519,-4.482200908043061
1790097498466868224,6.430868164062506,8.50571552552945,-4.494074971733509,-4.267659239384549
1790097498476868096,6.440868164062506,8.776721689984408,-4.089423794721423,-4.048857735506525
1790097498486868224,6.450868164062506,7.479814192012895,-3.673768036204837,-3.9139015345066603
1790097498496868096,6.460868164062505,6.667465980564183,-3.592867936511506,-3.850423954579497
1790097498506868224,6.470868164062505,6.577240627400559,-3.8802147807399394,-3.753985950438436
1790097498516868096,6.480868164062506,6.095595211129997,-4.253947312164916,-3.5089609312268006
1790097498526868224,6.490868164062506,5.984528428955713,-4.496461873561037,-3.3479704819999982
1790097498536868096,6.5008681640625054,6.994795803752679,-4.684827442169192,-3.508547364689599
1790097498546868224,6.510868164062506,7.542907215944009,-4.6650627862758,-3.406347706837674
1790097498556868096,6.520868164062506,6.92301314299705,-4.638088174411157,-3.1605928039238664
1790097498566868224,6.530868164062506,6.731318039647236,-4.642274816814489,-3.3767759709163276
1790097498576868096,6.5408681640625055,7.592540434910155,-4.906543566863945,-3.763081641559461
1790097498586868224,6.550868164062505,7.649860143488338,-5.564176369924392,-3.801085488536767
1790097498596868096,6.560868164062506,6.448709819579189,-6.191551188101675,-3.9349380168875006
1790097498606868224,6.570868164062506,6.203225863794567,-6.323864268475921,-4.4215542083394865
1790097498616868096,6.5808681640625055,6.737756190734267,-6.217186670828774,-4.420900748939082
1790097498626868224,6.590868164062506,7.363931827063777,-6.207879066467285,-3.9744594730055534
1790097498636868096,6.600868164062506,8.063785241239655,-6.298062821706493,-4.055128759073361
1790097498646868224,6.610868164062506,9.264447404155096,-6.446360883524855,-4.580169957485043
1790097498656868096,6.620868164062506,9.741878895759566,-7.152236782096873,-4.781306529601133
1790097498666868224,6.630868164062505,9.7930518790932,-8.348272379864538,-5.10861397289884
1790097498676868096,6.640868164062506,10.1113944797424,-9.428753766423199,-5.73777680286998
1790097498686868224,6.650868164062506,9.978309994944544,-9.80244982599268,-5.919791028491978
1790097498696868096,6.660868164062506,9.09873920895229,-9.572510289898597,-5.382181306947318
1790097498706868224,6.670868164062506,8.568656200343492,-9.160128434782932,-5.080068413783518
1790097498716868096,6.680868164062506,8.270868508531402,-8.211288333123605,-5.17501989688283
1790097498726868224,6.690868164062506,7.6972338570457355,-6.850047437983347,-4.684220801115755
1790097498736868096,6.700868164062506,7.48133306800753,-6.013130320741943,-3.905739172413358
1790097498746868224,6.710868164062505,8.11945607165646,-5.764659212203785,-3.7741917176012665
1790097498756868096,6.720868164062506,8.764375143916212,-6.047277304842321,-3.7277053167782226
1790097498766868224,6.730868164062506,9.022305954936021,-6.81090758310801,-3.5650133411826586
1790097498776868096,6.740868164062506,9.403930890874118,-7.672392212983653,-3.8286848704984355
1790097498786868224,6.750868164062506,9.591847805161395,-7.710241767408728,-4.26285396832892
1790097498796868096,6.760868164062506,8.812656296930296,-7.106190194373904,-3.931250039159581
1790097498806868224,6.770868164062506,8.231061855903189,-5.949945109410459,-3.2702502816303722
1790097498816868096,6.780868164062506,7.945193548773103,-4.872207032220311,-3.0764818928367808
1790097498826868224,6.7908681640625055,7.553907723684445,-4.121595144441269,-3.2609243955623324
1790097498836868096,6.800868164062506,6.458467662536573,-3.9782770892765176,-2.895064851004168
1790097498846868224,6.810868164062506,5.613128318251904,-4.268288906374337,-2.465195121978791
1790097498856868096,6.820868164062506,6.101058870557171,-4.47159573310746,-2.6285815536159447
1790097498866868224,6.830868164062506,6.348008550256352,-4.996486958311678,-2.7936948480784674
1790097498876868096,6.840868164062506,6.675037109112158,-5.9576855588956565,-3.01307103465076
1790097498886868224,6.850868164062506,7.681040480788733,-6.331657980566759,-3.463247794574316
1790097498896868096,6.860868164062506,8.633224337452239,-6.053014207392816,-3.7224353266605794
1790097498906868224,6.870868164062506,8.76397381424331,-6.466039464263913,-3.6130745544347467
1790097498916868096,6.880868164062506,8.734603717390542,-6.721719499450725,-3.7127972720983675
1790097498926868224,6.890868164062506,9.318499594622368,-6.168190396647452,-4.542701897079869
1790097498936868096,6.900868164062506,9.888092900757082,-5.523086687326584,-5.379622300436666
1790097498946868224,6.9108681640625065,9.839991493684606,-5.515345346881134,-5.496820978953305
1790097498956868096,6.920868164062506,9.311948262045224,-5.797410543441408,-5.331805109788623
1790097498966868224,6.930868164062506,8.863698432181154,-6.2166920555315395,-5.347878502401575
1790097498976868096,6.940868164062506,8.140334389313617,-6.475860644645673,-5.295371585916129
1790097498986868224,6.950868164062506,7.378716609317052,-6.2275355538676935,-5.136539884947648
1790097498996868096,6.960868164062506,6.808486825517712,-5.792856098777635,-4.858857586198323
1790097499006868224,6.970868164062506,6.511472487188882,-5.510494605474808,-4.72671859312916
1790097499016868096,6.980868164062506,7.590615460095236,-5.2725899562933085,-5.227028064036385
1790097499026868224,6.9908681640625066,9.339087429146586,-5.1686320470898375,-5.900445330625177
1790097499036868096,7.000868164062506,10.493140050715263,-5.725633903419904,-5.742988593528593
1790097499046868224,7.010868164062506,10.813936822213472,-6.588149269190585,-5.739613564260714
1790097499056868096,7.020868164062506,10.168351909415057,-7.005058335552437,-5.827883201808104
1790097499066868224,7.030868164062506,8.813026694367892,-6.737072466898654,-6.300074650545898
1790097499076868096,7.040868164062506,7.212370369354459,-6.344741153556849,-5.773516088242462
1790097499086868224,7.050868164062506,6.582476002971216,-5.908009283949399,-4.993799089216099
1790097499096868096,7.060868164062506,7.056541950180232,-5.252915736512624,-4.171257490114963
1790097499106868224,7.070868164062507,7.617067680651679,-4.765013996280273,-3.7334786039606516
1790097499116868096,7.080868164062506,7.914628900842778,-4.592212128128086,-3.4628172358468277
1790097499126868224,7.090868164062506,8.124685106536338,-4.352469100853102,-3.4470249460952562
1790097499136868096,7.100868164062506,8.24914998122176,-3.817161080859597,-3.9901909725977025
1790097499146868224,7.110868164062506,8.100797006563697,-3.2037464544607976,-4.779283006078149
1790097499156868096,7.1208681640625064,8.018275648547839,-3.0715333384850267,-5.1468130296277
1790097499166868224,7.130868164062506,8.403382480090507,-2.64537592764033,-5.179839911747149
1790097499176868096,7.140868164062506,8.962859274583709,-2.3035538516997054,-5.118930510891426
1790097499186868224,7.150868164062507,8.777509046813893,-2.288619610566573,-4.8784495249492155
1790097499196868096,7.1608681640625065,7.879807103300846,-2.623865862366761,-4.5758287459989555
1790097499206868224,7.170868164062506,6.747753762621708,-3.0389374138367526,-4.1131344055672265
1790097499216868096,7.180868164062506,6.266349716810634,-2.97187226046064,-3.5249140026918524
1790097499226868224,7.190868164062506,7.029357876732206,-2.242639961955117,-2.6105627844665467
1790097499236868096,7.2008681640625065,8.867328395426272,-1.1130379094772194,-2.4480008456229307
1790097499246868224,7.210868164062506,10.017473423796984,-0.6387416869227126,-2.6259209382477744
1790097499256868096,7.220868164062506,9.174403285949925,-0.9290210988106157,-2.191318227352335
1790097499266868224,7.230868164062507,7.239551716359367,-0.8243150131360591,-1.8415965811090145
1790097499276868096,7.2408681640625066,6.39835814018464,-0.05652572363339135,-1.7928652937038443
1790097499286868224,7.250868164062506,6.035822502854321,0.18411686596395654,-1.459819670001291
1790097499296868096,7.260868164062506,6.397246574253171,0.3999624780696382,-0.9532363115646836
1790097499306868224,7.270868164062506,6.7919561416058105,0.6859470978238834,-0.6744996039363629
1790097499316868096,7.280868164062507,6.646284293786447,0.868768432818622,-0.8550139930259151
1790097499326868224,7.290868164062506,7.564602067589591,1.242588229601588,-1.0098359663458145
1790097499336868096,7.300868164062506,7.877625856319414,1.2787950958689112,-1.1164759711313081
1790097499346868224,7.310868164062507,6.954005422959513,0.8329150617990579,-1.5014315146437958
1790097499356868096,7.320868164062507,4.92922719462134,0.5217329988769868,-1.825901888681265
1790097499366868224,7.330868164062506,4.540613107830411,0.5039113672767578,-1.7797619506153202
1790097499376868096,7.340868164062506,6.3502970414682185,0.40132069724796726,-1.513609355368747
1790097499386868224,7.350868164062506,7.815398932003781,0.3327759106770603,-1.7268190900327944
1790097499396868096,7.360868164062507,8.196684702443763,0.63891122040056,-1.7541931613582071
1790097499406868224,7.3708681640625064,8.39161689355507,0.8938128423585896,-1.4305995105152827
1790097499416868096,7.380868164062506,7.472279843337486,1.4176298949497044,-1.5444286714235662
1790097499426868224,7.390868164062507,7.253974992151909,1.6388823031691127,-2.172109908377171
1790097499436868096,7.400868164062507,6.656045169997224,1.2156684099088064,-2.659149343085699
1790097499446868224,7.4108681640625065,6.324852089066814,0.6836671732555548,-2.151046339464403
1790097499456868096,7.420868164062506,8.118973418420563,0.2381072366976547,-1.6555150257613185
1790097499466868224,7.430868164062506,11.095207097621605,-0.003974462019737529,-1.9467809366778082
1790097499476868096,7.440868164062507,11.024685259571463,-0.1588567396108383,-2.6682390237748663
1790097499486868224,7.4508681640625065,8.654767930544544,-0.2517968941779427,-3.247447654826434
1790097499496868096,7.460868164062506,6.115597349335738,-0.578636670094344,-3.733262976272427
1790097499506868224,7.470868164062507,4.999509353821966,-1.2356964541654913,-3.7986838396606872
1790097499516868096,7.480868164062507,6.036168194210835,-1.834644336518126,-3.5404605820449984
1790097499526868224,7.4908681640625066,7.250380458242634,-2.2515620368084726,-3.22255154089192
1790097499536868096,7.500868164062506,6.960104578613064,-2.5010343190781237,-2.7400575506292744
1790097499546868224,7.510868164062506,6.904248372912498,-2.5809816581492613,-2.311133979555587
1790097499556868096,7.520868164062507,7.757269570657805,-2.4759690374926113,-1.9100846359411812
1790097499566868224,7.530868164062507,8.372352752067485,-2.220033509539721,-2.0298209297009917
1790097499576868096,7.540868164062506,7.454763644166893,-2.0725391711203573,-2.2761272909556576
1790097499586868224,7.550868164062507,6.170211101658227,-2.0076333807434406,-2.537965573843687
1790097499596868096,7.560868164062507,6.230166818345106,-2.133082877811219,-2.7183489451270044
1790097499606868224,7.570868164062507,7.518738219555184,-2.3782248200169316,-2.8254803535015456
1790097499616868096,7.580868164062506,9.143777782808481,-2.637111093172856,-3.0385597645350777
1790097499626868224,7.590868164062506,9.972446079659013,-2.721280661195272,-3.7556084749763508
1790097499636868096,7.600868164062507,9.32501734184059,-2.6638785828851987,-5.063316231370893
1790097499646868224,7.610868164062507,7.750998740713918,-2.9750850729995024,-6.438587287177329
1790097499656868096,7.6208681640625064,7.403143949282962,-3.836327593683335,-6.784045480383555
1790097499666868224,7.630868164062507,8.608097874629252,-4.658880848535694,-6.50719871511335
1790097499676868096,7.640868164062507,9.78731657851004,-5.477167550690376,-5.820394538115454
1790097499686868224,7.650868164062507,10.55570387445643,-6.231327001259832,-5.179441716181939
1790097499696868096,7.6608681640625065,11.312344479560862,-6.648569510588758,-5.723249866370357
1790097499706868224,7.670868164062506,11.242616425084666,-7.258147963446579,-6.947461196497772
1790097499716868096,7.680868164062507,10.240231099498722,-8.44825621649459,-7.488351607643988
1790097499726868224,7.690868164062507,9.335408144935311,-9.138539564300427,-7.419122190721883
1790097499736868096,7.7008681640625065,8.130594908723872,-8.500459695082622,-6.341881923814008
1790097499746868224,7.710868164062507,6.935541112459517,-7.234017363581991,-5.082224654854052
1790097499756868096,7.720868164062507,6.7496118012135184,-6.031457740164427,-4.1660137791564695
1790097499766868224,7.730868164062507,7.823646499704127,-4.8985083681306865,-3.897791589819757
1790097499776868096,7.7408681640625066,8.561955597610503,-4.180627652153198,-3.758081670746038
1790097499786868224,7.750868164062506,7.532456232582432,-4.127167647406711,-3.4610896543431933
1790097499796868096,7.760868164062507,6.551159686082782,-4.310248998492513,-3.4951050205370158
1790097499806868224,7.770868164062507,6.807274603992378,-4.597460520848336,-3.7194558918662977
1790097499816868096,7.780868164062507,7.337769398853023,-4.983929906551706,-3.6509658223200776
1790097499826868224,7.790868164062507,7.379484605642122,-5.390704536700158,-3.357356171469267
1790097499836868096,7.800868164062507,7.141335045214632,-5.50727650222557,-3.2300087415296246
1790097499846868224,7.810868164062507,6.993348502346795,-5.3402163881587095,-3.6567051978682996
1790097499856868096,7.820868164062507,7.125169300279039,-5.013255867679257,-4.0318413828789685
1790097499866868224,7.830868164062506,7.405304328187676,-5.016629220797061,-4.277608038573044
1790097499876868096,7.840868164062507,7.815402020642255,-5.205486828217262,-4.307600812014454
1790097499886868224,7.850868164062507,7.456204410661231,-5.389041611673892,-4.333900332466264
1790097499896868096,7.860868164062507,6.545049933744053,-5.164223755023327,-4.231402659873121
1790097499906868224,7.870868164062507,5.361298179761419,-4.7258801216903406,-3.8609367151699594
1790097499916868096,7.880868164062507,4.603057239516567,-4.469439526320202,-3.4136461962573557
1790097499926868224,7.890868164062507,5.617296278205044,-4.5652255342433765,-4.168794977681942
1790097499936868096,7.900868164062507,8.473965666457104,-4.904063982939127,-5.313005218370283
1790097499946868224,7.9108681640625065,11.348716396011014,-5.957451066781429,-4.887943055696183
1790097499956868096,7.920868164062507,12.51080203871677,-8.933470374070598,-4.442144571808431
1790097499966868224,7.930868164062507,12.012288635134642,-13.95219772690087,-5.524664096635737
1790097499976868096,7.940868164062507,11.711333899045634,-15.544440642569636,-6.539385299115898
1790097499986868224,7.950868164062507,10.561483635481279,-12.96292739897567,-5.812729584144539
1790097499996868096,7.960868164062507,8.173945862257865,-9.025180503005444,-5.297183609154303
1790097500006868224,7.970868164062507,5.653115954700787,-5.965793275901422,-4.309959111035377
1790097500016868096,7.980868164062507,4.021954494808531,-4.550535479589668,-3.236713391956478
1790097500026868224,7.9908681640625066,2.9785610716605153,-4.210590449451904,-2.097488837360426
1790097500036868096,8.000868164062506,3.655465280574358,-4.0560217869069985,-1.9042931012345397
1790097500046868224,8.010868164062506,5.124986220172544,-3.901114196802176,-2.2461878741222048
1790097500056868096,8.020868164062506,5.876224846773667,-4.154681683698662,-2.621820861679204
1790097500066868224,8.030868164062507,6.31349558584611,-4.519085653513798,-3.1353517921139695
1790097500076868096,8.040868164062507,7.107847213251747,-4.742742647566117,-4.004323464194714
1790097500086868224,8.050868164062507,8.417201477901761,-4.917296215734406,-5.175678637905669
1790097500096868096,8.060868164062507,10.204713457731431,-5.041331056090926,-6.324220807145301
1790097500106868224,8.070868164062507,11.837791687306304,-5.14933785917381,-7.018459632491989
1790097500116868096,8.080868164062506,11.95922976755668,-5.568775412604455,-6.930477479133848
1790097500126868224,8.090868164062506,10.157459183923768,-6.337259920743321,-6.337790693964608
1790097500136868096,8.100868164062506,8.067876552972862,-6.545731349836408,-5.816102463915721
1790097500146868224,8.110868164062508,6.347645742533635,-6.004824876290568,-5.377727618550657
1790097500156868096,8.120868164062507,4.205036142723598,-5.51595541413022,-4.135294200131415
1790097500166868224,8.130868164062507,3.084096324631283,-4.955852653556094,-2.6526077455471273
1790097500176868096,8.140868164062507,5.475859807348634,-3.459751940581619,-3.420558495096044
1790097500186868224,8.150868164062507,10.916387142186373,-2.5614382926060872,-5.211921718244994
1790097500196868096,8.160868164062506,16.667457891262718,-3.6421474371000877,-7.423325051669863
1790097500206868224,8.170868164062506,19.806127435409593,-6.176566134390059,-8.64822925983528
1790097500216868096,8.180868164062508,17.87132417004021,-8.441230121721047,-8.357054435331074
1790097500226868224,8.190868164062508,13.888519329774617,-8.03794069707141,-10.016174658535041
1790097500236868096,8.200868164062507,10.933414458508876,-7.5439090522836265,-10.236281445184293
1790097500246868224,8.210868164062507,7.0948269957029115,-7.412618381224064,-8.02954763277896
1790097500256868096,8.220868164062507,4.8285508067494805,-6.335807108692486,-5.634741733913192
1790097500266868224,8.230868164062507,4.938775176801686,-4.710165334541909,-4.396493368810783
1790097500276868096,8.240868164062507,5.193699968808968,-3.9422585881374395,-3.554217683932166
1790097500286868224,8.250868164062508,5.124641195528579,-4.12582343004919,-2.7673447903897785
1790097500296868096,8.260868164062508,5.455354499063813,-4.5509275880258375,-2.2217882975701104
1790097500306868224,8.270868164062508,5.542833704283872,-4.68518406833222,-2.2093509915660485
1790097500316868096,8.280868164062507,5.107579373012225,-4.680661599008104,-2.206335869710254
1790097500326868224,8.290868164062507,5.527711794156403,-4.067370393158861,-1.9822563273475913
1790097500336868096,8.300868164062507,7.300481545488246,-2.5870697877794013,-2.0340749861024205
1790097500346868224,8.310868164062507,8.506332770916757,-0.883225780274022,-1.9633384476312559
1790097500356868096,8.320868164062507,9.261341574341206,0.6638724254045767,-1.9937924583183222
1790097500366868224,8.330868164062506,10.467793839162875,2.460596791116899,-3.1746079542116643
1790097500376868096,8.340868164062508,9.776588456146271,2.427647377246658,-4.714524018419673
1790097500386868224,8.350868164062508,7.8733734618066435,0.7233448169691474,-5.067004717693221
1790097500396868096,8.360868164062508,7.202588240972419,-0.2737051607818902,-4.660082182455281
1790097500406868224,8.370868164062507,6.669694338091123,-0.9681157020913778,-3.7731418293243264
1790097500416868096,8.380868164062507,5.597632990191452,-1.2572557467126593,-2.606347182648447
1790097500426868224,8.390868164062507,4.976356735291742,-0.18239453153806706,-1.5645822846640136
1790097500436868096,8.400868164062507,5.948929610179458,1.1324972816071488,-1.829664648169787
1790097500446868224,8.410868164062508,6.972635822778222,0.9729337901919772,-2.3701625034290967
1790097500456868096,8.420868164062508,5.790112739503154,0.3296337498348072,-1.5998870095555413
1790097500466868224,8.430868164062508,4.43166508215001,0.9945677351775419,-0.5507290653761379
1790097500476868096,8.440868164062508,4.39756492615904,1.587591928672094,-0.248220068538679
1790097500486868224,8.450868164062507,6.278227558712398,1.6414978948887764,-0.5175916574318505
1790097500496868096,8.460868164062507,6.982587667800396,1.2420814406426577,-0.04087485321079398
1790097500506868224,8.470868164062507,7.979855014438596,1.0550742104725574,-0.16983120001401003
1790097500516868096,8.480868164062507,8.880902163852705,0.4983764223455915,-0.786392989585499
1790097500526868224,8.490868164062507,8.24306558471199,0.38813481075544265,-1.9911377141276176
1790097500536868096,8.500868164062508,6.89013398728817,0.5185722378962584,-2.488609563878657
1790097500546868224,8.510868164062508,6.695133377957969,0.4502773787657145,-3.1524337232280235
1790097500556868096,8.520868164062508,6.74528131981035,-0.2879637273219816,-3.620650880108491
1790097500566868224,8.530868164062507,6.343471765437719,-0.7486478168680653,-3.2620919998037246
1790097500576868096,8.540868164062507,7.704524452923927,-0.629381782583811,-2.384926341351286
1790097500586868224,8.550868164062507,10.891797728399263,-0.5750339486921303,-1.7986892883136993
1790097500596868096,8.560868164062507,10.708713444920358,-0.5398357310071547,-2.086415981134998
1790097500606868224,8.570868164062508,7.537175817000447,-0.17563793680766132,-2.290634219490316
1790097500616868096,8.580868164062508,5.831208194080961,0.1856753144790952,-2.506126893029923
1790097500626868224,8.590868164062508,5.581333531097928,-0.015552477390679498,-2.9395550737236253
1790097500636868096,8.600868164062508,5.350412385797046,-0.42834914508139044,-3.176672061552161
1790097500646868224,8.610868164062508,5.299176281238021,-0.7533047044267976,-2.859064548016068
1790097500656868096,8.620868164062507,5.931631421577746,-1.0514569909385816,-2.2218300287361292
1790097500666868224,8.630868164062507,6.952247916503971,-1.2187755219183831,-1.7558569768793997
1790097500676868096,8.640868164062507,7.445767945403125,-1.1069836664384192,-1.8269830896542625
1790097500686868224,8.650868164062507,7.226345327468313,-1.0050120526676911,-2.249342292874783
1790097500696868096,8.660868164062508,6.510148462609477,-1.231204683438461,-2.5587518276573573
1790097500706868224,8.670868164062508,5.975633354743302,-1.708640455310792,-2.7453142951932357
1790097500716868096,8.680868164062508,6.808450161448715,-2.46430594957621,-2.932440816577963
1790097500726868224,8.690868164062508,8.623584057105669,-3.218731519469262,-3.2472369388793565
1790097500736868096,8.700868164062507,9.424413443055899,-3.777779619088816,-4.0881613689885015
1790097500746868224,8.710868164062507,8.457964619879915,-4.238428037181285,-5.200276621197844
1790097500756868096,8.720868164062507,8.410380866824259,-4.7004946012987725,-6.529842423774753
1790097500766868224,8.730868164062509,10.97597374758237,-5.3211428251173265,-7.783194928343041
1790097500776868096,8.740868164062508,13.583948580479996,-5.9054928975376235,-8.658498572147618
1790097500786868224,8.750868164062508,13.055897497319485,-6.384533116541225,-9.43702392232803
1790097500796868096,8.760868164062508,10.622081716023489,-6.965266355325601,-9.890746593352066
1790097500806868224,8.770868164062508,9.929367079437906,-7.453402744618779,-9.082978335337897
1790097500816868096,8.780868164062507,10.23645528118049,-7.654880216648566,-7.986872891755698
1790097500826868224,8.790868164062507,9.755324201464074,-7.537232714617543,-6.953532626802831
1790097500836868096,8.800868164062507,8.612395488519923,-7.185605383547798,-6.0720518963647825
1790097500846868224,8.810868164062507,7.681398788957675,-6.629063804601381,-4.926963649355447
1790097500856868096,8.820868164062508,6.804634155323237,-6.3351098284416985,-3.958752867303973
1790097500866868224,8.830868164062508,6.304112959944418,-6.06550854767657,-3.1944988972377084
1790097500876868096,8.840868164062508,6.302446444487793,-5.612287095491741,-2.7962032124004765
1790097500886868224,8.850868164062508,6.42670894348528,-5.023268994395255,-2.570498167973979
1790097500896868096,8.860868164062508,5.949459729416582,-4.611450889443883,-2.1923239500410414
1790097500906868224,8.870868164062507,5.57033107169609,-4.2692015341580865,-2.2744573429922825
1790097500916868096,8.880868164062507,5.913190446938241,-3.706098816332529,-2.7486236616679416
1790097500926868224,8.890868164062509,6.438867560273386,-3.1520426956091785,-3.0334638627600277
1790097500936868096,8.900868164062508,6.2858061154161105,-3.0357199470656746,-2.956359849766956
1790097500946868224,8.910868164062508,6.404323834261522,-2.9437614944251207,-3.2800493304969733
1790097500956868096,8.920868164062508,6.662711802542039,-2.7871697454006696,-4.079495570234146
1790097500966868224,8.930868164062508,7.0541917930193385,-2.728304446748759,-5.055547885878804
1790097500976868096,8.940868164062508,8.288125313154755,-3.2937739921453,-6.0701926520134135
1790097500986868224,8.950868164062507,8.94180200507632,-4.4612325961483705,-6.39137799824843
1790097500996868096,8.960868164062507,9.272114630190588,-6.304508359116698,-6.936999519460564
1790097501006868224,8.970868164062507,10.238670234992986,-7.965841182307341,-7.486622701951481
1790097501016868096,8.980868164062509,11.279404722747806,-8.836930785663375,-8.179032228081716
1790097501026868224,8.990868164062508,12.4922194686539,-9.587769916146252,-8.75491155080973
1790097501036868096,9.000868164062508,12.874867411026232,-11.090706522577282,-8.387594976741504
1790097501046868224,9.010868164062508,11.429052325146664,-11.66706964337094,-6.385135557019901
1790097501056868096,9.020868164062508,9.410096859525883,-11.312040510644861,-5.128167295508174
1790097501066868224,9.030868164062507,7.705256323448749,-10.111818613273687,-4.366731988987313
1790097501076868096,9.040868164062507,6.885841363513233,-7.957737097095877,-3.9364056347560936
1790097501086868224,9.050868164062509,5.920666619099735,-5.923545297623737,-3.3658975032320493
1790097501096868096,9.060868164062509,4.907823523772127,-4.641611903919014,-2.6858407916389972
1790097501106868224,9.070868164062508,4.436314519094205,-3.996176742660828,-2.286146462618301
1790097501116868096,9.080868164062508,4.768692470721424,-3.76497850320498,-2.287935609928768
1790097501126868224,9.090868164062508,5.229742075877738,-3.9300841712104297,-2.4329628990166086
1790097501136868096,9.100868164062508,5.531098147871745,-4.334113184183082,-2.7177858425301102
1790097501146868224,9.110868164062508,5.905272326066213,-4.487193307500795,-3.599260128137355
1790097501156868096,9.120868164062507,6.25489270723259,-4.439459373912556,-4.462326291281184
1790097501166868224,9.130868164062507,6.2955569289508535,-4.66291411750699,-4.5332810956578315
1790097501176868096,9.140868164062509,6.183076134837515,-5.216066535450603,-4.192097818478715
1790097501186868224,9.150868164062508,6.688773669255559,-5.689195968799255,-4.315346531517993
1790097501196868096,9.160868164062508,7.64770735447481,-6.1412599429751165,-4.524758288788606
1790097501206868224,9.170868164062508,8.679704960567898,-6.444898190248867,-4.69275983974746
1790097501216868096,9.180868164062508,9.162555283191184,-6.485275612315052,-4.961064223144921
1790097501226868224,9.190868164062508,8.95951846764008,-6.062308990107901,-5.470447651505875
1790097501236868096,9.200868164062507,7.932071769380695,-5.765967875976253,-5.612378855854967
1790097501246868224,9.210868164062509,6.856087743563544,-5.448748491043167,-5.399028796896858
1790097501256868096,9.220868164062509,7.298316706612498,-4.69820695372402,-5.774973598859892
1790097501266868224,9.230868164062509,9.23813060918429,-3.9172217270636107,-6.713099625687215
1790097501276868096,9.240868164062508,11.582971078227144,-3.8043167929210613,-7.74351549199271
1790097501286868224,9.250868164062508,12.816382974540462,-4.748329624278735,-8.196916707785004
1790097501296868096,9.260868164062508,11.792026935401523,-6.4576124600948,-8.014348146257312
1790097501306868224,9.270868164062508,9.676251924889058,-7.335291053989113,-8.007454527524354
1790097501316868096,9.280868164062507,8.624060193774486,-6.693359606901668,-8.162188401002922
1790097501326868224,9.290868164062507,8.25639780771928,-5.877803538259656,-7.37644031092772
1790097501336868096,9.300868164062509,8.288784550286545,-5.434526499713418,-6.311514442966795
1790097501346868224,9.310868164062509,8.72108405424567,-5.480559806725086,-5.264065560799534
1790097501356868096,9.320868164062508,9.256997924077373,-5.376052717375342,-4.913407381888855
1790097501366868224,9.330868164062508,8.919420909814372,-4.976394981736107,-5.075282155341966
1790097501376868096,9.340868164062508,7.690082897449155,-4.65066658053762,-5.209619383454186
1790097501386868224,9.350868164062508,6.174060713738954,-4.6199775300154835,-5.014343227381199
1790097501396868096,9.360868164062508,5.107442893445742,-4.466621502737294,-4.574110420654145
1790097501406868224,9.370868164062509,5.079981295085489,-4.186868706292336,-4.309997597185418
1790097501416868096,9.380868164062509,6.0555342836997506,-3.5804966443487163,-3.7017985665555098
1790097501426868224,9.390868164062509,7.983569166118466,-2.29945671744245,-3.3274031788491
1790097501436868096,9.400868164062508,10.02612092347516,-0.6082956957193277,-3.836126021004226
1790097501446868224,9.410868164062508,10.768523269084671,0.22646193952170526,-4.635801742715891
1790097501456868096,9.420868164062508,9.632946530272298,-0.1783444353822609,-5.328155814429292
1790097501466868224,9.430868164062508,7.033076691386577,-1.571121348757848,-5.5222240405410234
1790097501476868096,9.440868164062508,5.077431519994651,-2.7107228901601967,-5.23793295443919
1790097501486868224,9.450868164062507,4.839796568766167,-2.8537325447773694,-4.0795686897682
1790097501496868096,9.460868164062509,5.174467207938151,-2.022240625594463,-2.5315171625530253
1790097501506868224,9.470868164062509,6.0605441132094855,-1.0252323231492917,-1.5097529295636072
1790097501516868096,9.480868164062509,7.261462962090148,-0.009361107953284487,-0.990436541490621
1790097501526868224,9.490868164062508,7.775182864304226,0.6881126096742469,-1.1725730485479815
1790097501536868096,9.500868164062508,7.73894302066942,0.6554867337549619,-2.067411575131948
1790097501546868224,9.510868164062508,6.911536559292033,0.26388895750481145,-2.6917295078604453
1790097501556868096,9.520868164062508,5.9209777580671545,0.15544408080165117,-2.2817761109133814
1790097501566868224,9.53086816406251,6.079936045401878,0.8643763684221792,-1.613186638826078
1790097501576868096,9.540868164062509,6.542975968153092,1.376777512678495,-1.87504644337225
1790097501586868224,9.550868164062509,7.923583706951486,1.217202980840523,-1.9300197068622573
1790097501596868096,9.560868164062509,7.4348897983862186,1.1914294076360616,-2.063591383562086
1790097501606868224,9.570868164062508,6.935381317125791,1.2170077705254672,-2.026374585721644
1790097501616868096,9.580868164062508,6.440729510363987,0.6786175091499309,-2.5091637542274845
1790097501626868224,9.590868164062508,5.967590155049296,0.38630645079892845,-2.5968545752079626
1790097501636868096,9.600868164062508,5.772134241764071,0.45339337803377217,-2.168151371583805
1790097501646868224,9.610868164062508,7.257614344513679,0.39544783715965537,-1.9030954281901737
1790097501656868096,9.620868164062509,8.31600397811245,0.16380883219801678,-2.058146993143291
1790097501666868224,9.630868164062509,7.821222921775305,0.3219657011078332,-2.105198237117666
1790097501676868096,9.640868164062509,6.075190486708609,0.8448190415837864,-2.2795925877628416
1790097501686868224,9.650868164062508,4.267802977818532,1.0470883698730113,-2.1995609924399036
1790097501696868096,9.660868164062508,3.7683007249202123,1.0575238648098833,-1.6034318691042082
1790097501706868224,9.670868164062508,5.0945150250193825,1.0170826453630462,-0.9792727562586944
1790097501716868096,9.680868164062508,7.4469859834798715,0.8473082926914243,-0.725785087921323
1790097501726868224,9.69086816406251,8.489197526095305,0.7032589709160608,-1.060129760295697
1790097501736868096,9.70086816406251,7.426872455679288,0.6017268103478546,-1.518860237526929
1790097501746868224,9.710868164062509,6.639260494352131,0.7561478991333148,-1.8522558742735729
1790097501756868096,9.720868164062509,8.088491449727824,0.45465606677959786,-2.4314465577251454
1790097501766868224,9.730868164062509,9.524262757885767,-0.2703652732086341,-3.593307150804203
1790097501776868096,9.740868164062508,8.952677160374224,-0.9054471608257415,-5.1021501145762524
1790097501786868224,9.750868164062508,6.2341716068124695,-1.5028700540478,-5.786184383945574
1790097501796868096,9.760868164062508,4.093981370342075,-2.088477975877868,-5.419653575514492
1790097501806868224,9.770868164062508,4.607764646380755,-2.8067466670388184,-4.829015426433225
1790097501816868096,9.78086816406251,7.579292909712457,-3.5096394905041843,-4.583405778455171
1790097501826868224,9.790868164062509,11.016378329976407,-3.832268311495673,-4.833451984583782
1790097501836868096,9.800868164062509,11.377535129647619,-3.758908308144198,-5.538469642745082
1790097501846868224,9.810868164062509,8.73180517900885,-3.951344820518404,-6.199823354242862
1790097501856868096,9.820868164062508,8.5985891443047,-4.529994413422726,-6.577933370831027
1790097501866868224,9.830868164062508,11.473092092160435,-5.320309166488754,-6.917954941969192
1790097501876868096,9.840868164062508,12.363063589779003,-6.111979566668979,-7.282266961642521
1790097501886868224,9.85086816406251,10.736409822134373,-6.539879359037161,-7.785427901872645
1790097501896868096,9.86086816406251,8.876547475263585,-6.418576658946994,-8.415661541163157
1790097501906868224,9.870868164062509,7.797322135027201,-6.220508946154904,-8.332560436235342
1790097501916868096,9.880868164062509,6.651266457121789,-6.151720029875688,-6.712919725628869
1790097501926868224,9.890868164062509,5.184681726419676,-6.011765679294923,-5.384106519915718
1790097501936868096,9.900868164062508,4.481387359589701,-5.927303922151515,-3.8101718872062396
1790097501946868224,9.910868164062508,5.007451065550802,-5.730889443220449,-2.5110661971007433
1790097501956868096,9.920868164062508,6.270878155705869,-5.333626139055721,-1.839536627544186
1790097501966868224,9.930868164062508,6.634543907258772,-4.701832031190149,-1.6149214906086407
1790097501976868096,9.94086816406251,5.6166538613328445,-4.037227794007505,-1.5608160426241737
1790097501986868224,9.95086816406251,5.334845352717096,-3.463321860904667,-1.8951397732199686
1790097501996868096,9.960868164062509,7.089599717920052,-3.0456914533003756,-2.62196544472915
1790097502006868224,9.970868164062509,9.642239539539183,-2.966586043772999,-3.4306996932803493
1790097502016868096,9.980868164062509,10.817481490318507,-3.4558259013101544,-4.829711414879955
1790097502026868224,9.990868164062508,9.574209254193004,-4.733109930378716,-7.24224119505826
1790097502036868096,10.000868164062508,7.189410719350711,-6.740541178082386,-9.244750362481653
1790097502046868224,10.01086816406251,6.0626235313968255,-7.793759127151403,-9.114494388484301
1790097502056868096,10.02086816406251,5.91208350172012,-7.5413603549178845,-7.338770013888698
1790097502066868224,10.03086816406251,6.230234747280255,-6.560802640469045,-6.27054200626968
1790097502076868096,10.040868164062509,7.6030520633989545,-5.461287512395678,-5.624507446287184
1790097502086868224,10.050868164062509,8.737735953394829,-5.242332052637556,-4.1046253219607465
1790097502096868096,10.060868164062509,9.159977243199316,-5.638967253366452,-3.744024139085104
1790097502106868224,10.070868164062508,9.957900276382759,-6.7143978838366705,-4.728353108520616
1790097502116868096,10.080868164062508,11.200085276258609,-8.422614603710588,-5.945765705747062
1790097502126868224,10.090868164062508,12.030160478123475,-9.944805841231084,-7.511876619455417
1790097502136868096,10.10086816406251,11.416973869550315,-10.211511765901308,-7.948319578681303
1790097502146868224,10.11086816406251,10.417703656210735,-8.94154170238737,-6.8233625325502345
1790097502156868096,10.120868164062509,9.871311915803416,-6.984729325842757,-5.888868737036795
1790097502166868224,10.130868164062509,8.657177901069328,-5.61789359107726,-5.267536684118545
1790097502176868096,10.140868164062509,6.5490460392460275,-5.083249828351416,-4.4924740373536665
1790097502186868224,10.150868164062508,4.891076564194817,-4.963261554316572,-3.9618894236896605
1790097502196868096,10.160868164062508,4.735728963249283,-4.973116742366354,-3.916427749376893
1790097502206868224,10.17086816406251,4.7292379927758095,-5.252215573503898,-3.6164148866817643
1790097502216868096,10.18086816406251,4.395765491107288,-5.988758340135625,-3.171018888429732
1790097502226868224,10.19086816406251,4.765897050589523,-6.389577847553267,-3.1269902696029024
1790097502236868096,10.20086816406251,5.802686357544467,-6.123886508276238,-3.7326223729443275
1790097502246868224,10.210868164062509,6.468794434738092,-5.76374380266096,-4.3044940708835755
1790097502256868096,10.220868164062509,6.942725595786124,-5.565987880748378,-4.671547610241324
1790097502266868224,10.230868164062509,7.409147499138864,-5.168705680680044,-5.07447569963586
1790097502276868096,10.240868164062508,7.318973974639026,-5.083584186070739,-5.19753257272356
1790097502286868224,10.250868164062508,7.242576916703754,-5.479669208091622,-5.121215761932355
1790097502296868096,10.26086816406251,7.352147594090957,-5.756988647722111,-5.224674691017915
1790097502306868224,10.27086816406251,7.316289229891922,-5.778713068583297,-5.389939601957353
1790097502316868096,10.28086816406251,6.804950363217923,-5.8909729547682055,-5.15696765205261
1790097502326868224,10.290868164062509,6.26037002711029,-5.852176392777084,-4.611715357524366
1790097502336868096,10.300868164062509,6.17269979650227,-5.283856620584204,-4.394101992706153
1790097502346868224,10.310868164062509,6.412884723559504,-4.840872293790637,-4.597341084134022
1790097502356868096,10.320868164062508,7.058892380925707,-5.011853445170089,-4.868646905716547
1790097502366868224,10.33086816406251,8.539746908262318,-5.344259367789695,-5.627251831060123
1790097502376868096,10.34086816406251,9.94258261573232,-5.825932211846858,-6.289484359036378
1790097502386868224,10.35086816406251,10.411063424318298,-6.664068315882328,-6.540642779763078
1790097502396868096,10.36086816406251,10.493580179132037,-6.752031658341307,-7.071922548898439
1790097502406868224,10.370868164062509,10.276747157165637,-6.077808512430248,-7.651498996779425
1790097502416868096,10.380868164062509,9.936364390609924,-5.630066877251278,-7.887950542241266
1790097502426868224,10.390868164062509,10.269390723224308,-5.547109265574292,-7.479879249315733
1790097502436868096,10.400868164062508,11.094578003908625,-5.335036300525691,-7.480537270165696
1790097502446868224,10.410868164062508,11.470617524268404,-5.262263642871318,-7.659512332125527
1790097502456868096,10.42086816406251,11.04909713567148,-5.095591648081707,-7.758218385469294
1790097502466868224,10.43086816406251,9.862001896792473,-4.704574556498541,-7.883702474900504
1790097502476868096,10.44086816406251,8.115211497537052,-4.356362267073446,-7.596762964630489
1790097502486868224,10.45086816406251,6.482488013016601,-4.214131488886479,-6.82855234819285
1790097502496868096,10.460868164062509,5.661836870765885,-4.082573617951622,-5.872923959975104
1790097502506868224,10.470868164062509,5.93255101449521,-3.8270922838621724,-4.991213511118007
1790097502516868096,10.480868164062509,6.522999734360965,-3.5446704304502084,-4.381374876324716
1790097502526868224,10.49086816406251,6.666967186927812,-3.3554826376597173,-3.9516029061056646
1790097502536868096,10.50086816406251,6.718448403486834,-3.292003326740603,-3.712605031949233
1790097502546868224,10.51086816406251,6.688980329191391,-3.178997228980597,-3.5179256647996966
1790097502556868096,10.52086816406251,6.0268971609444755,-2.882179364200577,-3.2849069865565945
1790097502566868224,10.53086816406251,5.4598481738318325,-2.744580360357781,-3.332353539146843
1790097502576868096,10.540868164062509,5.634767276501651,-2.109878351369876,-3.159418912052779
1790097502586868224,10.550868164062509,7.150524727679813,-0.9978506567520027,-3.2576908846045898
1790097502596868096,10.560868164062509,9.458830245766245,0.29209330670482636,-3.655638672954133
1790097502606868224,10.570868164062508,10.880965669378316,0.48862421150678104,-4.316023336656011
1790097502616868096,10.58086816406251,9.39012586095131,-0.5389285266174314,-4.599371971266857
1790097502626868224,10.59086816406251,6.028118738587554,-1.3767590126339482,-4.120339167796074
1790097502636868096,10.60086816406251,4.7076910233870075,-1.0808635188809617,-3.3485061461436065
1790097502646868224,10.61086816406251,5.285834163635907,-0.4434607758040254,-2.7094671884154984
1790097502656868096,10.620868164062509,5.716953986525136,-0.25960038695468957,-2.5430049601251796
1790097502666868224,10.630868164062509,5.99311341502454,-0.21456331340308948,-2.2829465976703087
1790097502676868096,10.640868164062509,6.780734624406478,0.1322714514613715,-2.1257922811334975
1790097502686868224,10.65086816406251,5.605269018599522,0.038063118968801934,-2.280977875904761
1790097502696868096,10.66086816406251,3.478428846836321,-0.23204732154892488,-1.05023453125288
1790097502706868224,10.67086816406251,3.871089786969035,0.6430432969538851,-0.06773502567618561
1790097502716868096,10.68086816406251,6.630641796879983,1.399207857580203,0.0351921798137892
1790097502726868224,10.69086816406251,7.597856654303484,0.8907299470672029,-1.1429595476804448
1790097502736868096,10.70086816406251,8.985808163435566,0.6808582074914825,-1.3951881764142349
1790097502746868224,10.710868164062509,8.418121908462558,0.7916550708435828,-2.0668748534658756
1790097502756868096,10.720868164062509,6.120242621512014,0.9494614071394437,-2.5662462701202124
1790097502766868224,10.730868164062509,4.128403469656087,1.1908834102299577,-2.178051855516621
1790097502776868096,10.74086816406251,4.2066696947113265,1.2514124267521407,-1.744307054015524
1790097502786868224,10.75086816406251,5.322572936265443,1.2015797413430849,-1.616574106282784
1790097502796868096,10.76086816406251,7.29436944742612,1.1539898587152242,-1.46144728539382
1790097502806868224,10.77086816406251,9.94662701690951,1.1374892937085899,-1.5122198957115174
1790097502816868096,10.78086816406251,11.045307164612465,1.0543772840106451,-2.2534576358437257
1790097502826868224,10.790868164062509,10.071036038619479,0.9538032991464995,-3.1937986710659736
1790097502836868096,10.800868164062509,8.48611478286579,0.9413051694076043,-4.134645085953277
1790097502846868224,10.81086816406251,6.876210666912899,0.8210383413225348,-5.135257430537404
1790097502856868096,10.82086816406251,5.2907899495834805,0.2442877519571358,-5.57464669894708
1790097502866868224,10.83086816406251,4.8602105078423055,-0.6816743259134507,-5.045403437687839
1790097502876868096,10.84086816406251,7.222504156811548,-1.8746524251528331,-4.562090043820289
1790097502886868224,10.85086816406251,11.161729591110248,-2.898343372986563,-4.539868844086876
1790097502896868096,10.86086816406251,12.37241308105994,-3.3517898664248746,-5.07732076226418
1790097502906868224,10.870868164062509,7.569409668149532,-3.546564129577949,-5.2680866257459185
1790097502916868096,10.880868164062509,3.995328673723665,-3.59822947721424,-4.6733411178186195
1790097502926868224,10.890868164062509,4.426073046177108,-3.7862395852600628,-4.038973831950312
1790097502936868096,10.90086816406251,5.3987978759396045,-4.068288880354398,-3.642214574774417
1790097502946868224,10.91086816406251,5.954337269700395,-4.309622065050925,-3.1827466144404455
1790097502956868096,10.92086816406251,7.067612797499678,-4.190154015436891,-3.0462290065527644
1790097502966868224,10.93086816406251,9.661497494191584,-3.3534237867624475,-3.749973821676788
1790097502976868096,10.94086816406251,10.891291077607814,-2.251027408922296,-4.807450348848676
1790097502986868224,10.95086816406251,8.82240969252281,-1.7625448349666395,-5.854690958887952
1790097502996868096,10.960868164062509,7.124476072873974,-1.9201747437712267,-6.174951923548211
1790097503006868224,10.97086816406251,8.301771913014413,-2.6239212557486145,-6.281323758744577
1790097503016868096,10.98086816406251,9.163174576512848,-3.6217670891766063,-6.3242378139495905
1790097503026868224,10.99086816406251,8.14677565463309,-4.594070062094906,-6.534810725321104
1790097503036868096,11.00086816406251,7.099319087056752,-5.2110516450600315,-7.084761019599955
1790097503046868224,11.01086816406251,6.804593513641741,-5.687201684967001,-7.270504079841096
1790097503056868096,11.02086816406251,6.985861185675375,-6.172917101476776,-7.309670410527436
1790097503066868224,11.03086816406251,7.574971217566014,-6.393085843664487,-6.841107695583364
1790097503076868096,11.040868164062509,8.059379148604979,-6.491600038869296,-5.747109405833432
1790097503086868224,11.050868164062509,8.745826155351761,-6.412277566500229,-5.1312444878286465
1790097503096868096,11.06086816406251,9.06623822951325,-6.084830803869947,-5.121447221006363
1790097503106868224,11.07086816406251,8.25463858258913,-6.030393931144461,-5.157741907896671
1790097503116868096,11.08086816406251,7.749887333491466,-6.027267250704095,-5.531244138246389
1790097503126868224,11.09086816406251,8.260707270497669,-5.972677505342714,-6.282862527473527
1790097503136868096,11.10086816406251,9.13861627043435,-6.15858146280331,-6.770607137775488
1790097503146868224,11.11086816406251,9.436450677864125,-6.739782207300196,-6.8550840227940695
1790097503156868096,11.120868164062509,9.227532201489687,-7.272772929550344,-7.140568632479881
1790097503166868224,11.13086816406251,8.66505615622567,-7.509796770031369,-7.160186759215156
1790097503176868096,11.14086816406251,7.7701972845912675,-7.218774730306387,-6.3313635152845755
1790097503186868224,11.15086816406251,7.15916779855234,-6.335616400962152,-5.836449595053923
1790097503196868096,11.16086816406251,6.8326474477340255,-5.554979428503104,-5.175923751178144
1790097503206868224,11.17086816406251,6.566092778356286,-5.036861344892325,-4.161228672554848
1790097503216868096,11.18086816406251,6.368551429590553,-4.798726290519948,-3.5285081143206836
1790097503226868224,11.19086816406251,6.470577914726811,-4.790309116828355,-3.5661263997935895
1790097503236868096,11.20086816406251,6.180926982437779,-5.182561030360861,-3.438806612329216
1790097503246868224,11.210868164062509,6.619785026153646,-5.674726989874087,-3.8056173865652436
1790097503256868096,11.22086816406251,7.698981784168489,-5.884142343491576,-4.588210975568561
1790097503266868224,11.23086816406251,7.606931326929113,-6.016365285148584,-5.052861172919333
1790097503276868096,11.24086816406251,7.044564667191456,-6.0121642266249,-4.9409305182190435
1790097503286868224,11.25086816406251,7.422566618619102,-5.437782579338036,-4.736128178559125
1790097503296868096,11.26086816406251,7.3987517587466956,-5.3190809885661,-4.718067487080916
1790097503306868224,11.27086816406251,7.305393217177894,-5.551792140246181,-4.822840332003999
1790097503316868096,11.28086816406251,7.737985459452585,-5.843214311094341,-4.88547907882777
1790097503326868224,11.29086816406251,7.619317867238522,-6.478649565112194,-4.757398351293073
1790097503336868096,11.30086816406251,7.214773384812053,-7.214005665022425,-4.572491168830535
1790097503346868224,11.31086816406251,7.026480173733082,-7.361889139927092,-4.7354308727810315
1790097503356868096,11.32086816406251,7.2796129319261125,-6.6568940428222385,-5.136300162233497
1790097503366868224,11.33086816406251,7.3004630683317036,-5.94719516612056,-5.338464294012573
1790097503376868096,11.34086816406251,7.812503437052587,-5.5419510661315385,-5.7423441719010455
1790097503386868224,11.35086816406251,8.464928798181838,-5.5369863027862865,-6.332140521509463
1790097503396868096,11.36086816406251,8.69223728346931,-6.1548338796794315,-6.603026905824695
1790097503406868224,11.370868164062509,8.581183788541619,-6.744510937676076,-6.5852532111424695
1790097503416868096,11.38086816406251,8.628293282182915,-6.510994982558078,-6.68437068937999
1790097503426868224,11.39086816406251,8.604722668238635,-5.954993377688194,-6.9086280776384426
1790097503436868096,11.40086816406251,8.223885596230406,-5.576203787573611,-6.93760629441446
1790097503446868224,11.41086816406251,7.655383971193917,-5.55264088106907,-6.553369371878137
1790097503456868096,11.42086816406251,7.473114450744765,-5.610540429778917,-6.005585125037398
1790097503466868224,11.43086816406251,7.814606278671944,-5.563739107359189,-5.585764409297096
1790097503476868096,11.44086816406251,8.453652585152078,-5.328462129129937,-5.4872490905084526
1790097503486868224,11.450868164062511,8.76685149797918,-5.103215497244788,-5.65670658474331
1790097503496868096,11.46086816406251,8.543609021143903,-5.0043155932878784,-5.863079201481408
1790097503506868224,11.47086816406251,8.071915641252119,-5.054992988924895,-5.768401976174057
1790097503516868096,11.48086816406251,7.342967313151756,-4.87013666244399,-6.106988560483551
1790097503526868224,11.49086816406251,7.24957323837302,-4.667043934395204,-5.9133196773005094
1790097503536868096,11.50086816406251,7.275648680303029,-4.413355179946199,-5.93215412702634
1790097503546868224,11.51086816406251,7.175826870134242,-4.541286987877494,-5.9791804760506935
1790097503556868096,11.52086816406251,7.367396632019309,-4.819443702697754,-5.8578960404556915
1790097503566868224,11.53086816406251,7.814795206320843,-4.811997711325358,-5.746574584344881
1790097503576868096,11.54086816406251,8.10484937473817,-4.709088421594162,-5.38629215725447
1790097503586868224,11.55086816406251,8.318964836610212,-4.504573294177193,-5.050439099339036
1790097503596868096,11.56086816406251,8.794180912748622,-4.106940041779749,-5.2838619496709915
1790097503606868224,11.57086816406251,8.994566145210118,-3.8365613056066254,-5.7843342999323974
1790097503616868096,11.58086816406251,8.581111730639153,-3.945009818052701,-5.978376877653722
1790097503626868224,11.59086816406251,7.852044424478642,-4.046057355342091,-6.012337819492364
1790097503636868096,11.60086816406251,6.510495761301486,-3.8467456652786205,-5.955947587546835
1790097503646868224,11.610868164062511,4.919798653437898,-3.7077528466794774,-5.640666922794663
1790097503656868096,11.62086816406251,4.553147886896431,-3.4192157584805747,-4.665398439622624
1790097503666868224,11.63086816406251,6.048413740417066,-2.1230706880730548,-4.1747755031878375
1790097503676868096,11.64086816406251,8.011179474842539,-0.5263909446169841,-4.350081095839825
1790097503686868224,11.65086816406251,8.990556765894173,-0.052833043929337214,-4.535634203790743
1790097503696868096,11.66086816406251,9.161812139915515,-0.6538023411822572,-4.417169094497518
1790097503706868224,11.67086816406251,8.014250229617629,-1.2132527969791231,-4.356446549413322
1790097503716868096,11.68086816406251,6.6244852854610965,-1.4480371810575852,-3.8416256648083005
1790097503726868224,11.69086816406251,6.126149039806868,-1.388632135913779,-3.2113040560122244
1790097503736868096,11.700868164062511,6.117805060411947,-1.24226812885541,-2.6367836960514097
1790097503746868224,11.71086816406251,6.331013833024863,-1.2388684826810037,-2.092621922522378
1790097503756868096,11.72086816406251,6.885753502585117,-0.7370691790350812,-1.645278658770403
1790097503766868224,11.73086816406251,7.267179969170668,0.11802792904810608,-1.8507869411848434
1790097503776868096,11.74086816406251,7.715279653739054,0.63937163621562,-2.277298765584426
1790097503786868224,11.75086816406251,6.532197675641533,0.2627468105345378,-2.2228073579905265
1790097503796868096,11.76086816406251,5.975966060297042,0.05452566985719429,-1.8420453307970448
1790097503806868224,11.770868164062511,6.679834319398373,0.5963574344631056,-1.7465955500163355
1790097503816868096,11.780868164062511,8.526117860529581,0.6654112330323324,-2.2568924441740603
1790097503826868224,11.79086816406251,9.508583430047322,0.4510727723581302,-2.8608408247671853
1790097503836868096,11.80086816406251,8.035294476639766,0.7678126348676815,-2.4598602162738494
1790097503846868224,11.81086816406251,6.049216152348787,1.102647248073851,-2.2083755247578827
1790097503856868096,11.82086816406251,5.640995980099378,0.7967112393426212,-2.1613507631151534
1790097503866868224,11.83086816406251,5.3145171927245505,0.5073090979874162,-2.1721946441401383
1790097503876868096,11.84086816406251,4.950168211102125,0.11902126571191549,-1.8505757994311895
1790097503886868224,11.85086816406251,5.232273505846668,-0.34620643448939936,-1.4429837384657282
1790097503896868096,11.860868164062511,5.7922934341978936,-0.4273109861344229,-0.9900154808875431
1790097503906868224,11.87086816406251,6.00619211936549,-0.10200653634638857,-0.8935592288093658
1790097503916868096,11.88086816406251,6.9026659315516214,0.0069657528979453,-1.1203232785037773
1790097503926868224,11.89086816406251,6.155737682545164,0.14531247365877625,-1.8696868344605715
1790097503936868096,11.90086816406251,4.949460011661001,0.34674723150903275,-2.50546491347395
1790097503946868224,11.91086816406251,5.300653256599157,0.4466874085629988,-2.7270723524010174
1790097503956868096,11.92086816406251,6.970967861826828,0.19847969779206096,-2.9411155017886372
1790097503966868224,11.930868164062511,8.208548594111422,-0.012866423694738997,-3.2457635100790045
1790097503976868096,11.940868164062511,8.56698612924624,0.004839204798686814,-3.7701418290611586
1790097503986868224,11.950868164062511,8.078942728698113,-0.08011068229601667,-4.097619616921726
1790097503996868096,11.96086816406251,7.721374790557044,-0.2089971858709468,-4.427214109564489
1790097504006868224,11.97086816406251,7.6108974397148375,-0.47959187547892534,-4.790820357250226
1790097504016868096,11.98086816406251,7.926040223039409,-0.9808426056844515,-5.162958080943642
1790097504026868224,11.99086816406251,8.585425912235149,-1.7249546690408086,-5.636430718936322
1790097504036868096,12.00086816406251,9.474978877078408,-2.3913732174708313,-6.252724083483572
1790097504046868224,12.01086816406251,9.93602992753253,-2.8560440865818375,-6.856565260559701
1790097504056868096,12.020868164062511,9.049752848538573,-3.2268135051669953,-7.380262375409667
1790097504066868224,12.030868164062511,7.907652667494044,-3.7389549250313174,-7.487035877667466
1790097504076868096,12.04086816406251,8.245347666304571,-4.236650352950896,-7.368507615192031
1790097504086868224,12.05086816406251,8.977078619691031,-4.702352980963011,-7.146616953221566
1790097504096868096,12.06086816406251,8.423509984065007,-5.200112008863711,-6.696863603776692
1790097504106868224,12.07086816406251,7.5215257347736335,-5.780197845976568,-6.174445708065193
1790097504116868096,12.08086816406251,8.211804375278634,-6.094572101169915,-6.12095692875382
1790097504126868224,12.090868164062512,8.436651958059343,-6.344327524326269,-6.017099110462252
1790097504136868096,12.100868164062511,7.513695744243609,-6.5244728560730705,-5.81635373917415
1790097504146868224,12.110868164062511,6.702782698488746,-6.323409682449683,-5.693580049065025
1790097504156868096,12.12086816406251,6.035559919354583,-5.760674799961838,-5.257972829054241
1790097504166868224,12.13086816406251,5.5706233856469325,-5.017426653982347,-4.692188093155271
1790097504176868096,12.14086816406251,6.450257822163534,-4.1560939154023355,-4.381733477808201
1790097504186868224,12.15086816406251,8.246816081996432,-3.325902163782051,-4.420175196448044
1790097504196868096,12.16086816406251,9.225218394732943,-3.135600887250204,-4.704794681352541
1790097504206868224,12.17086816406251,9.29985478708319,-3.1657777051191305,-5.853946506718022
1790097504216868096,12.180868164062511,8.139684867460085,-4.104157939768628,-7.065513250076254
1790097504226868224,12.190868164062511,7.051087377905404,-5.936947415640788,-7.733808060917572
1790097504236868096,12.200868164062511,7.494838053490507,-7.438314657865795,-8.210783145145326
1790097504246868224,12.21086816406251,8.129820760014272,-8.04202605093187,-7.821551342555759
1790097504256868096,12.22086816406251,8.593396993046305,-8.199979764326457,-6.737687270951751
1790097504266868224,12.23086816406251,8.658351650449053,-8.175811145843886,-6.113096145186687
1790097504276868096,12.24086816406251,7.9989843213497105,-7.679791563859494,-5.741209863780038
1790097504286868224,12.250868164062512,6.784370564400624,-7.0482517571313,-4.856902111136113
1790097504296868096,12.260868164062511,5.871590906364559,-6.363990900828943,-4.372643907925161
1790097504306868224,12.270868164062511,5.500040260852694,-5.611761082069835,-3.9302213526954977
1790097504316868096,12.280868164062511,5.468324779023209,-4.861990640163391,-3.362018035192362
1790097504326868224,12.29086816406251,6.004756280420617,-4.349550135721755,-3.2143757101311974
1790097504336868096,12.30086816406251,6.596014661274818,-4.197553675336928,-3.1457497995098587
1790097504346868224,12.31086816406251,6.8803479351644325,-4.581884868986161,-3.3859046715000214
1790097504356868096,12.32086816406251,7.75302593058837,-5.357808232950032,-3.9985329193115238
1790097504366868224,12.33086816406251,9.385034598557409,-6.104706380882573,-4.756822974074633
1790097504376868096,12.340868164062512,9.728782600810224,-7.122496272156723,-5.105491379007009
1790097504386868224,12.350868164062511,9.255536725127206,-7.8285940000430045,-5.641717915670994
1790097504396868096,12.360868164062511,9.03746410300816,-7.602368486412552,-5.91442689636732
1790097504406868224,12.37086816406251,8.289357067480548,-6.670471798849346,-5.356691216380917
1790097504416868096,12.38086816406251,7.0937689480600525,-5.683343908168678,-4.7577813536179
1790097504426868224,12.39086816406251,6.820810511726414,-5.0406202486214955,-5.033329834263226
1790097504436868096,12.40086816406251,6.978772762256388,-4.248397856055677,-5.599134318257864
1790097504446868224,12.410868164062512,6.256015122336313,-4.198035313107024,-5.667359809897641
1790097504456868096,12.420868164062512,5.992761900270021,-5.329212215557142,-5.786905627657319
1790097504466868224,12.430868164062511,6.51885423568155,-6.674832383555815,-6.22802249299643
1790097504476868096,12.440868164062511,7.216032383427628,-7.459375310217135,-6.651888018904454
1790097504486868224,12.450868164062511,8.399003790666734,-7.144166913366248,-7.326818902939083
1790097504496868096,12.46086816406251,9.458766879172542,-6.821962849167232,-7.785626809277772
1790097504506868224,12.47086816406251,9.44792777916252,-7.310704880255726,-7.466222236514018
1790097504516868096,12.48086816406251,8.717833679248471,-7.93070654080876,-6.772659722190545
1790097504526868224,12.49086816406251,8.105273117327002,-7.891943992950273,-6.2723552509413665
1790097504536868096,12.500868164062512,7.686535931571806,-7.295344515957782,-5.812696336340332
1790097504546868224,12.510868164062511,7.004068342083686,-6.675076502578549,-5.1040452395889675
1790097504556868096,12.520868164062511,6.142746502363978,-6.020674174572458,-4.531606495688764
1790097504566868224,12.530868164062511,5.517319027351707,-5.526963012514553,-4.06457877969451
1790097504576868096,12.54086816406251,5.158849818493531,-5.252873143724346,-3.9271359659902787
1790097504586868224,12.55086816406251,5.329443006318118,-4.977525276223313,-3.7972963282479864
1790097504596868096,12.56086816406251,6.331138208762095,-4.486423084027641,-3.9685869223591523
1790097504606868224,12.570868164062512,7.859016672880829,-4.138692107003535,-4.490685159032819
1790097504616868096,12.580868164062512,9.500857504613963,-3.900223436355593,-5.679942450055282
1790097504626868224,12.590868164062512,10.753163121629655,-3.973457699189949,-6.861817805250114
1790097504636868096,12.600868164062511,10.795516621181426,-4.545565062598987,-7.692507299782609
1790097504646868224,12.610868164062511,9.539347837915665,-5.501108626901027,-7.9444043506431115
1790097504656868096,12.62086816406251,8.11795232520753,-6.307976401087043,-7.953599630167955
1790097504666868224,12.63086816406251,7.6400531232701185,-6.107982796925912,-7.641642089544158
1790097504676868096,12.64086816406251,7.270948838139652,-5.305590282565971,-6.954535604566352
1790097504686868224,12.65086816406251,6.668917898111829,-4.564369278507474,-6.1398261419757745
1790097504696868096,12.660868164062512,6.542214527624707,-3.9335793628585685,-5.659217020143364
1790097504706868224,12.670868164062512,7.4761977117314595,-3.292114773912819,-5.631075937103597
1790097504716868096,12.680868164062511,8.9454173770743,-2.5450549099225963,-6.134116853650326
1790097504726868224,12.690868164062511,10.398228308741109,-2.1051421381881634,-6.812474877147846
1790097504736868096,12.700868164062511,11.156130414380295,-1.8676790196411495,-7.562433837585081
1790097504746868224,12.71086816406251,10.76560590420354,-1.9057024536515288,-8.10413338854525
1790097504756868096,12.72086816406251,9.73457598624954,-1.9537279276226824,-8.367847580041694
1790097504766868224,12.730868164062512,9.20588334829706,-1.8983610380498792,-8.09502287108605
1790097504776868096,12.740868164062512,9.241369694020516,-1.9233162776481003,-7.595251773990494
1790097504786868224,12.750868164062512,8.64764448057099,-2.3623224752003287,-6.5842121113259555
1790097504796868096,12.760868164062511,7.912362075357495,-2.672433912105499,-5.4716481525651375
