time,seconds_elapsed,z,y,x
1789324087313010000,0.138010009765625,0,0,0
1789324087350710000,0.1757099609375,-0.4205608367919922,-0.2987179756164551,0.15650516748428345
1789324087369559800,0.194559814453125,-0.8829946517944336,-0.3508718013763428,0.2473319172859192
1789324087388409900,0.213409912109375,-0.34128665924072266,-0.16919398307800293,-0.003421962261199951
1789324087407259600,0.232259765625,0.3374662399291992,-0.06309247016906738,-0.2523612380027771
1789324087426109700,0.251109619140625,0.4157686233520508,-0.05532217025756836,-0.4478074312210083
1789324087444959500,0.26995947265625,-0.06069660186767578,-0.1339890956878662,-0.5135785937309265
1789324087463809500,0.2888095703125,-0.2677650451660156,-0.14985346794128418,-0.127756267786026
1789324087482659300,0.307659423828125,0.1294727325439453,-0.1444258689880371,0.17851203680038452
1789324087501509400,0.32650927734375,0.27123165130615234,-0.13144135475158691,0.19382056593894958
1789324087520359200,0.345359130859375,-0.05957794189453125,-0.15355587005615234,0.23777258396148682
1789324087539209200,0.364209228515625,-0.4209566116333008,-0.2568085193634033,0.31860601902008057
1789324087558059000,0.38305908203125,-0.5501384735107422,0.00008988380432128906,0.14674267172813416
1789324087576909000,0.401908935546875,-0.5014123916625977,0.240645170211792,-0.0722557008266449
1789324087595759000,0.420759033203125,-0.5252151489257812,0.43616795539855957,-0.07683664560317993
1789324087614609000,0.43960888671875,-0.3219337463378906,0.4250633716583252,0.26808401942253113
1789324087633459000,0.458458984375,0.4776458740234375,0.164933443069458,0.36940181255340576
1789324087652308700,0.477308837890625,0.8785333633422852,-0.046228885650634766,0.2104198932647705
1789324087671158800,0.49615869140625,0.7023811340332031,0.019884824752807617,0.3210381269454956
1789324087690008600,0.515008544921875,0.4685506820678711,-0.04108738899230957,0.6792998313903809
1789324087708858600,0.533858642578125,-0.09605884552001953,-0.042897939682006836,0.823992908000946
1789324087727708400,0.55270849609375,-0.9081907272338867,0.0316622257232666,0.9170238375663757
1789324087746558500,0.571558349609375,-1.3036394119262695,0.11049962043762207,0.9143834114074707
1789324087765408300,0.590408203125,-0.6228342056274414,0.12314248085021973,0.6764988899230957
1789324087784258300,0.60925830078125,-0.28132152557373047,0.08089947700500488,0.3427579998970032
1789324087803108000,0.628108154296875,-0.43604564666748047,0.1456587314605713,0.26402929425239563
1789324087821958100,0.646958251953125,-0.6379613876342773,0.1806044578552246,0.0020056962966918945
1789324087840808000,0.665807861328125,-0.908625602722168,0.34501075744628906,-0.27953189611434937
1789324087859658000,0.684657958984375,-1.3195466995239258,0.41921401023864746,-0.18570441007614136
1789324087878508000,0.703508056640625,-1.2983818054199219,0.5242586135864258,0.08078515529632568
1789324087897357800,0.72235791015625,-0.9561252593994141,0.5151543617248535,0.1798955798149109
1789324087916207900,0.741207763671875,-0.614293098449707,0.2885315418243408,0.43016523122787476
1789324087935057700,0.7600576171875,-0.03920173645019531,-0.05560731887817383,0.3698788285255432
1789324087953907700,0.77890771484375,0.8060388565063477,-0.5802035331726074,0.36361199617385864
1789324087972757500,0.797757568359375,0.8126897811889648,-0.9518837928771973,0.5239733457565308
1789324087991607600,0.816607666015625,0.017915725708007812,-0.8699383735656738,0.6524962186813354
1789324088010457300,0.835457275390625,-0.9172477722167969,-0.7376260757446289,0.6032355427742004
1789324088029307400,0.854307373046875,-2.086984634399414,-0.9607031345367432,0.22901225090026855
1789324088048157400,0.873157470703125,-2.108643054962158,-1.9623980522155762,0.8062888383865356
1789324088067007200,0.89200732421875,-1.169835090637207,-1.6125288009643555,1.0788495540618896
1789324088085857300,0.910857177734375,-1.7399396896362305,-0.6258189678192139,0.6850663423538208
1789324088104707000,0.92970703125,-2.352247714996338,-0.21893572807312012,0.7698650360107422
1789324088123557000,0.94855712890625,-2.4737324714660645,-0.36012911796569824,1.0193407535552979
1789324088142407000,0.967406982421875,-2.089132785797119,-0.2105090618133545,1.1656314134597778
1789324088161257000,0.986257080078125,-0.6396799087524414,-0.021856069564819336,1.4431390762329102
1789324088180106800,1.005106689453125,1.3119354248046875,-0.003027677536010742,1.220291018486023
1789324088198956800,1.023956787109375,1.907780647277832,-0.004360079765319824,0.33664679527282715
1789324088217806600,1.042806640625,1.0276517868041992,-0.22476625442504883,-0.45784521102905273
1789324088236656600,1.06165673828125,-0.31889820098876953,-0.25704824924468994,-1.4113655090332031
1789324088255506400,1.08050634765625,-2.1739535331726074,-0.6069999933242798,-1.6107563972473145
1789324088274356500,1.0993564453125,-3.627938747406006,-0.6645143032073975,-1.2324039936065674
1789324088293206500,1.11820654296875,-3.3276638984680176,-0.5309074521064758,-0.6579334735870361
1789324088312056300,1.137056396484375,-1.045851707458496,-0.6648443341255188,0.2728753089904785
1789324088330906400,1.15590625,1.3550825119018555,-1.4104291200637817,1.3648995161056519
1789324088349756200,1.174756103515625,1.6319093704223633,-2.338428020477295,1.6380178928375244
1789324088368606200,1.193606201171875,0.28412628173828125,-2.9533815383911133,1.4386650323867798
1789324088387456000,1.2124560546875,-1.7953343391418457,-2.968295097351074,0.5088179111480713
1789324088406306000,1.23130615234375,-1.553978443145752,-3.7508697509765625,0.4916574954986572
1789324088425155800,1.25015576171875,0.18507766723632812,-4.213069438934326,-0.7370750904083252
1789324088444006000,1.269005859375,1.3852462768554688,-4.209689617156982,-2.243884563446045
1789324088462856000,1.28785595703125,2.424633502960205,-4.659244060516357,-3.0086801052093506
1789324088491130600,1.316130615234375,3.6039538383483887,-3.7181105613708496,-4.186676025390625
1789324088509980700,1.334980712890625,6.221959114074707,-2.621199131011963,-5.124300003051758
1789324088547680500,1.372680419921875,8.237818717956543,0.07636833190917969,-7.333106994628906
1789324088566530600,1.391530517578125,4.987903118133545,1.3422832489013672,-9.178045272827148
1789324088585380400,1.41038037109375,3.884204387664795,2.283729076385498,-10.931841850280762
1789324088632505300,1.45750537109375,6.727460861206055,5.882843017578125,-4.270122528076172
1789324088651355100,1.476355224609375,5.906427383422852,6.172504901885986,-3.9517617225646973
1789324088670205200,1.495205078125,4.174953460693359,5.378667831420898,-3.4547934532165527
1789324088689055000,1.514054931640625,2.405313491821289,3.9785616397857666,-2.0226941108703613
1789324088707905000,1.532905029296875,2.8211047649383545,2.802474021911621,-1.3101372718811035
1789324088726754800,1.5517548828125,1.9230048656463623,1.8826379776000977,-0.22224092483520508
1789324088745604900,1.57060498046875,0.614511251449585,2.231374740600586,-0.4684481620788574
1789324088764455000,1.589454833984375,-0.6011323928833008,1.7000980377197266,0.3586411476135254
1789324088783304700,1.6083046875,-0.4006657600402832,0.4950861930847168,1.0416922569274902
1789324088802154800,1.62715478515625,-1.0589628219604492,-0.3056774139404297,-0.24406671524047852
1789324088821004800,1.6460048828125,-0.6270208358764648,-1.7667722702026367,-0.7171459197998047
1789324088839854600,1.6648544921875,-1.0089845657348633,-2.942377805709839,-0.41935110092163086
1789324088858704600,1.68370458984375,-1.3850994110107422,-4.191111087799072,0.2147655487060547
1789324088877554400,1.702554443359375,-1.028573989868164,-5.380565643310547,1.3659868240356445
1789324088896404500,1.721404541015625,-1.0236520767211914,-5.781120300292969,0.7780208587646484
1789324088915254300,1.740254150390625,-1.3687376976013184,-5.89206600189209,-1.0076498985290527
1789324088934104300,1.759104248046875,-1.5402088165283203,-6.219748497009277,-3.1306633949279785
1789324088952954400,1.777954345703125,-1.617940902709961,-5.742067337036133,-3.1159162521362305
1789324088971804200,1.79680419921875,-1.1082096099853516,-4.592062950134277,-1.8111662864685059
1789324088990654200,1.815654296875,-1.1142315864562988,-3.423034429550171,-1.493372917175293
1789324089009504000,1.83450390625,-1.4498023986816406,-2.641721248626709,-1.4306116104125977
1789324089028354000,1.85335400390625,-1.4371509552001953,-2.1634316444396973,-1.562880516052246
1789324089047203800,1.872203857421875,-1.896399974822998,-1.9859585762023926,-1.0133419036865234
1789324089066054000,1.891053955078125,-2.340695381164551,-1.4466273784637451,-0.18960189819335938
1789324089084904000,1.909904052734375,-2.745532512664795,-0.6090092658996582,0.4780120849609375
1789324089103753700,1.928753662109375,-3.074488639831543,-0.005951881408691406,1.4998350143432617
1789324089122603800,1.947603759765625,-2.9068093299865723,0.3692474365234375,2.1055591106414795
1789324089141453600,1.96645361328125,-2.480727195739746,0.6623591184616089,2.085188627243042
1789324089160303600,1.9853037109375,-1.9772882461547852,0.8747409582138062,1.578681230545044
1789324089188578600,2.01357861328125,-1.2782955169677734,0.6612149477005005,1.0559377670288086
1789324089207428400,2.032428466796875,-1.0111274719238281,0.36652660369873047,0.9080610275268555
1789324089226278400,2.0512783203125,-1.0448508262634277,0.22972369194030762,0.7891216278076172
1789324089245128400,2.07012841796875,-0.7778081893920898,0.20531725883483887,0.6036286354064941
1789324089263978200,2.088978271484375,-0.5120162963867188,0.6074626445770264,0.5366978645324707
1789324089282828300,2.107828369140625,-0.7771744728088379,1.1332228183746338,0.8922276496887207
1789324089301678000,2.126677978515625,-1.0961923599243164,2.165778636932373,1.2878055572509766
1789324089320528100,2.145528076171875,-1.2050151824951172,3.1245758533477783,1.4427895545959473
1789324089339378200,2.164378173828125,-0.9757022857666016,3.285048007965088,1.217033863067627
1789324089358228000,2.18322802734375,-0.564887523651123,2.9177865982055664,0.6159396171569824
1789324089377078000,2.202078125,-0.44438838958740234,2.6071090698242188,0.19687557220458984
1789324089395927800,2.220927734375,-0.3203263282775879,2.229877471923828,0.35656070709228516
1789324089414777900,2.23977783203125,-0.16142988204956055,2.0718986988067627,0.24883317947387695
1789324089433628000,2.2586279296875,0.6408605575561523,2.5845019817352295,0.7182905673980713
1789324089452477700,2.277477783203125,1.1031460762023926,2.681023597717285,0.377652645111084
1789324089471327700,2.29632763671875,-0.25822973251342773,1.5521082878112793,-2.2351741790771484
1789324089490177500,2.315177490234375,-1.0926074981689453,0.6288504600524902,-3.2613601684570312
1789324089509027600,2.334027587890625,0.5246515274047852,1.2460474967956543,-3.3616456985473633
1789324089527877600,2.352877685546875,2.0365962982177734,1.0056142807006836,-3.562617778778076
1789324089546727400,2.3717275390625,0.5171604156494141,-0.6912446022033691,-4.068737506866455
1789324089565577500,2.390577392578125,-0.2452101707458496,-2.8317322731018066,-3.0440683364868164
1789324089584427300,2.40942724609375,-0.3648548126220703,-3.875779628753662,-1.8501977920532227
1789324089603277300,2.42827734375,-1.2063617706298828,-4.519406318664551,-0.30036473274230957
1789324089622127400,2.44712744140625,-2.216036558151245,-4.916274070739746,0.9761180877685547
1789324089640977400,2.465977294921875,-1.3255858421325684,-4.744422435760498,1.1828465461730957
1789324089659827200,2.4848271484375,0.19546890258789062,-2.8978419303894043,1.6236666440963745
1789324089678677200,2.50367724609375,0.7800412178039551,-0.8363709449768066,2.458245277404785
1789324089697527000,2.522527099609375,0.2888641357421875,-0.01613330841064453,2.6437296867370605
1789324089716377000,2.541377197265625,-0.5962519645690918,0.43730974197387695,2.36753511428833
1789324089735227100,2.56022705078125,-0.48581361770629883,0.4857048988342285,1.9075329303741455
1789324089754077000,2.579076904296875,-0.3449368476867676,0.5285296440124512,0.08151960372924805
1789324089772927000,2.597927001953125,0.1583576202392578,0.4824666976928711,-1.7674260139465332
1789324089791777000,2.616777099609375,0.40634775161743164,-0.055010318756103516,-2.266874313354492
1789324089820052000,2.645052001953125,1.0268583297729492,-0.7207794189453125,-1.9706401824951172
1789324089838901800,2.66390185546875,1.0250415802001953,-1.2075872421264648,-0.8226432800292969
1789324089857751800,2.682751708984375,0.9277782440185547,-1.613074779510498,-0.10413837432861328
1789324089886026800,2.71102685546875,0.6080589294433594,-2.3362112045288086,-0.4801645278930664
1789324089904876500,2.72987646484375,0.6427578926086426,-2.5865492820739746,-0.24321889877319336
1789324089923726600,2.7487265625,0.47336483001708984,-2.596416473388672,-0.19844341278076172
1789324089942576600,2.76757666015625,0.08333253860473633,-2.709561824798584,-1.019094705581665
1789324089961426400,2.786426513671875,-0.2913966178894043,-2.757979393005371,-1.0981037616729736
1789324089980276500,2.8052763671875,-0.3501901626586914,-2.5887722969055176,-0.6830065250396729
1789324089999126500,2.82412646484375,-0.42164182662963867,-2.482602596282959,-0.5059540271759033
1789324090027405800,2.85240576171875,-0.5403656959533691,-2.033463478088379,0.543063759803772
1789324090046255600,2.871255615234375,-0.5311317443847656,-0.8630490303039551,0.651984453201294
1789324090065105700,2.890105712890625,-0.2207965850830078,0.22618961334228516,0.14632606506347656
1789324090083955700,2.908955810546875,-0.13854694366455078,0.13474416732788086,-0.16749262809753418
1789324090102805500,2.927805419921875,0.6794414520263672,0.08453559875488281,-1.6097092628479004
1789324090121655600,2.946655517578125,-0.7814741134643555,-0.4898848533630371,-1.576927900314331
1789324090140505300,2.96550537109375,-1.846877098083496,-0.978856086730957,-1.7136064767837524
1789324090159355400,2.98435546875,-2.1638669967651367,0.4911363124847412,-1.6949799060821533
1789324090178205400,3.003205322265625,-2.626297950744629,1.168701171875,-1.0960605144500732
1789324090197055200,3.02205517578125,-2.8698348999023438,0.6126487255096436,0.24700844287872314
1789324090215905300,3.0409052734375,-2.5995302200317383,-0.1754283905029297,0.7506899833679199
1789324090234755300,3.05975537109375,-2.7002577781677246,-0.05471301078796387,0.6601113080978394
1789324090253605000,3.078605224609375,-2.7271976470947266,0.2808098793029785,0.8608931303024292
1789324090272455200,3.097455078125,-2.2993130683898926,0.10724973678588867,0.7805960178375244
1789324090291305200,3.11630517578125,-2.1293325424194336,-0.3564586639404297,1.2025446891784668
1789324090310155000,3.135155029296875,-2.159708023071289,-0.1711745262145996,1.3840281963348389
1789324090329005000,3.154005126953125,-2.37235689163208,0.5979313850402832,1.5580270290374756
1789324090347855000,3.172855224609375,-2.357570171356201,1.6077098846435547,1.6465340852737427
1789324090366705000,3.191704833984375,-1.869354248046875,2.0876972675323486,1.6782042980194092
1789324090385555000,3.210554931640625,-1.6456398963928223,1.9514740705490112,1.704676866531372
1789324090404405000,3.229405029296875,-1.6210908889770508,1.7394356727600098,1.4431401491165161
1789324090423254800,3.2482548828125,-1.6993460655212402,1.3925118446350098,1.0117708444595337
1789324090442104800,3.267104736328125,-1.6003894805908203,1.2228176593780518,0.3795318603515625
1789324090460955000,3.285954833984375,-1.3930749893188477,1.0630578994750977,-0.5287699699401855
1789324090479804700,3.3048046875,-1.1214056015014648,1.1415786743164062,-0.9754796028137207
1789324090498654700,3.32365478515625,-0.8412666320800781,0.9378461837768555,-0.7576783895492554
1789324090517504800,3.3425048828125,-0.3474574089050293,0.5122342109680176,-0.44403076171875
1789324090536354600,3.3613544921875,-0.010792255401611328,-0.24335336685180664,-0.6434144973754883
1789324090555204600,3.38020458984375,0.1936788558959961,-1.3703193664550781,-0.6488319635391235
1789324090574054700,3.3990546875,0.3475770950317383,-2.0111894607543945,-0.47356271743774414
1789324090592904400,3.417904541015625,0.44971418380737305,-1.7638988494873047,0.1447049379348755
1789324090611754500,3.43675439453125,0.6938133239746094,-1.5105047225952148,0.7403846383094788
1789324090630604500,3.4556044921875,0.9854207038879395,-1.4588823318481445,0.9756989479064941
1789324090649454300,3.474454345703125,1.2845039367675781,-1.6920299530029297,0.7053725719451904
1789324090668304400,3.493304443359375,1.7927112579345703,-1.7133550643920898,0.35726451873779297
1789324090687154400,3.512154541015625,2.121561050415039,-2.091062545776367,0.20293593406677246
1789324090706004200,3.531004150390625,2.0983939170837402,-2.2865524291992188,0.05787062644958496
1789324090724854300,3.549854248046875,2.868138313293457,-1.3261842727661133,-0.02288532257080078
1789324090743704300,3.568704345703125,2.3347368240356445,-0.45290660858154297,0.7858182191848755
1789324090762554000,3.58755419921875,1.8630127906799316,-0.28085994720458984,0.9209069013595581
1789324090781404200,3.606404052734375,1.4326930046081543,0.3838968276977539,0.2466893196105957
1789324090800254200,3.625254150390625,1.2083425521850586,0.16411161422729492,-0.5614075660705566
1789324090819104300,3.644104248046875,0.9495382308959961,-0.37685346603393555,-0.6051695346832275
1789324090837954000,3.6629541015625,0.5984597206115723,-0.7816290855407715,-0.5008139610290527
1789324090856804000,3.68180419921875,0.3312535285949707,-0.8865365982055664,-0.6167483329772949
1789324090875654100,3.700654052734375,0.030451297760009766,-0.6487011909484863,-0.45033740997314453
1789324090894504000,3.71950390625,-0.04605579376220703,-0.7330565452575684,-0.33410191535949707
1789324090913354000,3.73835400390625,0.1351761817932129,-1.0969290733337402,-0.3658790588378906
1789324090932204000,3.7572041015625,0.27274179458618164,-1.3541107177734375,-0.5545837879180908
1789324090951053800,3.7760537109375,0.28331995010375977,-1.3612146377563477,-0.7620997428894043
1789324090969903900,3.79490380859375,0.23181438446044922,-1.144761085510254,-0.862964391708374
1789324090988754000,3.81375390625,0.19258785247802734,-0.9085683822631836,-0.8639554977416992
1789324091007603700,3.832603759765625,0.28051185607910156,-0.8109164237976074,-0.8262500762939453
1789324091026453800,3.851453857421875,0.5674123764038086,-0.8761048316955566,-0.9727115631103516
1789324091045303800,3.8703037109375,0.672940731048584,-1.0823659896850586,-1.470841884613037
1789324091064153600,3.889153564453125,0.3806033134460449,-1.4552841186523438,-2.249786853790283
1789324091083003600,3.908003662109375,-0.07810163497924805,-1.7344694137573242,-2.469102621078491
1789324091101853700,3.926853759765625,-0.46681737899780273,-1.783431053161621,-2.0024168491363525
1789324091120703500,3.945703369140625,-0.8232645988464355,-1.58396577835083,-1.41660737991333
1789324091139553500,3.964553466796875,-1.0560245513916016,-1.243016242980957,-0.9103913307189941
1789324091158403600,3.983403564453125,-1.0265803337097168,-1.043837070465088,-0.6519143581390381
1789324091177253400,4.00225341796875,-0.8598365783691406,-1.2968974113464355,-0.5408337116241455
1789324091196103400,4.021103515625,-0.7632312774658203,-1.354111671447754,-0.45710206031799316
1789324091214953500,4.039953369140625,-1.3258452415466309,-1.345550537109375,-0.5556988716125488
1789324091233803500,4.058803466796875,-2.0265579223632812,-0.8832929134368896,-1.0021233558654785
1789324091252653300,4.0776533203125,-2.105760097503662,-0.40151476860046387,-0.9873814582824707
1789324091271503400,4.09650341796875,-2.219264030456543,-0.5526187419891357,-0.5401996374130249
1789324091290353400,4.115353515625,-2.4030771255493164,-0.5342817306518555,0.09511423110961914
1789324091309203200,4.134203125,-2.7223405838012695,-0.09486913681030273,0.5638219118118286
1789324091328053200,4.15305322265625,-2.8322200775146484,0.21857094764709473,0.8135951161384583
1789324091346903300,4.1719033203125,-2.7016139030456543,0.34081292152404785,1.0723490715026855
1789324091365753000,4.190753173828125,-2.539740562438965,0.38149571418762207,0.9070938229560852
1789324091384603100,4.20960302734375,-2.2690277099609375,0.19004368782043457,0.7482290267944336
1789324091403453200,4.228453125,-2.1630001068115234,0.2207481861114502,0.6926274299621582
1789324091422303000,4.247302978515625,-2.4291915893554688,0.3176703453063965,0.7885075807571411
1789324091441153000,4.266153076171875,-2.474120616912842,0.5613725185394287,1.3703055381774902
1789324091460003000,4.285003173828125,-2.3962888717651367,0.9703500270843506,1.802409291267395
1789324091478852900,4.303852783203125,-2.5066494941711426,1.4594216346740723,2.019679069519043
1789324091497703000,4.322702880859375,-2.3428916931152344,1.9101529121398926,1.9952404499053955
1789324091516553000,4.341552978515625,-1.7785372734069824,2.175051212310791,1.9540115594863892
1789324091535403000,4.360403076171875,-1.158050537109375,2.442556858062744,1.6831257343292236
1789324091554252800,4.379252685546875,-0.8310880661010742,2.6731698513031006,1.1548080444335938
1789324091573102800,4.398102783203125,-0.512153148651123,2.599456310272217,0.4646642208099365
1789324091591953000,4.416952880859375,-0.28928232192993164,2.0098495483398438,-0.2055976390838623
1789324091610802700,4.435802734375,0.11404991149902344,0.9274206161499023,-0.8323700428009033
1789324091629652700,4.45465283203125,0.35893964767456055,-0.22165489196777344,-1.3557710647583008
1789324091648502800,4.473502685546875,0.36649036407470703,-1.0936684608459473,-1.598142147064209
1789324091667352600,4.4923525390625,-0.005617618560791016,-2.330970287322998,-0.9491305351257324
1789324091686202600,4.51120263671875,0.04997539520263672,-1.6052274703979492,-0.42084383964538574
1789324091705052700,4.530052734375,0.939539909362793,-1.5938396453857422,0.11130166053771973
1789324091723902500,4.54890234375,1.265761375427246,-1.915060043334961,-0.1781907081604004
1789324091742752500,4.56775244140625,1.4346437454223633,-1.8959746360778809,-1.1853787899017334
1789324091761602600,4.5866025390625,1.4167728424072266,-1.6342434883117676,-1.460599660873413
1789324091780452400,4.605452392578125,1.0221805572509766,-1.0733685493469238,-1.4313876628875732
1789324091799302400,4.624302490234375,1.1858806610107422,-0.7141284942626953,-1.0359528064727783
1789324091818152400,4.64315234375,1.9881958961486816,-1.1959118843078613,-0.0729215145111084
1789324091837002500,4.66200244140625,1.7152090072631836,-1.9850211143493652,0.1608729362487793
1789324091855852300,4.680852294921875,2.1235404014587402,-2.07332181930542,-0.4876708984375
1789324091874702300,4.699702392578125,2.4770760536193848,-1.9642739295959473,-0.10592818260192871
1789324091893552400,4.718552490234375,2.012071132659912,-1.292825698852539,-0.486008882522583
1789324091912402400,4.73740234375,0.8272933959960938,-0.01107645034790039,-0.5907447338104248
1789324091931252200,4.756252197265625,0.3173685073852539,0.578059196472168,-0.3712942600250244
1789324091950102300,4.775102294921875,0.2589850425720215,0.2163243293762207,-0.5615253448486328
1789324091968952300,4.793952392578125,0.4329867362976074,-0.8934683799743652,0.06284642219543457
1789324091987802000,4.812802001953125,1.0573902130126953,-1.4759440422058105,0.005264997482299805
1789324092006652200,4.831652099609375,0.9555120468139648,-1.7482471466064453,-0.4105103015899658
1789324092025502200,4.850502197265625,0.35811376571655273,-1.3924083709716797,-0.9911530017852783
1789324092044352000,4.86935205078125,-0.035488128662109375,-1.0644044876098633,-1.576831340789795
1789324092063202000,4.8882021484375,-0.019655704498291016,-0.2915077209472656,-1.1900033950805664
1789324092082052000,4.907052001953125,0.32045793533325195,0.35732507705688477,-1.236403226852417
1789324092100902000,4.92590185546875,0.17971515655517578,0.011334896087646484,-1.3461759090423584
1789324092119752000,4.944751953125,0.07608509063720703,-0.5193548202514648,-1.2377867698669434
1789324092138602000,4.96360205078125,0.580507755279541,-0.8590340614318848,-1.5965993404388428
1789324092157451800,4.98245166015625,0.8821120262145996,-1.4000163078308105,-1.6201179027557373
1789324092176301800,5.0013017578125,0.6966896057128906,-1.6961874961853027,-1.9049072265625
1789324092195152000,5.02015185546875,0.05495452880859375,-2.496683120727539,-1.4624965190887451
1789324092214002000,5.039001953125,-0.4793968200683594,-2.1487560272216797,-0.8809700012207031
1789324092232851700,5.057851806640625,-2.2265381813049316,-0.3945455551147461,0.41896724700927734
1789324092251701800,5.07670166015625,-3.0740151405334473,0.6356420516967773,0.8095260858535767
1789324092270551800,5.0955517578125,-2.324641227722168,1.1414110660552979,-0.2919893264770508
1789324092289401900,5.11440185546875,-0.5284337997436523,0.2923712730407715,0.09276723861694336
1789324092308251600,5.133251708984375,-1.7978897094726562,-0.1331324577331543,0.8639675378799438
1789324092327101700,5.152101806640625,-2.6746153831481934,-0.36455416679382324,1.3060481548309326
1789324092345951700,5.17095166015625,-3.8891148567199707,0.9075363874435425,0.7413554191589355
1789324092364801500,5.189801513671875,-3.377432346343994,0.42502856254577637,1.0972131490707397
1789324092383651600,5.208651611328125,-1.4591341018676758,0.2314753532409668,1.2695000171661377
1789324092402501600,5.227501708984375,-2.6204748153686523,-0.056279659271240234,0.640030026435852
1789324092421351400,5.246351318359375,-2.9555530548095703,0.6295799016952515,1.3887288570404053
1789324092440201500,5.265201416015625,-2.5750770568847656,0.9166191816329956,1.9093506336212158
1789324092459051500,5.284051513671875,-1.7023611068725586,1.0231307744979858,1.9675378799438477
1789324092477901300,5.3029013671875,-2.7817602157592773,1.3564791679382324,1.2523105144500732
1789324092496751400,5.32175146484375,-2.7179269790649414,1.1998180150985718,1.0019878149032593
1789324092515601400,5.340601318359375,-0.6659126281738281,0.8130655288696289,1.3587546348571777
1789324092534451500,5.359451416015625,-1.3606367111206055,0.6820724010467529,0.6891360282897949
1789324092553301200,5.37830126953125,-2.1176342964172363,0.736302375793457,0.40657949447631836
1789324092572151300,5.3971513671875,-0.9256782531738281,0.2901747226715088,0.314633846282959
1789324092591001300,5.41600146484375,-0.8605694770812988,-0.05558586120605469,0.06336164474487305
1789324092609851400,5.434851318359375,-1.8857536315917969,-0.5208449363708496,-0.03323626518249512
1789324092628701200,5.453701171875,-1.983992576599121,-0.7399663925170898,-0.011063814163208008
1789324092647551200,5.47255126953125,-0.8227066993713379,-0.35959529876708984,0.5756168365478516
1789324092666401300,5.4914013671875,0.7081117630004883,0.3414149284362793,0.8980603218078613
1789324092685251000,5.5102509765625,0.8075003623962402,0.5423321723937988,-0.5385499000549316
1789324092704101000,5.52910107421875,0.4109930992126465,-0.36575794219970703,-2.3013432025909424
1789324092722951200,5.547951171875,0.12894487380981445,-1.9385323524475098,-3.605339288711548
1789324092741801000,5.566801025390625,0.805840015411377,-3.9976677894592285,-3.5802786350250244
1789324092760651000,5.585651123046875,1.486856460571289,-4.55728816986084,-2.6588990688323975
1789324092779501000,5.6045009765625,2.1677956581115723,-4.07423734664917,-1.773414134979248
1789324092798350800,5.623350830078125,2.903092861175537,-2.3044991493225098,-0.8808670043945312
1789324092817201000,5.642200927734375,2.507997512817383,-0.9591069221496582,-1.6566894054412842
1789324092836051000,5.661051025390625,2.0124497413635254,-0.25720643997192383,-2.243919610977173
1789324092854901000,5.67990087890625,1.9891042709350586,-0.29996347427368164,-1.854423999786377
1789324092873750800,5.698750732421875,2.0542960166931152,-0.8364253044128418,-0.8231410980224609
1789324092892600800,5.717600830078125,1.3767108917236328,-1.1762866973876953,-0.12315034866333008
1789324092911451000,5.736450927734375,1.0479354858398438,-0.8692770004272461,0.03834223747253418
1789324092930300700,5.75530078125,0.44428062438964844,-0.7027420997619629,0.1602647304534912
1789324092949150700,5.774150634765625,-0.4623885154724121,-0.30388975143432617,0.06457066535949707
1789324092968000800,5.793000732421875,-0.8601589202880859,0.23919677734375,-0.020792007446289062
1789324092986850800,5.811850830078125,-0.5843114852905273,0.22821664810180664,0.6376814842224121
1789324093015125800,5.840125732421875,0.3425416946411133,-0.7217464447021484,0.7097928524017334
1789324093033975600,5.8589755859375,0.9453849792480469,-1.7331218719482422,-0.20003342628479004
1789324093052825600,5.87782568359375,1.091618537902832,-2.081599712371826,-1.501417636871338
1789324093071675600,5.896675537109375,1.3519001007080078,-1.8290586471557617,-1.9047086238861084
1789324093090525400,5.915525390625,1.4092435836791992,-1.6355657577514648,-1.5996086597442627
1789324093109375500,5.93437548828125,0.9326324462890625,-1.5386996269226074,-1.404822826385498
1789324093128225500,5.9532255859375,0.11512947082519531,-1.237600326538086,-1.370208978652954
1789324093156500500,5.98150048828125,-1.150014877319336,-0.5780029296875,-1.354276180267334
1789324093203625200,6.028625244140625,0.4945688247680664,-0.6459269523620605,-0.33043408393859863
1789324093222475300,6.047475341796875,-0.45965147018432617,-1.8628296852111816,-0.8865671157836914
1789324093241325300,6.0663251953125,-1.155381202697754,-1.3121700286865234,-0.6030397415161133
1789324093260175000,6.085175048828125,-1.8216180801391602,-0.13622212409973145,0.6560878753662109
1789324093279025200,6.104025146484375,-1.6105704307556152,0.45842838287353516,1.103512167930603
1789324093297875200,6.122875244140625,-0.544346809387207,0.11908507347106934,0.05501842498779297
1789324093316725200,6.141725341796875,-1.3250246047973633,-0.8099074363708496,-0.2050766944885254
1789324093335575000,6.160574951171875,-3.8141140937805176,-0.1939225196838379,0.051542043685913086
1789324093354425000,6.179425048828125,-3.3866968154907227,1.0129095315933228,1.6128113269805908
1789324093373275100,6.198275146484375,-2.6840829849243164,0.9651590585708618,2.3974382877349854
1789324093392125000,6.217125,-3.6305360794067383,0.8026608228683472,2.0290825366973877
1789324093410975000,6.23597509765625,-3.2319397926330566,0.35750508308410645,1.2437031269073486
1789324093429825000,6.254824951171875,-3.0286569595336914,0.290966272354126,1.1270980834960938
1789324093448674800,6.2736748046875,-3.0986433029174805,1.319568395614624,1.8700926303863525
1789324093467524900,6.29252490234375,-2.428501605987549,1.6536014080047607,1.8111927509307861
1789324093486375000,6.311375,-2.7118654251098633,1.588502287864685,1.6013445854187012
1789324093505224700,6.330224609375,-1.8187594413757324,1.9250988960266113,1.5759825706481934
1789324093524074800,6.34907470703125,-0.5992355346679688,1.3620003461837769,0.9975341558456421
1789324093542924800,6.3679248046875,-0.35628700256347656,0.708827018737793,0.6129360198974609
1789324093561774600,6.386774658203125,-2.614867687225342,0.7703156471252441,0.1782512664794922
1789324093580624600,6.405624755859375,-1.8669195175170898,0.6036334037780762,0.1418290138244629
1789324093599474700,6.424474609375,-1.8747038841247559,0.13432931900024414,0.03202033042907715
1789324093618324500,6.443324462890625,-1.0469417572021484,0.006275177001953125,0.3183157444000244
1789324093637174500,6.462174560546875,0.0969095230102539,-0.08187103271484375,0.7471671104431152
1789324093656024600,6.481024658203125,-0.2752718925476074,-0.02536153793334961,0.18071460723876953
1789324093674874400,6.499874267578125,-0.7066960334777832,-0.8919477462768555,-0.3565666675567627
1789324093693724400,6.518724365234375,0.11027765274047852,-1.9264473915100098,-0.5508906841278076
1789324093712574500,6.537574462890625,0.7718582153320312,-3.034870147705078,-0.9558539390563965
1789324093731424300,6.55642431640625,0.33673095703125,-3.574117660522461,-2.003471612930298
1789324093750274300,6.5752744140625,-0.1471543312072754,-2.805022716522217,-1.775177240371704
1789324093769124400,6.594124267578125,0.3567476272583008,-1.4539413452148438,-1.6171815395355225
1789324093787974100,6.61297412109375,1.5174527168273926,-0.12872791290283203,-0.2871849536895752
1789324093806824200,6.63182421875,3.0204453468322754,-0.5716133117675781,-0.3508415222167969
1789324093825674200,6.65067431640625,3.348776340484619,-2.021730422973633,-1.9118618965148926
1789324093844524000,6.66952392578125,2.8498635292053223,-2.914797306060791,-2.944721221923828
1789324093863374000,6.6883740234375,2.2710981369018555,-2.119805335998535,-2.392030715942383
1789324093882224000,6.70722412109375,2.260829448699951,-0.9645047187805176,-0.6714668273925781
1789324093901074000,6.726073974609375,2.387753963470459,-1.2205281257629395,-0.2059650421142578
1789324093919924000,6.744924072265625,2.075319766998291,-0.869300365447998,-0.9582719802856445
1789324093938774000,6.76377392578125,1.120865821838379,-0.13422060012817383,-0.0033164024353027344
1789324093957623800,6.782623779296875,0.4012432098388672,0.43683290481567383,0.3173341751098633
1789324093976473900,6.801473876953125,-0.15841388702392578,0.35584115982055664,0.5163922309875488
1789324093995324000,6.820323974609375,0.17066669464111328,-0.6697773933410645,0.7435832023620605
1789324094014173700,6.839173583984375,0.15871286392211914,-1.6590347290039062,0.649683952331543
1789324094033023700,6.858023681640625,-0.32633495330810547,-1.2386598587036133,0.4770336151123047
1789324094051873800,6.876873779296875,0.4552783966064453,-0.970954418182373,0.34122133255004883
1789324094070723600,6.8957236328125,1.7453155517578125,-1.7651309967041016,-0.1865224838256836
1789324094089573600,6.91457373046875,2.134263515472412,-3.63429594039917,-1.3748130798339844
1789324094108423700,6.933423583984375,2.08518123626709,-3.4113683700561523,-2.377535820007324
1789324094127273500,6.9522734375,0.5140261650085449,-1.5390825271606445,-2.459778308868408
1789324094146123500,6.97112353515625,-0.5756673812866211,0.314241886138916,-1.1591434478759766
1789324094164973300,6.989973388671875,-0.17411184310913086,0.9715218544006348,-0.05890464782714844
1789324094183823400,7.0088232421875,0.15061235427856445,-0.20120954513549805,-0.13997888565063477
1789324094202673400,7.02767333984375,-0.35787391662597656,-0.4804048538208008,-0.9122557640075684
1789324094221523200,7.046523193359375,-0.40769147872924805,-0.7782783508300781,-1.7397427558898926
1789324094240373200,7.065373291015625,-0.8715744018554688,-1.371260643005371,-0.7756092548370361
1789324094259223300,7.084223388671875,-1.5916013717651367,-0.2548398971557617,0.8470864295959473
1789324094278073000,7.103072998046875,-2.937674045562744,0.3786661624908447,0.5199570655822754
1789324094296923100,7.121923095703125,-2.583768844604492,-0.554887056350708,-0.7693102359771729
1789324094315773200,7.140773193359375,-1.1589198112487793,-0.3312344551086426,-0.45568060874938965
1789324094334623000,7.159623046875,-1.2499651908874512,1.0558867454528809,1.030478835105896
1789324094353473000,7.17847314453125,-2.7368645668029785,1.2547703981399536,1.9114861488342285
1789324094372322800,7.19732275390625,-3.149336338043213,0.7914632558822632,1.5298869609832764
1789324094391172900,7.2161728515625,-3.25799560546875,-0.17737317085266113,1.335050344467163
1789324094410023000,7.23502294921875,-2.862360954284668,0.17779040336608887,1.3380303382873535
1789324094428872700,7.253872802734375,-3.0682373046875,0.8052631616592407,1.263288140296936
1789324094447722800,7.27272265625,-2.7857933044433594,1.2038254737854004,1.8857123851776123
1789324094466572800,7.29157275390625,-3.4905614852905273,1.8381898403167725,0.18342208862304688
1789324094485422600,7.310422607421875,-3.63279390335083,0.9647164344787598,1.41160249710083
1789324094504272600,7.329272705078125,-2.8998165130615234,1.8159765005111694,2.4602015018463135
1789324094523122700,7.348122802734375,-1.4360547065734863,2.0456974506378174,2.5912630558013916
1789324094541972500,7.366972412109375,-0.4647073745727539,1.3228398561477661,1.7456156015396118
1789324094560822500,7.385822509765625,-2.978969097137451,1.0114290714263916,-0.3229515552520752
1789324094579672300,7.40467236328125,-2.490950107574463,0.9984579086303711,-0.17171263694763184
1789324094598522400,7.4235224609375,-1.5199947357177734,0.9067730903625488,-0.3965179920196533
1789324094617372400,7.442372314453125,-0.5981264114379883,0.17408084869384766,0.1119546890258789
1789324094636222200,7.46122216796875,0.1324162483215332,-0.6705245971679688,-0.2360851764678955
1789324094655072300,7.480072265625,-0.7490720748901367,-1.147449016571045,-1.1352875232696533
1789324094673922000,7.498922119140625,-0.5205450057983398,-1.483285903930664,-1.5477569103240967
1789324094692772000,7.517772216796875,-0.33872079849243164,-1.3861823081970215,-1.7536797523498535
1789324094711622100,7.5366220703125,-0.26768922805786133,-2.2932634353637695,-1.8567149639129639
1789324094730472000,7.555471923828125,0.4250965118408203,-2.7574305534362793,-2.440490484237671
1789324094749322000,7.574322021484375,1.6160736083984375,-2.4030017852783203,-2.6810531616210938
1789324094768171800,7.593171875,2.1314783096313477,-1.8993749618530273,-2.5633838176727295
1789324094787021800,7.612021728515625,2.1828389167785645,-1.869837760925293,-2.0112996101379395
1789324094805871900,7.630871826171875,1.9605813026428223,-1.9621763229370117,-1.6144366264343262
1789324094824721700,7.6497216796875,2.165226936340332,-1.7242050170898438,-0.7236652374267578
1789324094843571700,7.66857177734375,2.7518539428710938,-1.093590259552002,-0.6271886825561523
1789324094862421800,7.687421875,2.994493007659912,-1.2386054992675781,-1.038651943206787
1789324094881271600,7.706271484375,2.389725685119629,-1.4757781028747559,-1.650461196899414
1789324094900121600,7.72512158203125,1.9723124504089355,-0.916752815246582,-1.3412060737609863
1789324094918971400,7.743971435546875,2.05226993560791,-0.522557258605957,-0.7855863571166992
1789324094937821400,7.762821533203125,1.7540969848632812,-1.62322998046875,-0.8403277397155762
1789324094956671500,7.78167138671875,0.6675443649291992,-2.4698657989501953,-0.4271702766418457
1789324094975521300,7.800521240234375,-0.24743986129760742,-1.664808750152588,-0.2587890625
1789324094994371300,7.819371337890625,-0.8807311058044434,-0.3402266502380371,0.35450100898742676
1789324095013221000,7.83822119140625,-1.123960018157959,0.7343220710754395,0.30821681022644043
1789324095032071200,7.8570712890625,-0.3625149726867676,0.8897771835327148,-0.08523797988891602
1789324095050921200,7.875921142578125,0.8975720405578613,-0.2703061103820801,-0.6003398895263672
1789324095069771000,7.89477099609375,1.7717204093933105,-2.1645989418029785,-1.5197501182556152
1789324095088621000,7.91362109375,1.7048964500427246,-3.9853415489196777,-1.9639711380004883
1789324095107470800,7.932470947265625,0.7075076103210449,-4.190328121185303,-1.868452548980713
1789324095126321000,7.95132080078125,-0.03848457336425781,-2.7043662071228027,-1.351142406463623
1789324095145170700,7.970170654296875,-0.3233342170715332,-0.7687549591064453,-0.9541559219360352
1789324095164020700,7.989020751953125,-0.027426719665527344,-0.024257183074951172,-0.965630054473877
1789324095182870800,8.007870849609375,0.4730863571166992,0.017763614654541016,-0.8879928588867188
1789324095201720600,8.026720458984375,0.1978015899658203,-0.628324031829834,-0.5605216026306152
1789324095220570600,8.045570556640625,0.44521141052246094,-1.6254327297210693,-0.0817880630493164
1789324095239420400,8.06442041015625,-1.101158618927002,-1.3482184410095215,0.19511795043945312
1789324095258270500,8.0832705078125,-2.42307710647583,-0.8295891284942627,-0.5056345462799072
1789324095277120300,8.102120361328126,-2.422534942626953,-0.847754955291748,-1.0230989456176758
1789324095295970300,8.12097021484375,-2.797151565551758,-0.9732623100280762,-0.36431241035461426
1789324095314820400,8.1398203125,-3.7334070205688477,0.3782196044921875,0.9439084529876709
1789324095333670100,8.158670166015625,-3.2433595657348633,2.5549662113189697,3.2452402114868164
1789324095352520200,8.177520263671875,-2.2119317054748535,1.637101650238037,3.225881576538086
1789324095371370000,8.196369873046875,-2.6309075355529785,-0.16993284225463867,2.0220069885253906
1789324095399645000,8.22464501953125,-3.1960926055908203,-1.0427935123443604,0.6818267107009888
1789324095418495000,8.243494873046876,-2.67246150970459,0.0835874080657959,1.1702479124069214
1789324095437344800,8.2623447265625,-2.7532267570495605,0.05336880683898926,1.8155934810638428
1789324095456194800,8.28119482421875,-1.7994580268859863,0.47607994079589844,1.9508999586105347
1789324095475044600,8.300044677734375,-2.785134792327881,0.8715753555297852,1.5658687353134155
1789324095493894700,8.318894775390625,-2.0495729446411133,1.1201632022857666,1.9396586418151855
1789324095512744700,8.33774462890625,-2.8297486305236816,1.0984470844268799,1.4734835624694824
1789324095531594500,8.356594482421874,-2.98787260055542,1.1052296161651611,1.7922550439834595
1789324095550444500,8.375444580078126,-1.8653192520141602,1.6623291969299316,2.0294675827026367
1789324095569294300,8.39429443359375,-1.366912841796875,1.7734739780426025,1.6200335025787354
1789324095588144400,8.413144287109375,-1.7356743812561035,1.3314294815063477,0.7528338432312012
1789324095606994200,8.431994140625,-2.026822566986084,0.7596755027770996,0.22575855255126953
1789324095625844200,8.45084423828125,-0.3903312683105469,0.1809225082397461,-0.23473310470581055
1789324095644694000,8.469694091796875,0.7012171745300293,-2.119321346282959,-1.1448745727539062
1789324095663544000,8.4885439453125,1.0349726676940918,-3.7902841567993164,-1.7587895393371582
1789324095682393900,8.507393798828126,0.28687334060668945,-3.94976806640625,-2.2105464935302734
1789324095701244000,8.526243896484376,0.32468700408935547,-4.040049076080322,-1.918811321258545
1789324095720093700,8.54509375,1.3454780578613281,-3.5351767539978027,-1.2077741622924805
1789324095738943700,8.56394384765625,2.4967451095581055,-3.269864559173584,-1.6304130554199219
1789324095757793800,8.582793701171875,2.8107028007507324,-2.963785171508789,-1.8226675987243652
1789324095776643600,8.6016435546875,2.537153720855713,-1.3233642578125,-1.3231019973754883
1789324095795493600,8.62049365234375,1.9921684265136719,1.0851764678955078,-0.5400466918945312
1789324095814343400,8.639343505859374,1.7537031173706055,2.2722907066345215,0.09110736846923828
1789324095833193500,8.658193359375,1.3965659141540527,2.1973328590393066,0.1734457015991211
1789324095852043300,8.677043212890625,1.1129889488220215,1.4492530822753906,-0.4109959602355957
1789324095870893300,8.695893310546875,0.8738584518432617,-0.7662725448608398,-0.8463740348815918
1789324095889743000,8.7147431640625,1.6193046569824219,-2.7199196815490723,-0.9556264877319336
1789324095908593200,8.73359326171875,1.5276885032653809,-3.1942148208618164,-0.19016313552856445
1789324095927443000,8.75244287109375,1.449256420135498,-1.756291389465332,0.044135093688964844
1789324095946293000,8.77129296875,1.1801042556762695,-0.2896757125854492,-0.4793882369995117
1789324095965142800,8.790142822265626,0.09465646743774414,0.3076319694519043,-0.9418087005615234
1789324095983992800,8.808992919921875,-0.14696598052978516,0.34563589096069336,-0.67474365234375
1789324096002842600,8.827842529296875,0.8668560981750488,-0.21614789962768555,-0.6841030120849609
1789324096021692700,8.846692626953125,1.1150717735290527,-1.1590385437011719,-0.3733944892883301
1789324096040542500,8.86554248046875,1.303563117980957,-1.7611474990844727,-0.1458287239074707
1789324096059392500,8.884392578125,0.8885655403137207,-1.608708381652832,-0.7637753486633301
1789324096078242300,8.9032421875,0.02430868148803711,-1.3393592834472656,-0.7844414710998535
1789324096097092400,8.92209228515625,-0.5153889656066895,-0.9113101959228516,-0.01688385009765625
1789324096115942100,8.940942138671875,-1.5990605354309082,-0.2831544876098633,0.057173728942871094
1789324096134792200,8.959792236328125,-1.4639849662780762,0.6060671806335449,0.11924457550048828
1789324096153642000,8.97864208984375,1.1967134475708008,0.8650531768798828,0.15349340438842773
1789324096172492000,8.997491943359375,3.9681825637817383,-1.240793228149414,-0.9161996841430664
1789324096191341800,9.016341796875,3.2239723205566406,-4.097473621368408,-2.855435371398926
1789324096210192000,9.03519189453125,0.9028902053833008,-4.34169864654541,-4.09705114364624
1789324096229041700,9.054041748046876,-0.7025303840637207,-2.4723434448242188,-2.2163608074188232
1789324096247891700,9.0728916015625,-1.9884872436523438,-0.8862838745117188,-0.3626267910003662
1789324096266741500,9.091741455078125,-3.1084980964660645,2.092790126800537,0.9601552486419678
1789324096285591600,9.110591552734375,-1.8306565284729004,1.8595774173736572,0.05457758903503418
1789324096304441300,9.12944140625,-0.7040786743164062,-0.5600934028625488,-0.16769146919250488
1789324096323291400,9.14829150390625,-2.8242602348327637,-1.943709373474121,0.49721670150756836
1789324096342141200,9.16714111328125,-5.445887088775635,0.49295854568481445,1.7906827926635742
1789324096360991200,9.1859912109375,-5.251943588256836,2.736386299133301,2.9670162200927734
1789324096379841000,9.204841064453126,-3.3544139862060547,1.5612082481384277,3.1609482765197754
1789324096398691000,9.223691162109375,-3.825678825378418,0.1796574592590332,2.274594783782959
1789324096417540900,9.242540771484375,-4.410944938659668,0.7050070762634277,1.495831847190857
1789324096436391000,9.261390869140625,-2.249932289123535,0.9546430110931396,2.6850361824035645
1789324096455240700,9.28024072265625,-0.8386373519897461,0.458540678024292,1.9474997520446777
1789324096474090800,9.2990908203125,-1.2385177612304688,0.6109845638275146,1.5813730955123901
1789324096492940500,9.3179404296875,-2.0936360359191895,1.0860165357589722,0.4071826934814453
1789324096511790300,9.336790283203126,-1.6703786849975586,1.0708192586898804,0.11243724822998047
1789324096530640400,9.355640380859375,-0.9225606918334961,0.8140480518341064,0.5612409114837646
1789324096549490200,9.374490234375,-1.1125264167785645,0.9289071559906006,0.6817150115966797
1789324096568340200,9.39334033203125,-0.7122478485107422,1.0869061946868896,0.6037237644195557
1789324096587190000,9.41218994140625,-0.7428188323974609,0.907346248626709,-0.1684558391571045
1789324096606040000,9.4310400390625,-0.8741612434387207,-0.15874147415161133,0.008834362030029297
1789324096624889900,9.449889892578126,-1.5524673461914062,-0.49243974685668945,0.2379145622253418
1789324096643740000,9.468739990234376,-1.9700937271118164,-0.9108395576477051,0.04726552963256836
1789324096662589700,9.487589599609375,-0.866581916809082,-1.0565814971923828,0.019284725189208984
1789324096681439500,9.506439453125,-0.48952722549438477,-0.4300041198730469,0.11645364761352539
1789324096700289500,9.52528955078125,-0.6888928413391113,0.3034825325012207,0.013193607330322266
1789324096719139300,9.544139404296875,-0.5043573379516602,0.2401275634765625,-0.5993704795837402
1789324096737989400,9.5629892578125,0.2103409767150879,-1.2678089141845703,-1.425154685974121
1789324096756839200,9.581839111328126,1.0343213081359863,-3.214148998260498,-2.513343334197998
1789324096775689200,9.600689208984376,1.812324047088623,-4.751311779022217,-3.0522003173828125
1789324096794539000,9.6195390625,2.5200629234313965,-4.7877631187438965,-2.727851390838623
1789324096813389000,9.63838916015625,2.6500144004821777,-2.401186943054199,-1.5607810020446777
1789324096832238800,9.65723876953125,2.932806968688965,-1.035031795501709,-0.8782181739807129
1789324096851089000,9.6760888671875,2.5643701553344727,-0.47467803955078125,-1.586989402770996
1789324096869938700,9.694938720703124,2.5009889602661133,-0.47078847885131836,-2.023751735687256
1789324096888788500,9.71378857421875,2.714541435241699,-0.93560791015625,-2.0017762184143066
1789324096907638500,9.732638427734376,2.0998706817626953,-0.8708086013793945,-1.110581398010254
1789324096926488300,9.75148828125,1.26991605758667,0.24171733856201172,-0.21790599822998047
1789324096945338400,9.77033837890625,0.23997831344604492,1.1807703971862793,0.6023876667022705
1789324096964188200,9.789188232421875,-0.5252528190612793,1.564323902130127,0.8238315582275391
1789324096983038000,9.808037841796875,-1.0727229118347168,1.2765836715698242,0.8231866359710693
1789324097001888000,9.826887939453124,-0.6799092292785645,0.5687813758850098,0.8441362380981445
1789324097020737800,9.84573779296875,0.6547508239746094,-0.17188167572021484,0.13978242874145508
1789324097039587800,9.864587890625,1.7493672370910645,-1.1821789741516113,-1.2510709762573242
1789324097058437600,9.883437744140625,1.9464144706726074,-2.0732455253601074,-2.2880420684814453
1789324097077287400,9.902287353515625,1.9201130867004395,-2.3600330352783203,-2.711787223815918
1789324097096137500,9.921137451171875,1.3352651596069336,-2.2884116172790527,-2.2740530967712402
1789324097114987300,9.9399873046875,0.41086387634277344,-1.6539273262023926,-1.7771954536437988
1789324097133837300,9.95883740234375,0.0918436050415039,-1.0209169387817383,-1.6171684265136719
1789324097152687000,9.97768701171875,0.6199297904968262,-1.1267080307006836,-1.846285343170166
1789324097171537000,9.996536865234376,1.0579524040222168,-1.543774127960205,-2.049682140350342
1789324097190387000,10.015386962890625,0.7738933563232422,-2.0296201705932617,-1.7160015106201172
1789324097209236700,10.03423681640625,-0.33992433547973633,-1.4376220703125,-0.96604323387146
1789324097228086500,10.05308642578125,-2.5070338249206543,-0.06790304183959961,-0.061415910720825195
1789324097246936600,10.0719365234375,-4.172194004058838,0.12514209747314453,0.3114442825317383
1789324097265786400,10.090786376953124,-3.8524374961853027,1.2894220352172852,0.669144868850708
1789324097284636400,10.109636474609376,-2.480058193206787,2.027884006500244,0.894723653793335
1789324097303486200,10.128486328125,-0.4519786834716797,-0.13295817375183105,0.28966236114501953
1789324097322336000,10.1473359375,-0.11766433715820312,-1.8562135696411133,0.22296786308288574
1789324097341186000,10.16618603515625,-1.8707876205444336,-2.2223033905029297,-0.21217823028564453
1789324097360035800,10.185035888671875,-3.356759548187256,0.04449868202209473,0.514130711555481
1789324097378885600,10.2038857421875,-3.0476551055908203,1.1771517992019653,1.9318801164627075
1789324097397735700,10.222735595703124,-1.567422866821289,0.405381441116333,2.471123695373535
1789324097416585500,10.24158544921875,-0.6278152465820312,0.06790280342102051,1.7091240882873535
1789324097435435300,10.260435302734376,-2.0813608169555664,0.38958585262298584,0.6303470134735107
1789324097454285300,10.279285400390625,-2.570671558380127,0.8411195278167725,0.6058790683746338
1789324097473135000,10.298135009765625,-3.8804569244384766,1.0503889322280884,0.6519975662231445
1789324097491985200,10.316985107421875,-3.7166390419006348,1.3954867124557495,1.9052029848098755
1789324097510835000,10.3358349609375,-3.1785850524902344,1.628411889076233,3.117595911026001
1789324097529684700,10.354684814453124,-2.207353115081787,1.6659635305404663,3.241107225418091
1789324097548534800,10.37353466796875,-1.3973298072814941,1.4746758937835693,2.316664218902588
1789324097567384600,10.392384521484376,-2.3498034477233887,1.2456824779510498,1.1879985332489014
1789324097586234400,10.411234375,-2.418243885040283,1.4079196453094482,0.23474335670471191
1789324097605084400,10.43008447265625,-1.4039454460144043,1.078611135482788,-0.13423371315002441
1789324097623934200,10.448934326171875,-0.6608114242553711,0.49200439453125,-0.08159112930297852
1789324097642784000,10.467783935546874,-0.6102228164672852,-0.35420894622802734,-0.2422642707824707
1789324097661634000,10.486634033203124,0.09878206253051758,-1.8543400764465332,-0.5139551162719727
1789324097680483800,10.50548388671875,0.8121809959411621,-2.2653799057006836,-0.9698138236999512
1789324097699333600,10.524333740234376,0.798576831817627,-2.8488388061523438,-1.791027545928955
1789324097718183700,10.54318359375,0.21523094177246094,-2.9006800651550293,-2.2883987426757812
1789324097737033500,10.562033447265625,0.01641368865966797,-2.8116044998168945,-1.8725900650024414
1789324097755883300,10.58088330078125,0.7480063438415527,-2.0929555892944336,-0.9910373687744141
1789324097774733300,10.5997333984375,1.576411247253418,-1.2772626876831055,-0.8652701377868652
1789324097793583000,10.6185830078125,1.9596924781799316,-0.5127754211425781,-1.2048768997192383
1789324097812433000,10.637432861328126,1.9738988876342773,0.27344799041748047,-1.4442753791809082
1789324097831283000,10.656282958984375,2.0246715545654297,0.5859489440917969,-1.8346166610717773
1789324097850132700,10.6751328125,2.076106548309326,-0.41832590103149414,-0.8179926872253418
1789324097868982500,10.693982421875,2.090064525604248,-1.7935757637023926,-0.310060977935791
1789324097887832300,10.712832275390625,2.75860595703125,-3.9189505577087402,-1.206510066986084
1789324097906682400,10.731682373046874,2.636078357696533,-4.569456100463867,-1.1077146530151367
1789324097925532200,10.7505322265625,2.0647764205932617,-1.7849392890930176,-0.8917336463928223
1789324097944382000,10.7693818359375,1.8350038528442383,0.09092473983764648,-1.0601115226745605
1789324097963232000,10.78823193359375,1.0296530723571777,0.821843147277832,-0.8817105293273926
1789324097982081800,10.807081787109375,0.4614086151123047,1.0826435089111328,-0.3632035255432129
1789324098000931600,10.825931640625,0.1050252914428711,1.2788915634155273,0.32228946685791016
1789324098019781400,10.844781494140625,0.13149595260620117,0.9547905921936035,0.7028279304504395
1789324098038631400,10.86363134765625,0.06168985366821289,0.4371004104614258,0.3020186424255371
1789324098057481200,10.882481201171874,-0.34317970275878906,-0.4415740966796875,-0.15633106231689453
1789324098076331000,10.9013310546875,-0.2597637176513672,-1.133988380432129,-0.3690338134765625
1789324098095181000,10.92018115234375,0.37921142578125,-1.7303037643432617,-0.8570318222045898
1789324098114030800,10.93903076171875,0.6663947105407715,-2.195301055908203,-1.3602728843688965
1789324098132880600,10.957880615234375,1.300696849822998,-1.4143924713134766,-1.694852352142334
1789324098151730400,10.97673046875,2.3666481971740723,-1.1056346893310547,-2.0398569107055664
1789324098170580500,10.99558056640625,2.38228702545166,-1.6923208236694336,-3.176553726196289
1789324098189430300,11.01443017578125,1.388451099395752,-2.40566349029541,-3.3846936225891113
1789324098208280000,11.033280029296876,-0.35517120361328125,-2.0951743125915527,-1.8165254592895508
1789324098227129900,11.0521298828125,-1.3101000785827637,-0.7840766906738281,-0.3318901062011719
1789324098245980000,11.07097998046875,-2.260829448699951,0.35850095748901367,0.6087474822998047
1789324098264829700,11.08982958984375,-2.851052761077881,0.32467126846313477,0.9571764469146729
1789324098283679500,11.108679443359375,-3.051483631134033,0.8975820541381836,-0.08953380584716797
1789324098302529300,11.127529296875,-3.039989948272705,1.0441620349884033,0.3203608989715576
1789324098321379300,11.14637939453125,-1.9914517402648926,0.10716032981872559,1.562668800354004
1789324098340229000,11.16522900390625,-0.16573047637939453,-0.7726507186889648,1.4157406091690063
1789324098359079000,11.184078857421875,0.30352020263671875,-1.8016703128814697,1.0456043481826782
1789324098377928700,11.2029287109375,-2.707273483276367,-0.18279147148132324,0.30750203132629395
1789324098396778800,11.22177880859375,-2.9628286361694336,0.6402460336685181,0.5487750768661499
1789324098415628500,11.240628662109375,-1.1081647872924805,0.7254593372344971,1.170729398727417
1789324098434478300,11.259478271484374,-0.8612689971923828,0.12684917449951172,0.6038122177124023
1789324098453328100,11.278328125,-2.80782413482666,0.240386962890625,0.33187246322631836
1789324098472178000,11.297177978515625,-2.8542141914367676,1.1394389867782593,0.9820982217788696
1789324098491028000,11.316028076171875,-2.8178467750549316,1.176655888557434,1.1681209802627563
1789324098509877800,11.334877685546875,-4.112807750701904,0.8074926137924194,1.384407639503479
1789324098528727600,11.3537275390625,-3.592930316925049,1.0015944242477417,3.276407480239868
1789324098547577300,11.372577392578124,-2.9606051445007324,1.6222883462905884,3.0956876277923584
1789324098566427400,11.391427490234374,-3.43156099319458,1.6596441268920898,2.700063943862915
1789324098585277200,11.410277099609376,-2.227267265319824,2.340428590774536,2.412437915802002
1789324098604127000,11.429126953125,-1.337930679321289,2.3813705444335938,1.5887389183044434
1789324098622976800,11.447976806640625,-1.17750883102417,1.9377014636993408,0.04062938690185547
1789324098641826600,11.46682666015625,-1.5772590637207031,0.8511390686035156,-0.5996150970458984
1789324098660676600,11.485676513671875,-0.35570716857910156,-0.3585343360900879,-0.8136239051818848
1789324098679526400,11.5045263671875,-0.42023706436157227,-3.000070095062256,-1.916348934173584
1789324098698376200,11.523376220703126,0.3193521499633789,-4.540599346160889,-2.6067252159118652
1789324098717226000,11.54222607421875,0.40753173828125,-4.061713218688965,-2.381591320037842
1789324098736075800,11.56107568359375,0.21934080123901367,-3.0689563751220703,-1.790820598602295
1789324098754925600,11.579925537109375,0.841484546661377,-2.261026382446289,-1.09141206741333
1789324098773775600,11.598775634765625,1.7854976654052734,-1.8595633506774902,-1.0606498718261719
1789324098792625400,11.61762548828125,2.877161979675293,-1.6027984619140625,-1.8909788131713867
1789324098811475200,11.63647509765625,3.194711685180664,-1.371805191040039,-2.497488021850586
1789324098830325000,11.655324951171876,2.2483339309692383,-0.8942909240722656,-2.364004611968994
1789324098849175000,11.674175048828126,1.0088400840759277,-0.9729986190795898,-1.330185890197754
1789324098868024800,11.69302490234375,0.9524688720703125,-1.2491850852966309,0.5030269622802734
1789324098886874600,11.71187451171875,1.165499210357666,-1.8164453506469727,0.46316099166870117
1789324098905724400,11.730724365234375,1.6775999069213867,-0.5747642517089844,0.058074951171875
1789324098924574200,11.74957421875,1.8602790832519531,0.8267917633056641,-0.9572186470031738
1789324098943424000,11.768424072265624,1.7877197265625,1.5402698516845703,-0.7786731719970703
1789324098962273800,11.787273681640626,1.097440242767334,1.2431683540344238,0.36192798614501953
1789324098981123800,11.806123779296875,1.0375409126281738,0.699554443359375,0.12130308151245117
1789324098999973600,11.8249736328125,1.0008502006530762,-0.9363775253295898,-0.29477691650390625
1789324099018823400,11.843823486328125,1.2093567848205566,-2.4237680435180664,-0.7268862724304199
1789324099047098000,11.87209814453125,0.8722214698791504,-2.0716896057128906,-1.1587047576904297
1789324099065948000,11.890947998046874,0.7223610877990723,-1.192667007446289,-1.193718433380127
1789324099084797700,11.909797607421876,0.5151677131652832,-1.1061601638793945,-0.9946470260620117
1789324099103647700,11.928647705078125,0.9364175796508789,-1.2688097953796387,-0.8567619323730469
1789324099122497500,11.94749755859375,1.690173625946045,-1.796410083770752,-0.9992761611938477
1789324099141347300,11.966347412109375,1.743779182434082,-1.9984736442565918,-0.9328212738037109
1789324099160197000,11.985197021484375,0.583808422088623,-1.592484474182129,-2.0938262939453125
1789324099179047000,12.004046875,-0.8029298782348633,-0.9650821685791016,-1.5331673622131348
1789324099197896700,12.022896728515626,-1.4782700538635254,0.5316061973571777,-0.2678213119506836
1789324099216746500,12.04174658203125,-1.4655985832214355,0.878054141998291,0.6915349960327148
1789324099235596300,12.06059619140625,-0.6043586730957031,-0.055739402770996094,0.05550670623779297
1789324099254446300,12.0794462890625,-0.9790158271789551,-0.744873046875,-0.43384790420532227
1789324099273296100,12.098296142578125,-1.3017692565917969,-1.1428675651550293,-0.024665117263793945
1789324099292146000,12.11714599609375,-1.467602252960205,-0.6423778533935547,0.3182697296142578
1789324099310995700,12.13599560546875,-1.1196541786193848,-0.5076518058776855,0.6096818447113037
1789324099329845500,12.154845458984376,-1.091252326965332,-2.003037929534912,-0.33509039878845215
1789324099348695300,12.1736953125,-0.016884803771972656,-0.5971806049346924,0.5930092334747314
1789324099367545000,12.192545166015625,0.2552976608276367,0.052931785583496094,0.7534265518188477
1789324099386395000,12.211394775390625,-2.217039108276367,0.5532510280609131,0.939215898513794
1789324099405244700,12.23024462890625,-2.600109100341797,0.6326274871826172,0.8837966918945312
1789324099424094500,12.249094482421874,-1.6117916107177734,0.3069114685058594,1.013427734375
1789324099442944500,12.267944580078124,-2.689155101776123,-0.10243105888366699,0.9184398651123047
1789324099461794300,12.286794189453126,-3.5774664878845215,0.9496523141860962,1.4689278602600098
1789324099480644000,12.30564404296875,-4.2619547843933105,1.4900119304656982,1.5038034915924072
1789324099508918800,12.333918701171875,-3.719331741333008,0.7415931224822998,2.761324167251587
1789324099527768600,12.3527685546875,-3.345824718475342,1.2029777765274048,2.966503381729126
1789324099546618400,12.371618408203124,-2.8370823860168457,1.753820776939392,2.877086877822876
1789324099565468200,12.39046826171875,-2.157602310180664,1.81984543800354,2.4380714893341064
1789324099584318000,12.40931787109375,-0.042334556579589844,0.9947407245635986,2.4808897972106934
1789324099603167700,12.428167724609375,-0.2425060272216797,1.0314950942993164,1.0140459537506104
1789324099622017500,12.447017578125,-1.6392545700073242,0.9379901885986328,-0.298551082611084
1789324099640867300,12.465867431640625,-0.4019503593444824,0.0845940113067627,-0.20588111877441406
1789324099659717000,12.484717041015625,-1.1864819526672363,-1.622304916381836,-0.8089823722839355
1789324099678567000,12.50356689453125,-0.7961387634277344,-2.7206339836120605,-1.2517147064208984
1789324099697417000,12.5224169921875,-0.25307464599609375,-2.6831045150756836,-0.8250846862792969
1789324099716266800,12.541266845703126,0.13833093643188477,-0.714686393737793,-0.05634641647338867
1789324099735116500,12.560116455078125,0.2335643768310547,0.20790719985961914,-0.23581886291503906
1789324099753966300,12.57896630859375,0.1712021827697754,0.1648416519165039,-0.6846685409545898
1789324099772816100,12.597816162109375,0.1800994873046875,-0.3667135238647461,-1.8182501792907715
1789324099791666000,12.616666015625,1.0790128707885742,-1.0691237449645996,-2.0011324882507324
1789324099810515700,12.635515625,2.011129379272461,-2.1595520973205566,-2.4604668617248535
1789324099829365500,12.654365478515626,1.616091251373291,-3.3633294105529785,-2.524582862854004
1789324099848215300,12.67321533203125,1.2693705558776855,-2.511497974395752,-1.221724510192871
1789324099867065000,12.692065185546875,1.7956218719482422,-0.5039958953857422,-0.1969618797302246
1789324099885915000,12.710914794921875,2.4726834297180176,0.07529401779174805,0.28143978118896484
1789324099904764700,12.7297646484375,1.9364023208618164,0.3295927047729492,-0.40758609771728516
1789324099923614500,12.748614501953124,2.1595845222473145,0.17026090621948242,-1.6080365180969238
1789324099942464300,12.76746435546875,2.0346155166625977,-1.3687305450439453,-1.7365455627441406
1789324099961314000,12.78631396484375,1.7144203186035156,-2.69338321685791,-0.7413029670715332
1789324099980163800,12.805163818359375,1.4827685356140137,-2.87326717376709,0.10607242584228516
1789324099999013600,12.824013671875,1.6639957427978516,-2.0426082611083984,-0.20125532150268555
1789324100017863400,12.842863525390625,1.0956721305847168,-0.7740821838378906,-0.37648439407348633
1789324100036713200,12.861713134765624,0.06630659103393555,0.7960104942321777,-0.7797131538391113
1789324100055563000,12.88056298828125,-0.6962409019470215,1.6431488990783691,-0.27567434310913086
1789324100074412800,12.899412841796876,-0.3462691307067871,1.751749038696289,0.41697216033935547
1789324100093262800,12.918262939453125,0.21255970001220703,0.9089393615722656,0.41765546798706055
1789324100112112600,12.937112548828125,0.5162930488586426,-0.9445266723632812,0.34660768508911133
1789324100130962400,12.95596240234375,1.4497933387756348,-2.188098907470703,-0.8770895004272461
1789324100149812200,12.974812255859375,1.293290615081787,-3.0943684577941895,-2.067180633544922
1789324100168662000,12.993662109375,0.5263128280639648,-3.041377544403076,-2.0168285369873047
1789324100187511800,13.01251171875,-0.060474395751953125,-1.662698745727539,-1.427565574645996
1789324100206361600,13.031361572265626,-0.03047800064086914,0.20009183883666992,-0.5607790946960449
1789324100225211400,13.05021142578125,0.9953017234802246,0.916630744934082,-0.8085012435913086
1789324100244061200,13.069061279296875,2.1095938682556152,-0.04231882095336914,-1.7031450271606445
1789324100262911000,13.087910888671875,1.7398695945739746,-1.2091145515441895,-2.6764121055603027
1789324100281760800,13.1067607421875,-0.07816505432128906,-1.6784086227416992,-2.0339479446411133
1789324100300610600,13.125610595703124,-1.9441423416137695,-1.8018453121185303,-0.6954941749572754
1789324100319460400,13.14446044921875,-3.419363498687744,-0.658998966217041,0.5308239459991455
1789324100338310100,13.16331005859375,-4.189003944396973,1.340130090713501,1.1679489612579346
1789324100357160000,13.182159912109375,-2.858799457550049,0.5950431823730469,0.6626160144805908
1789324100376009700,13.201009765625,-1.7051215171813965,0.6438443660736084,0.7339968681335449
1789324100394859500,13.219859619140625,-1.7036871910095215,0.7150018215179443,1.4457463026046753
1789324100413709300,13.238709228515624,-2.576446056365967,0.36928653717041016,1.3491613864898682
1789324100432559000,13.25755908203125,-2.1024937629699707,0.13628482818603516,0.9959539175033569
1789324100451409000,13.276408935546876,-1.627018928527832,0.5680514574050903,1.3586901426315308
1789324100470258700,13.2952587890625,-1.9003396034240723,-0.09704709053039551,0.8971735239028931
1789324100489108500,13.3141083984375,-2.554295539855957,0.20773959159851074,0.36128711700439453
1789324100507958300,13.332958251953125,-3.3047637939453125,1.099343180656433,0.5770485401153564
1789324100526807800,13.351807861328124,-2.0428099632263184,1.1161267757415771,1.3516924381256104
1789324100555082500,13.38008251953125,-1.524977207183838,0.4305698871612549,1.9656214714050293
1789324100573932300,13.398932373046875,-2.172037124633789,0.6196613311767578,1.731616735458374
1789324100592782000,13.417781982421875,-2.7079062461853027,1.0389137268066406,1.6485059261322021
1789324100611631900,13.4366318359375,-2.1960558891296387,1.35698401927948,1.5604267120361328
1789324100630481700,13.455481689453125,-1.9048280715942383,1.1549437046051025,1.5628182888031006
1789324100649331500,13.47433154296875,-2.1579666137695312,1.790276050567627,1.250828742980957
1789324100668181200,13.49318115234375,-2.143555164337158,2.106163501739502,0.7432589530944824
1789324100687031000,13.512031005859376,-1.2917699813842773,0.9666268825531006,0.36263084411621094
1789324100705880800,13.530880859375,-0.9583544731140137,-0.5034008026123047,-0.00825643539428711
1789324100724730600,13.549730712890625,-0.7107343673706055,-0.9922013282775879,-0.546816349029541
1789324100743580400,13.568580322265625,-0.8637900352478027,-1.8785839080810547,-1.0788321495056152
1789324100762430200,13.58743017578125,-0.3398585319519043,-1.954096794128418,-1.556046962738037
1789324100781280000,13.606280029296874,-0.07691669464111328,-1.9180479049682617,-1.256098747253418
1789324100800129800,13.6251298828125,-0.0951995849609375,-1.7660565376281738,-1.5000905990600586
1789324100818979600,13.6439794921875,0.989417552947998,-1.5885000228881836,-1.6526784896850586
1789324100837829400,13.662829345703125,2.704514980316162,-1.8513059616088867,-2.1635003089904785
1789324100856679200,13.68167919921875,3.395951271057129,-2.4606847763061523,-2.927689552307129
1789324100875528700,13.70052880859375,2.5002641677856445,-2.5354433059692383,-2.9048562049865723
1789324100894378500,13.71937841796875,2.126168727874756,-1.672750473022461,-1.5759410858154297
1789324100913228300,13.738228271484376,2.015359878540039,-1.3424668312072754,-0.2142353057861328
1789324100932078000,13.757078125,1.559934139251709,-1.7209482192993164,0.2086038589477539
1789324100950928000,13.775927978515625,1.1619305610656738,-1.523355484008789,-0.10921669006347656
1789324100969777700,13.794777587890625,1.3436708450317383,0.29642391204833984,-0.17120075225830078
1789324100988627500,13.81362744140625,1.4377570152282715,1.0501532554626465,-0.3553915023803711
1789324101007477200,13.832477294921874,1.3878059387207031,1.1156415939331055,-0.36124134063720703
1789324101026327000,13.8513271484375,1.0801901817321777,0.5498104095458984,0.04285144805908203
1789324101045176800,13.8701767578125,0.8247146606445312,0.23058795928955078,0.08183431625366211
1789324101064026600,13.889026611328125,0.6468605995178223,-0.7040605545043945,-0.06398487091064453
1789324101082876400,13.90787646484375,0.4396781921386719,-1.9006309509277344,-0.3852386474609375
1789324101101726000,13.926725830078125,0.008900165557861328,-1.7661118507385254,-0.4424896240234375
1789324101120575700,13.94557568359375,0.3784976005554199,-0.630821704864502,-0.555119514465332
1789324101139425500,13.964425537109374,0.9079203605651855,0.10367393493652344,-0.7205252647399902
1789324101158275300,13.983275390625,0.9469294548034668,-0.17945337295532227,-1.196913719177246
1789324101177125000,14.002125,1.795877456665039,-0.7667679786682129,-1.2517075538635254
1789324101195975000,14.020974853515625,2.304086208343506,-1.3876514434814453,-1.3747186660766602
1789324101214824700,14.03982470703125,1.4588298797607422,-2.047065258026123,-1.55078125
1789324101233674500,14.058674560546875,0.4417605400085449,-1.8624110221862793,-1.4646353721618652
1789324101252524300,14.077524169921874,-0.5927824974060059,-1.0207810401916504,-1.3285036087036133
1789324101271373800,14.096373779296876,-0.7278285026550293,-0.1052408218383789,-0.7942638397216797
1789324101290223600,14.1152236328125,0.22426986694335938,0.3271484375,-0.6040349006652832
1789324101309073400,14.134073486328125,0.5968379974365234,-0.6733956336975098,-0.8679337501525879
1789324101327923200,14.152923095703125,0.9794750213623047,-1.401475429534912,-0.8539891242980957
1789324101346773000,14.17177294921875,0.5326528549194336,-1.9979383945465088,-0.3062753677368164
1789324101365622800,14.190622802734374,-0.8661742210388184,-2.364500045776367,-0.9356305599212646
1789324101384472600,14.20947265625,-2.7957916259765625,-1.115309476852417,-1.3795042037963867
1789324101403322400,14.228322265625,-3.89925479888916,0.8614306449890137,-0.023876190185546875
1789324101422172000,14.247171875,-4.122825622558594,1.2265537977218628,1.631723403930664
1789324101441021700,14.266021728515625,-4.068490505218506,2.2040257453918457,2.856811761856079
1789324101459871500,14.28487158203125,-3.322629928588867,1.7344169616699219,3.2892491817474365
1789324101478721300,14.30372119140625,-2.039088726043701,0.9100848436355591,3.8561620712280273
1789324101497571000,14.322571044921874,-1.838414192199707,-0.43020129203796387,1.7540175914764404
1789324101516420900,14.3414208984375,-2.7994823455810547,-0.9900631904602051,0.13382911682128906
1789324101535270400,14.3602705078125,-3.131829261779785,0.10138106346130371,0.676220178604126
1789324101554120200,14.3791201171875,-0.2635955810546875,0.680168628692627,2.2791991233825684
1789324101572970000,14.397969970703125,0.22070980072021484,1.2323698997497559,0.889089822769165
1789324101591819800,14.41681982421875,-2.03177547454834,0.8099411725997925,0.7405264377593994
1789324101610669600,14.435669677734374,-2.1132802963256836,1.7319774627685547,0.9057915210723877
1789324101629519400,14.454519287109376,-1.8305506706237793,1.4629392623901367,1.4174151420593262
1789324101648369000,14.473368896484375,-2.2732510566711426,0.9253215789794922,1.6147007942199707
1789324101667218700,14.49221875,-2.3529114723205566,1.2243702411651611,1.491997241973877
1789324101686068500,14.511068359375,-1.6341638565063477,1.3251194953918457,1.9175825119018555
1789324101704918300,14.529918212890625,-0.7557492256164551,1.2928695678710938,1.5604681968688965
1789324101723768000,14.54876806640625,-2.34014892578125,0.5068206787109375,0.23873376846313477
1789324101742617600,14.56761767578125,-1.5723905563354492,-0.17479991912841797,0.06992959976196289
1789324101761467400,14.58646728515625,0.5790905952453613,-0.7058844566345215,0.07679891586303711
1789324101780317200,14.605317138671875,1.6214604377746582,-0.9416351318359375,-0.4545907974243164
1789324101799167000,14.6241669921875,-0.2504730224609375,-1.4178485870361328,-2.5523767471313477
1789324101818016800,14.643016845703125,-1.2803974151611328,-2.3658270835876465,-2.6581459045410156
1789324101836866300,14.6618662109375,0.6798853874206543,-3.220950126647949,-2.3211417198181152
1789324101855716000,14.680716064453126,2.0161666870117188,-4.489505767822266,-2.2057480812072754
1789324101874566000,14.69956591796875,1.982858657836914,-4.520107746124268,-2.781503677368164
1789324101893415700,14.718415771484375,2.041799545288086,-2.7615647315979004,-2.131381034851074
1789324101912265500,14.737265380859375,2.2064261436462402,-0.14322566986083984,-0.5016560554504395
1789324101931115000,14.756114990234375,2.272587776184082,1.0069904327392578,-0.14308404922485352
1789324101949964800,14.77496484375,2.195002555847168,1.1878480911254883,-0.5578336715698242
1789324101968814600,14.793814697265624,2.2517776489257812,0.702385425567627,-0.9876742362976074
1789324101987664400,14.812664306640626,2.232015609741211,-0.20945501327514648,-1.4934697151184082
1789324102006514000,14.831513916015625,2.043818950653076,-0.730952262878418,-0.8422060012817383
1789324102034788600,14.85978857421875,1.7976484298706055,-1.1295514106750488,-0.6386189460754395
1789324102053638400,14.878638427734375,0.7817449569702148,-1.5029330253601074,-0.25914621353149414
1789324102072488200,14.89748828125,-0.2579660415649414,-0.7456178665161133,0.29929208755493164
1789324102091337700,14.916337646484376,0.016721248626708984,0.040819644927978516,0.4363560676574707
1789324102110187500,14.9351875,0.7526569366455078,0.08089685440063477,-0.5539231300354004
1789324102129037300,14.954037353515625,1.0099329948425293,-1.1053385734558105,-1.4816255569458008
1789324102147887000,14.97288720703125,1.3202095031738281,-1.329580307006836,-2.2787275314331055
1789324102166736600,14.991736572265625,1.181396484375,-1.221327304840088,-1.9080133438110352
1789324102185586400,15.01058642578125,0.9270801544189453,-1.0699310302734375,-0.6697535514831543
1789324102204436200,15.029436279296876,0.05556821823120117,-0.560636043548584,-0.2942948341369629
1789324102223286000,15.0482861328125,-0.7930703163146973,-0.15101337432861328,-0.31899499893188477
1789324102242135600,15.067135498046875,-0.9925065040588379,0.42145252227783203,-0.8041763305664062
1789324102260985300,15.0859853515625,-0.9788260459899902,0.3548297882080078,-1.086935043334961
1789324102279835100,15.104835205078125,0.048628807067871094,-0.6308150291442871,-0.8669567108154297
1789324102298685000,15.123684814453124,1.3383750915527344,-1.0980782508850098,-1.0886516571044922
1789324102317534500,15.142534423828126,1.3306751251220703,-1.478886604309082,-1.6916790008544922
1789324102336384300,15.16138427734375,0.7693061828613281,-1.2407679557800293,-1.94407320022583
1789324102355234000,15.180234130859375,-1.3239727020263672,-1.2006735801696777,-0.5234885215759277
1789324102374083600,15.19908349609375,-2.8664917945861816,-0.2191450595855713,0.05242586135864258
1789324102392933400,15.217933349609375,-3.0189385414123535,2.1539244651794434,0.5669898986816406
1789324102411783200,15.236783203125,-2.272125244140625,1.217193603515625,0.13908815383911133
1789324102430632700,15.2556328125,-1.5725555419921875,0.13351106643676758,0.21547603607177734
1789324102449482500,15.274482421875,-1.4332494735717773,-0.5993256568908691,0.9205535650253296
1789324102468332300,15.293332275390625,-2.1014513969421387,-0.43901944160461426,0.968042254447937
1789324102487182000,15.31218212890625,-3.238450527191162,-0.6157429218292236,0.853370189666748
1789324102506031600,15.331031494140625,-3.6303091049194336,0.08614373207092285,1.264713168144226
1789324102524881400,15.34988134765625,-3.9063687324523926,0.8855428695678711,1.812207579612732
1789324102543731200,15.368731201171874,-2.833148956298828,1.891015887260437,3.6863362789154053
1789324102562580700,15.387580810546876,-1.2027430534362793,1.6444305181503296,2.860280990600586
1789324102581430500,15.406430419921875,-0.7241220474243164,1.2124212980270386,1.3917282819747925
1789324102600280300,15.4252802734375,-1.3055014610290527,0.25492095947265625,0.7814743518829346
1789324102619129900,15.4441298828125,-2.4480133056640625,0.2861952781677246,0.28912925720214844
1789324102637979600,15.462979736328125,-2.805964469909668,0.6348414421081543,0.7103586196899414
1789324102656829400,15.481829345703124,-2.7405920028686523,1.2545185089111328,1.1396698951721191
1789324102675679000,15.500678955078126,-2.2350687980651855,1.2594560384750366,2.022251605987549
1789324102694528800,15.51952880859375,-2.017329216003418,1.6257719993591309,1.983520746231079
1789324102713378600,15.538378662109375,-1.5403337478637695,1.8650270700454712,1.331618070602417
1789324102732228000,15.55722802734375,-0.42778539657592773,0.9053366184234619,0.9462206363677979
1789324102751078000,15.576077880859375,-0.545832633972168,0.09880304336547852,0.2371826171875
1789324102769927700,15.594927734375,-0.8811335563659668,-1.2469520568847656,-0.748415470123291
1789324102788777200,15.613777099609376,-0.18741559982299805,-3.4795851707458496,-1.921229362487793
1789324102807627000,15.632626953125,0.6858310699462891,-4.677541255950928,-2.612964630126953
1789324102826476800,15.651476806640625,1.3074803352355957,-4.705207347869873,-3.3503122329711914
1789324102845326300,15.670326416015625,2.039578914642334,-4.1977858543396,-3.1611461639404297
1789324102864176000,15.689176025390625,2.5450544357299805,-2.9932117462158203,-2.6802806854248047
1789324102883026000,15.70802587890625,3.386350154876709,-2.072474956512451,-2.812282085418701
1789324102901875500,15.72687548828125,2.971517562866211,-1.9864888191223145,-1.8962674140930176
1789324102920725200,15.745725341796875,2.5114879608154297,-1.4295806884765625,-0.810053825378418
1789324102939575000,15.764574951171875,2.4157209396362305,-0.5872159004211426,-0.21675777435302734
1789324102958424600,15.783424560546875,1.85982084274292,0.3523731231689453,-0.38629722595214844
1789324102977274400,15.8022744140625,1.1573777198791504,0.9188499450683594,-0.509124755859375
1789324102996124000,15.8211240234375,1.4599685668945312,1.1986432075500488,-0.5307374000549316
1789324103014973700,15.8399736328125,1.7742199897766113,1.0253939628601074,-0.733454704284668
1789324103033823500,15.858823486328125,1.5243959426879883,-0.3579978942871094,-0.7529854774475098
1789324103052673000,15.877673095703125,1.0497727394104004,-1.5792384147644043,-0.8229479789733887
1789324103071522800,15.896522705078125,0.9302186965942383,-1.7378287315368652,-0.8222317695617676
1789324103090372400,15.915372314453125,0.7888550758361816,-1.3631715774536133,-0.7737798690795898
1789324103109222100,15.93422216796875,0.5656681060791016,-0.911736011505127,-0.991206169128418
1789324103128072000,15.953072021484376,0.7983441352844238,-1.0044355392456055,-1.1886568069458008
1789324103146921500,15.97192138671875,1.1658496856689453,-1.5324006080627441,-1.1656465530395508
1789324103165771300,15.990771240234375,1.0650854110717773,-2.046593189239502,-1.0836267471313477
1789324103184621000,16.00962109375,0.5887212753295898,-2.3286709785461426,-1.0991549491882324
1789324103203470600,16.028470703125,-0.012909412384033203,-1.693979263305664,-0.9109787940979004
1789324103222320400,16.0473203125,-0.9882626533508301,-0.5068111419677734,-0.8672003746032715
1789324103241170000,16.066169921875,-1.3316655158996582,0.4643402099609375,-0.8691129684448242
1789324103260019700,16.085019775390624,-1.0993337631225586,0.7385320663452148,-0.44641542434692383
1789324103278869200,16.103869140625,-0.9363408088684082,0.09232950210571289,-0.4960956573486328
1789324103297719000,16.122718994140627,-0.6091060638427734,-0.21209049224853516,-0.7073040008544922
1789324103316568800,16.14156884765625,0.7683525085449219,-0.23604822158813477,-0.7776155471801758
1789324103335418400,16.16041845703125,1.457930564880371,-1.1662144660949707,-1.755744218826294
1789324103354268200,16.17926806640625,-0.24188613891601562,-2.824700117111206,-2.1328585147857666
1789324103373117700,16.19811767578125,-2.7818007469177246,-2.5100653171539307,-0.6874504089355469
1789324103391967500,16.216967529296873,-3.4761710166931152,1.8999414443969727,0.8924834728240967
1789324103410817300,16.2358173828125,-2.407247543334961,0.7830064296722412,-0.2590310573577881
1789324103429666800,16.254666748046876,-1.199070930480957,0.23296403884887695,-0.05392646789550781
1789324103448516400,16.273516357421876,-2.482607841491699,0.8678548336029053,0.9239282608032227
1789324103467366100,16.2923662109375,-2.760523796081543,0.6802600622177124,1.4108178615570068
1789324103486216000,16.3112158203125,-2.9582815170288086,-0.0015289783477783203,1.1612896919250488
1789324103505065500,16.3300654296875,-3.3064379692077637,-0.18024015426635742,1.3526893854141235
1789324103523915300,16.348915283203127,-3.628418445587158,0.6897038221359253,1.4258521795272827
1789324103542764800,16.367764892578126,-2.25679874420166,0.5296318531036377,1.3239216804504395
1789324103561614600,16.386614501953126,-2.3920397758483887,0.1925504207611084,1.2286707162857056
1789324103580464000,16.405464111328126,-2.4233903884887695,0.6819155216217041,1.7983551025390625
1789324103599314000,16.42431396484375,-2.6182799339294434,0.8610755205154419,1.677968978881836
1789324103618163500,16.44316357421875,-2.1906862258911133,0.9688683748245239,2.0472187995910645
1789324103637013200,16.46201318359375,-1.8169431686401367,1.0945122241973877,2.0649783611297607
1789324103655862800,16.48086279296875,-2.276294708251953,1.3776663541793823,1.3273324966430664
1789324103674712600,16.499712646484376,-2.95982027053833,1.9899362325668335,0.9208076000213623
1789324103693562400,16.518562255859376,-2.6466689109802246,2.325803518295288,0.8908839225769043
1789324103712412000,16.537411865234375,-0.917719841003418,1.801778793334961,1.1626684665679932
1789324103731261700,16.55626171875,-0.5288858413696289,0.8727030754089355,0.2758955955505371
1789324103750111200,16.575111328125,-1.1037230491638184,-0.8684372901916504,-0.8787856101989746
1789324103768961000,16.5939609375,-0.42939281463623047,-1.375636100769043,-1.289231777191162
1789324103787810600,16.612810546875,-1.364640235900879,-2.8352890014648438,-1.774343490600586
1789324103806660400,16.631660400390626,-0.7864747047424316,-2.8430943489074707,-1.696518898010254
1789324103825510000,16.650510009765625,-0.2702174186706543,-2.258747100830078,-1.2323684692382812
1789324103844359400,16.669359375,0.9318537712097168,-1.1968765258789062,-0.7775187492370605
1789324103863209200,16.688209228515625,2.07279634475708,-0.9302377700805664,-1.6444487571716309
1789324103882058800,16.707058837890624,2.162919521331787,-1.8304028511047363,-3.031003475189209
1789324103900908500,16.725908447265624,2.49000883102417,-3.2752127647399902,-3.626121997833252
1789324103919758000,16.744758056640624,2.857362747192383,-4.1943440437316895,-2.6404528617858887
1789324103938607900,16.76360791015625,2.48946475982666,-3.3922362327575684,-1.195505142211914
1789324103957457400,16.78245751953125,1.7956247329711914,-0.8943476676940918,-0.06902313232421875
1789324103976307200,16.80130712890625,1.3640551567077637,1.0275111198425293,-0.1546015739440918
1789324103995156700,16.82015673828125,1.4973373413085938,1.8250069618225098,-0.2381911277770996
1789324104014006500,16.839006591796874,1.166487693786621,0.9495000839233398,-0.003638744354248047
1789324104032856000,16.85785595703125,1.3612337112426758,-0.8534297943115234,-0.02176189422607422
1789324104051705900,16.876705810546873,1.677567481994629,-1.477492332458496,0.47236156463623047
1789324104070555400,16.895555419921877,1.4625754356384277,-1.4851317405700684,0.4660158157348633
1789324104089405200,16.9144052734375,0.6366028785705566,-1.0946879386901855,0.15138864517211914
1789324104108254700,16.933254638671876,-0.027146339416503906,-0.47740793228149414,0.08369159698486328
1789324104127104500,16.9521044921875,-0.1474466323852539,-0.027029037475585938,0.20533466339111328
1789324104145954000,16.9709541015625,0.28824567794799805,-0.14156007766723633,0.019447803497314453
1789324104164803600,16.989803466796875,0.9133510589599609,-0.7441816329956055,-0.6768941879272461
1789324104183653400,17.0086533203125,1.3706483840942383,-1.3966960906982422,-1.144749641418457
1789324104202503000,17.0275029296875,1.711972713470459,-1.7354960441589355,-1.7192559242248535
1789324104221352400,17.0463525390625,1.6740083694458008,-1.4703474044799805,-1.6299505233764648
1789324104240202200,17.0652021484375,0.8118906021118164,-1.0971221923828125,-0.964627742767334
1789324104259051800,17.0840517578125,0.033504486083984375,-0.6836285591125488,-0.5672721862792969
1789324104277901600,17.102901611328125,-0.5458493232727051,-0.6675124168395996,-0.5765557289123535
1789324104296751000,17.121751220703125,0.1139974594116211,-0.37322044372558594,-0.3708620071411133
1789324104315601000,17.140600830078125,0.9772863388061523,-0.5736837387084961,-0.5909409523010254
1789324104334450400,17.159450439453124,1.2089662551879883,-1.286041259765625,-0.9995899200439453
1789324104353300000,17.178300048828124,0.3810873031616211,-1.8926429748535156,-1.7413597106933594
1789324104372149800,17.197149658203124,-0.6482019424438477,-1.9345345497131348,-1.427706241607666
1789324104390999300,17.215999267578123,-2.0475683212280273,-1.3727059364318848,0.1617741584777832
1789324104409849000,17.23484912109375,-3.034031391143799,-0.2810046672821045,1.2838647365570068
1789324104428698600,17.25369873046875,-3.4013147354125977,2.0935845375061035,2.042827606201172
1789324104447548200,17.272548095703126,-1.6013121604919434,0.9976136684417725,0.4076871871948242
1789324104466398000,17.29139794921875,-0.4824867248535156,-0.09139037132263184,0.6623122692108154
1789324104485247500,17.31024755859375,-1.624204158782959,-0.34709835052490234,1.1453715562820435
1789324104504097300,17.32909716796875,-2.6197361946105957,0.4496486186981201,1.6462135314941406
1789324104522946800,17.34794677734375,-3.3472166061401367,1.1844749450683594,1.960911512374878
1789324104541796400,17.36679638671875,-2.990370273590088,0.784101128578186,2.044670343399048
1789324104560646100,17.385646240234376,-2.4352493286132812,0.43846917152404785,1.630962610244751
1789324104579495700,17.40449560546875,-2.308157444000244,0.8147295713424683,2.0828378200531006
1789324104598345200,17.42334521484375,-2.015666961669922,0.8700344562530518,2.0393683910369873
1789324104617195000,17.442195068359375,-1.9641914367675781,0.7806675434112549,2.320925712585449
1789324104636044500,17.46104443359375,-2.7172656059265137,0.8875207901000977,1.7870784997940063
1789324104654894000,17.47989404296875,-2.3265814781188965,1.2031054496765137,2.0263657569885254
1789324104673744000,17.498743896484374,-1.1613969802856445,1.231993556022644,2.108152389526367
1789324104692593400,17.517593505859374,-1.9026217460632324,1.2187564373016357,1.6496412754058838
1789324104711443000,17.53644287109375,-2.677861213684082,1.741378903388977,1.2124238014221191
1789324104730292700,17.555292724609377,-2.4910202026367188,1.7103617191314697,0.94803786277771
1789324104749142300,17.574142333984376,-1.3795819282531738,1.0221824645996094,1.0725438594818115
1789324104767992000,17.592991943359376,0.25437021255493164,0.19219064712524414,0.9120666980743408
1789324104786841600,17.611841552734376,-0.8869762420654297,-0.23014211654663086,-0.013947010040283203
1789324104805691100,17.630691162109375,-1.5867295265197754,-1.31746244430542,-0.6338558197021484
1789324104824540700,17.649540771484375,-0.21076011657714844,-2.583146095275879,-0.8602046966552734
1789324104843390500,17.668390380859375,0.625849723815918,-3.562713623046875,-1.5101509094238281
1789324104862240000,17.687239990234374,0.6975889205932617,-3.823439598083496,-2.6418304443359375
1789324104881089500,17.706089599609374,1.0608177185058594,-3.3686842918395996,-2.6501779556274414
1789324104899939300,17.724939208984374,1.9262175559997559,-2.359428882598877,-2.515929698944092
1789324104918788900,17.743788818359373,2.8223366737365723,-1.3303546905517578,-2.0970115661621094
1789324104937638400,17.762638427734377,2.660531997680664,-0.6946587562561035,-1.5682945251464844
1789324104956488200,17.78148828125,2.7075629234313965,-0.31630611419677734,-1.3259263038635254
1789324104975337700,17.800337646484376,2.7859349250793457,-0.48180532455444336,-0.8044328689575195
1789324104994187300,17.819187255859376,2.1303329467773438,-0.6186408996582031,-0.3158426284790039
1789324105013037000,17.838037109375,1.5530672073364258,-0.7398681640625,-0.040169715881347656
1789324105031886600,17.856886474609375,1.469465732574463,-0.038739681243896484,-0.60882568359375
1789324105050736000,17.875736083984375,1.7741584777832031,-0.2363414764404297,-0.9611248970031738
1789324105069585700,17.894585693359375,1.9961271286010742,-0.7814850807189941,-0.9207377433776855
1789324105088435500,17.913435546875,1.768312931060791,-0.46630382537841797,-0.6146893501281738
1789324105107285000,17.932284912109374,1.3793587684631348,-0.11216545104980469,-0.5053257942199707
1789324105126134500,17.951134521484374,0.624875545501709,-0.3495821952819824,-0.8146209716796875
1789324105144984000,17.969984130859373,0.2822685241699219,-0.7205491065979004,-1.0848002433776855
1789324105163833900,17.988833740234377,0.3547382354736328,-1.0428504943847656,-0.9409494400024414
1789324105182683400,18.007683349609376,0.16872215270996094,-0.8138818740844727,-0.9047818183898926
1789324105201533000,18.026532958984376,-0.019176959991455078,-0.7536783218383789,-0.5519223213195801
1789324105220382700,18.0453828125,0.08814382553100586,-0.6751928329467773,-0.1868739128112793
1789324105239232300,18.064232177734375,0.802525520324707,-1.1641697883605957,0.21943235397338867
1789324105258081800,18.083081787109375,1.2830028533935547,-1.3258867263793945,-0.5674829483032227
1789324105276931300,18.101931396484375,0.7246718406677246,-1.2970104217529297,-1.682328224182129
1789324105295781000,18.120781005859374,-0.12466096878051758,-1.0152740478515625,-2.029600143432617
1789324105314630700,18.139630615234374,-0.10721206665039062,-0.5823030471801758,-1.6750025749206543
1789324105333480200,18.158480224609374,0.41486167907714844,-0.7188968658447266,-0.8378520011901855
1789324105352329700,18.177329833984373,0.38943052291870117,-1.1701531410217285,-0.9436078071594238
1789324105371179500,18.196179443359377,0.1398763656616211,-1.3148441314697266,-1.2307968139648438
1789324105390029000,18.215029052734376,0.049834251403808594,-1.5350227355957031,-1.046522617340088
1789324105408878600,18.233878662109376,-0.9046845436096191,-1.6864094734191895,-0.1690664291381836
1789324105427728100,18.25272802734375,-1.9149045944213867,-1.330007553100586,-0.3980448246002197
1789324105446577700,18.27157763671875,-2.752779960632324,1.4031836986541748,1.047478437423706
1789324105465427500,18.290427490234375,-2.3038711547851562,0.6345312595367432,0.8190016746520996
1789324105484277000,18.309277099609375,-1.9421625137329102,0.39124441146850586,0.7235755920410156
1789324105503126500,18.32812646484375,-2.667235851287842,0.3907907009124756,0.9986929893493652
1789324105521976000,18.34697607421875,-3.6068549156188965,0.6664540767669678,1.5249927043914795
1789324105540825900,18.365825927734374,-4.273844242095947,0.7043712139129639,2.087559938430786
1789324105559675400,18.38467529296875,-3.0825891494750977,0.8269921541213989,2.5683891773223877
1789324105578525000,18.40352490234375,-1.2844371795654297,1.011061191558838,2.734496593475342
1789324105597374500,18.42237451171875,-1.6865200996398926,0.5027470588684082,1.1355677843093872
1789324105616224000,18.44122412109375,-1.817021369934082,0.6333861351013184,1.2709903717041016
1789324105635073500,18.460073486328124,-1.7457666397094727,0.7795110940933228,1.520533561706543
1789324105653923300,18.47892333984375,-2.088686943054199,1.0533174276351929,1.4039645195007324
1789324105672772900,18.49777294921875,-2.389373302459717,0.9056179523468018,1.59760320186615
1789324105691622400,18.516622314453127,-1.9971556663513184,1.1660711765289307,1.869872808456421
1789324105710472000,18.535471923828126,-2.092963218688965,1.7906678915023804,1.3029017448425293
1789324105729321500,18.554321533203126,-1.864786148071289,1.738983154296875,0.8180103302001953
1789324105748171300,18.573171142578126,-1.3343095779418945,1.2189435958862305,0.8078172206878662
1789324105767020800,18.592020751953125,-1.0231561660766602,0.8141117095947266,0.432570219039917
1789324105785870300,18.610870361328125,-1.1641530990600586,0.1299452781677246,-0.20453786849975586
1789324105814144800,18.639144775390626,-0.1970691680908203,-0.7633814811706543,-0.465451717376709
1789324105832994300,18.657994384765626,-0.6304678916931152,-1.7158350944519043,-1.3186860084533691
1789324105851843800,18.67684375,0.12488174438476562,-2.085773468017578,-1.5810999870300293
1789324105870693400,18.695693359375,-0.13628721237182617,-1.9251022338867188,-1.4927301406860352
1789324105889543000,18.71454296875,0.019690990447998047,-1.683814525604248,-1.5546083450317383
1789324105908392400,18.733392333984376,0.5915083885192871,-1.7781119346618652,-1.63792085647583
1789324105927242200,18.7522421875,1.5130386352539062,-2.3564200401306152,-2.226184368133545
1789324105946091800,18.771091796875,2.452747344970703,-2.7247314453125,-2.6828322410583496
1789324105964941300,18.78994140625,2.3857641220092773,-2.3574419021606445,-2.242821216583252
1789324105983790800,18.808790771484375,2.519784927368164,-1.3369011878967285,-1.4600539207458496
1789324106002640400,18.827640380859375,2.8327102661132812,-0.9626860618591309,-0.5382657051086426
1789324106021490000,18.846489990234375,2.7308692932128906,-0.5124058723449707,-0.3885970115661621
1789324106040339700,18.865339599609374,2.285754680633545,-0.3702535629272461,-0.87762451171875
1789324106059189200,18.884189208984374,1.5898089408874512,0.02910470962524414,-0.7938756942749023
1789324106078038800,18.903038818359374,1.2260570526123047,0.3381314277648926,-0.19986629486083984
1789324106096888300,18.921888427734373,0.8539047241210938,-0.41133546829223633,0.1672382354736328
1789324106115737900,18.94073779296875,0.8540563583374023,-1.0791234970092773,-0.3832254409790039
1789324106134587400,18.95958740234375,0.26218509674072266,-1.3417744636535645,-0.3560805320739746
1789324106153437000,18.97843701171875,0.12291431427001953,-1.3317160606384277,-0.34904050827026367
1789324106172286500,18.997286376953124,0.44896364212036133,-1.3067774772644043,-0.639958381652832
1789324106191136300,19.01613623046875,0.7769036293029785,-1.1153488159179688,-0.8583555221557617
1789324106209985800,19.03498583984375,1.0056638717651367,-0.2752084732055664,-1.3064699172973633
1789324106228835300,19.05383544921875,0.8948535919189453,-0.06788349151611328,-1.1473960876464844
1789324106247684900,19.072684814453126,1.1168460845947266,-0.23852968215942383,-0.9092040061950684
1789324106266534400,19.091534423828126,1.1691856384277344,-0.6471772193908691,-0.7403535842895508
1789324106285384000,19.110384033203125,0.6385002136230469,-1.1460309028625488,-1.0941085815429688
1789324106304233500,19.1292333984375,-0.09753274917602539,-1.1813454627990723,-1.3533754348754883
1789324106323083000,19.1480830078125,-0.5925564765930176,-0.9389123916625977,-1.2091221809387207
1789324106341932500,19.1669326171875,-0.47072744369506836,-0.9832944869995117,-1.0093350410461426
1789324106360782000,19.185781982421876,-0.14672183990478516,-1.3280792236328125,-1.173415184020996
1789324106379631900,19.2046318359375,-0.17159080505371094,-1.6497302055358887,-1.0273685455322266
1789324106398481400,19.2234814453125,-0.37312936782836914,-1.6316449642181396,-1.027480125427246
1789324106417331000,19.2423310546875,-1.2305521965026855,-0.8488011360168457,0.07590579986572266
1789324106436180500,19.261180419921875,-1.5339908599853516,-1.5592751502990723,0.492476224899292
1789324106455030000,19.280030029296874,-2.2061214447021484,0.8190724849700928,1.854928970336914
1789324106473879600,19.298879638671874,-2.8149991035461426,0.032891273498535156,0.9286468029022217
1789324106492729000,19.31772900390625,-1.875593662261963,-0.2341320514678955,0.33327722549438477
1789324106511578600,19.33657861328125,-1.3945274353027344,-0.13359761238098145,0.7714531421661377
1789324106530428200,19.35542822265625,-1.7721729278564453,0.09685802459716797,1.4900219440460205
1789324106549277700,19.374277587890624,-2.8290367126464844,0.4164782762527466,1.6505433320999146
1789324106568127200,19.393127197265624,-3.288754463195801,0.370924711227417,1.4835420846939087
1789324106586976800,19.411976806640624,-3.130460739135742,0.49140143394470215,1.439753532409668
1789324106605826300,19.430826416015623,-2.6942648887634277,0.6575294733047485,1.9744007587432861
1789324106624675800,19.44967578125,-2.2234363555908203,0.8053306341171265,2.6437015533447266
1789324106643525600,19.468525634765626,-2.01859188079834,0.9718248844146729,2.101137638092041
1789324106662375200,19.487375244140626,-1.9289493560791016,0.7199441194534302,2.3251450061798096
1789324106681224700,19.506224609375,-2.6820874214172363,0.7861233949661255,1.8544334173202515
1789324106700074200,19.52507421875,-2.7352700233459473,0.7269067764282227,2.0624349117279053
1789324106718923800,19.543923828125,-2.484048843383789,0.9764295816421509,2.196430206298828
1789324106737773300,19.562773193359376,-1.8230433464050293,1.5814403295516968,2.2128543853759766
1789324106756622800,19.581622802734376,-1.1444621086120605,1.3998419046401978,2.136828899383545
1789324106775472400,19.600472412109376,-0.9267916679382324,1.3622121810913086,1.040210247039795
1789324106794322000,19.619322021484376,-0.48703718185424805,0.6742942333221436,-0.21925973892211914
1789324106813171500,19.63817138671875,-0.1873006820678711,-0.32889795303344727,-0.8663463592529297
1789324106832021000,19.65702099609375,0.278564453125,-0.9096207618713379,-1.4391446113586426
1789324106850870500,19.67587060546875,-0.5373473167419434,-2.9597597122192383,-2.012061595916748
1789324106869720000,19.694719970703126,-0.015147686004638672,-3.472440719604492,-2.1723546981811523
1789324106888569600,19.713569580078126,0.21009159088134766,-2.9199137687683105,-1.845940113067627
1789324106907419100,19.732419189453125,0.9525947570800781,-1.2727389335632324,-1.275343418121338
1789324106926268700,19.7512685546875,1.441300868988037,-0.32564640045166016,-1.2899765968322754
1789324106945118200,19.7701181640625,1.9224042892456055,-0.221710205078125,-1.9546356201171875
1789324106963967700,19.7889677734375,2.253695011138916,-0.7362055778503418,-2.2900452613830566
1789324106982817300,19.8078173828125,1.9052133560180664,-1.4148297309875488,-1.6369495391845703
1789324107001666800,19.826666748046875,2.0776238441467285,-1.6383705139160156,-0.6962318420410156
1789324107020516400,19.845516357421875,2.077016830444336,-1.5242266654968262,-0.395599365234375
1789324107039366000,19.864365966796875,1.9896893501281738,-1.6836862564086914,-0.3709230422973633
1789324107058215400,19.88321533203125,1.9743528366088867,-1.452620506286621,-1.0261130332946777
1789324107077065000,19.90206494140625,2.2214527130126953,-1.1110692024230957,-1.5043115615844727
1789324107095914500,19.92091455078125,2.2584896087646484,-1.1413726806640625,-1.2228102684020996
1789324107114764000,19.939763916015625,1.7910947799682617,-1.0542950630187988,-0.973790168762207
1789324107133613600,19.958613525390625,1.0748586654663086,-0.725947380065918,-0.48579978942871094
1789324107152463000,19.977463134765625,0.30343055725097656,-0.13085174560546875,-0.2015519142150879
1789324107171312600,19.996312744140624,-0.5261502265930176,0.3608279228210449,-0.11640167236328125
1789324107190162200,20.015162109375,-0.8523392677307129,0.4045400619506836,0.16952133178710938
1789324107209011700,20.03401171875,-0.6227660179138184,0.2064199447631836,0.1701045036315918
1789324107227861200,20.052861328125,-0.28133201599121094,-0.08402681350708008,-0.09535980224609375
1789324107246710800,20.071710693359375,0.2552037239074707,-0.1319890022277832,-0.4384140968322754
1789324107265560300,20.090560302734374,0.8863129615783691,-0.4849543571472168,-0.7974414825439453
1789324107284409900,20.109409912109374,1.481895923614502,-0.9887580871582031,-1.4237022399902344
1789324107303259400,20.12825927734375,1.5319757461547852,-1.8686046600341797,-1.8712306022644043
1789324107322109000,20.14710888671875,1.0556282997131348,-1.9083638191223145,-1.9090900421142578
1789324107340958500,20.16595849609375,0.6763319969177246,-1.3037147521972656,-1.7952795028686523
1789324107359808000,20.18480810546875,0.3703346252441406,-0.7074847221374512,-1.6370677947998047
1789324107378657500,20.203657470703124,0.47171688079833984,-0.27409982681274414,-1.3166980743408203
1789324107397507000,20.222507080078124,0.14472675323486328,-0.2856879234313965,-1.6052203178405762
1789324107416356600,20.241356689453124,-0.20795154571533203,-0.7474770545959473,-1.1453828811645508
1789324107435206100,20.2602060546875,-0.46449995040893555,-1.231837272644043,-0.9821887016296387
1789324107454055700,20.2790556640625,-1.7370147705078125,-1.2238421440124512,-0.25726914405822754
1789324107472905200,20.2979052734375,-2.674983501434326,-1.4788949489593506,-0.4186091423034668
1789324107491754500,20.31675439453125,-3.5998024940490723,1.0751006603240967,0.7282261848449707
1789324107510604000,20.33560400390625,-2.3565845489501953,0.08467459678649902,0.6089231967926025
1789324107529453600,20.35445361328125,-1.8777151107788086,-0.3925058841705322,0.4392704963684082
1789324107548303000,20.37330322265625,-2.521273612976074,-0.06245994567871094,1.2586965560913086
1789324107567152600,20.392152587890624,-2.8742752075195312,0.6393923759460449,1.891869306564331
1789324107586002200,20.411002197265624,-3.1930694580078125,0.5959441661834717,2.397732973098755
1789324107604851700,20.429851806640624,-2.447805881500244,0.8780864477157593,2.184295177459717
1789324107623701200,20.448701171875,-2.918889045715332,0.8137990236282349,1.5686758756637573
1789324107642550800,20.46755078125,-2.3435745239257812,0.7935804128646851,1.1022542715072632
1789324107661400300,20.486400390625,-1.8483457565307617,0.485288143157959,1.5742831230163574
1789324107680249900,20.505249755859374,-2.773258686065674,0.7377978563308716,1.4557723999023438
1789324107699099400,20.524099365234374,-2.858182430267334,1.1059147119522095,1.793708086013794
1789324107717949000,20.542948974609374,-2.6541967391967773,1.28713858127594,1.9496086835861206
1789324107736798200,20.561798095703125,-1.8912320137023926,1.4306303262710571,1.6752471923828125
1789324107755647700,20.580647705078125,-1.8856143951416016,1.6474305391311646,1.3652169704437256
1789324107774497300,20.599497314453124,-1.583104133605957,2.3442769050598145,0.9076430797576904
1789324107793346800,20.618346923828124,-1.4593405723571777,2.2256288528442383,0.620154857635498
1789324107812196400,20.6371962890625,-0.7562198638916016,1.101670742034912,0.014576435089111328
1789324107831046000,20.6560458984375,0.11296558380126953,-0.46396636962890625,-1.0572400093078613
1789324107849895400,20.6748955078125,0.6828222274780273,-2.0642504692077637,-1.6003293991088867
1789324107868745000,20.693744873046874,-0.30660009384155273,-2.2907724380493164,-1.8170170783996582
1789324107887594500,20.712594482421874,-0.7393589019775391,-2.798922061920166,-2.0044827461242676
1789324107906443800,20.73144384765625,-0.671180248260498,-2.419318199157715,-1.4637985229492188
1789324107925293300,20.750293212890625,0.015069961547851562,-1.0474944114685059,-1.211890697479248
1789324107944142800,20.769142822265625,0.8568410873413086,0.3798341751098633,-0.9604244232177734
1789324107962992400,20.787992431640625,0.8937444686889648,1.054060935974121,-1.2342934608459473
1789324107981842000,20.806842041015624,0.8639926910400391,0.0711665153503418,-2.02701473236084
1789324108000691500,20.82569140625,1.3580737113952637,-1.7133784294128418,-2.7167420387268066
1789324108019541000,20.844541015625,1.703873634338379,-3.3118252754211426,-2.310533046722412
1789324108038390500,20.863390625,1.5351595878601074,-3.2055044174194336,-1.0758533477783203
1789324108057239800,20.88223974609375,2.050708770751953,-1.7423086166381836,0.05864143371582031
1789324108076089300,20.90108935546875,1.9384465217590332,-0.942533016204834,0.3927187919616699
1789324108094939000,20.91993896484375,1.8607139587402344,-0.4179410934448242,-0.08951616287231445
1789324108113788400,20.938788330078125,2.0061402320861816,-0.005407810211181641,-0.48327064514160156
1789324108132638000,20.957637939453125,2.3939332962036133,0.0003762245178222656,-0.6502618789672852
1789324108151487500,20.976487548828125,1.8457670211791992,-0.8089752197265625,-0.765925407409668
1789324108170336800,20.995336669921876,0.9429588317871094,-1.0857539176940918,-0.35813140869140625
1789324108189186300,21.014186279296876,0.4608016014099121,-0.6446285247802734,-0.17375421524047852
1789324108208035800,21.033035888671876,-0.018106460571289062,-0.3682718276977539,-0.10979080200195312
1789324108226885400,21.051885498046875,-0.45571422576904297,-0.44031524658203125,0.10665416717529297
1789324108245735000,21.07073486328125,-0.3320794105529785,-0.5294146537780762,0.09476470947265625
1789324108264584400,21.08958447265625,0.15120697021484375,-0.5619335174560547,-0.06925344467163086
1789324108283434000,21.10843408203125,0.7305455207824707,-0.727180004119873,-0.5399508476257324
1789324108302283300,21.127283203125,1.5022592544555664,-1.0945634841918945,-0.8739185333251953
1789324108321132800,21.1461328125,1.887582778930664,-0.6979365348815918,-1.1203718185424805
1789324108339982300,21.164982421875,1.3791608810424805,-0.45398426055908203,-2.3008856773376465
1789324108358831900,21.183831787109376,0.6395506858825684,0.08431625366210938,-2.5474491119384766
1789324108377681200,21.20268115234375,0.3570404052734375,0.2773928642272949,-1.755833625793457
1789324108396530700,21.22153076171875,0.591224193572998,-0.7243237495422363,-0.8659396171569824
1789324108415380200,21.240380126953124,0.7865886688232422,-1.3143882751464844,-0.7394757270812988
1789324108434229800,21.259229736328123,0.5734753608703613,-1.4977240562438965,-1.343529224395752
1789324108453079300,21.278079345703127,0.46363353729248047,-1.7001805305480957,-2.0972814559936523
1789324108471928800,21.2969287109375,-0.4176955223083496,-1.8809285163879395,-1.3532452583312988
1789324108490778000,21.315778076171874,-1.9935808181762695,-0.8480920791625977,0.05502438545227051
1789324108509627600,21.334627685546874,-3.248610496520996,-0.382615327835083,0.2899165153503418
1789324108528477200,21.353477294921873,-3.1464672088623047,1.973738193511963,1.464903473854065
1789324108547326700,21.37232666015625,-1.9810452461242676,0.944050669670105,0.8892617225646973
1789324108566176000,21.391176025390624,-2.1480698585510254,0.43404579162597656,0.8680450916290283
1789324108585025500,21.410025634765624,-2.654257297515869,0.1939551830291748,1.4562395811080933
1789324108603875000,21.428875,-3.437720775604248,0.025946855545043945,1.0981478691101074
1789324108622724600,21.447724609375,-4.881336212158203,-0.18328642845153809,0.8298768997192383
1789324108641574100,21.46657421875,-3.247659206390381,0.9350017309188843,3.738861322402954
1789324108660423400,21.48542333984375,-2.1339635848999023,1.3391202688217163,3.4889702796936035
1789324108679273000,21.50427294921875,-1.3421201705932617,0.44020557403564453,2.3349897861480713
1789324108698122500,21.52312255859375,-2.113406181335449,0.37365221977233887,0.9872739315032959
1789324108716972000,21.541971923828125,-1.415421962738037,0.2711923122406006,1.3372526168823242
1789324108735821300,21.5608212890625,-0.7999200820922852,0.542731761932373,1.5664646625518799
1789324108754670800,21.5796708984375,-1.1178011894226074,0.34441494941711426,1.313288927078247
1789324108773520400,21.598520263671876,-1.8335847854614258,0.5236361026763916,0.9708733558654785
1789324108792370000,21.617369873046876,-2.5030384063720703,1.2460615634918213,0.31691861152648926
1789324108811219500,21.636219482421875,-2.1906299591064453,0.9813897609710693,0.8654255867004395
1789324108830068700,21.65506884765625,-1.5252251625061035,0.920924186706543,1.5556879043579102
1789324108848918300,21.673918212890626,-1.5319957733154297,0.8636312484741211,1.5446434020996094
1789324108867767800,21.692767822265626,-0.2726778984069824,0.4271829128265381,1.248063087463379
1789324108886617000,21.7116171875,-0.1542954444885254,0.4529252052307129,0.655364990234375
1789324108905466600,21.730466552734374,-0.9543662071228027,-0.6290879249572754,-0.4765300750732422
1789324108924316200,21.749316162109373,-1.2094664573669434,-1.9233365058898926,-1.3608136177062988
1789324108943165700,21.768165771484377,-1.1201081275939941,-3.068995952606201,-1.9587855339050293
1789324108962015000,21.787014892578124,0.3388175964355469,-2.911248207092285,-2.341766357421875
1789324108980864500,21.805864501953124,1.9884414672851562,-2.7790703773498535,-1.9162416458129883
1789324108999714000,21.824714111328124,3.2532753944396973,-2.723405361175537,-2.4095335006713867
1789324109018563600,21.8435634765625,4.233754634857178,-2.8560357093811035,-3.651726245880127
1789324109037412900,21.862412841796875,3.5599613189697266,-2.608165740966797,-2.995546340942383
1789324109056262400,21.881262451171875,2.5434961318969727,-1.24928617477417,-1.2660231590270996
1789324109075112000,21.90011181640625,1.7475671768188477,-0.04804515838623047,-0.2181239128112793
1789324109093961200,21.918961181640626,1.7788586616516113,0.0684061050415039,-0.11889266967773438
1789324109112810800,21.937810791015625,1.9571423530578613,-0.31737804412841797,-0.8042325973510742
1789324109131660300,21.956660400390625,1.9177641868591309,-0.36751317977905273,-1.1002154350280762
1789324109150509800,21.975509765625,1.4502201080322266,0.47315502166748047,-0.33520078659057617
1789324109178784000,22.003783935546874,0.9965858459472656,0.735316276550293,0.14495229721069336
1789324109197633300,22.02263330078125,0.8592314720153809,-0.4329853057861328,-0.5302948951721191
1789324109225907500,22.050907470703127,0.3788108825683594,-2.5372486114501953,-0.8330607414245605
1789324109244757000,22.069757080078126,0.28065967559814453,-1.8597087860107422,-0.1882467269897461
1789324109263606500,22.0886064453125,0.26488351821899414,-0.6174578666687012,-0.3205428123474121
1789324109282455800,22.107455810546874,0.021854877471923828,-0.36536741256713867,-0.10514211654663086
1789324109301305300,22.126305419921874,0.09832334518432617,-0.007036685943603516,-0.11848783493041992
1789324109320155000,22.14515478515625,0.7723684310913086,0.12413597106933594,-0.05323505401611328
1789324109339004400,22.16400439453125,1.166487216949463,0.13833379745483398,-0.7011299133300781
1789324109357853700,22.182853759765624,0.6700730323791504,-0.3652687072753906,-1.4239497184753418
1789324109376703200,22.201703125,0.3926396369934082,-0.7522807121276855,-2.071075916290283
1789324109395552500,22.220552490234375,0.32369232177734375,-1.1875381469726562,-2.024211883544922
1789324109414402000,22.239402099609375,0.24412965774536133,-2.124539375305176,-1.489417552947998
1789324109433251600,22.25825146484375,0.022222518920898438,-2.0910892486572266,-1.2935566902160645
1789324109452101000,22.27710107421875,0.16426706314086914,-1.435542106628418,-1.4646544456481934
1789324109470950400,22.295950439453126,0.8259429931640625,-1.0895440578460693,-1.576643466949463
1789324109489800000,22.314800048828126,0.022066116333007812,-1.9820854663848877,-1.033729076385498
1789324109508649200,22.333649169921873,-1.1437740325927734,-1.5137219429016113,-0.014925956726074219
1789324109527498800,22.352498779296877,-2.3846077919006348,-1.4659843444824219,-0.012519598007202148
1789324109546348300,22.371348388671876,-2.625934600830078,1.9089211225509644,1.921451210975647
1789324109565197600,22.390197509765624,-1.0632033348083496,1.0977225303649902,1.2392268180847168
1789324109584047000,22.409047119140624,-1.4083547592163086,-0.36658430099487305,0.3586459159851074
1789324109602896600,22.427896728515623,-3.7390294075012207,0.05512714385986328,0.647132158279419
1789324109621746000,22.446745849609375,-5.430895805358887,0.6602159738540649,1.3261432647705078
1789324109640595500,22.465595458984374,-4.922104358673096,1.059377908706665,3.0205531120300293
1789324109659445000,22.484445068359374,-2.8533287048339844,1.8662805557250977,3.956174850463867
1789324109678294300,22.503294189453126,-2.9662084579467773,1.5530496835708618,2.610334873199463
1789324109697143800,22.522143798828125,-2.6614484786987305,0.8227417469024658,1.5636416673660278
1789324109715993000,22.5409931640625,-1.804959774017334,0.7423393726348877,1.0154898166656494
1789324109734842600,22.559842529296876,-1.907135009765625,0.440565824508667,0.288419246673584
1789324109753692200,22.578692138671876,-1.0382366180419922,0.7056337594985962,1.4547022581100464
1789324109772541400,22.59754150390625,-1.1752710342407227,0.9810514450073242,1.21543288230896
1789324109791391000,22.616390869140623,-1.7239742279052734,0.9860727787017822,0.7893917560577393
1789324109810240500,22.635240478515627,-2.1503348350524902,1.509951114654541,0.28800511360168457
1789324109829089800,22.65408984375,-1.9771533012390137,1.8231655359268188,0.293734073638916
1789324109847939300,22.672939208984374,-1.4675407409667969,1.5941474437713623,0.7813067436218262
1789324109866788600,22.69178857421875,-1.1262164115905762,1.2696385383605957,0.911489725112915
1789324109885638100,22.71063818359375,-1.3047232627868652,0.44722986221313477,0.3376941680908203
1789324109904487700,22.72948779296875,-0.9730544090270996,-0.3498520851135254,-0.32511472702026367
1789324109923337000,22.7483369140625,-0.6880598068237305,-1.2831320762634277,-0.6415863037109375
1789324109942186500,22.7671865234375,-0.3271946907043457,-1.8669562339782715,-1.3900833129882812
1789324109961035800,22.786035888671876,-0.7005867958068848,-2.152698516845703,-1.590123176574707
1789324109979885300,22.80488525390625,-0.0553736686706543,-1.8512077331542969,-1.5693440437316895
1789324109998734800,22.82373486328125,1.0738720893859863,-1.577836513519287,-1.6589579582214355
1789324110017584000,22.842584228515626,1.5741090774536133,-1.6221742630004883,-2.4564714431762695
1789324110036433700,22.86143359375,2.1624250411987305,-2.047459602355957,-3.3983640670776367
1789324110055283000,22.880282958984374,2.634227752685547,-2.128098964691162,-3.5529842376708984
1789324110074132500,22.899132568359374,1.9447669982910156,-0.8287525177001953,-1.9832940101623535
1789324110092982000,22.91798193359375,1.4146103858947754,0.8836727142333984,-0.7444949150085449
1789324110111831300,22.936831298828125,1.3424386978149414,1.2589507102966309,-0.23668241500854492
1789324110130680800,22.955680908203124,1.4287266731262207,0.08331108093261719,-0.5144190788269043
1789324110149530000,22.974530029296876,1.8438124656677246,-1.202805995941162,-1.2552108764648438
1789324110168379600,22.993379638671875,1.7671399116516113,-1.5181336402893066,-1.540602684020996
1789324110187229000,23.01222900390625,1.5657033920288086,0.22498130798339844,-0.8713865280151367
1789324110206078500,23.031078369140626,1.15413236618042,1.1401286125183105,-0.5963478088378906
1789324110224928000,23.049927978515626,0.7974104881286621,1.2595114707946777,-1.000861644744873
1789324110243777300,23.06877734375,0.23055410385131836,0.6282377243041992,-0.7061038017272949
1789324110262626800,23.087626708984374,0.33289098739624023,-0.26174163818359375,-0.4233875274658203
1789324110281476000,23.10647607421875,0.24312162399291992,-1.2618727684020996,-0.49622488021850586
1789324110300325600,23.12532568359375,0.4799818992614746,-1.6919903755187988,-0.8248624801635742
1789324110319175000,23.1441748046875,0.7949886322021484,-1.7860336303710938,-1.167201042175293
1789324110338024400,23.1630244140625,1.0842041969299316,-1.5124268531799316,-1.4153618812561035
1789324110356873700,23.181873779296875,0.9446859359741211,-1.1724095344543457,-1.5175981521606445
1789324110375723300,23.20072314453125,0.5003533363342285,-0.43077611923217773,-1.1783337593078613
1789324110394572800,23.21957275390625,0.5239429473876953,0.3235902786254883,-0.8401594161987305
1789324110413422000,23.238422119140626,0.9614706039428711,-0.07275390625,-1.1253242492675781
1789324110432271400,23.257271240234374,0.7065439224243164,-1.4496970176696777,-1.7259869575500488
1789324110451121000,23.276120849609374,0.3441329002380371,-1.7789931297302246,-1.898249626159668
1789324110469970400,23.294970458984373,0.16667604446411133,-1.350548267364502,-2.029491901397705
1789324110488819700,23.31381982421875,-0.028076648712158203,-1.4233393669128418,-1.5977869033813477
1789324110507669200,23.332669189453124,-1.8667712211608887,-1.4429733753204346,-1.1994404792785645
1789324110526518500,23.3515185546875,-3.360605239868164,-0.7646059989929199,-0.373748779296875
1789324110545368000,23.3703681640625,-2.800943374633789,-0.5607454776763916,0.13040900230407715
1789324110564217300,23.38921728515625,-1.6853532791137695,0.3496723175048828,1.2544457912445068
1789324110583067000,23.40806689453125,-0.6967697143554688,0.7853915691375732,2.8146872520446777
1789324110601916200,23.426916259765626,-1.3418526649475098,-0.4488379955291748,1.582585334777832
1789324110620765700,23.445765625,-2.5538744926452637,-0.751162052154541,0.9073421955108643
1789324110639615000,23.464614990234374,-2.8455281257629395,0.1166987419128418,1.1112825870513916
1789324110658464500,23.483464599609373,-2.676351547241211,0.5078351497650146,1.4039857387542725
1789324110677313800,23.502313720703125,-2.4304943084716797,0.9069461822509766,1.9054352045059204
1789324110696163300,23.521163330078124,-2.033977508544922,0.9333174228668213,2.2759552001953125
1789324110715012600,23.5400126953125,-2.2905454635620117,1.386665940284729,2.027299404144287
1789324110733862100,23.558862060546875,-3.19777250289917,0.7119938135147095,1.8131767511367798
1789324110752711400,23.57771142578125,-2.3401904106140137,0.6488410234451294,2.3598623275756836
1789324110771561000,23.59656103515625,-2.0960402488708496,0.867303729057312,1.8799924850463867
1789324110790410200,23.61541015625,-1.6617403030395508,0.8942873477935791,1.9037048816680908
1789324110809259800,23.634259765625,-1.659130573272705,1.0099732875823975,2.01110577583313
1789324110828109000,23.653109130859374,-2.2443361282348633,1.8477132320404053,1.6913259029388428
1789324110846958600,23.67195849609375,-2.1944761276245117,1.8961901664733887,0.8262650966644287
1789324110865808000,23.690807861328125,-0.8529963493347168,0.9454457759857178,0.9617342948913574
1789324110894082000,23.71908203125,-0.2989006042480469,-0.693448543548584,0.15766572952270508
1789324110912931300,23.737931396484374,-0.7055249214172363,-2.274055004119873,-0.7906055450439453
1789324110931780900,23.75678076171875,-0.2661256790161133,-2.9535322189331055,-1.5866203308105469
1789324110950630100,23.775630126953125,-0.004846096038818359,-3.1995620727539062,-2.3047304153442383
1789324110969479700,23.794479736328125,0.7884688377380371,-2.7322263717651367,-2.60007905960083
1789324110988329000,23.813328857421876,1.475179672241211,-2.131840229034424,-2.3255796432495117
1789324111007178500,23.832178466796876,2.41886568069458,-1.5280475616455078,-2.3241066932678223
1789324111026027800,23.85102783203125,2.9978418350219727,-1.6763362884521484,-2.6166720390319824
1789324111044877300,23.869877197265627,2.232517719268799,-2.4629931449890137,-2.1071834564208984
1789324111063726600,23.8887265625,2.0782299041748047,-1.9961576461791992,-1.2432594299316406
