time,seconds_elapsed,z,y,x
1789324087322435000,0.14743505859375,0.10491301864385605,-1.6999115943908691,0.1659213900566101
1789324087350710000,0.1757099609375,0.13484452664852142,-1.0799015760421753,-0.29954421520233154
1789324087369559800,0.194559814453125,-0.08811471611261368,-0.1880646049976349,-0.8365553021430969
1789324087388409900,0.213409912109375,-0.3086305856704712,-0.15630054473876953,-1.1432006359100342
1789324087407259600,0.232259765625,-0.24876753985881805,-0.5704549551010132,-1.1212100982666016
1789324087426109700,0.251109619140625,0.10369132459163666,-0.6284855008125305,-0.7674532532691956
1789324087444959500,0.26995947265625,0.5734328627586365,0.28106608986854553,-0.17554223537445068
1789324087463809500,0.2888095703125,0.6925480961799622,1.1112838983535767,0.4927246570587158
1789324087482659300,0.307659423828125,0.43354883790016174,0.858393132686615,1.1029610633850098
1789324087501509400,0.32650927734375,0.14278554916381836,0.22242476046085358,1.2733874320983887
1789324087520359200,0.345359130859375,-0.011147962883114815,-0.3316137194633484,0.9911760091781616
1789324087539209200,0.364209228515625,-0.10827267915010452,-0.5399126410484314,0.70224529504776
1789324087558059000,0.38305908203125,-0.23960483074188232,-0.4201865494251251,0.3113030195236206
1789324087576909000,0.401908935546875,-0.21944688260555267,-0.15080291032791138,-0.018554486334323883
1789324087595759000,0.420759033203125,-0.056961506605148315,0.1924932450056076,-0.21769069135189056
1789324087614609000,0.43960888671875,0.0010689827613532543,0.00862821750342846,-0.3447469174861908
1789324087633459000,0.458458984375,-0.0331384651362896,-0.8172372579574585,-0.11384665966033936
1789324087652308700,0.477308837890625,-0.07528692483901978,-0.9558995962142944,0.27831727266311646
1789324087671158800,0.49615869140625,-0.08261708915233612,-0.5576272010803223,0.2844257652759552
1789324087690008600,0.515008544921875,-0.09116895496845245,-0.21005509793758392,0.05474718660116196
1789324087708858600,0.533858642578125,-0.12904147803783417,0.44782739877700806,-0.1730988472700119
1789324087727708400,0.55270849609375,-0.11254860460758209,0.9848384857177734,-0.46813806891441345
1789324087746558500,0.571558349609375,-0.09177979826927185,1.0184351205825806,-0.7118661403656006
1789324087765408300,0.590408203125,-0.001374406274408102,0.5682406425476074,-0.5127299427986145
1789324087784258300,0.60925830078125,0.1763821393251419,0.48814332485198975,-0.05703786388039589
1789324087803108000,0.628108154296875,0.18493400514125824,0.39346200227737427,0.12988139688968658
1789324087821958100,0.646958251953125,0.09330692142248154,-0.40186113119125366,0.1274380087852478
1789324087840808000,0.665807861328125,0.0456608310341835,-0.7940250635147095,0.19524206221103668
1789324087859658000,0.684657958984375,-0.09300149232149124,-0.6193227767944336,-0.0032833039294928312
1789324087878508000,0.703508056640625,-0.2677038013935089,-0.4110238552093506,-0.34719032049179077
1789324087897357800,0.72235791015625,-0.36482852697372437,0.07643226534128189,-0.3575747013092041
1789324087916207900,0.741207763671875,-0.31412819027900696,0.6085565686225891,-0.1358371526002884
1789324087935057700,0.7600576171875,-0.02214321307837963,0.5450284481048584,0.29481014609336853
1789324087953907700,0.77890771484375,0.3993414044380188,-0.006032116711139679,0.9838458895683289
1789324087972757500,0.797757568359375,0.5050179958343506,-0.3713187873363495,1.242234230041504
1789324087991607600,0.816607666015625,0.5056288242340088,-0.24792763590812683,0.9832350015640259
1789324088010457300,0.835457275390625,0.6730009913444519,0.18333053588867188,0.6729246377944946
1789324088029307400,0.854307373046875,1.0157626867294312,1.3201936483383179,0.43713757395744324
1789324088048157400,0.873157470703125,1.175804615020752,1.3971604108810425,0.10117157548666
1789324088067007200,0.89200732421875,1.089064359664917,0.43744298815727234,-0.5622085332870483
1789324088085857300,0.910857177734375,0.6571189165115356,2.1368963718414307,-1.1865707635879517
1789324088104707000,0.92970703125,0.4384356141090393,4.482626438140869,-1.7638214826583862
1789324088123557000,0.94855712890625,0.44271156191825867,5.08125638961792,-2.430255889892578
1789324088142407000,0.967406982421875,0.2722851634025574,4.924879550933838,-2.7491180896759033
1789324088161257000,0.986257080078125,0.2826695740222931,3.4979405403137207,-2.551203489303589
1789324088180106800,1.005106689453125,0.04810422286391258,0.5804576277732849,-1.3270657062530518
1789324088198956800,1.023956787109375,-0.21822518110275269,-0.36459946632385254,-0.031382277607917786
1789324088217806600,1.042806640625,-0.039857782423496246,0.17600037157535553,-0.40277740359306335
1789324088236656600,1.06165673828125,0.3578037917613983,-1.32362961769104,-1.2329951524734497
1789324088255506400,1.08050634765625,0.79707932472229,-1.0493592023849487,-2.239060640335083
1789324088274356500,1.0993564453125,0.765849769115448,0.9665130972862244,-3.76808762550354
1789324088293206500,1.11820654296875,0.4091149568557739,1.6732633113861084,-4.937860012054443
1789324088312056300,1.137056396484375,-0.3342861533164978,0.9445225596427917,-4.6660332679748535
1789324088330906400,1.15590625,-1.1693143844604492,0.00129805039614439,-3.2878854274749756
1789324088349756200,1.174756103515625,-1.6408884525299072,-0.0823880210518837,-2.446748733520508
1789324088368606200,1.193606201171875,-1.722741961479187,0.458822637796402,-2.7149107456207275
1789324088387456000,1.2124560546875,-1.5205515623092651,1.0465340614318848,-4.0295305252075195
1789324088406306000,1.23130615234375,-1.956772804260254,1.380056619644165,-5.032541275024414
1789324088425155800,1.25015576171875,-1.9427233934402466,1.565143346786499,-4.8859381675720215
1789324088444006000,1.269005859375,-1.4026579856872559,1.8956117630004883,-4.700240612030029
1789324088462856000,1.28785595703125,-1.2859861850738525,2.192483425140381,-4.462621212005615
1789324088481705700,1.306705810546875,-1.1522105932235718,2.6854372024536133,-4.271425724029541
1789324088500555800,1.3255556640625,-1.1436587572097778,3.5119900703430176,-3.955617666244507
1789324088519405600,1.344405517578125,-1.1796988248825073,5.7104291915893555,-2.114447832107544
1789324088547680500,1.372680419921875,-0.8956547975540161,4.460024833679199,-1.1358704566955566
1789324088566530600,1.391530517578125,0.2429644912481308,1.9114937782287598,-2.063136577606201
1789324088585380400,1.41038037109375,2.0132761001586914,-0.4641675651073456,-2.099787473678589
1789324088632505300,1.45750537109375,1.0078216791152954,2.7000975608825684,-0.18959172070026398
1789324088651355100,1.476355224609375,2.015108823776245,1.2352858781814575,0.7566106915473938
1789324088670205200,1.495205078125,2.694370985031128,0.47165045142173767,1.1567156314849854
1789324088689055000,1.514054931640625,2.5838074684143066,0.8015843033790588,0.9533035159111023
1789324088707905000,1.532905029296875,2.6589417457580566,0.13507360219955444,1.4688585996627808
1789324088726754800,1.5517548828125,2.5434916019439697,-0.7066739201545715,1.7816123962402344
1789324088745604900,1.57060498046875,2.6302318572998047,-1.0896751880645752,1.5354409217834473
1789324088764455000,1.589454833984375,1.9778470993041992,-1.8929393291473389,1.387005090713501
1789324088783304700,1.6083046875,1.0090433359146118,-3.0701184272766113,1.2324607372283936
1789324088802154800,1.62715478515625,0.8606074452400208,-2.8893074989318848,0.7731035351753235
1789324088821004800,1.6460048828125,0.8398386240005493,-3.5685696601867676,0.45912808179855347
1789324088839854600,1.6648544921875,1.22222900390625,-4.4854512214660645,0.26243525743484497
1789324088858704600,1.68370458984375,1.1690852642059326,-5.787243366241455,0.440802663564682
1789324088877554400,1.702554443359375,0.2166980654001236,-5.184947967529297,1.1945881843566895
1789324088896404500,1.721404541015625,-0.9933903813362122,-2.4629361629486084,2.0125889778137207
1789324088915254300,1.740254150390625,-1.356844425201416,-0.0946049690246582,2.1536946296691895
1789324088934104300,1.759104248046875,-0.668419599533081,0.7099572420120239,2.187291383743286
1789324088952954400,1.777954345703125,-0.12720894813537598,0.26579490303993225,1.6014124155044556
1789324088971804200,1.79680419921875,-0.06123743951320648,-0.9919396042823792,1.0076688528060913
1789324088990654200,1.815654296875,-0.1656923145055771,-1.3443984985351562,0.6582642793655396
1789324089009504000,1.83450390625,-0.08994726091623306,-0.5594597458839417,0.40964943170547485
1789324089028354000,1.85335400390625,0.1910424828529358,-0.29740625619888306,0.366279274225235
1789324089047203800,1.872203857421875,0.49890950322151184,0.17722205817699432,0.2062373012304306
1789324089066054000,1.891053955078125,0.9387958645820618,0.5095229744911194,-0.2378486543893814
1789324089084904000,1.909904052734375,1.0475267171859741,-0.15752223134040833,-0.41621604561805725
1789324089103753700,1.928753662109375,0.7866948843002319,-0.8697701692581177,-0.27022355794906616
1789324089122603800,1.947603759765625,0.4940227270126343,-1.1703070402145386,0.13232478499412537
1789324089141453600,1.96645361328125,0.15683503448963165,-0.9143620133399963,0.3119138777256012
1789324089160303600,1.9853037109375,-0.039857782423496246,-0.3029038906097412,0.026037365198135376
1789324089188578600,2.01357861328125,-0.1522536724805832,0.6360446810722351,-0.12972868978977203
1789324089207428400,2.032428466796875,-0.2982461750507355,0.5486935377120972,-0.17798562347888947
1789324089226278400,2.0512783203125,-0.5132644176483154,0.44599485397338867,-0.3850628435611725
1789324089245128400,2.07012841796875,-0.7160657048225403,0.38613182306289673,-0.5267794132232666
1789324089263978200,2.088978271484375,-0.8895463347434998,0.4295019805431366,-0.741186797618866
1789324089282828300,2.107828369140625,-0.8199097514152527,0.3384857475757599,-0.929404079914093
1789324089301678000,2.126677978515625,-0.9585720896720886,-0.5704549551010132,-1.0656230449676514
1789324089320528100,2.145528076171875,-1.200467586517334,0.0745997205376625,-1.203674554824829
1789324089339378200,2.164378173828125,-1.4020471572875977,1.1008994579315186,-1.1450332403182983
1789324089358228000,2.18322802734375,-1.3910518884658813,0.7423321604728699,-1.184738278388977
1789324089377078000,2.202078125,-1.196191668510437,0.8254073858261108,-1.3661599159240723
1789324089395927800,2.220927734375,-1.291483759880066,0.8871029615402222,-1.5036004781723022
1789324089414777900,2.23977783203125,-1.4973393678665161,1.1137272119522095,-1.6135530471801758
1789324089433628000,2.2586279296875,-2.087494134902954,0.6952968835830688,-1.4150276184082031
1789324089452477700,2.277477783203125,-2.544407844543457,-0.1599656194448471,-1.493826985359192
1789324089471327700,2.29632763671875,-1.1204465627670288,0.2456369549036026,-2.0674126148223877
1789324089490177500,2.315177490234375,-0.6079457402229309,0.5235724449157715,-2.319692373275757
1789324089509027600,2.334027587890625,-0.9115368127822876,0.30488914251327515,-1.7228946685791016
1789324089527877600,2.352877685546875,-0.7337802648544312,-0.3841465711593628,-0.6837671399116516
1789324089546727400,2.3717275390625,0.3455868363380432,-0.0952158197760582,-1.2256649732589722
1789324089565577500,2.390577392578125,1.1403754949569702,-1.5520864725112915,-2.088792085647583
1789324089584427300,2.40942724609375,1.2778160572052002,-3.4610605239868164,-2.470571756362915
1789324089603277300,2.42827734375,0.9613972306251526,-2.494089365005493,-2.4461379051208496
1789324089622127400,2.44712744140625,-0.41675055027008057,0.15217731893062592,-1.9599034786224365
1789324089640977400,2.465977294921875,-1.611567735671997,1.636001706123352,-0.874427855014801
1789324089659827200,2.4848271484375,-1.3079767227172852,1.6610463857650757,0.8745042085647583
1789324089678677200,2.50367724609375,-0.22311195731163025,1.3110309839248657,1.2953779697418213
1789324089697527000,2.522527099609375,0.2026485800743103,0.9103151559829712,1.2342932224273682
1789324089716377000,2.541377197265625,0.4011739492416382,1.5407094955444336,1.54765784740448
1789324089735227100,2.56022705078125,0.6394043564796448,1.2352858781814575,1.6484476327896118
1789324089754077000,2.579076904296875,0.5086830258369446,0.36780640482902527,1.0217183828353882
1789324089772927000,2.597927001953125,0.5349494814872742,-0.011529741808772087,1.1212865114212036
1789324089791777000,2.616777099609375,0.5874823331832886,0.24075017869472504,1.4560308456420898
1789324089820052000,2.645052001953125,0.3315373361110687,-0.42996010184288025,1.2605596780776978
1789324089838901800,2.66390185546875,-0.0844496339559555,-1.0163735151290894,1.0278269052505493
1789324089857751800,2.682751708984375,-0.43446511030197144,-1.4891692399978638,0.8696174025535583
1789324089876601600,2.7016015625,-0.6164975762367249,-1.239332675933838,0.9441407918930054
1789324089895451600,2.72045166015625,-0.5804576277732849,-1.301639199256897,1.154272198677063
1789324089914301700,2.7393017578125,-0.7148439884185791,-1.8807224035263062,1.1695433855056763
1789324089933151500,2.7581513671875,-0.9286405444145203,-1.85995352268219,1.3057624101638794
1789324089952001500,2.77700146484375,-0.3324536085128784,-1.285757064819336,1.603855848312378
1789324089970851600,2.7958515625,-0.0850604772567749,-0.8575531840324402,1.6539453268051147
1789324089989701400,2.814701416015625,-0.03374931216239929,-0.5557946562767029,1.4816863536834717
1789324090008551400,2.833551513671875,-0.2664821147918701,-0.03901786729693413,1.288658618927002
1789324090027401500,2.8524013671875,-0.8205205798149109,0.2890070974826813,1.2532294988632202
1789324090046255600,2.871255615234375,-0.9023740887641907,0.7130114436149597,1.381507396697998
1789324090065105700,2.890105712890625,-0.337340384721756,0.5798467397689819,1.8555248975753784
1789324090083955700,2.908955810546875,-0.19440214335918427,-0.11781716346740723,2.1683549880981445
1789324090102805500,2.927805419921875,0.04871506989002228,-2.855710983276367,1.7999378442764282
1789324090121655600,2.946655517578125,0.1763821393251419,-2.8941943645477295,0.9050465822219849
1789324090140505300,2.96550537109375,0.4628695249557495,-1.1611442565917969,1.071807861328125
1789324090159355400,2.98435546875,0.2557922899723053,-0.29862794280052185,1.7681736946105957
1789324090178205400,3.003205322265625,0.778143048286438,0.1784437596797943,1.4865732192993164
1789324090197055200,3.02205517578125,0.9186379313468933,0.6421532034873962,1.3137034177780151
1789324090215905300,3.0409052734375,0.3975088596343994,-0.012140588834881783,0.9948410987854004
1789324090234755300,3.05975537109375,0.2820587158203125,0.09353598952293396,0.8781692981719971
1789324090253605000,3.078605224609375,0.3071034550666809,0.1417929232120514,0.5000548362731934
1789324090272455200,3.097455078125,0.32542887330055237,0.09475768357515335,0.18363595008850098
1789324090291305200,3.11630517578125,0.052990999072790146,0.2865637242794037,-0.058870404958724976
1789324090310155000,3.135155029296875,-0.02641914412379265,0.4649311304092407,-0.2641150951385498
1789324090329005000,3.154005126953125,-0.03436015918850899,0.9078717231750488,-0.3569638729095459
1789324090347855000,3.172855224609375,-0.19684553146362305,1.1406044960021973,-0.35207709670066833
1789324090366705000,3.191704833984375,-0.6977402567863464,0.8632798790931702,-0.366737425327301
1789324090385555000,3.210554931640625,-1.1913049221038818,0.9475768208503723,-0.6465054750442505
1789324090404405000,3.229405029296875,-1.4698512554168701,0.9200887084007263,-0.8793146014213562
1789324090423254800,3.2482548828125,-1.6182870864868164,0.6354338526725769,-1.142589807510376
1789324090442104800,3.267104736328125,-2.0429022312164307,0.23708508908748627,-1.7247272729873657
1789324090460955000,3.285954833984375,-2.197446584701538,-0.13125580549240112,-2.1736998558044434
1789324090479804700,3.3048046875,-2.0942134857177734,-0.2002815455198288,-2.394826650619507
1789324090498654700,3.32365478515625,-1.8271968364715576,-0.29862794280052185,-2.504779100418091
1789324090517504800,3.3425048828125,-1.4564125537872314,-0.5356366634368896,-2.626337766647339
1789324090536354600,3.3613544921875,-1.0489774942398071,-0.5857261419296265,-2.9293179512023926
1789324090555204600,3.38020458984375,-0.6397097706794739,-0.39025503396987915,-2.8706767559051514
1789324090574054700,3.3990546875,-0.26220619678497314,-0.5185329914093018,-2.600682258605957
1789324090592904400,3.417904541015625,0.13545538485050201,-0.5454102754592896,-2.5005033016204834
1789324090611754500,3.43675439453125,0.19959434866905212,-0.12697987258434296,-2.5005033016204834
1789324090630604500,3.4556044921875,0.24479703605175018,0.5786250829696655,-2.418649673461914
1789324090649454300,3.474454345703125,0.2527380585670471,0.9530744552612305,-2.1657588481903076
1789324090668304400,3.493304443359375,0.42011019587516785,0.7368345260620117,-1.6844112873077393
1789324090687154400,3.512154541015625,0.4549284875392914,0.7392778992652893,-1.3209571838378906
1789324090706004200,3.531004150390625,0.612527072429657,1.1387720108032227,-1.2317734956741333
1789324090724854300,3.549854248046875,1.634550929069519,0.012293301522731781,-1.4767231941223145
1789324090743704300,3.568704345703125,2.234402894973755,0.1008661538362503,-0.50112384557724
1789324090762554000,3.58755419921875,1.855677604675293,0.1008661538362503,0.43591588735580444
1789324090781404200,3.606404052734375,1.602786898612976,0.21387289464473724,0.9221503138542175
1789324090800254200,3.625254150390625,1.2955306768417358,0.5743491649627686,0.7920398116111755
1789324090819104300,3.644104248046875,0.9681165218353271,0.5706840753555298,0.6808656454086304
1789324090837954000,3.6629541015625,0.510515570640564,0.2627406716346741,0.9533035159111023
1789324090856804000,3.68180419921875,0.013285927474498749,-0.20211409032344818,1.1347250938415527
1789324090875654100,3.700654052734375,-0.006261184345930815,-0.37620556354522705,1.0382112264633179
1789324090894504000,3.71950390625,0.030389651656150818,-0.2405974566936493,0.8793910145759583
1789324090913354000,3.73835400390625,0.010842538438737392,-0.1727934181690216,0.9001597762107849
1789324090932204000,3.7572041015625,0.034665580838918686,-0.2815242409706116,1.0919657945632935
1789324090951053800,3.7760537109375,0.23746687173843384,-0.4226299524307251,1.2923237085342407
1789324090969903900,3.79490380859375,0.37918344140052795,-0.32733777165412903,1.4108281135559082
1789324090988754000,3.81375390625,0.4921901822090149,-0.2778591513633728,1.4163256883621216
1789324091007603700,3.832603759765625,0.5209000110626221,-0.31206658482551575,1.3711230754852295
1789324091026453800,3.851453857421875,0.5031854510307312,-0.4904339909553528,1.3973894119262695
1789324091045303800,3.8703037109375,0.5752654075622559,-0.6810183525085449,1.5537663698196411
1789324091064153600,3.889153564453125,0.7885274291038513,-1.0847883224487305,1.6661622524261475
1789324091083003600,3.908003662109375,0.9137511253356934,-1.0707389116287231,1.6741032600402832
1789324091101853700,3.926853759765625,0.8178481459617615,-1.0542460680007935,1.6252354383468628
1789324091120703500,3.945703369140625,0.5691569447517395,-1.1507599353790283,1.6484476327896118
1789324091139553500,3.964553466796875,0.3718532621860504,-1.1556466817855835,1.660664677619934
1789324091158403600,3.983403564453125,0.33947837352752686,-1.1922974586486816,1.6521127223968506
1789324091177253400,4.00225341796875,0.28694549202919006,-1.1776371002197266,1.6912070512771606
1789324091196103400,4.021103515625,0.14095300436019897,-1.796425461769104,1.5610965490341187
1789324091214953500,4.039953369140625,0.11590826511383057,-2.090242862701416,1.2330715656280518
1789324091233803500,4.058803466796875,0.2576248347759247,-1.388379454612732,1.2678898572921753
1789324091252653300,4.0776533203125,0.44637662172317505,-0.8832087516784668,1.4242666959762573
1789324091271503400,4.09650341796875,0.4537068009376526,-0.5350258350372314,1.1622133255004883
1789324091290353400,4.115353515625,0.35108447074890137,-0.2650313675403595,0.8769475817680359
1789324091309203200,4.134203125,0.2698417901992798,-0.15141376852989197,0.5898494124412537
1789324091328053200,4.15305322265625,0.2808370292186737,0.19004985690116882,0.3485647141933441
1789324091346903300,4.1719033203125,0.17027367651462555,0.31649523973464966,0.10850174725055695
1789324091365753000,4.190753173828125,0.0841442123055458,0.3610870838165283,-0.05459447205066681
1789324091384603100,4.20960302734375,0.07314895838499069,0.4722612798213959,-0.20974968373775482
1789324091403453200,4.228453125,0.07437065243721008,0.48631078004837036,-0.4247679114341736
1789324091422303000,4.247302978515625,0.04321744292974472,0.6109999418258667,-0.6953732371330261
1789324091441153000,4.266153076171875,-0.10521844029426575,0.8174663186073303,-0.9123004078865051
1789324091460003000,4.285003173828125,-0.2426590770483017,1.0440906286239624,-1.0912786722183228
1789324091478852900,4.303852783203125,-0.3434488773345947,1.3171393871307373,-1.3038535118103027
1789324091497703000,4.322702880859375,-0.388651579618454,1.5907989740371704,-1.4455699920654297
1789324091516553000,4.341552978515625,-0.4424061179161072,1.8540741205215454,-1.479777455329895
1789324091535403000,4.360403076171875,-0.5358657836914062,1.7844375371932983,-1.54025137424469
1789324091554252800,4.379252685546875,-0.6091674566268921,1.385554313659668,-1.6312675476074219
1789324091573102800,4.398102783203125,-0.6714738607406616,0.9445225596427917,-1.757712960243225
1789324091591953000,4.416952880859375,-0.7551599144935608,0.695907711982727,-1.988613247871399
1789324091610802700,4.435802734375,-0.8871029615402222,0.5211290717124939,-2.192636251449585
1789324091629652700,4.45465283203125,-0.9561286568641663,0.35742199420928955,-2.328244209289551
1789324091648502800,4.473502685546875,-0.9005415439605713,0.38185590505599976,-2.3563432693481445
1789324091667352600,4.4923525390625,-0.7576032876968384,0.43683215975761414,-2.2689921855926514
1789324091686202600,4.51120263671875,-0.5981721878051758,0.3904077410697937,-2.129108190536499
1789324091705052700,4.530052734375,-0.4662291705608368,0.32077115774154663,-2.008160352706909
1789324091723902500,4.54890234375,-0.3171824514865875,0.42095011472702026,-1.9299719333648682
1789324091742752500,4.56775244140625,-0.11621369421482086,0.4258368909358978,-1.826738715171814
1789324091761602600,4.5866025390625,0.03955236077308655,0.35436776280403137,-1.5811781883239746
1789324091780452400,4.605452392578125,0.12873606383800507,0.2554105222225189,-1.3026317358016968
1789324091799302400,4.624302490234375,0.23685602843761444,0.3745257258415222,-1.0894460678100586
1789324091818152400,4.64315234375,0.2722851634025574,0.08009734749794006,-0.7002600431442261
1789324091837002500,4.66200244140625,0.22158484160900116,-0.04512634128332138,-0.14255647361278534
1789324091855852300,4.680852294921875,0.1256818175315857,-0.07200361788272858,0.39559996128082275
1789324091874702300,4.699702392578125,0.18310146033763885,-0.1220930963754654,0.7969266176223755
1789324091893552400,4.718552490234375,0.18432316184043884,-0.13064496219158173,1.031491994857788
1789324091912402400,4.73740234375,0.12812520563602448,-0.22838051617145538,1.2581162452697754
1789324091931252200,4.756252197265625,0.14767232537269592,-0.09093988686800003,1.3833400011062622
1789324091950102300,4.775102294921875,0.19348587095737457,-0.11598462611436844,1.244066834449768
1789324091968952300,4.793952392578125,0.16783028841018677,-0.13125580549240112,1.0687536001205444
1789324091987802000,4.812802001953125,0.04688252881169319,-0.21066594123840332,1.012555718421936
1789324092006652200,4.831652099609375,-0.01847812905907631,-0.45500484108924866,1.1359468698501587
1789324092025502200,4.850502197265625,0.0328330397605896,-0.6736881732940674,1.3821182250976562
1789324092044352000,4.86935205078125,0.2441861927509308,-0.8722135424613953,1.5452145338058472
1789324092063202000,4.8882021484375,0.41827765107154846,-0.6284855008125305,1.6026341915130615
1789324092082052000,4.907052001953125,0.4891359508037567,-0.5252522826194763,1.5610965490341187
1789324092100902000,4.92590185546875,0.5435013771057129,-0.597943127155304,1.5452145338058472
1789324092119752000,4.944751953125,0.5819846987724304,-0.6742990016937256,1.5617073774337769
1789324092138602000,4.96360205078125,0.687050461769104,-0.8905389308929443,1.5794219970703125
1789324092157451800,4.98245166015625,0.7157602906227112,-0.9626189470291138,1.6435608863830566
1789324092176301800,5.0013017578125,0.6204680800437927,-0.9803335070610046,1.6954829692840576
1789324092195152000,5.02015185546875,0.5874823331832886,-1.115330696105957,1.6802117824554443
1789324092214002000,5.039001953125,0.5044071078300476,-1.3560045957565308,1.6282896995544434
1789324092232851700,5.057851806640625,0.19531841576099396,-1.9631867408752441,1.598358154296875
1789324092251701800,5.07670166015625,-0.021532366052269936,-1.9509698152542114,1.3876159191131592
1789324092270551800,5.0955517578125,0.111632339656353,-1.2930872440338135,1.2587270736694336
1789324092289401900,5.11440185546875,0.3205420970916748,-0.7121715545654297,1.3601278066635132
1789324092308251600,5.133251708984375,0.3749074935913086,-0.6688013672828674,1.377231478691101
1789324092327101700,5.152101806640625,0.35474956035614014,-0.40125030279159546,1.2190220355987549
1789324092345951700,5.17095166015625,0.32665055990219116,-0.21005509793758392,0.8671740293502808
1789324092364801500,5.189801513671875,0.34070006012916565,0.07276718318462372,0.5208236575126648
1789324092383651600,5.208651611328125,0.2582356929779053,0.0892600566148758,0.34673216938972473
1789324092402501600,5.227501708984375,0.23807771503925323,0.05993938818573952,0.20990239083766937
1789324092421351400,5.246351318359375,0.19409671425819397,0.19982340931892395,-0.056427016854286194
1789324092440201500,5.265201416015625,0.10002623498439789,0.6513158679008484,-0.3697916567325592
1789324092459051500,5.284051513671875,-0.056961506605148315,1.0782980918884277,-0.5988593697547913
1789324092477901300,5.3029013671875,-0.18157434463500977,1.0825740098953247,-0.8609892129898071
1789324092496751400,5.32175146484375,-0.23838314414024353,1.2413944005966187,-1.148698329925537
1789324092515601400,5.340601318359375,-0.34161633253097534,1.5413203239440918,-1.3081294298171997
1789324092534451500,5.359451416015625,-0.4808894991874695,1.4716837406158447,-1.4199144840240479
1789324092553301200,5.37830126953125,-0.5657972693443298,1.32935631275177,-1.5805672407150269
1789324092572151300,5.3971513671875,-0.6891884207725525,1.2041326761245728,-1.6831896305084229
1789324092591001300,5.41600146484375,-0.9634588360786438,1.1974133253097534,-1.6715835332870483
1789324092609851400,5.434851318359375,-1.074633002281189,1.0355387926101685,-1.8389556407928467
1789324092628701200,5.453701171875,-1.103342890739441,0.7667660117149353,-2.100398302078247
1789324092647551200,5.47255126953125,-1.2230689525604248,0.8119687438011169,-2.146822690963745
1789324092666401300,5.4914013671875,-1.2084085941314697,0.9353598356246948,-2.0674126148223877
1789324092685251000,5.5102509765625,-1.0275977849960327,0.7001836895942688,-2.169424057006836
1789324092704101000,5.52910107421875,-0.7777612805366516,0.22547899186611176,-2.2952585220336914
1789324092722951200,5.547951171875,-0.42224815487861633,0.03489464893937111,-2.3991026878356934
1789324092741801000,5.566801025390625,-0.11865708231925964,0.24197186529636383,-2.5017249584198
1789324092760651000,5.585651123046875,0.10674555599689484,0.29267218708992004,-2.2787656784057617
1789324092779501000,5.6045009765625,0.06154286116361618,0.246247798204422,-1.7320574522018433
1789324092798350800,5.623350830078125,-0.06123743951320648,0.29083964228630066,-1.2898039817810059
1789324092817201000,5.642200927734375,0.011453386396169662,0.30611082911491394,-1.00392746925354
1789324092836051000,5.661051025390625,0.2564031481742859,0.2077644169330597,-0.6312342882156372
1789324092854901000,5.67990087890625,0.4775298535823822,0.13873867690563202,-0.2506764531135559
1789324092873750800,5.698750732421875,0.4659237563610077,-0.03596363216638565,0.005268557462841272
1789324092892600800,5.717600830078125,0.37918344140052795,-0.18989713490009308,0.24960745871067047
1789324092911451000,5.736450927734375,0.319320410490036,-0.40491536259651184,0.5324297547340393
1789324092930300700,5.75530078125,0.2814478874206543,-0.4195757210254669,0.7706601619720459
1789324092949150700,5.774150634765625,0.20997874438762665,-0.4629458785057068,0.9117658734321594
1789324092968000800,5.793000732421875,0.21058958768844604,-0.45439401268959045,0.969796359539032
1789324092986850800,5.811850830078125,0.23685602843761444,-0.37559470534324646,1.0247726440429688
1789324093005700600,5.83070068359375,0.19959434866905212,-0.3291703164577484,1.131060004234314
1789324093024550700,5.849550537109375,0.15500248968601227,-0.29740625619888306,1.307594895362854
1789324093043400700,5.868400634765625,0.14828316867351532,-0.48004958033561707,1.4639718532562256
1789324093062250500,5.88725048828125,0.26190075278282166,-0.6663579940795898,1.614240288734436
1789324093081100500,5.9061005859375,0.5630484819412231,-0.5661790370941162,1.6728816032409668
1789324093099950600,5.92495068359375,0.6791094541549683,-0.4195757210254669,1.6533344984054565
1789324093118800400,5.94380029296875,0.6033644080162048,-0.5735092163085938,1.6796008348464966
1789324093137650400,5.962650390625,0.5263976454734802,-0.7854732275009155,1.7761147022247314
1789324093156500500,5.98150048828125,0.5514423847198486,-0.9253572225570679,1.7852774858474731
1789324093175350300,6.000350341796875,0.5380037426948547,-0.977890133857727,1.7504591941833496
1789324093203625200,6.028625244140625,0.43232715129852295,-0.9412392973899841,1.7174733877182007
1789324093222475300,6.047475341796875,0.552664041519165,-1.1641985177993774,1.667994737625122
1789324093241325300,6.0663251953125,0.5092939138412476,-1.4335821866989136,1.5470470190048218
1789324093260175000,6.085175048828125,0.22524993121623993,-1.6174471378326416,1.3375264406204224
1789324093279025200,6.104025146484375,0.02733541466295719,-1.5679686069488525,1.168932557106018
1789324093297875200,6.122875244140625,0.12079504877328873,-1.12082839012146,1.2153569459915161
1789324093316725200,6.141725341796875,0.346808522939682,-0.967505693435669,1.2281848192214966
1789324093335575000,6.160574951171875,0.4653128981590271,-0.8832087516784668,0.812808632850647
1789324093354425000,6.179425048828125,0.40606072545051575,-0.5283065438270569,0.5354839563369751
1789324093373275100,6.198275146484375,0.27350685000419617,-0.1752368062734604,0.5690805912017822
1789324093392125000,6.217125,0.11835165321826935,-0.11720632016658783,0.42614230513572693
1789324093410975000,6.23597509765625,0.11285403370857239,0.08131904155015945,0.2728196680545807
1789324093429825000,6.254824951171875,0.13117945194244385,0.27617931365966797,0.17691664397716522
1789324093448674800,6.2736748046875,0.06337540596723557,0.6012263894081116,0.0009926267666742206
1789324093467524900,6.29252490234375,-0.008704573847353458,0.9280297160148621,-0.2769428789615631
1789324093486375000,6.311375,-0.09727742522954941,1.0776872634887695,-0.5542675256729126
1789324093505224700,6.330224609375,-0.22677704691886902,1.3379082679748535,-0.823727548122406
1789324093524074800,6.34907470703125,-0.3104631304740906,1.5779712200164795,-1.0595145225524902
1789324093542924800,6.3679248046875,-0.41980478167533875,1.65310537815094,-1.2568182945251465
1789324093561774600,6.386774658203125,-0.5102101564407349,1.4228159189224243,-1.5665178298950195
1789324093580624600,6.405624755859375,-0.6109999418258667,1.149767279624939,-1.7320574522018433
1789324093599474700,6.424474609375,-0.8797727823257446,0.9390249252319336,-1.8285713195800781
1789324093618324500,6.443324462890625,-0.9628480076789856,1.0984560251235962,-2.0588607788085938
1789324093637174500,6.462174560546875,-0.9188669919967651,1.103342890739441,-2.126664638519287
1789324093656024600,6.481024658203125,-0.9213103652000427,1.1693143844604492,-2.146822690963745
1789324093674874400,6.499874267578125,-0.8864920735359192,0.8913788795471191,-2.2256219387054443
1789324093693724400,6.518724365234375,-0.8406785130500793,0.6696413159370422,-2.28243088722229
1789324093712574500,6.537574462890625,-0.7881456613540649,0.5486935377120972,-2.3050320148468018
1789324093731424300,6.55642431640625,-0.6048914790153503,0.6164975762367249,-2.4021568298339844
1789324093750274300,6.5752744140625,-0.4424061179161072,0.62627112865448,-2.3044211864471436
1789324093769124400,6.594124267578125,-0.34039464592933655,0.5211290717124939,-2.0588607788085938
1789324093787974100,6.61297412109375,-0.20539739727973938,0.4979168772697449,-1.858502745628357
1789324093806824200,6.63182421875,-0.1241547018289566,0.5076904296875,-1.5964492559432983
1789324093825674200,6.65067431640625,0.10979979485273361,0.4948626458644867,-1.2531532049179077
1789324093844524000,6.66952392578125,0.44515493512153625,0.2890070974826813,-0.768674910068512
1789324093863374000,6.6883740234375,0.5013529062271118,0.11735902726650238,-0.16821207106113434
1789324093882224000,6.70722412109375,0.35597124695777893,0.13201937079429626,0.22944949567317963
1789324093901074000,6.726073974609375,0.2802261710166931,0.05444176122546196,0.40781688690185547
1789324093919924000,6.744924072265625,0.22219568490982056,-0.2515927255153656,0.6228351593017578
1789324093938774000,6.76377392578125,0.21120044589042664,-0.2937411665916443,0.9343672394752502
1789324093957623800,6.782623779296875,0.24479703605175018,-0.29557371139526367,1.168932557106018
1789324093976473900,6.801473876953125,0.2808370292186737,-0.22227205336093903,1.1860363483428955
1789324093995324000,6.820323974609375,0.2026485800743103,-0.18134528398513794,1.0766946077346802
1789324094014173700,6.839173583984375,0.029778804630041122,-0.34871742129325867,1.1017394065856934
1789324094033023700,6.858023681640625,-0.05024218559265137,-0.6376481652259827,1.2520078420639038
1789324094051873800,6.876873779296875,0.05238015204668045,-0.49593162536621094,1.3876159191131592
1789324094070723600,6.8957236328125,0.1623326539993286,-0.32611608505249023,1.3735663890838623
1789324094089573600,6.91457373046875,0.23868857324123383,-0.37925979495048523,1.4328186511993408
1789324094108423700,6.933423583984375,0.3321481943130493,-0.4391228258609772,1.7864991426467896
1789324094127273500,6.9522734375,0.4628695249557495,-0.8105179667472839,1.9893767833709717
1789324094146123500,6.97112353515625,0.5740436911582947,-0.7634826898574829,1.8959171772003174
1789324094164973300,6.989973388671875,0.5410579442977905,-0.6413132548332214,1.7522916793823242
1789324094183823400,7.0088232421875,0.4274403750896454,-0.958342969417572,1.7229710817337036
1789324094202673400,7.02767333984375,0.3840702176094055,-1.0762364864349365,1.7767256498336792
1789324094221523200,7.046523193359375,0.5129590034484863,-1.305915117263794,1.7590110301971436
1789324094240373200,7.065373291015625,0.5410579442977905,-1.706630825996399,1.7162517309188843
1789324094259223300,7.084223388671875,0.2673983871936798,-2.020606279373169,1.5818653106689453
1789324094278073000,7.103072998046875,0.07070557028055191,-2.1593451499938965,1.3906701803207397
1789324094296923100,7.121923095703125,0.13179029524326324,-1.6742559671401978,1.210470199584961
1789324094315773200,7.140773193359375,0.18187977373600006,-1.101892113685608,1.1438878774642944
1789324094334623000,7.159623046875,0.1898207813501358,-0.8929823637008667,1.0956308841705322
1789324094353473000,7.17847314453125,0.1495048701763153,-0.6962895393371582,0.8580113053321838
1789324094372322800,7.19732275390625,0.15439164638519287,-0.45378315448760986,0.6448256373405457
1789324094391172900,7.2161728515625,0.12873606383800507,-0.2803025245666504,0.39743250608444214
1789324094410023000,7.23502294921875,0.10613471269607544,-0.04818057641386986,0.21234577894210815
1789324094428872700,7.253872802734375,0.021226942539215088,0.07154548168182373,-0.024662958458065987
1789324094447722800,7.27272265625,-0.09177979826927185,0.38552096486091614,-0.17920731008052826
1789324094466572800,7.29157275390625,-0.08078455179929733,0.43866467475891113,-0.49440449476242065
1789324094485422600,7.310422607421875,-0.07650861889123917,0.7808154821395874,-0.7375217080116272
1789324094504272600,7.329272705078125,-0.20051060616970062,1.0636377334594727,-0.9440644383430481
1789324094523122700,7.348122802734375,-0.3752129375934601,1.370893955230713,-1.0680664777755737
1789324094541972500,7.366972412109375,-0.5541911721229553,1.4832898378372192,-1.1077715158462524
1789324094560822500,7.385822509765625,-0.6006155610084534,1.0587509870529175,-1.3649382591247559
1789324094579672300,7.40467236328125,-0.543806791305542,1.2542221546173096,-1.5066547393798828
1789324094598522400,7.4235224609375,-0.6623111367225647,1.1650384664535522,-1.6697509288787842
1789324094617372400,7.442372314453125,-0.8980981707572937,1.4484715461730957,-1.8578919172286987
1789324094636222200,7.46122216796875,-0.9805625677108765,1.2780451774597168,-2.135216474533081
1789324094655072300,7.480072265625,-1.0929584503173828,1.0819631814956665,-2.245169162750244
1789324094673922000,7.498922119140625,-1.0251544713974,0.8822161555290222,-2.469960927963257
1789324094692772000,7.517772216796875,-0.8382351398468018,0.8162446618080139,-2.5988497734069824
1789324094711622100,7.5366220703125,-0.5926745533943176,0.8009734749794006,-2.6019039154052734
1789324094730472000,7.555471923828125,-0.3568875193595886,0.7545490860939026,-2.6220619678497314
1789324094749322000,7.574322021484375,-0.1882936656475067,0.43438875675201416,-2.522493839263916
1789324094768171800,7.593171875,0.050547610968351364,0.38124504685401917,-2.2353954315185547
1789324094787021800,7.612021728515625,0.22158484160900116,0.33115556836128235,-1.7351115942001343
1789324094805871900,7.630871826171875,0.3223746418952942,0.3745257258415222,-1.2830846309661865
1789324094824721700,7.6497216796875,0.36513394117355347,0.3488701283931732,-0.9770501852035522
1789324094843571700,7.66857177734375,0.28938889503479004,0.07826480269432068,-0.6129088401794434
1789324094862421800,7.687421875,0.27717193961143494,-0.04879142343997955,-0.16271443665027618
1789324094881271600,7.706271484375,0.376740038394928,0.025731941685080528,0.2581593096256256
1789324094900121600,7.72512158203125,0.43293800950050354,-0.05795413255691528,0.5843517780303955
1789324094918971400,7.743971435546875,0.3968980014324188,-0.3291703164577484,0.7908181548118591
1789324094937821400,7.762821533203125,0.399952232837677,-0.4733302593231201,0.9111550450325012
1789324094956671500,7.78167138671875,0.3480302393436432,-0.6290963292121887,1.080359697341919
1789324094975521300,7.800521240234375,0.2576248347759247,-0.6315397024154663,1.2520078420639038
1789324094994371300,7.819371337890625,0.19226416945457458,-0.746379017829895,1.378453254699707
1789324095013221000,7.83822119140625,0.18126893043518066,-0.7280535697937012,1.423045039176941
1789324095032071200,7.8570712890625,0.1623326539993286,-0.6089383363723755,1.366847038269043
1789324095050921200,7.875921142578125,0.21181128919124603,-0.4470638334751129,1.427320957183838
1789324095069771000,7.89477099609375,0.39201122522354126,-0.29618456959724426,1.5232239961624146
1789324095088621000,7.91362109375,0.7065975666046143,-0.4366794228553772,1.5672049522399902
1789324095107470800,7.932470947265625,0.8709918260574341,-0.6462000608444214,1.7076998949050903
1789324095126321000,7.95132080078125,0.8196806907653809,-0.9901070594787598,1.8188741207122803
1789324095145170700,7.970170654296875,0.682163655757904,-1.1458730697631836,1.8231500387191772
1789324095164020700,7.989020751953125,0.6400152444839478,-0.9662840366363525,1.874537467956543
1789324095182870800,8.007870849609375,0.5355603098869324,-1.112276554107666,1.9429523944854736
1789324095201720600,8.026720458984375,0.48241662979125977,-1.2619340419769287,1.8769809007644653
1789324095220570600,8.045570556640625,0.5441122055053711,-1.2955306768417358,1.7816123962402344
1789324095239420400,8.06442041015625,0.4268295168876648,-1.6785318851470947,1.7357988357543945
1789324095258270500,8.0832705078125,0.39323291182518005,-1.8116966485977173,1.5861412286758423
1789324095277120300,8.102120361328126,0.5154023766517639,-1.4916126728057861,1.4071630239486694
1789324095295970300,8.12097021484375,0.6198572516441345,-1.1073896884918213,1.1151779890060425
1789324095314820400,8.1398203125,0.556939959526062,-0.6859050989151001,0.7046886682510376
1789324095333670100,8.158670166015625,0.2808370292186737,-0.40186113119125366,0.5867951512336731
1789324095352520200,8.177520263671875,0.12934690713882446,-0.32550522685050964,0.517158567905426
1789324095371370000,8.196369873046875,0.05238015204668045,-0.07750124484300613,0.49761146306991577
1789324095399645000,8.22464501953125,0.13423368334770203,0.22181391716003418,0.25143998861312866
1789324095418495000,8.243494873046876,0.10674555599689484,0.482034832239151,-0.07230904698371887
1789324095437344800,8.2623447265625,-0.015423892997205257,0.626882016658783,-0.3447469174861908
1789324095456194800,8.28119482421875,-0.17302247881889343,0.8144121170043945,-0.5292227864265442
1789324095475044600,8.300044677734375,-0.2829749882221222,1.0508099794387817,-0.6978166103363037
1789324095493894700,8.318894775390625,-0.3458922505378723,1.389830231666565,-0.8707627654075623
1789324095512744700,8.33774462890625,-0.4002576768398285,1.3617312908172607,-1.0613471269607544
1789324095531594500,8.356594482421874,-0.48577627539634705,1.5138322114944458,-1.2348277568817139
1789324095550444500,8.375444580078126,-0.6164975762367249,1.644553542137146,-1.3863178491592407
1789324095569294300,8.39429443359375,-0.8455653190612793,1.6072918176651,-1.443737506866455
1789324095588144400,8.413144287109375,-1.1247224807739258,1.3745590448379517,-1.5243693590164185
1789324095606994200,8.431994140625,-1.1851963996887207,1.2713258266448975,-1.7943638563156128
1789324095625844200,8.45084423828125,-1.2035218477249146,1.2707149982452393,-2.009992837905884
1789324095644694000,8.469694091796875,-1.1619842052459717,1.075854778289795,-2.1370491981506348
1789324095663544000,8.4885439453125,-1.0831849575042725,0.9506310224533081,-2.296480178833008
1789324095682393900,8.507393798828126,-0.932305634021759,0.9268079996109009,-2.3972699642181396
1789324095701244000,8.526243896484376,-0.7954758405685425,0.8938222527503967,-2.473015069961548
1789324095720093700,8.54509375,-0.7020162343978882,0.9035958051681519,-2.478512763977051
1789324095738943700,8.56394384765625,-0.5254813432693481,0.7710419297218323,-2.3532891273498535
1789324095757793800,8.582793701171875,-0.39231663942337036,0.5920637249946594,-2.0472545623779297
1789324095776643600,8.6016435546875,-0.33856210112571716,0.5046361684799194,-1.5561333894729614
1789324095795493600,8.62049365234375,-0.19440214335918427,0.4826456904411316,-1.0802834033966064
1789324095814343400,8.639343505859374,-0.14492350816726685,0.4020138382911682,-0.7692857384681702
1789324095833193500,8.658193359375,-0.0856713280081749,0.17355698347091675,-0.5689278841018677
1789324095852043300,8.677043212890625,0.03833066672086716,-0.23082390427589417,-0.3270323574542999
1789324095870893300,8.695893310546875,0.20081603527069092,-0.19234053790569305,-0.0014507622690871358
1789324095889743000,8.7147431640625,0.4249969720840454,0.044668205082416534,0.26426780223846436
1789324095908593200,8.73359326171875,0.35658207535743713,-0.2124984860420227,0.4328616261482239
1789324095927443000,8.75244287109375,0.16538690030574799,-0.37681639194488525,0.7175164818763733
1789324095946293000,8.77129296875,0.10185877978801727,-0.4134672284126282,1.0204967260360718
1789324095965142800,8.790142822265626,0.19226416945457458,-0.4476746916770935,1.0785272121429443
1789324095983992800,8.808992919921875,0.2826695740222931,-0.2919086217880249,1.0229400396347046
1789324096002842600,8.827842529296875,0.3058817684650421,-0.28396761417388916,1.0730295181274414
1789324096021692700,8.846692626953125,0.323596328496933,-0.3591018319129944,1.229406476020813
1789324096040542500,8.86554248046875,0.293664813041687,-0.29557371139526367,1.3747881650924683
1789324096059392500,8.884392578125,0.2673983871936798,-0.6290963292121887,1.4389270544052124
1789324096078242300,8.9032421875,0.3871244490146637,-0.8935931921005249,1.5501012802124023
1789324096097092400,8.92209228515625,0.5141806602478027,-0.7854732275009155,1.6997588872909546
1789324096115942100,8.940942138671875,0.45737189054489136,-0.9858311414718628,1.7351880073547363
1789324096134792200,8.959792236328125,0.376740038394928,-1.0163735151290894,1.7553459405899048
1789324096153642000,8.97864208984375,0.32603973150253296,-0.7995226979255676,1.7357988357543945
1789324096172492000,8.997491943359375,0.36574479937553406,-0.6907919049263,1.7321337461471558
1789324096191341800,9.016341796875,0.5428904891014099,-0.9106969237327576,1.850027322769165
1789324096210192000,9.03519189453125,0.7542436718940735,-1.1061680316925049,1.909355878829956
1789324096229041700,9.054041748046876,0.7530219554901123,-1.4293062686920166,1.660664677619934
1789324096247891700,9.0728916015625,0.4622586667537689,-2.101238250732422,1.4010545015335083
1789324096266741500,9.091741455078125,0.1501157134771347,-2.2314250469207764,1.2599488496780396
1789324096285591600,9.110591552734375,0.2020377367734909,-1.6754776239395142,1.1536613702774048
1789324096304441300,9.12944140625,0.43049460649490356,-1.2943090200424194,1.242845058441162
1789324096323291400,9.14829150390625,0.5508314967155457,-1.3682215213775635,1.0027821063995361
1789324096342141200,9.16714111328125,0.5722111463546753,-1.1532032489776611,0.6735354661941528
1789324096360991200,9.1859912109375,0.43477052450180054,-0.48371466994285583,0.4554629921913147
1789324096379841000,9.204841064453126,0.2814478874206543,0.0623827762901783,0.40842774510383606
1789324096398691000,9.223691162109375,0.111632339656353,0.05077667906880379,0.3772745430469513
1789324096417540900,9.242540771484375,0.05360184609889984,0.1424037665128708,0.21601086854934692
1789324096436391000,9.261390869140625,0.010231691412627697,0.7643226385116577,0.032756682485342026
1789324096455240700,9.28024072265625,-0.0331384651362896,1.2902621030807495,-0.13156123459339142
1789324096474090800,9.2990908203125,-0.17485502362251282,1.2823210954666138,-0.3019876182079315
1789324096492940500,9.3179404296875,-0.21211670339107513,1.287207841873169,-0.5481590628623962
1789324096511790300,9.336790283203126,-0.1760767251253128,1.5413203239440918,-0.8927532434463501
1789324096530640400,9.355640380859375,-0.2970244884490967,1.5932424068450928,-1.161526083946228
1789324096549490200,9.374490234375,-0.5059342384338379,1.537655234336853,-1.3405042886734009
1789324096568340200,9.39334033203125,-0.7777612805366516,1.4185400009155273,-1.410140872001648
1789324096587190000,9.41218994140625,-1.0453124046325684,1.1296093463897705,-1.4968812465667725
1789324096606040000,9.4310400390625,-1.1088404655456543,1.097845196723938,-1.7222838401794434
1789324096624889900,9.449889892578126,-1.1448805332183838,1.052642583847046,-1.970287799835205
1789324096643740000,9.468739990234376,-1.2927055358886719,1.0056072473526,-2.034426689147949
1789324096662589700,9.487589599609375,-1.2432268857955933,0.9701781868934631,-2.0979549884796143
1789324096681439500,9.506439453125,-1.0337063074111938,0.7759287357330322,-2.1016199588775635
1789324096700289500,9.52528955078125,-0.8590039610862732,0.8205205798149109,-2.0637474060058594
1789324096719139300,9.544139404296875,-0.7734853625297546,0.69651859998703,-2.0820729732513428
1789324096737989400,9.5629892578125,-0.6641436815261841,0.516242265701294,-2.2176809310913086
1789324096756839200,9.581839111328126,-0.4643966257572174,0.5676298141479492,-2.33496356010437
1789324096775689200,9.600689208984376,-0.28541839122772217,0.5969504714012146,-2.1364383697509766
1789324096794539000,9.6195390625,-0.2041756957769394,0.39651623368263245,-1.6294350624084473
1789324096813389000,9.63838916015625,-0.13331741094589233,0.42095011472702026,-1.1535850763320923
1789324096832238800,9.65723876953125,-0.10460758954286575,0.5107446908950806,-0.8108997344970703
1789324096851089000,9.6760888671875,-0.025197450071573257,0.3219928741455078,-0.49745872616767883
1789324096869938700,9.694938720703124,0.13484452664852142,0.21326205134391785,-0.13095037639141083
1789324096888788500,9.71378857421875,0.293664813041687,0.07765395939350128,0.17752748727798462
1789324096907638500,9.732638427734376,0.34192174673080444,-0.01885990984737873,0.4133145213127136
1789324096926488300,9.75148828125,0.25090551376342773,-0.40308284759521484,0.6503232717514038
1789324096945338400,9.77033837890625,0.16966283321380615,-0.5869478583335876,0.9117658734321594
1789324096964188200,9.789188232421875,0.17454960942268372,-0.5625139474868774,1.05714750289917
1789324096983038000,9.808037841796875,0.18798823654651642,-0.5069268941879272,1.0003387928009033
1789324097001888000,9.826887939453124,0.12934690713882446,-0.5906129479408264,0.9074899554252625
1789324097020737800,9.84573779296875,0.0859767496585846,-0.7030088305473328,0.9771265387535095
1789324097039587800,9.864587890625,0.1513374149799347,-0.7555416822433472,1.1780953407287598
1789324097058437600,9.883437744140625,0.3333698809146881,-0.7256101965904236,1.3289746046066284
1789324097077287400,9.902287353515625,0.5288410186767578,-0.6651363372802734,1.4450355768203735
1789324097096137500,9.921137451171875,0.710262656211853,-0.7518765926361084,1.5690375566482544
1789324097114987300,9.9399873046875,0.7230904698371887,-0.8483904600143433,1.6368415355682373
1789324097133837300,9.95883740234375,0.6455128192901611,-0.954677939414978,1.5311650037765503
1789324097152687000,9.97768701171875,0.635739266872406,-0.875878632068634,1.484129786491394
1789324097171537000,9.996536865234376,0.682774543762207,-0.8233457207679749,1.572091817855835
1789324097190387000,10.015386962890625,0.718814492225647,-0.9913287162780762,1.6850985288619995
1789324097209236700,10.03423681640625,0.7383615970611572,-1.3486744165420532,1.6991480588912964
1789324097228086500,10.05308642578125,0.6241331696510315,-1.754276990890503,1.618516206741333
1789324097246936600,10.0719365234375,0.5367820262908936,-1.9809013605117798,1.4267101287841797
1789324097265786400,10.090786376953124,0.39445462822914124,-1.8288003206253052,1.2043616771697998
1789324097284636400,10.109636474609376,0.3614688515663147,-1.3847143650054932,1.0620343685150146
1789324097303486200,10.128486328125,0.4494308829307556,-1.046915888786316,1.1176214218139648
1789324097322336000,10.1473359375,0.5129590034484863,-0.9699490666389465,1.2074159383773804
1789324097341186000,10.16618603515625,0.6394043564796448,-0.8624399900436401,0.9905651807785034
1789324097360035800,10.185035888671875,0.6803311109542847,-0.4745519757270813,0.7358418703079224
1789324097378885600,10.2038857421875,0.478751540184021,-0.16485241055488586,0.5831300616264343
1789324097397735700,10.222735595703124,0.270452618598938,0.12468919903039932,0.526321291923523
1789324097416585500,10.24158544921875,0.10552386194467545,0.30244573950767517,0.5196019411087036
1789324097435435300,10.260435302734376,0.1104106456041336,0.4692070484161377,0.23433628678321838
1789324097454285300,10.279285400390625,0.14645062386989594,0.6812474131584167,-0.15538427233695984
1789324097473135000,10.298135009765625,0.1782146841287613,0.7466080784797668,-0.5701495409011841
1789324097491985200,10.316985107421875,0.06276455521583557,0.7508839964866638,-0.8163973689079285
1789324097510835000,10.3358349609375,-0.18096350133419037,0.8785510659217834,-0.8884773254394531
1789324097529684700,10.354684814453124,-0.4277457892894745,1.1680927276611328,-0.9403993487358093
1789324097548534800,10.37353466796875,-0.5883986353874207,1.3635637760162354,-0.9758284687995911
1789324097567384600,10.392384521484376,-0.603058934211731,1.4753488302230835,-1.0986088514328003
1789324097586234400,10.411234375,-0.6140542030334473,1.4814573526382446,-1.3227897882461548
1789324097605084400,10.43008447265625,-0.811357855796814,1.5077236890792847,-1.4638954401016235
1789324097623934200,10.448934326171875,-0.9567395448684692,1.4643535614013672,-1.6557015180587769
1789324097642784000,10.467783935546874,-1.093569278717041,1.289040446281433,-1.9208091497421265
1789324097661634000,10.486634033203124,-1.204743504524231,1.2071869373321533,-2.0472545623779297
1789324097680483800,10.50548388671875,-1.1570974588394165,1.2444485425949097,-2.1859169006347656
1789324097699333600,10.524333740234376,-0.9866710305213928,1.030041217803955,-2.270824670791626
1789324097718183700,10.54318359375,-0.8168554902076721,0.8767185211181641,-2.259218692779541
1789324097737033500,10.562033447265625,-0.6482616662979126,0.8553388714790344,-2.294036865234375
1789324097755883300,10.58088330078125,-0.5352548956871033,0.9433009028434753,-2.2317304611206055
1789324097774733300,10.5997333984375,-0.4369085133075714,0.8309049606323242,-2.0325942039489746
1789324097793583000,10.6185830078125,-0.3642176687717438,0.6109999418258667,-1.7332791090011597
1789324097812433000,10.637432861328126,-0.21272756159305573,0.5174639821052551,-1.3600513935089111
1789324097831283000,10.656282958984375,0.02733541466295719,0.5425850749015808,-0.9990406632423401
1789324097850132700,10.6751328125,0.16111096739768982,0.39590537548065186,-0.685599684715271
1789324097868982500,10.693982421875,0.164165198802948,0.21265120804309845,-0.3441360890865326
1789324097887832300,10.712832275390625,0.15561333298683167,0.13812783360481262,-0.00022906772210262716
1789324097906682400,10.731682373046874,0.06642963737249374,0.06726955622434616,0.34367793798446655
1789324097925532200,10.7505322265625,0.0035123717971146107,-0.11781716346740723,0.6179483532905579
1789324097944382000,10.7693818359375,-0.010537114925682545,-0.3310028612613678,0.7938723564147949
1789324097963232000,10.78823193359375,0.050547610968351364,-0.44156619906425476,0.9117658734321594
1789324097982081800,10.807081787109375,0.1244601309299469,-0.42629504203796387,0.9923977255821228
1789324098000931600,10.825931640625,0.12812520563602448,-0.4122455418109894,1.0088906288146973
1789324098019781400,10.844781494140625,0.06704048812389374,-0.4250733256340027,1.0149990320205688
1789324098038631400,10.86363134765625,-0.014202198944985867,-0.5087594389915466,1.05714750289917
1789324098057481200,10.882481201171874,0.009620844386518002,-0.7207233905792236,1.0766946077346802
1789324098076331000,10.9013310546875,0.1391204595565796,-0.7958576083183289,1.1188430786132812
1789324098095181000,10.92018115234375,0.3364241421222687,-0.6565844416618347,1.2458993196487427
1789324098114030800,10.93903076171875,0.5911474227905273,-0.8483904600143433,1.377231478691101
1789324098132880600,10.957880615234375,0.6613948941230774,-0.9956046938896179,1.5739243030548096
1789324098151730400,10.97673046875,0.6296308040618896,-0.7921925187110901,1.7577893733978271
1789324098170580500,10.99558056640625,0.6852179169654846,-0.7317186594009399,1.8054354190826416
1789324098189430300,11.01443017578125,0.8734351992607117,-0.9607864022254944,1.7864991426467896
1789324098208280000,11.033280029296876,0.8948148488998413,-1.0566893815994263,1.793829321861267
1789324098227129900,11.0521298828125,0.7304205894470215,-1.32362961769104,1.7492375373840332
1789324098245980000,11.07097998046875,0.4891359508037567,-1.78787362575531,1.683876872062683
1789324098264829700,11.08982958984375,0.3095468580722809,-2.0169413089752197,1.5690375566482544
1789324098283679500,11.108679443359375,0.2808370292186737,-2.1507933139801025,1.3589060306549072
1789324098302529300,11.127529296875,0.3608580231666565,-1.7958146333694458,1.3014864921569824
1789324098321379300,11.14637939453125,0.4366030693054199,-1.2484954595565796,1.2098593711853027
1789324098340229000,11.16522900390625,0.4237752854824066,-0.7188908457756042,1.100517749786377
1789324098359079000,11.184078857421875,0.4359922409057617,-0.5215871930122375,1.0724186897277832
1789324098377928700,11.2029287109375,0.4366030693054199,-0.4195757210254669,0.997895359992981
1789324098396778800,11.22177880859375,0.48547086119651794,-0.08971819281578064,0.5776324272155762
1789324098415628500,11.240628662109375,0.3443651497364044,0.33176642656326294,0.23433628678321838
1789324098434478300,11.259478271484374,0.18310146033763885,0.24869118630886078,0.09811734408140182
1789324098453328100,11.278328125,0.09636115282773972,0.1424037665128708,-0.2402920424938202
1789324098472178000,11.297177978515625,0.05604523420333862,0.31954947113990784,-0.5365529656410217
1789324098491028000,11.316028076171875,0.05543438717722893,0.46187686920166016,-0.6917081475257874
1789324098509877800,11.334877685546875,0.037108972668647766,0.4710395932197571,-0.823727548122406
1789324098528727600,11.3537275390625,-0.10277505218982697,0.8510629534721375,-0.9086353182792664
1789324098547577300,11.372577392578124,-0.2921377122402191,1.1137272119522095,-1.0020949840545654
1789324098566427400,11.391427490234374,-0.4283566474914551,1.4802355766296387,-1.0656230449676514
1789324098585277200,11.410277099609376,-0.5419742465019226,1.7251853942871094,-1.1603044271469116
1789324098604127000,11.429126953125,-0.668419599533081,1.7887134552001953,-1.2763653993606567
1789324098622976800,11.447976806640625,-0.9066500663757324,1.6738742589950562,-1.3606622219085693
1789324098641826600,11.46682666015625,-0.9897252917289734,1.4099881649017334,-1.6868547201156616
1789324098660676600,11.485676513671875,-1.1302201747894287,1.1839747428894043,-2.074131965637207
1789324098679526400,11.5045263671875,-1.2065759897232056,0.9243646264076233,-2.3038103580474854
1789324098698376200,11.523376220703126,-1.0770764350891113,0.8382351398468018,-2.473015069961548
1789324098717226000,11.54222607421875,-0.8638907074928284,0.8590039610862732,-2.421093225479126
1789324098736075800,11.56107568359375,-0.6323796510696411,1.0831849575042725,-2.4308667182922363
1789324098754925600,11.579925537109375,-0.5212054252624512,1.171757698059082,-2.4027676582336426
1789324098773775600,11.598775634765625,-0.462564080953598,0.9512419104576111,-2.303199529647827
1789324098792625400,11.61762548828125,-0.35138988494873047,0.6201626658439636,-2.0319833755493164
1789324098811475200,11.63647509765625,-0.27320143580436707,0.4154524803161621,-1.5775130987167358
1789324098830325000,11.655324951171876,-0.051463883370161057,0.35742199420928955,-1.1334271430969238
1789324098849175000,11.674175048828126,0.27595025300979614,0.4795914590358734,-0.7485169768333435
1789324098868024800,11.69302490234375,0.31565532088279724,0.3763582706451416,-0.4363740086555481
1789324098886874600,11.71187451171875,0.16721943020820618,0.23891763389110565,-0.2635042369365692
1789324098905724400,11.730724365234375,-0.06673506647348404,-0.03290939703583717,-0.009391776286065578
1789324098924574200,11.74957421875,-0.03497100621461868,-0.15752223134040833,0.38277217745780945
1789324098943424000,11.768424072265624,0.14339639246463776,-0.1880646049976349,0.6564317345619202
1789324098962273800,11.787273681640626,0.2539597451686859,-0.2515927255153656,0.7822662591934204
1789324098981123800,11.806123779296875,0.24479703605175018,-0.2894652485847473,0.8280798196792603
1789324098999973600,11.8249736328125,0.21914145350456238,-0.2613662779331207,0.8586221933364868
1789324099018823400,11.843823486328125,0.15866757929325104,-0.26014456152915955,0.9642987251281738
1789324099047098000,11.87209814453125,0.0981936976313591,-0.6083275079727173,1.1695433855056763
1789324099065948000,11.890947998046874,0.16966283321380615,-0.6504759788513184,1.2623921632766724
1789324099084797700,11.909797607421876,0.28938889503479004,-0.6113817691802979,1.2727766036987305
1789324099103647700,11.928647705078125,0.3223746418952942,-0.41468894481658936,1.3045406341552734
1789324099122497500,11.94749755859375,0.39201122522354126,-0.45744824409484863,1.3430240154266357
1789324099141347300,11.966347412109375,0.40483900904655457,-0.47027602791786194,1.4890165328979492
1789324099160197000,11.985197021484375,0.5154023766517639,-0.9693382382392883,1.594082236289978
1789324099179047000,12.004046875,0.7053758502006531,-1.2252832651138306,1.7028131484985352
1789324099197896700,12.022896728515626,0.7664605975151062,-1.2210073471069336,1.6521127223968506
1789324099216746500,12.04174658203125,0.6558972597122192,-1.0970053672790527,1.4603067636489868
1789324099235596300,12.06059619140625,0.5929799675941467,-1.2888113260269165,1.4877948760986328
1789324099254446300,12.0794462890625,0.5373928546905518,-1.5105489492416382,1.76023268699646
1789324099273296100,12.098296142578125,0.5202891230583191,-1.7664939165115356,1.7266361713409424
1789324099292146000,12.11714599609375,0.5031854510307312,-1.735951542854309,1.5274999141693115
1789324099310995700,12.13599560546875,0.4359922409057617,-1.5191007852554321,1.4572525024414062
1789324099329845500,12.154845458984376,0.49768781661987305,-1.2802594900131226,1.382729172706604
1789324099348695300,12.1736953125,0.49707695841789246,-0.7249993681907654,1.4041087627410889
1789324099367545000,12.192545166015625,0.46897798776626587,-0.45744824409484863,1.256894588470459
1789324099386395000,12.211394775390625,0.3749074935913086,-0.3432198166847229,0.9765157103538513
1789324099405244700,12.23024462890625,0.399952232837677,-0.18317782878875732,0.5806866884231567
1789324099424094500,12.249094482421874,0.35536038875579834,0.034283801913261414,0.4041518270969391
1789324099442944500,12.267944580078124,0.28877803683280945,-0.0946049690246582,0.2679328918457031
1789324099461794300,12.286794189453126,0.22647161781787872,-0.17157171666622162,0.005268557462841272
1789324099480644000,12.30564404296875,0.16050012409687042,-0.018249060958623886,-0.3080960810184479
1789324099499494000,12.324493896484375,0.03527642786502838,0.299391508102417,-0.5176166892051697
1789324099518343700,12.34334375,-0.11682453751564026,0.6488724946975708,-0.6098546385765076
1789324099537193500,12.362193359375,-0.22311195731163025,1.0996778011322021,-0.6825454831123352
1789324099556043300,12.381043212890624,-0.3379512429237366,1.4576343297958374,-0.8389987349510193
1789324099574893000,12.39989306640625,-0.46073153614997864,1.8039846420288086,-0.9611681699752808
1789324099593742800,12.418742919921876,-0.6091674566268921,1.8039846420288086,-1.0014840364456177
1789324099612592600,12.437592529296875,-0.8357917666435242,1.579803705215454,-1.1590826511383057
1789324099631442400,12.4564423828125,-1.135717749595642,1.5132213830947876,-1.4076975584030151
1789324099650292200,12.475292236328125,-1.26399564743042,1.5150538682937622,-1.8145217895507812
1789324099669142000,12.49414208984375,-1.307365894317627,1.3922736644744873,-2.0747427940368652
1789324099687992000,12.512991943359374,-1.3672288656234741,0.8993198871612549,-1.9782288074493408
1789324099706841900,12.531841796875,-1.232231616973877,0.9573503732681274,-1.9550166130065918
1789324099725691600,12.550691650390625,-1.0056072473526,1.0569185018539429,-2.00449538230896
1789324099744541400,12.56954150390625,-0.9005415439605713,0.9121476411819458,-2.0002193450927734
1789324099763391200,12.58839111328125,-0.8266290426254272,0.6421532034873962,-2.0234315395355225
1789324099782241000,12.607240966796875,-0.6470399498939514,0.46309858560562134,-2.198744773864746
1789324099801090800,12.6260908203125,-0.44790375232696533,0.6256603002548218,-2.175532579421997
1789324099819940600,12.644940673828126,-0.2157817929983139,0.5584670901298523,-1.8896559476852417
1789324099838790400,12.663790283203125,-0.056961506605148315,0.3213820159435272,-1.466338872909546
1789324099857640200,12.68264013671875,0.007788302376866341,0.38491013646125793,-1.0760074853897095
1789324099876490000,12.701489990234375,0.004734066314995289,0.3995704650878906,-0.8328902125358582
1789324099895339800,12.72033984375,-0.06429167091846466,0.11735902726650238,-0.5860316157341003
1789324099914189600,12.739189453125,-0.03558185324072838,-0.0029778804164379835,-0.2665584683418274
1789324099933039400,12.758039306640624,0.21242213249206543,0.09597937762737274,0.08223531395196915
1789324099951889200,12.77688916015625,0.4537068009376526,0.22853323817253113,0.362003356218338
1789324099970739000,12.795739013671875,0.3461976945400238,-0.03229855000972748,0.5470900535583496
1789324099989588700,12.814588623046875,0.164165198802948,-0.24792763590812683,0.7645516991615295
1789324100008438500,12.8334384765625,0.03527642786502838,-0.39330926537513733,0.9826241731643677
1789324100027288300,12.852288330078125,-0.04474456235766411,-0.5399126410484314,1.0669211149215698
1789324100046138000,12.87113818359375,0.0022906772792339325,-0.6694122552871704,1.0644776821136475
1789324100064988000,12.88998779296875,0.1385096162557602,-0.5619031190872192,1.0999068021774292
1789324100083837700,12.908837646484375,0.18737739324569702,-0.329781174659729,1.137168526649475
1789324100102687500,12.9276875,0.15622419118881226,-0.36154523491859436,1.1438878774642944
1789324100121537500,12.94653759765625,0.07986827939748764,-0.45744824409484863,1.210470199584961
1789324100140387300,12.96538720703125,0.14095300436019897,-0.6034407615661621,1.3008755445480347
1789324100159237000,12.984237060546874,0.42072105407714844,-0.7866948843002319,1.4401487112045288
1789324100178087000,13.0030869140625,0.6284091472625732,-0.9742250442504883,1.575145959854126
1789324100196936700,13.021936767578126,0.603975236415863,-1.032866358757019,1.6728816032409668
1789324100215786500,13.040786376953125,0.5209000110626221,-0.9937721490859985,1.65883207321167
1789324100234636300,13.05963623046875,0.4524851143360138,-1.0591328144073486,1.6337873935699463
1789324100253486000,13.078486083984375,0.5318952798843384,-1.028590440750122,1.757178544998169
1789324100272336000,13.0973359375,0.765238881111145,-1.0737931728363037,1.9014147520065308
1789324100291185700,13.116185546875,0.8557206392288208,-1.3303489685058594,1.7541242837905884
1789324100310035500,13.135035400390626,0.682774543762207,-1.8257460594177246,1.4401487112045288
1789324100328885200,13.15388525390625,0.4243861436843872,-2.1715619564056396,1.146942138671875
1789324100347735000,13.172735107421875,0.37979426980018616,-1.8361304998397827,0.9441407918930054
1789324100366584800,13.191584716796875,0.50196373462677,-1.375551700592041,1.0027821063995361
1789324100385434600,13.2104345703125,0.4610369801521301,-1.0988378524780273,1.109069585800171
1789324100404284400,13.229284423828124,0.4518742561340332,-0.8648833632469177,0.9044356942176819
1789324100423134200,13.24813427734375,0.43049460649490356,-0.49348822236061096,0.6869741082191467
1789324100451409000,13.276408935546876,0.3865135908126831,0.20959696173667908,0.6118398904800415
1789324100470258700,13.2952587890625,0.3058817684650421,0.28106608986854553,0.4065952003002167
1789324100489108500,13.3141083984375,0.2411319613456726,0.20409934222698212,0.06574243307113647
1789324100507958300,13.332958251953125,0.1495048701763153,0.2578538954257965,-0.33558422327041626
1789324100526807800,13.351807861328124,0.013896775431931019,0.4814240038394928,-0.579312264919281
1789324100555082500,13.38008251953125,-0.19562382996082306,0.6757497787475586,-0.666663408279419
1789324100573932300,13.398932373046875,-0.252432644367218,0.8596147894859314,-0.7344674468040466
1789324100592782000,13.417781982421875,-0.2658712565898895,1.2218471765518188,-0.8823688626289368
1789324100611631900,13.4366318359375,-0.30068957805633545,1.4441956281661987,-1.101052165031433
1789324100630481700,13.455481689453125,-0.40819868445396423,1.4857332706451416,-1.239714503288269
1789324100649331500,13.47433154296875,-0.7404996156692505,1.5126105546951294,-1.2995775938034058
1789324100668181200,13.49318115234375,-0.9897252917289734,1.5126105546951294,-1.4504568576812744
1789324100687031000,13.512031005859376,-1.0697462558746338,1.371504783630371,-1.6813570261001587
1789324100705880800,13.530880859375,-1.0312628746032715,1.246891975402832,-1.9782288074493408
1789324100724730600,13.549730712890625,-1.0752438306808472,1.0098832845687866,-2.009992837905884
1789324100743580400,13.568580322265625,-0.9909469485282898,1.0202676057815552,-2.157817840576172
1789324100762430200,13.58743017578125,-0.8553388714790344,0.9353598356246948,-2.3771121501922607
1789324100781280000,13.606280029296874,-0.7734853625297546,0.7942541241645813,-2.398491859436035
1789324100800129800,13.6251298828125,-0.6830799579620361,0.8742751479148865,-2.400935173034668
1789324100818979600,13.6439794921875,-0.5401417016983032,0.8980981707572937,-2.3905508518218994
1789324100837829400,13.662829345703125,-0.3898732662200928,0.6849125027656555,-2.184084415435791
1789324100856679200,13.68167919921875,-0.14186927676200867,0.48814332485198975,-1.812689185142517
1789324100875528700,13.70052880859375,0.1360662281513214,0.4685961902141571,-1.3844853639602661
1789324100894378500,13.71937841796875,0.2796153426170349,0.5095229744911194,-0.9941539168357849
1789324100913228300,13.738228271484376,0.293664813041687,0.4563792645931244,-0.7289698719978333
1789324100932078000,13.757078125,0.14828316867351532,0.22181391716003418,-0.42782214283943176
1789324100950928000,13.775927978515625,0.030389651656150818,0.14484715461730957,-0.12850698828697205
1789324100969777700,13.794777587890625,-0.016034740954637527,0.015347537584602833,0.1787491738796234
1789324100988627500,13.81362744140625,0.05604523420333862,-0.06223006546497345,0.38643723726272583
1789324101007477200,13.832477294921874,0.11774080991744995,-0.18317782878875732,0.5226562023162842
1789324101026327000,13.8513271484375,0.16905197501182556,-0.2790808379650116,0.6655944585800171
1789324101045176800,13.8701767578125,0.15805672109127045,-0.3334462344646454,0.8366316556930542
1789324101064026600,13.889026611328125,0.17882554233074188,-0.27175068855285645,0.9850675463676453
1789324101082876400,13.90787646484375,0.1513374149799347,-0.2375432252883911,1.0437089204788208
1789324101101726000,13.926725830078125,0.05787777900695801,-0.5185329914093018,1.077305555343628
1789324101120575700,13.94557568359375,0.05421269312500954,-0.6083275079727173,1.1823712587356567
1789324101139425500,13.964425537109374,0.12995775043964386,-0.5496861934661865,1.3338613510131836
1789324101158275300,13.983275390625,0.30404922366142273,-0.5264739990234375,1.4028871059417725
1789324101177125000,14.002125,0.476308137178421,-0.38964420557022095,1.4859622716903687
1789324101195975000,14.020974853515625,0.5386145710945129,-0.3865899443626404,1.6160727739334106
1789324101214824700,14.03982470703125,0.6149705052375793,-0.6199336051940918,1.6258463859558105
1789324101233674500,14.058674560546875,0.6418477296829224,-0.9216921329498291,1.6307331323623657
1789324101252524300,14.077524169921874,0.6620057225227356,-1.2338351011276245,1.6276788711547852
1789324101271373800,14.096373779296876,0.6070294380187988,-1.235056757926941,1.5714808702468872
1789324101290223600,14.1152236328125,0.5514423847198486,-1.0860100984573364,1.4370945692062378
1789324101309073400,14.134073486328125,0.5092939138412476,-1.125104308128357,1.4975683689117432
1789324101327923200,14.152923095703125,0.5172349214553833,-1.2778160572052002,1.6759358644485474
1789324101346773000,14.17177294921875,0.4940227270126343,-1.4671787023544312,1.6307331323623657
1789324101365622800,14.190622802734374,0.43049460649490356,-1.811085820198059,1.4590849876403809
1789324101384472600,14.20947265625,0.682774543762207,-2.0297691822052,1.242234230041504
1789324101403322400,14.228322265625,0.8685484528541565,-1.7799324989318848,1.109680414199829
1789324101422172000,14.247171875,0.7714237570762634,-1.1929082870483398,0.9325346946716309
1789324101441021700,14.266021728515625,0.5538857579231262,-0.7518765926361084,0.6631510257720947
1789324101459871500,14.28487158203125,0.2973299026489258,-0.4586699306964874,0.4664582312107086
1789324101478721300,14.30372119140625,0.09086353331804276,-0.18317782878875732,0.5134934782981873
1789324101497571000,14.322571044921874,0.0462716780602932,0.08498412370681763,0.683309018611908
1789324101516420900,14.3414208984375,0.1513374149799347,0.1790546029806137,0.5434249639511108
1789324101535270400,14.3602705078125,0.19409671425819397,0.4783697724342346,0.16347800195217133
1789324101554120200,14.3791201171875,0.10308047384023666,1.2230689525604248,-0.1999761164188385
1789324101572970000,14.397969970703125,-0.16691401600837708,1.0202676057815552,-0.3594072461128235
1789324101591819800,14.41681982421875,-0.26098448038101196,1.0269869565963745,-0.5597651600837708
1789324101610669600,14.435669677734374,-0.23838314414024353,1.2273448705673218,-0.9055810570716858
1789324101629519400,14.454519287109376,-0.30068957805633545,1.395938754081726,-1.1596934795379639
1789324101648369000,14.473368896484375,-0.51998370885849,1.2853753566741943,-1.2665917873382568
1789324101667218700,14.49221875,-0.9316948056221008,1.1332744359970093,-1.2843064069747925
1789324101686068500,14.511068359375,-1.185807228088379,1.3091983795166016,-1.4034215211868286
1789324101704918300,14.529918212890625,-1.2297883033752441,1.5254383087158203,-1.4913835525512695
1789324101723768000,14.54876806640625,-1.0856282711029053,1.4148749113082886,-1.7418309450149536
1789324101742617600,14.56761767578125,-1.004996418952942,1.1363285779953003,-1.923863410949707
1789324101761467400,14.58646728515625,-1.0984560251235962,1.1387720108032227,-1.9208091497421265
1789324101780317200,14.605317138671875,-1.0899041891098022,1.2804886102676392,-2.0924572944641113
1789324101799167000,14.6241669921875,-1.0001096725463867,0.8156337738037109,-2.3105297088623047
1789324101818016800,14.643016845703125,-0.9255862832069397,0.6678087711334229,-2.3105297088623047
1789324101836866300,14.6618662109375,-0.8364025950431824,0.8968765139579773,-2.418038845062256
1789324101855716000,14.680716064453126,-0.6433748602867126,0.80280601978302,-2.4461379051208496
1789324101874566000,14.69956591796875,-0.41736137866973877,0.47287213802337646,-2.0490870475769043
1789324101893415700,14.718415771484375,-0.26403874158859253,0.4325562119483948,-1.4687821865081787
1789324101912265500,14.737265380859375,-0.12171131372451782,0.5505260825157166,-1.0326372385025024
1789324101931115000,14.756114990234375,-0.04230117425322533,0.5548020005226135,-0.8054021000862122
1789324101949964800,14.77496484375,-0.00992626789957285,0.2890070974826813,-0.5640410780906677
1789324101968814600,14.793814697265624,0.025502873584628105,0.11125055700540543,-0.16943375766277313
1789324101987664400,14.812664306640626,0.1623326539993286,-0.015194825828075409,0.21173493564128876
1789324102006514000,14.831513916015625,0.2582356929779053,-0.08666395395994186,0.48600533604621887
1789324102025363700,14.85036376953125,0.26434415578842163,-0.22899135947227478,0.6265002489089966
1789324102044213500,14.869213623046875,0.26495498418807983,-0.3010713458061218,0.8024242520332336
1789324102063063300,14.888063232421874,0.20936790108680725,-0.4354577362537384,1.0669211149215698
1789324102081913000,14.9069130859375,0.15439164638519287,-0.4586699306964874,1.2074159383773804
1789324102100762600,14.9257626953125,0.07681404054164886,-0.4379011392593384,1.1835929155349731
1789324102119612400,14.9446123046875,0.0462716780602932,-0.49715331196784973,1.0925766229629517
1789324102138462200,14.963462158203125,0.10308047384023666,-0.643756628036499,1.1157888174057007
1789324102157312000,14.98231201171875,0.2796153426170349,-0.7335512042045593,1.2617813348770142
1789324102176161500,15.00116162109375,0.5245651006698608,-0.5783960223197937,1.4114389419555664
1789324102195011300,15.02001123046875,0.5789304971694946,-0.5588488578796387,1.4096064567565918
1789324102213861000,15.038861083984376,0.4286620616912842,-1.0065999031066895,1.3289746046066284
1789324102232711000,15.0577109375,0.32787227630615234,-1.1813021898269653,1.3918918371200562
1789324102251560400,15.076560546875,0.43477052450180054,-1.2271157503128052,1.4383162260055542
1789324102270410200,15.09541015625,0.5880932211875916,-1.1867998838424683,1.404719591140747
1789324102289260000,15.114260009765625,0.6485670804977417,-1.1458730697631836,1.4871840476989746
1789324102308109600,15.133109619140624,0.6467345356941223,-1.337679147720337,1.5794219970703125
1789324102326959400,15.15195947265625,0.7004891037940979,-1.3303489685058594,1.72419273853302
1789324102345809200,15.17080908203125,0.7518002390861511,-1.5197116136550903,1.7217493057250977
1789324102364659000,15.189658935546875,0.5654918551445007,-1.6821969747543335,1.4364837408065796
1789324102383508500,15.208508544921875,0.5716003179550171,-1.706630825996399,1.0834139585494995
1789324102402358300,15.227358154296875,0.5129590034484863,-1.3492852449417114,0.9270370602607727
1789324102421208000,15.2462080078125,0.5404471158981323,-1.0591328144073486,0.8806126713752747
1789324102440057600,15.2650576171875,0.6021426916122437,-0.8459470868110657,0.8555679321289062
1789324102458907400,15.283907470703125,0.5978667736053467,-0.7152257561683655,0.7682167887687683
1789324102477757200,15.302757080078125,0.5746545791625977,-0.6901810169219971,0.6753680109977722
1789324102496606700,15.321606689453125,0.5245651006698608,-0.4330143630504608,0.5757998824119568
1789324102515456500,15.34045654296875,0.4610369801521301,-0.1361425817012787,0.3907131850719452
1789324102534306300,15.359306396484374,0.3327590525150299,0.27801185846328735,0.20196136832237244
1789324102553155800,15.37815576171875,0.10002623498439789,0.7209524512290955,-0.008170082233846188
1789324102572005600,15.397005615234375,-0.03558185324072838,1.1595407724380493,-0.19264595210552216
1789324102590855400,15.41585546875,-0.021532366052269936,1.284153699874878,-0.4119401276111603
1789324102609705200,15.434705322265625,-0.030695075169205666,1.268271565437317,-0.6733827590942383
1789324102628554800,15.4535546875,-0.07834116369485855,1.3232479095458984,-0.929404079914093
1789324102647404500,15.472404541015624,-0.30068957805633545,1.320804476737976,-1.1694670915603638
1789324102666254300,15.49125439453125,-0.7130114436149597,1.3745590448379517,-1.2604832649230957
1789324102685103900,15.510103759765625,-0.9487984776496887,1.585301399230957,-1.3606622219085693
1789324102703953700,15.52895361328125,-1.0911259651184082,1.6750959157943726,-1.471225619316101
1789324102722803500,15.547803466796875,-1.167481780052185,1.5773603916168213,-1.5652960538864136
1789324102741653000,15.566653076171875,-1.1406044960021973,1.5645325183868408,-1.7797034978866577
1789324102760502800,15.585502685546874,-1.0868499279022217,1.306144118309021,-1.9537949562072754
1789324102779352600,15.6043525390625,-1.1351069211959839,1.1283875703811646,-2.1419358253479004
1789324102798202000,15.6232021484375,-1.1650384664535522,1.055696725845337,-2.3221359252929688
1789324102817052000,15.642052001953125,-1.080130696296692,1.080130696296692,-2.348402261734009
1789324102835901700,15.660901611328125,-0.8052493929862976,1.0905150175094604,-2.3099188804626465
1789324102854751200,15.679751220703125,-0.5835118293762207,0.8516737818717957,-2.088792085647583
1789324102873601000,15.69860107421875,-0.3953709006309509,0.669030487537384,-1.8120783567428589
1789324102892450800,15.717450927734374,-0.12171131372451782,0.6097782850265503,-1.4871076345443726
1789324102911300400,15.73630029296875,-0.004428642801940441,0.6055023670196533,-1.1254860162734985
1789324102930150100,15.755150146484375,-0.07589777559041977,0.42217180132865906,-0.7161420583724976
1789324102948999700,15.773999755859375,-0.15469707548618317,0.2566322088241577,-0.3050418496131897
1789324102967849500,15.792849365234375,-0.09116895496845245,0.1020878478884697,0.021150587126612663
1789324102986699300,15.81169921875,0.027946261689066887,-0.06406260281801224,0.2691545784473419
1789324103005548800,15.830548828125,0.11835165321826935,-0.2644205093383789,0.493946373462677
1789324103024398600,15.849398681640626,0.2283041626214981,-0.41713231801986694,0.7138513922691345
1789324103043248000,15.868248046875,0.28694549202919006,-0.4898231327533722,0.9313129782676697
1789324103062098000,15.887097900390625,0.296108216047287,-0.546631932258606,1.1145671606063843
1789324103080947700,15.90594775390625,0.2814478874206543,-0.5606814026832581,1.1866471767425537
1789324103099797200,15.92479736328125,0.21058958768844604,-0.6132143139839172,1.1854255199432373
1789324103118647000,15.94364697265625,0.17271706461906433,-0.6077166795730591,1.154272198677063
1789324103137496800,15.962496826171876,0.1751604527235031,-0.5851153135299683,1.1420552730560303
1789324103156346400,15.981346435546875,0.19592925906181335,-0.5502970218658447,1.2000857591629028
1789324103175196200,16.000196044921875,0.22158484160900116,-0.6791858077049255,1.2892694473266602
1789324103194045700,16.019045654296875,0.32665055990219116,-0.8398386240005493,1.3992220163345337
1789324103212895500,16.0378955078125,0.39140036702156067,-1.0566893815994263,1.4560308456420898
1789324103231745300,16.056745361328126,0.4543176591396332,-1.1788588762283325,1.414493203163147
1789324103250594800,16.0755947265625,0.5740436911582947,-1.0420290231704712,1.4022762775421143
1789324103269444600,16.094444580078125,0.6174138784408569,-1.0524134635925293,1.4529765844345093
1789324103288294100,16.113294189453125,0.5972558856010437,-1.3065259456634521,1.5238348245620728
1789324103307144000,16.13214404296875,0.6076403260231018,-1.2704859972000122,1.5250564813613892
1789324103325993500,16.150993408203124,0.6235223412513733,-1.161755084991455,1.5415494441986084
1789324103344843300,16.16984326171875,0.7108734846115112,-1.407315731048584,1.646004319190979
1789324103363693000,16.188693115234376,0.7702020406723022,-1.8123074769973755,1.524445652961731
1789324103382542600,16.20754248046875,0.7096518278121948,-1.8984369039535522,1.2856043577194214
1789324103401392400,16.226392333984375,0.5606050491333008,-1.7481684684753418,0.9820133447647095
1789324103420242000,16.245241943359375,0.6033644080162048,-1.1403754949569702,0.9368106126785278
1789324103439091700,16.264091796875,0.6723901033401489,-0.8392277956008911,0.8421292901039124
1789324103457941200,16.282941162109374,0.6461237072944641,-0.565568208694458,0.567858874797821
1789324103476791000,16.301791015625,0.5630484819412231,-0.3682645559310913,0.4017084240913391
1789324103495640600,16.320640625,0.48241662979125977,-0.28518930077552795,0.4139253795146942
1789324103514490400,16.339490478515625,0.40422818064689636,-0.14102935791015625,0.23739051818847656
1789324103533340000,16.35833984375,0.30343836545944214,0.15034478902816772,-0.08452598750591278
1789324103552189700,16.377189697265624,0.1898207813501358,0.2975589632987976,-0.2635042369365692
1789324103571039500,16.39603955078125,0.11835165321826935,0.47470468282699585,-0.4101075828075409
1789324103589889000,16.414888916015624,0.06398624926805496,0.8125795722007751,-0.5304445028305054
1789324103608738800,16.43373876953125,-0.007482878863811493,1.1461021900177002,-0.6801020503044128
1789324103627588400,16.45258837890625,-0.14431266486644745,1.4197617769241333,-0.8298360109329224
1789324103646438100,16.471438232421875,-0.3202366828918457,1.537655234336853,-0.9758284687995911
1789324103665287700,16.49028759765625,-0.4894413650035858,1.5547590255737305,-1.1059389114379883
1789324103684137500,16.509137451171874,-0.775317907333374,1.4820681810379028,-1.276976227760315
1789324103702987000,16.527987060546874,-0.8883246183395386,1.5907989740371704,-1.5237585306167603
1789324103721836800,16.5468369140625,-0.9909469485282898,1.6659331321716309,-1.6159964799880981
1789324103740686300,16.565686279296877,-0.992168664932251,1.4979501962661743,-1.8010830879211426
1789324103759536000,16.5845361328125,-0.940857470035553,1.1436587572097778,-2.111393451690674
1789324103778385700,16.6033857421875,-1.0227110385894775,0.7857022881507874,-2.13216233253479
1789324103797235500,16.6222353515625,-0.9536852836608887,1.0263761281967163,-2.3441264629364014
1789324103816085000,16.6410849609375,-0.8461761474609375,0.987281858921051,-2.349013090133667
1789324103834934800,16.659934814453123,-0.6788040399551392,1.1216683387756348,-2.33496356010437
1789324103853784300,16.678784423828127,-0.5267030596733093,1.0776872634887695,-2.3569540977478027
1789324103872634000,16.697634033203126,-0.3733803927898407,0.7130114436149597,-2.3050320148468018
1789324103891483600,16.716483642578126,-0.058183200657367706,0.7301151752471924,-2.045422077178955
1789324103910333400,16.73533349609375,0.23746687173843384,0.6934643387794495,-1.6337109804153442
1789324103929183000,16.754182861328125,0.23441264033317566,0.5217399001121521,-1.2665917873382568
1789324103948032800,16.77303271484375,0.03649812191724777,0.14973393082618713,-0.8561024069786072
1789324103966882300,16.79188232421875,-0.06734590977430344,-0.04634803533554077,-0.40460994839668274
1789324103985732000,16.810732177734376,0.007788302376866341,-0.013362283818423748,-0.05703786388039589
1789324104004581600,16.82958154296875,0.12629267573356628,-0.03474193811416626,0.1152210608124733
1789324104023431200,16.84843115234375,0.26495498418807983,0.036727190017700195,0.3003077805042267
1789324104042281000,16.867281005859375,0.2948864996433258,0.03184041380882263,0.5568636059761047
1789324104061130500,16.886130615234375,0.24601873755455017,-0.09888090193271637,0.7877638936042786
1789324104079980300,16.904980224609375,0.1513374149799347,-0.2748049199581146,0.9142093062400818
1789324104098829800,16.923829833984374,0.06032116711139679,-0.40247198939323425,1.002171277999878
1789324104117679600,16.9426796875,0.02489202655851841,-0.5093702673912048,1.033935308456421
1789324104136529200,16.961529052734374,0.043828289955854416,-0.5209763646125793,1.0742512941360474
1789324104155379000,16.98037890625,0.09391776472330093,-0.3707079291343689,1.1518288850784302
1789324104174228500,16.999228515625,0.13362284004688263,-0.39147675037384033,1.2324607372283936
1789324104193078300,17.018078369140625,0.20570281147956848,-0.4751628041267395,1.3778423070907593
1789324104211927800,17.036927734375,0.39262208342552185,-0.5435777306556702,1.543381929397583
1789324104230777300,17.05577734375,0.5227325558662415,-0.6797966361045837,1.6001907587051392
1789324104249627100,17.074627197265624,0.533727765083313,-0.8141830563545227,1.5555988550186157
1789324104268476700,17.0934765625,0.4671454429626465,-1.0383639335632324,1.5549880266189575
1789324104287326200,17.112326171875,0.43354883790016174,-1.0554677248001099,1.6521127223968506
1789324104306176000,17.131176025390626,0.40422818064689636,-1.051191806793213,1.7321337461471558
1789324104325025500,17.150025634765626,0.39140036702156067,-1.0346988439559937,1.7541242837905884
1789324104343875300,17.168875244140626,0.4897467792034149,-1.0420290231704712,1.7492375373840332
1789324104362724900,17.187724853515626,0.6668924689292908,-1.1874107122421265,1.663107991218567
1789324104381574700,17.20657470703125,0.6766660213470459,-1.468400478363037,1.5617073774337769
1789324104400424200,17.225424072265625,0.5282301902770996,-1.8159725666046143,1.3662362098693848
1789324104419273700,17.244273681640625,0.3608580231666565,-1.93508780002594,1.2721657752990723
1789324104438123500,17.26312353515625,0.3229855000972748,-1.485504150390625,1.0766946077346802
1789324104456973000,17.28197314453125,0.43477052450180054,-0.9284114837646484,1.0406546592712402
1789324104475822800,17.30082275390625,0.44820916652679443,-0.8367843627929688,0.9502492547035217
1789324104494672400,17.31967236328125,0.36574479937553406,-0.5551838278770447,0.7981482744216919
1789324104513522000,17.33852197265625,0.2716743052005768,-0.21860696375370026,0.6130616068840027
1789324104532371500,17.357371337890626,0.18798823654651642,0.05322006717324257,0.366279274225235
1789324104551221200,17.37622119140625,0.10857810080051422,0.24258272349834442,0.13782241940498352
1789324104570070800,17.39507080078125,-0.00992626789957285,0.3134410083293915,-0.11018157750368118
1789324104588920600,17.413920654296874,-0.11377029865980148,0.482034832239151,-0.3056527078151703
1789324104607770000,17.43277001953125,-0.1779092699289322,0.7191199064254761,-0.4626404345035553
1789324104626619600,17.45161962890625,-0.24632415175437927,0.9298622608184814,-0.6245149374008179
1789324104645469400,17.470469482421876,-0.30985227227211,1.219403862953186,-0.8322793841362
1789324104664319000,17.489319091796876,-0.4008685052394867,1.4985610246658325,-1.0033166408538818
1789324104683168500,17.50816845703125,-0.5370874404907227,1.4160966873168945,-1.083337664604187
1789324104702018300,17.527018310546875,-0.8473978638648987,1.4558017253875732,-1.148698329925537
1789324104720867800,17.545867919921875,-1.0605835914611816,1.5205515623092651,-1.3337849378585815
1789324104739717600,17.564717529296875,-1.1314418315887451,1.4515258073806763,-1.6147747039794922
1789324104758567200,17.583567138671874,-1.210852026939392,1.4454172849655151,-1.7326682806015015
1789324104777416700,17.602416748046874,-1.0923476219177246,1.4411413669586182,-1.8756065368652344
1789324104796266500,17.6212666015625,-1.0569185018539429,1.1980241537094116,-1.8975969552993774
1789324104815116000,17.640115966796873,-1.1070079803466797,1.075854778289795,-2.1101717948913574
1789324104833965600,17.658965576171877,-1.1534323692321777,0.8803836107254028,-2.291593551635742
1789324104852815000,17.677815185546876,-1.0477557182312012,0.9194778203964233,-2.4290342330932617
1789324104871665000,17.696664794921876,-0.8083036541938782,1.0611944198608398,-2.438196897506714
1789324104890514400,17.715514404296876,-0.6659762263298035,1.0098832845687866,-2.213405132293701
1789324104909364000,17.734364013671875,-0.4497362971305847,0.7337802648544312,-1.9635685682296753
1789324104928213800,17.7532138671875,-0.21394924819469452,0.47592636942863464,-1.6508147716522217
1789324104947063300,17.772063232421875,-0.06306997686624527,0.4423297643661499,-1.2555965185165405
1789324104965912800,17.790912841796874,0.05238015204668045,0.32993388175964355,-0.8335011005401611
1789324104984762600,17.8097626953125,0.11774080991744995,0.23769593238830566,-0.4601970613002777
1789324105003612200,17.828612060546874,0.06642963737249374,0.09414683282375336,-0.15049749612808228
1789324105022461700,17.847461669921874,-0.04107947647571564,-0.10682191699743271,0.10911259055137634
1789324105041311500,17.8663115234375,0.021837789565324783,-0.1361425817012787,0.34123456478118896
1789324105060161000,17.8851611328125,0.15927842259407043,-0.1336991935968399,0.5183802843093872
1789324105079010600,17.904010498046876,0.21364383399486542,-0.33588963747024536,0.7162947654724121
1789324105097860000,17.922860107421876,0.21975229680538177,-0.4458421468734741,0.9264262318611145
1789324105116709600,17.941709716796876,0.25029465556144714,-0.42996010184288025,1.0394330024719238
1789324105135559400,17.960559326171875,0.24968381226062775,-0.4354577362537384,1.0088906288146973
1789324105154409000,17.979408935546875,0.22036315500736237,-0.48371466994285583,0.9948410987854004
1789324105173258500,17.998258544921875,0.188599094748497,-0.5600705742835999,1.0705862045288086
1789324105192108300,18.0171083984375,0.24907296895980835,-0.6229878664016724,1.145720362663269
1789324105210957800,18.035957763671874,0.32787227630615234,-0.6462000608444214,1.1677109003067017
1789324105229807400,18.054807373046874,0.37735089659690857,-0.5405234694480896,1.187258005142212
1789324105248657000,18.073656982421873,0.3706315755844116,-0.5832827687263489,1.2703332901000977
1789324105267506700,18.092506591796877,0.4359922409057617,-0.926578938961029,1.4260993003845215
1789324105286356200,18.111356201171876,0.60825115442276,-1.1422079801559448,1.5977473258972168
1789324105305205800,18.130205810546876,0.7983010411262512,-1.138542890548706,1.6869310140609741
1789324105324055300,18.14905517578125,0.8587749004364014,-0.9717816114425659,1.682044267654419
1789324105342905000,18.167905029296875,0.7621846795082092,-1.0444724559783936,1.6179053783416748
1789324105361754600,18.186754638671875,0.6766660213470459,-1.1031137704849243,1.646004319190979
1789324105380604200,18.205604248046875,0.6424586176872253,-1.1813021898269653,1.6942611932754517
1789324105399453700,18.22445361328125,0.5624375939369202,-1.4464099407196045,1.7076998949050903
1789324105418303500,18.243303466796874,0.4628695249557495,-1.7756565809249878,1.6056883335113525
1789324105437153000,18.262153076171874,0.4781406819820404,-1.9320335388183594,1.4670259952545166
1789324105456002600,18.28100244140625,0.5257867574691772,-1.6131712198257446,1.2410125732421875
1789324105474852000,18.29985205078125,0.576487123966217,-1.1238826513290405,1.0302702188491821
1789324105493701600,18.31870166015625,0.5117372870445251,-0.7940250635147095,0.9007706642150879
1789324105512551400,18.337551513671876,0.39323291182518005,-0.6315397024154663,0.8488486409187317
1789324105531401000,18.35640087890625,0.3223746418952942,-0.5154787302017212,0.6710920929908752
1789324105550250500,18.37525048828125,0.24052110314369202,-0.14347274601459503,0.39376741647720337
1789324105569100000,18.39410009765625,0.07375980913639069,0.21081866323947906,0.22639526426792145
1789324105587949800,18.41294970703125,-0.10827267915010452,0.38613182306289673,0.14332003891468048
1789324105606799400,18.43179931640625,-0.1656923145055771,0.6042806506156921,-0.12239851802587509
1789324105625649000,18.45064892578125,-0.18096350133419037,0.9707890152931213,-0.3697916567325592
1789324105644498400,18.46949853515625,-0.24693500995635986,1.2737692594528198,-0.630012571811676
1789324105663348000,18.488347900390625,-0.3501681983470917,1.2847645282745361,-0.9013051390647888
1789324105682197500,18.507197509765625,-0.49493899941444397,1.3354648351669312,-1.1047172546386719
1789324105701047300,18.52604736328125,-0.7350019812583923,1.3739482164382935,-1.239714503288269
1789324105719896800,18.544896728515624,-1.0379822254180908,1.380056619644165,-1.3105727434158325
1789324105738746400,18.563746337890624,-1.0856282711029053,1.3342431783676147,-1.4638954401016235
1789324105757596000,18.582595947265624,-1.055696725845337,1.3238587379455566,-1.5940059423446655
1789324105776445400,18.601445556640623,-1.0074398517608643,1.2267340421676636,-1.7491611242294312
1789324105795295200,18.620295166015627,-0.8999307155609131,1.0880717039108276,-1.988613247871399
1789324105814144800,18.639144775390626,-0.8492304086685181,0.9567395448684692,-2.0643582344055176
1789324105832994300,18.657994384765626,-0.9060391783714294,0.8492304086685181,-2.0496978759765625
1789324105851843800,18.67684375,-0.8608365058898926,0.8907679915428162,-2.1474335193634033
1789324105870693400,18.695693359375,-0.8431219458580017,0.728282630443573,-2.2115724086761475
1789324105889543000,18.71454296875,-0.7765395641326904,0.7569924592971802,-2.248223304748535
1789324105908392400,18.733392333984376,-0.626882016658783,0.728893518447876,-2.2427256107330322
1789324105927242200,18.7522421875,-0.37765631079673767,0.6763606071472168,-2.1394925117492676
1789324105946091800,18.771091796875,-0.10094250738620758,0.511966347694397,-1.8780498504638672
1789324105964941300,18.78994140625,0.05665608495473862,0.5070796012878418,-1.4229687452316284
1789324105983790800,18.808790771484375,0.14706148207187653,0.4667636752128601,-0.9098569750785828
1789324106002640400,18.827640380859375,0.2020377367734909,0.34642675518989563,-0.45653197169303894
1789324106021490000,18.846489990234375,0.18065807223320007,0.1289651244878769,-0.10529479384422302
1789324106040339700,18.865339599609374,0.11590826511383057,-0.1361425817012787,0.1653105467557907
1789324106059189200,18.884189208984374,0.19837264716625214,-0.1856212168931961,0.40781688690185547
1789324106078038800,18.903038818359374,0.2826695740222931,-0.16790664196014404,0.5751890540122986
1789324106096888300,18.921888427734373,0.32848310470581055,-0.10010259598493576,0.7156839370727539
1789324106115737900,18.94073779296875,0.2533488869667053,-0.18439951539039612,0.8610655665397644
1789324106134587400,18.95958740234375,0.1910424828529358,-0.37742725014686584,0.9594119787216187
1789324106153437000,18.97843701171875,0.13423368334770203,-0.41652145981788635,0.9991170763969421
1789324106172286500,18.997286376953124,0.11285403370857239,-0.5692332983016968,0.9820133447647095
1789324106191136300,19.01613623046875,0.1250709742307663,-0.5557946562767029,1.0809705257415771
1789324106209985800,19.03498583984375,0.16721943020820618,-0.7335512042045593,1.2642247676849365
1789324106228835300,19.05383544921875,0.3205420970916748,-0.7335512042045593,1.401665449142456
1789324106247684900,19.072684814453126,0.5111264586448669,-0.6052733063697815,1.4034979343414307
1789324106266534400,19.091534423828126,0.5844281315803528,-0.5215871930122375,1.3711230754852295
1789324106285384000,19.110384033203125,0.5887040495872498,-0.8135721683502197,1.362571120262146
1789324106304233500,19.1292333984375,0.663838267326355,-1.1006704568862915,1.4242666959762573
1789324106323083000,19.1480830078125,0.746913492679596,-1.2203965187072754,1.4682477712631226
1789324106341932500,19.1669326171875,0.8050203323364258,-1.2845354080200195,1.484129786491394
1789324106360782000,19.185781982421876,0.8111287951469421,-1.2998065948486328,1.576367735862732
1789324106379631900,19.2046318359375,0.7732563018798828,-1.1965733766555786,1.6796008348464966
1789324106398481400,19.2234814453125,0.7475243210792542,-1.3340140581130981,1.7064781188964844
1789324106417331000,19.2423310546875,0.6613948941230774,-1.468400478363037,1.635619878768921
1789324106436180500,19.261180419921875,0.5685460567474365,-1.68341863155365,1.4767996072769165
1789324106455030000,19.280030029296874,0.448820024728775,-1.8330762386322021,1.3925026655197144
1789324106473879600,19.298879638671874,0.44576579332351685,-1.4781739711761475,1.168932557106018
1789324106492729000,19.31772900390625,0.553274929523468,-0.8960365653038025,0.9997279047966003
1789324106511578600,19.33657861328125,0.552664041519165,-0.46783265471458435,0.8439618349075317
1789324106530428200,19.35542822265625,0.4109475016593933,-0.20577916502952576,0.6778113842010498
1789324106549277700,19.374277587890624,0.26434415578842163,-0.16912832856178284,0.5244887471199036
1789324106568127200,19.393127197265624,0.19348587095737457,-0.015805672854185104,0.31802234053611755
1789324106586976800,19.411976806640624,0.17149536311626434,0.26396235823631287,0.06818582862615585
1789324106605826300,19.430826416015623,0.04932591691613197,0.428891122341156,-0.1614927500486374
1789324106624675800,19.44967578125,-0.1779092699289322,0.5798467397689819,-0.3013767600059509
1789324106643525600,19.468525634765626,-0.2927485406398773,0.7417212724685669,-0.4327089190483093
1789324106662375200,19.487375244140626,-0.3361186981201172,1.0569185018539429,-0.5334987044334412
1789324106681224700,19.506224609375,-0.4088095426559448,1.1760337352752686,-0.7564579844474792
1789324106700074200,19.52507421875,-0.5456393361091614,1.3263020515441895,-0.9410101771354675
1789324106718923800,19.543923828125,-0.7484406232833862,1.371504783630371,-1.0448542833328247
1789324106737773300,19.562773193359376,-1.102121114730835,1.4930634498596191,-1.0851701498031616
1789324106756622800,19.581622802734376,-1.3140851259231567,1.6506620645523071,-1.1334271430969238
1789324106775472400,19.600472412109376,-1.3171393871307373,1.6610463857650757,-1.2965233325958252
1789324106794322000,19.619322021484376,-1.2340642213821411,1.5028369426727295,-1.5543009042739868
1789324106813171500,19.63817138671875,-1.158319115638733,1.4661861658096313,-1.8682763576507568
1789324106832021000,19.65702099609375,-1.0642486810684204,1.0941801071166992,-2.082683801651001
1789324106850870500,19.67587060546875,-1.1742011308670044,0.8608365058898926,-2.141324996948242
1789324106869720000,19.694719970703126,-1.1522105932235718,0.7356128096580505,-2.328855276107788
1789324106888569600,19.713569580078126,-1.0349279642105103,0.8449544906616211,-2.4168171882629395
1789324106907419100,19.732419189453125,-0.8730534315109253,0.9280297160148621,-2.349013090133667
1789324106926268700,19.7512685546875,-0.7124006152153015,0.6971294283866882,-2.1767542362213135
1789324106945118200,19.7701181640625,-0.44607120752334595,0.5517477989196777,-1.9110356569290161
1789324106963967700,19.7889677734375,-0.08383878320455551,0.47653722763061523,-1.576902151107788
1789324106982817300,19.8078173828125,0.18493400514125824,0.5798467397689819,-1.1969552040100098
1789324107001666800,19.826666748046875,0.19959434866905212,0.43377789855003357,-0.8010498285293579
1789324107020516400,19.845516357421875,0.14889401197433472,0.27801185846328735,-0.4608078896999359
1789324107039366000,19.864365966796875,0.08231166750192642,0.12163496017456055,-0.18287239968776703
1789324107058215400,19.88321533203125,0.07070557028055191,-0.050013117492198944,0.05413633957505226
1789324107077065000,19.90206494140625,0.11407572776079178,-0.14041851460933685,0.2740413546562195
1789324107095914500,19.92091455078125,0.17332790791988373,-0.14469444751739502,0.4786751866340637
1789324107114764000,19.939763916015625,0.18004722893238068,-0.2515927255153656,0.6521558165550232
1789324107133613600,19.958613525390625,0.1519482582807541,-0.27297237515449524,0.8347991108894348
1789324107152463000,19.977463134765625,0.10796725004911423,-0.3322245478630066,0.9820133447647095
1789324107171312600,19.996312744140624,0.08170082420110703,-0.42751672863960266,1.0308810472488403
1789324107190162200,20.015162109375,0.062153708189725876,-0.4898231327533722,0.9972845315933228
1789324107209011700,20.03401171875,0.04932591691613197,-0.5429668426513672,0.9722397923469543
1789324107227861200,20.052861328125,0.0713164210319519,-0.6003865003585815,0.9954519867897034
1789324107246710800,20.071710693359375,0.15744587779045105,-0.6290963292121887,1.104793667793274
1789324107265560300,20.090560302734374,0.31260108947753906,-0.7085064649581909,1.2562837600708008
1789324107284409900,20.109409912109374,0.5398362874984741,-0.7249993681907654,1.3992220163345337
1789324107303259400,20.12825927734375,0.7401941418647766,-0.722555935382843,1.5293325185775757
1789324107322109000,20.14710888671875,0.7860840559005737,-0.7720345854759216,1.5830870866775513
1789324107340958500,20.16595849609375,0.718814492225647,-0.9290223121643066,1.6032450199127197
1789324107359808000,20.18480810546875,0.6601731777191162,-1.1635876893997192,1.5690375566482544
1789324107378657500,20.203657470703124,0.5856497883796692,-1.1452622413635254,1.61301851272583
1789324107397507000,20.222507080078124,0.5624375939369202,-1.236889362335205,1.6850985288619995
1789324107416356600,20.241356689453124,0.5819846987724304,-1.1678636074066162,1.6765466928482056
1789324107435206100,20.2602060546875,0.6241331696510315,-1.476952314376831,1.5165046453475952
1789324107454055700,20.2790556640625,0.5654918551445007,-1.9503589868545532,1.3008755445480347
1789324107472905200,20.2979052734375,0.5746545791625977,-2.244863748550415,1.067531943321228
1789324107491754500,20.31675439453125,0.6180247068405151,-1.9491372108459473,1.0492064952850342
1789324107510604000,20.33560400390625,0.6601731777191162,-1.421976089477539,1.016831636428833
1789324107529453600,20.35445361328125,0.6204680800437927,-1.1306018829345703,0.9997279047966003
1789324107548303000,20.37330322265625,0.5636593103408813,-0.8007444143295288,0.8445726633071899
1789324107567152600,20.392152587890624,0.48302745819091797,-0.4495072364807129,0.6167266368865967
1789324107586002200,20.411002197265624,0.3639122545719147,0.045889899134635925,0.49028128385543823
1789324107604851700,20.429851806640624,0.25212720036506653,0.2969481348991394,0.4285857081413269
1789324107623701200,20.448701171875,0.15378080308437347,0.41239824891090393,0.22395187616348267
1789324107642550800,20.46755078125,0.08108997344970703,0.5615213513374329,-0.09124530851840973
1789324107661400300,20.486400390625,-0.005650337319821119,0.6702521443367004,-0.2940466105937958
1789324107680249900,20.505249755859374,-0.09300149232149124,0.7954758405685425,-0.4999021291732788
1789324107699099400,20.524099365234374,-0.2011214643716812,1.0544750690460205,-0.7326349020004272
1789324107717949000,20.542948974609374,-0.3611634373664856,1.2719366550445557,-0.9367342591285706
1789324107736798200,20.561798095703125,-0.5413633584976196,1.3556227684020996,-0.9953756332397461
1789324107755647700,20.580647705078125,-0.7435538172721863,1.385554313659668,-1.0497410297393799
1789324107774497300,20.599497314453124,-0.968956470489502,1.5498721599578857,-1.142589807510376
1789324107793346800,20.618346923828124,-1.0288194417953491,1.6732633113861084,-1.3985347747802734
1789324107812196400,20.6371962890625,-1.0227110385894775,1.5779712200164795,-1.6666967868804932
1789324107831046000,20.6560458984375,-1.0330954790115356,1.1363285779953003,-1.9311935901641846
1789324107849895400,20.6748955078125,-0.9854493141174316,0.9225320816040039,-2.154763698577881
1789324107868745000,20.693744873046874,-1.0269869565963745,0.69651859998703,-2.1211671829223633
1789324107887594500,20.712594482421874,-0.9909469485282898,0.7319477200508118,-2.1920254230499268
1789324107906443800,20.73144384765625,-0.8803836107254028,0.8327375054359436,-2.186527729034424
1789324107925293300,20.750293212890625,-0.6849125027656555,1.0361496210098267,-2.1914145946502686
1789324107944142800,20.769142822265625,-0.5218162536621094,0.9170344471931458,-2.1761434078216553
1789324107962992400,20.787992431640625,-0.41736137866973877,0.7313368916511536,-2.1743109226226807
1789324107981842000,20.806842041015624,-0.22189027070999146,0.6171084642410278,-2.0790185928344727
1789324108000691500,20.82569140625,0.05421269312500954,0.5865660905838013,-1.8694980144500732
1789324108019541000,20.844541015625,0.21425467729568481,0.4966951906681061,-1.6050012111663818
1789324108038390500,20.863390625,0.14645062386989594,0.2584647536277771,-1.3111836910247803
1789324108057239800,20.88223974609375,0.007177455350756645,-0.09765920788049698,-0.846328854560852
1789324108076089300,20.90108935546875,-0.01969982497394085,-0.20272493362426758,-0.28366219997406006
1789324108094939000,20.91993896484375,0.0981936976313591,-0.09216158092021942,0.17752748727798462
1789324108113788400,20.938788330078125,0.26373329758644104,-0.06039752438664436,0.5037199258804321
1789324108132638000,20.957637939453125,0.3498627543449402,-0.05062396824359894,0.7700493335723877
1789324108151487500,20.976487548828125,0.3620797097682953,-0.07017108052968979,0.9594119787216187
1789324108170336800,20.995336669921876,0.3058817684650421,-0.13003410398960114,1.1102912425994873
1789324108189186300,21.014186279296876,0.22097399830818176,-0.22166119515895844,1.1567156314849854
1789324108208035800,21.033035888671876,0.0859767496585846,-0.4214082658290863,1.0687536001205444
1789324108226885400,21.051885498046875,-0.025808297097682953,-0.49470990896224976,1.0101122856140137
1789324108245735000,21.07073486328125,-0.08078455179929733,-0.537469208240509,1.0223292112350464
1789324108264584400,21.08958447265625,-0.0331384651362896,-0.46966519951820374,1.1157888174057007
1789324108283434000,21.10843408203125,0.060932014137506485,-0.49532076716423035,1.307594895362854
1789324108302283300,21.127283203125,0.21364383399486542,-0.5759525895118713,1.5311650037765503
1789324108321132800,21.1461328125,0.2948864996433258,-0.6016082167625427,1.6655514240264893
1789324108339982300,21.164982421875,0.48669254779815674,-0.7017871737480164,1.6148511171340942
1789324108358831900,21.183831787109376,0.6387935280799866,-0.8685484528541565,1.5152829885482788
1789324108377681200,21.20268115234375,0.7572978734970093,-0.8300650715827942,1.4603067636489868
1789324108396530700,21.22153076171875,0.7243121266365051,-0.9339091181755066,1.4389270544052124
1789324108415380200,21.240380126953124,0.5667135715484619,-1.255214810371399,1.4450355768203735
1789324108434229800,21.259229736328123,0.5050179958343506,-1.4268628358840942,1.4590849876403809
1789324108453079300,21.278079345703127,0.6461237072944641,-1.4421340227127075,1.5006226301193237
1789324108471928800,21.2969287109375,0.7621846795082092,-1.5899590253829956,1.5183372497558594
1789324108490778000,21.315778076171874,0.6247440576553345,-1.9454721212387085,1.432207703590393
1789324108509627600,21.334627685546874,0.5202891230583191,-2.095740556716919,1.2605596780776978
1789324108528477200,21.353477294921873,0.6461237072944641,-1.602786898612976,1.1707651615142822
1789324108547326700,21.37232666015625,0.7548545002937317,-1.0829558372497559,1.0033929347991943
1789324108566176000,21.391176025390624,0.7408050298690796,-0.769591212272644,0.7902072668075562
1789324108585025500,21.410025634765624,0.6565080881118774,-0.5270848274230957,0.5037199258804321
1789324108603875000,21.428875,0.48730340600013733,-0.5417451858520508,0.4395809471607208
1789324108622724600,21.447724609375,0.43538138270378113,-0.5692332983016968,0.39621078968048096
1789324108641574100,21.46657421875,0.293664813041687,0.0880383625626564,0.3125247359275818
1789324108660423400,21.48542333984375,0.1104106456041336,0.5486935377120972,0.13843326270580292
1789324108679273000,21.50427294921875,-0.03008422814309597,0.9750649333000183,0.04619532451033592
1789324108698122500,21.52312255859375,0.01695101149380207,1.2145171165466309,-0.15599511563777924
1789324108716972000,21.541971923828125,0.03894151374697685,1.5730843544006348,-0.394225537776947
1789324108735821300,21.5608212890625,-0.14797775447368622,1.6372233629226685,-0.6544464826583862
1789324108754670800,21.5796708984375,-0.40819868445396423,1.5498721599578857,-0.8884773254394531
1789324108773520400,21.598520263671876,-0.6849125027656555,1.4179291725158691,-1.0967762470245361
1789324108792370000,21.617369873046876,-1.0062181949615479,1.2847645282745361,-1.3038535118103027
1789324108811219500,21.636219482421875,-1.1552648544311523,1.3965495824813843,-1.498713731765747
1789324108830068700,21.65506884765625,-1.2218471765518188,1.6017942428588867,-1.5836215019226074
1789324108848918300,21.673918212890626,-1.2572764158248901,1.5804145336151123,-1.6911306381225586
1789324108867767800,21.692767822265626,-1.2401726245880127,1.4759596586227417,-1.7772600650787354
1789324108886617000,21.7116171875,-1.1051753759384155,1.1754227876663208,-1.8462858200073242
1789324108905466600,21.730466552734374,-1.066081166267395,1.0288194417953491,-1.877439022064209
1789324108924316200,21.749316162109373,-1.0550858974456787,0.9219212532043457,-2.0295400619506836
1789324108943165700,21.768165771484377,-1.0434798002243042,0.9958337545394897,-2.2867066860198975
1789324108962015000,21.787014892578124,-0.8926005363464355,1.0569185018539429,-2.433310031890869
1789324108980864500,21.805864501953124,-0.747218906879425,0.8400676846504211,-2.2805981636047363
1789324108999714000,21.824714111328124,-0.5529694557189941,0.8455653190612793,-1.9244742393493652
1789324109018563600,21.8435634765625,-0.18462859094142914,0.7551599144935608,-1.5335320234298706
1789324109037412900,21.862412841796875,0.11468657106161118,0.8394568562507629,-1.1877925395965576
1789324109056262400,21.881262451171875,0.1391204595565796,0.6158867478370667,-0.8652651309967041
1789324109075112000,21.90011181640625,0.06887302547693253,0.2755684554576874,-0.5310553312301636
1789324109093961200,21.918961181640626,-0.03680354729294777,0.08070819079875946,-0.2250208556652069
1789324109112810800,21.937810791015625,-0.02764083817601204,0.045889899134635925,0.04008685052394867
1789324109131660300,21.956660400390625,0.04321744292974472,-0.09399411827325821,0.2825932204723358
1789324109150509800,21.975509765625,0.08780929446220398,-0.3322245478630066,0.4811185598373413
1789324109178784000,22.003783935546874,0.2026485800743103,-0.45439401268959045,0.7566106915473938
1789324109197633300,22.02263330078125,0.28877803683280945,-0.41896486282348633,0.8812234997749329
1789324109216482800,22.04148291015625,0.3052709102630615,-0.352993369102478,0.9313129782676697
1789324109235332400,22.060332275390625,0.241742804646492,-0.4611133337020874,1.008279800415039
1789324109254181600,22.079181640625,0.15622419118881226,-0.5735092163085938,1.1188430786132812
1789324109273031200,22.09803125,0.17943638563156128,-0.5783960223197937,1.1206756830215454
1789324109291880700,22.116880615234376,0.19959434866905212,-0.5625139474868774,1.1298383474349976
1789324109310730200,22.135730224609375,0.26190075278282166,-0.561292290687561,1.2404017448425293
1789324109329579500,22.15457958984375,0.32542887330055237,-0.47882789373397827,1.4596959352493286
1789324109348429000,22.173428955078126,0.3889569938182831,-0.7494332194328308,1.530554175376892
1789324109367278300,22.1922783203125,0.5520532131195068,-0.8251782655715942,1.5232239961624146
1789324109386128000,22.2111279296875,0.6949914693832397,-0.7909708619117737,1.534830093383789
1789324109404977400,22.229977294921873,0.8154047131538391,-0.8019660711288452,1.5525447130203247
1789324109423826700,22.24882666015625,0.7353073954582214,-1.0634087324142456,1.5568206310272217
1789324109442676200,22.26767626953125,0.5557183027267456,-1.3352357149124146,1.575145959854126
1789324109461525800,22.28652587890625,0.525175929069519,-1.4445774555206299,1.598358154296875
1789324109480375300,22.305375244140624,0.5899257659912109,-1.4879475831985474,1.614240288734436
1789324109499224600,22.324224609375,0.5557183027267456,-1.5875157117843628,1.5384951829910278
1789324109518074000,22.34307421875,0.48608171939849854,-1.9778470993041992,1.391281008720398
1789324109536923400,22.36192333984375,0.48241662979125977,-2.0358774662017822,1.1780953407287598
1789324109555773000,22.38077294921875,0.5477772951126099,-1.3706648349761963,1.0162208080291748
1789324109574622500,22.39962255859375,0.557550847530365,-0.833730161190033,0.9869000911712646
1789324109593471700,22.4184716796875,0.5380037426948547,-0.7775322198867798,0.90993332862854
1789324109612321300,22.4373212890625,0.5111264586448669,-0.8331193327903748,0.5507551431655884
1789324109631170800,22.4561708984375,0.429883748292923,-0.6920135617256165,0.1659213900566101
1789324109650020000,22.47502001953125,0.22341738641262054,-0.24365170300006866,0.02970244735479355
1789324109668869600,22.49386962890625,-0.0068720318377017975,0.11125055700540543,0.05596888065338135
1789324109687719200,22.51271923828125,-0.15591876208782196,0.4001813232898712,-0.017332790419459343
1789324109706568400,22.531568359375,-0.16752485930919647,0.7209524512290955,-0.1859266310930252
1789324109725418000,22.55041796875,-0.12659808993339539,0.9268079996109009,-0.3575747013092041
1789324109744267300,22.569267333984374,-0.14309096336364746,1.11678147315979,-0.5078431367874146
1789324109763116800,22.58811669921875,-0.23899398744106293,1.1766445636749268,-0.7454627156257629
1789324109781966300,22.60696630859375,-0.388651579618454,1.2499462366104126,-0.9391776323318481
1789324109800815600,22.625815673828125,-0.5841227173805237,1.289040446281433,-1.0741748809814453
1789324109819665200,22.6446650390625,-0.8754968047142029,1.344016671180725,-1.2452120780944824
1789324109838514400,22.663514404296876,-1.0092723369598389,1.4142640829086304,-1.4559544324874878
1789324109857364000,22.682364013671876,-1.1235008239746094,1.375780701637268,-1.5744588375091553
1789324109876213500,22.701213623046876,-1.2016892433166504,1.2206255197525024,-1.6569231748580933
1789324109895062800,22.720062744140623,-1.130831003189087,1.1302201747894287,-1.9098140001296997
1789324109913912300,22.738912353515627,-1.0813523530960083,0.8987090587615967,-1.9953325986862183
1789324109932761900,22.757761962890626,-1.1186140775680542,0.80280601978302,-2.0582499504089355
1789324109951611100,22.776611083984374,-1.0837957859039307,0.6604785919189453,-2.1486551761627197
1789324109970460700,22.795460693359374,-0.9799517393112183,0.8138012886047363,-2.2543318271636963
1789324109989310000,22.81431005859375,-0.8699992299079895,0.9017632603645325,-2.351456642150879
1789324110008159500,22.833159423828125,-0.7411104440689087,0.7459971904754639,-2.2873175144195557
1789324110027009000,22.852009033203124,-0.5224271416664124,0.5993938446044922,-2.0228207111358643
1789324110045858300,22.8708583984375,-0.20600824058055878,0.5456393361091614,-1.6581448316574097
1789324110064707800,22.889707763671876,0.02733541466295719,0.3488701283931732,-1.3563863039016724
1789324110083557000,22.90855712890625,0.04443913698196411,0.13385190069675446,-1.0937219858169556
1789324110102406700,22.92740673828125,0.0847550556063652,0.025121092796325684,-0.8389987349510193
1789324110121256000,22.946255859375,0.10430216789245605,-0.10437852889299393,-0.5811448097229004
1789324110140105500,22.96510546875,0.17088451981544495,-0.01885990984737873,-0.26045000553131104
1789324110158955000,22.983955078125,0.2667875289916992,-0.03596363216638565,0.043141089379787445
1789324110177804300,23.00280419921875,0.30221667885780334,-0.24914932250976562,0.30214032530784607
1789324110196653800,23.02165380859375,0.3083251416683197,-0.45500484108924866,0.5385382175445557
1789324110215503000,23.040503173828125,0.3718532621860504,-0.45378315448760986,0.729733407497406
1789324110234352600,23.0593525390625,0.4677563011646271,-0.4250733256340027,0.8256364464759827
1789324110253202000,23.078201904296876,0.525175929069519,-0.29557371139526367,0.8378533720970154
1789324110272051500,23.097051513671875,0.4524851143360138,-0.45622655749320984,0.8067001700401306
1789324110290900700,23.115900634765627,0.39201122522354126,-0.5197546482086182,0.8335774540901184
1789324110309750300,23.134750244140626,0.372464120388031,-0.6590278148651123,0.9447516202926636
1789324110328599800,23.153599853515626,0.43477052450180054,-0.7750887870788574,1.1481637954711914
1789324110347449000,23.172448974609374,0.5318952798843384,-0.8948148488998413,1.3619602918624878
1789324110366298600,23.191298583984373,0.6864396333694458,-0.9510128498077393,1.4560308456420898
1789324110385148000,23.21014794921875,0.742637574672699,-0.9369633197784424,1.456641674041748
1789324110403997400,23.22899755859375,0.7053758502006531,-0.9607864022254944,1.5067311525344849
1789324110422846700,23.2478466796875,0.6876612901687622,-1.1134982109069824,1.7022022008895874
1789324110441696300,23.2666962890625,0.7585195899009705,-1.217953085899353,1.839642882347107
1789324110460545500,23.285545654296875,0.8129613399505615,-1.2882004976272583,1.755956768989563
1789324110479395000,23.30439501953125,0.8129613399505615,-1.2802594900131226,1.5971364974975586
1789324110498244400,23.323244384765626,0.7726454138755798,-1.5875157117843628,1.4676369428634644
1789324110517094000,23.342093994140626,0.7230904698371887,-2.0334341526031494,1.3601278066635132
1789324110535943400,23.360943359375,0.6449019908905029,-1.8666728734970093,1.3295854330062866
1789324110554792700,23.379792724609374,0.616802990436554,-1.6565414667129517,1.3039298057556152
1789324110573642000,23.39864208984375,0.5819846987724304,-1.2912547588348389,1.452365756034851
1789324110592491500,23.417491455078125,0.4769189953804016,-1.056078553199768,1.362571120262146
1789324110611340800,23.4363408203125,0.4127800464630127,-0.79707932472229,1.2318499088287354
1789324110630190300,23.4551904296875,0.4811949133872986,-0.30412557721138,0.9239828586578369
1789324110649040000,23.474039794921875,0.4695888161659241,0.19066070020198822,0.5293754935264587
1789324110667889200,23.49288916015625,0.27472856640815735,0.33298811316490173,0.2593810260295868
1789324110686738400,23.511738525390626,0.04688252881169319,0.3885752260684967,0.07979192584753036
1789324110705588000,23.530587890625,-0.10644013434648514,0.6048914790153503,-0.13950224220752716
1789324110724437200,23.549437255859374,-0.15286453068256378,0.7154548764228821,-0.4247679114341736
1789324110743286800,23.568286865234374,-0.2157817929983139,1.0648595094680786,-0.6385644674301147
1789324110762136000,23.587135986328125,-0.34100547432899475,1.3091983795166016,-0.8108997344970703
1789324110780985600,23.605985595703125,-0.43385425209999084,1.5028369426727295,-0.9538379907608032
1789324110799835100,23.624835205078124,-0.5517477989196777,1.5956857204437256,-1.1047172546386719
1789324110818684400,23.643684326171876,-0.8791618943214417,1.640277624130249,-1.2317734956741333
1789324110837533700,23.66253369140625,-1.2029110193252563,1.5614782571792603,-1.4412940740585327
1789324110856383200,23.68138330078125,-1.2542221546173096,1.5859122276306152,-1.7137320041656494
1789324110875232500,23.700232421875,-1.268271565437317,1.7612253427505493,-1.855448603630066
1789324110894082000,23.71908203125,-1.2713258266448975,1.6378341913223267,-1.9861698150634766
1789324110912931300,23.737931396484374,-1.2792668342590332,1.2432268857955933,-2.025264024734497
