time,seconds_elapsed,z,y,x
1789021725168081200,0.0610810546875,0.022950179874897003,-0.05908746272325516,-0.03349287435412407
1789021725178082800,0.071082763671875,0.027748925611376762,0.019723791629076004,0.043429408222436905
1789021725188085000,0.0810849609375,0.02033468522131443,0.15660254657268524,0.11388146877288818
1789021725198087000,0.0910869140625,0.025990692898631096,0.31823673844337463,0.19134023785591125
1789021725208088800,0.1010888671875,0.04864354059100151,0.45487794280052185,0.26655644178390503
1789021725218091000,0.111091064453125,0.0420365072786808,0.5086604952812195,0.3222457766532898
1789021725228093000,0.121093017578125,0.0049035195261240005,0.47213467955589294,0.3289356231689453
1789021725238095000,0.13109521484375,-0.04277903586626053,0.3364613652229309,0.27832016348838806
1789021725248097000,0.141096923828125,-0.06168002262711525,0.13345205783843994,0.1900629997253418
1789021725258099200,0.15109912109375,-0.05111446604132652,-0.035025037825107574,0.09658106416463852
1789021725268100900,0.161100830078125,-0.03027443028986454,-0.1377708613872528,0.025725265964865685
1789021725278102800,0.171102783203125,0.012998209334909916,-0.17666028439998627,0.09711315482854843
1789021725288105000,0.18110498046875,0.00034739531110972166,-0.2235204577445984,0.07862522453069687
1789021725298107000,0.19110693359375,0.04546746611595154,-0.23584362864494324,0.11468629539012909
1789021725308109000,0.201109130859375,0.06740738451480865,-0.2794313132762909,0.1462322324514389
1789021725318111000,0.211111083984375,0.10363993793725967,-0.3491384983062744,0.14932282269001007
1789021725328113200,0.221113037109375,0.15123727917671204,-0.34806203842163086,0.16938947141170502
1789021725338115000,0.231114990234375,0.17890621721744537,-0.322072297334671,0.19649448990821838
1789021725348117000,0.241116943359375,0.1790364384651184,-0.2865462899208069,0.2056288719177246
1789021725358119000,0.251118896484375,0.18398886919021606,-0.28665846586227417,0.17189915478229523
1789021725368120800,0.261120849609375,0.1924089789390564,-0.26396435499191284,0.07740485668182373
1789021725378123000,0.271123046875,0.14157243072986603,-0.42545393109321594,-0.11242437362670898
1789021725388125000,0.281125,0.1048881858587265,-0.7909387350082397,-0.3807421326637268
1789021725398127000,0.291127197265625,0.09568429738283157,-1.0996097326278687,-0.631126880645752
1789021725408129000,0.30112890625,0.09753945469856262,-1.1996151208877563,-0.7444606423377991
1789021725418131000,0.311130859375,0.11455892771482468,-1.113735556602478,-0.7403337359428406
1789021725428133000,0.321133056640625,0.1472170054912567,-0.9990672469139099,-0.6771745085716248
1789021725438134800,0.331134765625,0.1862373799085617,-0.8915351033210754,-0.5334528088569641
1789021725448137000,0.341136962890625,0.19353577494621277,-0.6724600195884705,-0.3125753104686737
1789021725458139000,0.351138916015625,0.18578648567199707,-0.3289240896701813,-0.06337306648492813
1789021725468141000,0.36114111328125,0.13844293355941772,-0.005728712305426598,0.16730009019374847
1789021725478143000,0.37114306640625,0.07057016342878342,0.25235775113105774,0.32533934712409973
1789021725488145000,0.381144775390625,0.02900460734963417,0.4251095652580261,0.390208899974823
1789021725498147000,0.39114697265625,0.039371222257614136,0.5040179491043091,0.39408257603645325
1789021725508149000,0.40114892578125,0.06914670020341873,0.4795762002468109,0.35610803961753845
1789021725518151200,0.411151123046875,0.08131200820207596,0.3730968236923218,0.3019449710845947
1789021725528152800,0.42115283203125,0.06892937421798706,0.2512505352497101,0.23680375516414642
1789021725538155000,0.431155029296875,0.06028183549642563,0.18877071142196655,0.18055687844753265
1789021725548157000,0.441156982421875,0.06761831045150757,0.2105409801006317,0.16258001327514648
1789021725558158800,0.451158935546875,0.06841220706701279,0.2541176676750183,0.18163439631462097
1789021725568161000,0.4611611328125,0.050517890602350235,0.28828123211860657,0.202739417552948
1789021725578163000,0.471162841796875,0.03344303369522095,0.319496750831604,0.22238874435424805
1789021725588165000,0.4811650390625,0.02846984565258026,0.333091676235199,0.25483670830726624
1789021725598167000,0.4911669921875,0.03366033732891083,0.35623660683631897,0.28965288400650024
1789021725608169000,0.5011689453125,0.037389032542705536,0.4178275465965271,0.32432377338409424
1789021725618171000,0.5111708984375,0.03510057553648949,0.5134566426277161,0.35202890634536743
1789021725628172800,0.5211728515625,0.016247525811195374,0.5525677800178528,0.3517087996006012
1789021725638175000,0.531175048828125,-0.03177671879529953,0.4958667457103729,0.3053251802921295
1789021725648177000,0.541177001953125,-0.0834292620420456,0.3722960650920868,0.23833096027374268
1789021725658179000,0.551178955078125,-0.1086651161313057,0.2590528130531311,0.1753913164138794
1789021725668181000,0.561180908203125,-0.094193235039711,0.20055167376995087,0.13802742958068848
1789021725678183200,0.57118310546875,-0.05589563772082329,0.1790197789669037,0.12000758200883865
1789021725688185000,0.58118505859375,-0.009234127588570118,0.16281205415725708,0.1166171133518219
1789021725698188000,0.59118798828125,0.03185446187853813,0.19353239238262177,0.1300480216741562
1789021725708190000,0.60118994140625,0.07202984392642975,0.24599240720272064,0.14258484542369843
1789021725718191900,0.61119189453125,0.09888142347335815,0.29818227887153625,0.1473415195941925
1789021725728194000,0.621194091796875,0.1063140407204628,0.32343968749046326,0.1703331172466278
1789021725738196200,0.6311962890625,0.09832935780286789,0.3233274817466736,0.19824177026748657
1789021725748198100,0.6411982421875,0.08113172650337219,0.293937087059021,0.20856711268424988
1789021725758200000,0.651199951171875,0.05784343555569649,0.24154198169708252,0.19632533192634583
1789021725768202000,0.661201904296875,0.0393962524831295,0.19359815120697021,0.17807096242904663
1789021725778204200,0.6712041015625,0.0362422801554203,0.1918165683746338,0.17396529018878937
1789021725788206000,0.6812060546875,0.048459798097610474,0.27566778659820557,0.2032906860113144
1789021725798208000,0.6912080078125,0.0649586096405983,0.4413312077522278,0.2802979350090027
1789021725808210200,0.701210205078125,0.06827877461910248,0.6493738889694214,0.38520169258117676
1789021725818212000,0.711212158203125,0.04258352890610695,0.8458384871482849,0.476156085729599
1789021725828214300,0.72121435546875,-0.0032265679910779,0.9680832028388977,0.5269873142242432
1789021725838216200,0.73121630859375,-0.03622207045555115,0.9723154902458191,0.5538541078567505
1789021725848218000,0.741218017578125,-0.01330556720495224,0.8746443390846252,0.5535078644752502
1789021725858220000,0.751219970703125,0.06065415218472481,0.6873754858970642,0.5192962288856506
1789021725868222000,0.761221923828125,0.14135991036891937,0.4945599436759949,0.4762755036354065
1789021725878224100,0.77122412109375,0.18036243319511414,0.3831106722354889,0.4660065770149231
1789021725888226000,0.78122607421875,0.18401068449020386,0.3776216208934784,0.4931873381137848
1789021725898228200,0.791228271484375,0.1496679186820984,0.4821745455265045,0.5313000082969666
1789021725908230100,0.801230224609375,0.08381538838148117,0.634013831615448,0.5676665306091309
1789021725918232300,0.811232421875,0.01570983976125717,0.7556568384170532,0.5965384244918823
1789021725928234000,0.82123388671875,-0.032646775245666504,0.8142751455307007,0.6113355159759521
1789021725938236000,0.83123583984375,-0.0796867236495018,0.8569141626358032,0.627276599407196
1789021725948238000,0.841238037109375,-0.13207748532295227,0.9066646695137024,0.662172257900238
1789021725958240000,0.851239990234375,-0.20490029454231262,0.9053105115890503,0.702444314956665
1789021725968242200,0.8612421875,-0.28717413544654846,0.8697295784950256,0.7433701753616333
1789021725978244000,0.871244140625,-0.3571454882621765,0.8638648986816406,0.7710180282592773
1789021725988246300,0.881246337890625,-0.4053279459476471,0.9072358012199402,0.7841365337371826
1789021725998248200,0.891248291015625,-0.4202030301094055,0.9369791150093079,0.7748804688453674
1789021726008250000,0.90125,-0.38321518898010254,0.9189777374267578,0.7483887076377869
1789021726018252000,0.911251953125,-0.32160425186157227,0.9071364998817444,0.7337216734886169
1789021726028254000,0.92125390625,-0.26624220609664917,0.8754922747612,0.7371702194213867
1789021726038256000,0.931256103515625,-0.2172110378742218,0.8775786757469177,0.7553171515464783
1789021726048258000,0.941258056640625,-0.2080577313899994,0.8747485280036926,0.7741150856018066
1789021726058260200,0.95126025390625,-0.2013005167245865,0.8264855146408081,0.781758189201355
1789021726068262100,0.96126220703125,-0.18004289269447327,0.8421265482902527,0.7868988513946533
1789021726078264000,0.97126416015625,-0.13369430601596832,0.7255305647850037,0.7515246272087097
1789021726088266200,0.981266357421875,-0.04737379401922226,0.3763126730918884,0.6314325928688049
1789021726098268200,0.99126806640625,0.05004144459962845,0.009510813280940056,0.473270058631897
1789021726108270000,1.00127001953125,0.13919475674629211,-0.1457834392786026,0.3367939591407776
1789021726118272000,1.01127197265625,0.15517772734165192,-0.13389165699481964,0.22680312395095825
1789021726128274200,1.021274169921875,0.0674838274717331,-0.03659040108323097,0.1468193531036377
1789021726138276000,1.031276123046875,-0.055818408727645874,0.16089287400245667,0.09035542607307434
1789021726148278000,1.041278076171875,-0.1019267812371254,0.4349052608013153,0.07664015144109726
1789021726158280200,1.0512802734375,-0.11691318452358246,0.893130898475647,0.17758221924304962
1789021726168282000,1.0612822265625,-0.16231875121593475,1.5015544891357422,0.3779374063014984
1789021726178284300,1.0712841796875,-0.17820103466510773,1.7499518394470215,0.49578195810317993
1789021726188287000,1.081286865234375,-0.1901405155658722,1.7926263809204102,0.5166723132133484
1789021726198289200,1.0912890625,-0.21195979416370392,1.725936770439148,0.46147534251213074
1789021726208291000,1.101291015625,-0.24418191611766815,1.5158567428588867,0.3499176502227783
1789021726218293200,1.111293212890625,-0.2875126302242279,1.3137823343276978,0.1918911337852478
1789021726228295200,1.121295166015625,-0.3346942663192749,1.1402028799057007,0.03926323726773262
1789021726238297000,1.131297119140625,-0.34006211161613464,0.9833689332008362,-0.0923367440700531
1789021726248299000,1.141299072265625,-0.24727916717529297,0.7821066975593567,-0.2730790972709656
1789021726258301000,1.151301025390625,0.02500106766819954,0.13313640654087067,-0.6286410093307495
1789021726268303000,1.16130322265625,0.2386382520198822,-0.8180432319641113,-0.9962696433067322
1789021726278305000,1.171304931640625,0.24990874528884888,-1.036163330078125,-1.118283987045288
1789021726288307200,1.18130712890625,0.19042465090751648,-0.4586336612701416,-0.9287351369857788
1789021726298309000,1.19130908203125,0.2545282542705536,0.43521472811698914,-0.5623427629470825
1789021726308311000,1.20131103515625,0.4760843515396118,1.0332778692245483,-0.14964890480041504
1789021726318313200,1.211313232421875,0.6874150037765503,1.7333029508590698,0.27671167254447937
1789021726328315100,1.221315185546875,0.6283854842185974,2.381145477294922,0.7536526918411255
1789021726338317000,1.231317138671875,0.42254602909088135,3.1497888565063477,1.13833487033844
1789021726348319000,1.241319091796875,0.20696474611759186,3.815764904022217,1.3952689170837402
1789021726358321200,1.251321044921875,0.015326078049838543,4.062685966491699,1.4764783382415771
1789021726368323000,1.261322998046875,-0.18676522374153137,3.9139277935028076,1.3540998697280884
1789021726378325000,1.271324951171875,-0.335810124874115,3.796238422393799,1.121341347694397
1789021726388327200,1.2813271484375,-0.35711807012557983,3.9451730251312256,0.9419714212417603
1789021726398329000,1.2913291015625,-0.11636057496070862,3.985408067703247,0.7800959944725037
1789021726408331300,1.301331298828125,0.2646879553794861,4.441141605377197,0.7581336498260498
1789021726418333000,1.3113330078125,0.6548296213150024,4.934198379516602,0.7666081190109253
1789021726428335000,1.321335205078125,0.8789940476417542,5.256903171539307,0.7922274470329285
1789021726438337000,1.3313369140625,0.9188482165336609,4.5782036781311035,1.047715663909912
1789021726448339000,1.3413388671875,0.8236844539642334,1.535854458808899,1.8593124151229858
1789021726458341000,1.351341064453125,0.5980068445205688,-1.157313346862793,2.5774552822113037
1789021726468343000,1.361343017578125,0.6957802772521973,-1.5561704635620117,2.478149890899658
1789021726478345200,1.37134521484375,0.9480945467948914,-0.18588946759700775,1.6995904445648193
1789021726488347100,1.38134716796875,0.906730055809021,0.852531373500824,0.8749050498008728
1789021726498349300,1.391349365234375,0.6169741153717041,0.8968783617019653,0.3873825669288635
1789021726508351000,1.40135107421875,0.5154783725738525,0.6546867489814758,0.17054906487464905
1789021726518353000,1.411352783203125,0.5848965644836426,0.609475314617157,0.15283167362213135
1789021726528355000,1.42135498046875,0.6256898045539856,0.4504542648792267,0.25303950905799866
1789021726538357000,1.43135693359375,0.6525715589523315,0.4830487072467804,0.2973683178424835
1789021726548359200,1.441359130859375,0.6672822833061218,0.5162228941917419,0.13950039446353912
1789021726558361000,1.451361083984375,0.6922478079795837,0.46324968338012695,-0.1727280169725418
1789021726568363300,1.46136328125,0.661378026008606,0.41260141134262085,-0.5461434125900269
1789021726578365200,1.471365234375,0.5353682041168213,0.48420828580856323,-0.918533980846405
1789021726588367000,1.4813671875,0.2383463829755783,0.7393513917922974,-1.1835358142852783
1789021726598369000,1.491369140625,-0.271176278591156,1.0519297122955322,-1.33110511302948
1789021726608371000,1.501370849609375,-0.8402988314628601,1.265288233757019,-1.571946144104004
1789021726618373000,1.511373046875,-1.4712696075439453,1.462890625,-2.0168285369873047
1789021726628376000,1.5213759765625,-2.213128089904785,1.6338878870010376,-2.7652668952941895
1789021726638378200,1.531378173828125,-2.9923183917999268,2.06821608543396,-3.726738214492798
1789021726648380200,1.541380126953125,-3.7177317142486572,2.5799012184143066,-4.562819480895996
1789021726658382000,1.551382080078125,-4.2289958000183105,3.0429024696350098,-5.058601379394531
1789021726668384000,1.561384033203125,-4.467432498931885,3.3928890228271484,-5.306690216064453
1789021726678386200,1.57138623046875,-4.482917785644531,3.5799949169158936,-5.470305442810059
1789021726688388000,1.58138818359375,-4.365109920501709,3.478355646133423,-5.655507564544678
1789021726698390000,1.59139013671875,-4.17041015625,3.06929612159729,-5.895934104919434
1789021726708392200,1.60139208984375,-3.9542903900146484,2.339097023010254,-6.1935834884643555
1789021726718394000,1.61139404296875,-3.6953842639923096,1.5281044244766235,-6.534092903137207
1789021726728396300,1.621396240234375,-3.396123170852661,0.8741510510444641,-6.9028520584106445
1789021726738397700,1.631397705078125,-3.168184995651245,0.5251516103744507,-7.252059459686279
1789021726748399600,1.641399658203125,-3.141965389251709,0.4268905520439148,-7.603599548339844
1789021726758401500,1.651401611328125,-3.3128139972686768,0.48933762311935425,-7.927016258239746
1789021726768403500,1.661403564453125,-3.581726312637329,0.7600431442260742,-8.157543182373047
1789021726778405600,1.671405517578125,-3.9165539741516113,0.8171902894973755,-8.282855033874512
1789021726788407600,1.681407470703125,-4.289002418518066,0.577893853187561,-8.316661834716797
1789021726798409700,1.69140966796875,-4.548733711242676,0.40734922885894775,-8.197580337524414
1789021726808411600,1.70141162109375,-4.633923530578613,0.2659124732017517,-7.88850212097168
1789021726818413800,1.711413818359375,-4.443627834320068,0.24360963702201843,-7.613827228546143
1789021726828415700,1.721415771484375,-3.978695869445801,0.705814003944397,-7.355823993682861
1789021726838417400,1.73141748046875,-3.4550375938415527,1.2673574686050415,-7.05394983291626
1789021726848419600,1.741419677734375,-3.1691267490386963,1.9823509454727173,-6.540194034576416
1789021726858421500,1.75142138671875,-2.962068557739258,2.6334264278411865,-5.956564903259277
1789021726868423700,1.761423583984375,-2.6941370964050293,3.1942219734191895,-5.450814723968506
1789021726878425600,1.771425537109375,-2.165893316268921,3.5436055660247803,-5.067966461181641
1789021726888427800,1.781427734375,-1.3811570405960083,3.6921064853668213,-4.701295375823975
1789021726898429700,1.7914296875,-0.5118714570999146,3.6269333362579346,-4.268960475921631
1789021726908431600,1.801431640625,0.37343093752861023,3.4211723804473877,-3.767688512802124
1789021726918433800,1.811433837890625,1.193069577217102,3.1393330097198486,-3.275968074798584
1789021726928435500,1.821435546875,1.8161613941192627,2.7202982902526855,-2.839776039123535
1789021726938437600,1.831437744140625,2.152989387512207,1.9763938188552856,-2.3690550327301025
1789021726948439600,1.841439453125,2.1393144130706787,1.0346208810806274,-1.6882985830307007
1789021726958441700,1.851441650390625,1.6843596696853638,0.36598312854766846,-0.73060542345047
1789021726968443600,1.861443603515625,0.8837621212005615,0.3294709324836731,0.22597487270832062
1789021726978445600,1.871445556640625,-0.019130965694785118,0.34636881947517395,0.9556835889816284
1789021726988447700,1.88144775390625,-0.6200798749923706,0.1531519591808319,1.42487633228302
1789021726998449700,1.89144970703125,-0.7642615437507629,-0.121311254799366,1.842132806777954
1789021727008451600,1.90145166015625,-0.6784129738807678,-0.44507095217704773,2.2727949619293213
1789021727018453500,1.91145361328125,-0.6192927360534668,-0.7240556478500366,2.7217960357666016
1789021727028455700,1.92145556640625,-0.7600517272949219,-0.7550846934318542,3.158377170562744
1789021727038457600,1.93145751953125,-1.31271493434906,-0.3946499526500702,3.6610333919525146
1789021727048459500,1.94145947265625,-2.2985026836395264,0.0893620029091835,4.03165864944458
1789021727058462700,1.951462646484375,-3.038311243057251,0.5168541073799133,4.0497822761535645
1789021727068464600,1.961464599609375,-3.358229160308838,0.5308431386947632,4.030345916748047
1789021727078466600,1.971466552734375,-3.5687496662139893,-0.1416993886232376,3.9354782104492188
1789021727088468500,1.981468505859375,-3.3089749813079834,-0.728851854801178,3.3580195903778076
1789021727098470700,1.991470703125,-2.192500591278076,-0.28319403529167175,2.1915535926818848
1789021727108472600,2.00147265625,-0.9284973740577698,0.6789370775222778,1.3935387134552002
1789021727118474800,2.011474853515625,-0.17104753851890564,1.2972853183746338,1.4564568996429443
1789021727128476700,2.0214765625,0.16137462854385376,1.4325059652328491,1.7262064218521118
1789021727138478800,2.031478759765625,0.22310377657413483,1.1876575946807861,1.5308318138122559
1789021727148480800,2.041480712890625,0.033178310841321945,0.4643299877643585,0.9851304292678833
1789021727158482400,2.051482421875,-0.05083616077899933,-0.5499878525733948,0.4212024509906769
1789021727168484600,2.061484619140625,-0.05085080862045288,-1.563788890838623,0.05373924598097801
1789021727178486500,2.071486572265625,-0.17495837807655334,-1.9992492198944092,-0.046809930354356766
1789021727188488700,2.08148876953125,-0.5281065702438354,-1.739625334739685,0.19078823924064636
1789021727198490600,2.09149072265625,-0.9226136803627014,-1.1693323850631714,0.5774779319763184
1789021727208492800,2.101492919921875,-1.0324182510375977,-0.172903373837471,0.950042724609375
1789021727218494700,2.11149462890625,-0.42259588837623596,1.234371542930603,1.2404358386993408
1789021727228496600,2.12149658203125,0.8079938292503357,2.854595422744751,1.220038652420044
1789021727238498600,2.13149853515625,1.1020294427871704,3.401252508163452,1.1983048915863037
1789021727248500500,2.14150048828125,0.8659836649894714,3.8975906372070312,1.3551706075668335
1789021727258502700,2.151502685546875,0.903218686580658,4.431468963623047,1.5124149322509766
1789021727268504600,2.161504638671875,1.2011933326721191,4.039031982421875,0.926578164100647
1789021727278506800,2.1715068359375,1.2769477367401123,3.272106170654297,-0.6976314187049866
1789021727288508700,2.1815087890625,1.125084638595581,2.9084110260009766,-2.5855765342712402
1789021727298510600,2.191510498046875,0.8551760315895081,2.851252317428589,-3.823960065841675
1789021727308512800,2.2015126953125,0.6068450808525085,2.640763521194458,-4.094753265380859
1789021727318514700,2.2115146484375,0.48836445808410645,2.2629711627960205,-3.63112735748291
1789021727328516600,2.2215166015625,0.38887009024620056,1.6962422132492065,-2.6579043865203857
1789021727338518500,2.2315185546875,0.2736780047416687,1.0755959749221802,-1.568726658821106
1789021727348520700,2.241520751953125,0.14200598001480103,0.5393314361572266,-0.6546772718429565
1789021727358522600,2.251522705078125,0.02153097279369831,0.1180296391248703,-0.04529503360390663
1789021727368524500,2.261524658203125,-0.055536650121212006,0.05480406805872917,0.5287948846817017
1789021727378526700,2.271526611328125,-0.2962280809879303,0.12787823379039764,1.0579490661621094
1789021727388528600,2.281528564453125,-0.43613752722740173,0.3950449824333191,1.3577219247817993
1789021727398530800,2.29153076171875,-1.1220808029174805,1.025179147720337,1.8092118501663208
1789021727408532700,2.30153271484375,-2.0367376804351807,0.259458065032959,2.201625347137451
1789021727418534700,2.31153466796875,-2.9729344844818115,-0.9547869563102722,2.6824653148651123
1789021727428536600,2.32153662109375,-3.819986343383789,-2.171701192855835,3.1125950813293457
1789021727438538500,2.33153857421875,-4.3799967765808105,-3.64349627494812,3.3161251544952393
1789021727448540700,2.341540771484375,-4.847330570220947,-4.783303737640381,3.308858633041382
1789021727458542600,2.35154248046875,-5.4327168464660645,-5.5317816734313965,3.22029185295105
1789021727468544800,2.361544677734375,-6.420238494873047,-5.227879047393799,3.5340423583984375
1789021727478546700,2.371546630859375,-7.79994535446167,-5.206699848175049,3.690772533416748
1789021727488548900,2.381548828125,-9.24191665649414,-6.085844993591309,3.0926432609558105
1789021727498550500,2.391550537109375,-10.492048263549805,-6.723752021789551,2.0113685131073
1789021727508552400,2.401552490234375,-11.269110679626465,-6.9226484298706055,0.8276990056037903
1789021727518554600,2.4115546875,-11.821311950683594,-6.813042163848877,-0.34265372157096863
1789021727528556500,2.421556640625,-11.816798210144043,-6.0342583656311035,-1.2080210447311401
1789021727538558700,2.431558837890625,-10.92034912109375,-5.273592948913574,-1.6705816984176636
1789021727548560600,2.441560546875,-8.547711372375488,-4.702692031860352,-1.6942387819290161
1789021727558562800,2.451562744140625,-3.905822515487671,-5.237602710723877,-1.177462100982666
1789021727568564700,2.461564697265625,1.021948218345642,-6.520254611968994,-0.15437015891075134
1789021727578567700,2.471567626953125,3.079291582107544,-6.79623556137085,0.5015404224395752
1789021727588569600,2.481569580078125,2.5118954181671143,-5.5848493576049805,0.2759549617767334
1789021727598571500,2.491571533203125,0.9430088996887207,-3.4419960975646973,-0.18168257176876068
1789021727608573700,2.50157373046875,-0.4158242642879486,-1.5564604997634888,-0.5630331039428711
1789021727618575600,2.51157568359375,-0.9955398440361023,-0.28283002972602844,-0.6939573287963867
1789021727628577800,2.521577880859375,-1.2363008260726929,0.522042989730835,-0.6242765188217163
1789021727638579700,2.531579833984375,-1.0880399942398071,0.9404994249343872,-0.4398748278617859
1789021727648581600,2.54158154296875,-0.5819956064224243,1.1246505975723267,-0.22920705378055573
1789021727658583600,2.55158349609375,0.04963504895567894,1.2306846380233765,-0.051914893090724945
1789021727668585500,2.56158544921875,0.5273513197898865,1.4170868396759033,0.19425387680530548
1789021727678587600,2.571587646484375,0.46562132239341736,2.220681667327881,1.3464088439941406
1789021727688589600,2.581589599609375,0.05296878516674042,2.842712163925171,3.2053074836730957
1789021727698591700,2.591591796875,0.11829932034015656,3.111882209777832,3.724600076675415
1789021727708593700,2.60159375,0.41726046800613403,3.1472935676574707,3.1438632011413574
1789021727718595800,2.611595947265625,0.7576379776000977,3.053041934967041,2.184302806854248
1789021727728597800,2.62159765625,1.0707253217697144,2.785595178604126,1.0676370859146118
1789021727738600200,2.63160009765625,1.2575178146362305,2.364560604095459,0.025235101580619812
1789021727748602000,2.64160205078125,1.325754165649414,1.67917001247406,-0.6336716413497925
1789021727758604300,2.651604248046875,1.0264233350753784,0.47232785820961,-0.37030795216560364
1789021727768606200,2.661606201171875,0.3348044753074646,-0.7328009605407715,0.14321929216384888
1789021727778608400,2.6716083984375,0.013191529549658298,-1.2835537195205688,0.002530200406908989
1789021727788610300,2.6816103515625,-0.12323315441608429,-1.4157588481903076,-0.3712412714958191
1789021727798612200,2.6916123046875,-0.1978144347667694,-1.4140409231185913,-0.6656405925750732
1789021727808614100,2.7016142578125,-0.22605939209461212,-1.3357131481170654,-0.7719976305961609
1789021727818616000,2.711615966796875,-0.19599178433418274,-1.2009645700454712,-0.7634756565093994
1789021727828618200,2.7216181640625,-0.12956908345222473,-0.9451732635498047,-0.854433536529541
1789021727838620200,2.7316201171875,-0.0825890451669693,-0.5625901222229004,-1.06757652759552
1789021727848622300,2.741622314453125,-0.06785643845796585,-0.10742923617362976,-1.25782310962677
1789021727858624300,2.751624267578125,-0.1037750318646431,0.32437488436698914,-1.2871311902999878
1789021727868626200,2.761626220703125,-0.15284375846385956,0.6668712496757507,-1.1569370031356812
1789021727878628400,2.77162841796875,-0.18030522763729095,0.9068841338157654,-0.9714312553405762
1789021727888630300,2.78163037109375,-0.17677681148052216,1.0426214933395386,-0.8302531242370605
1789021727898632200,2.791632080078125,-0.17066590487957,1.0814875364303589,-0.7275979518890381
1789021727908634000,2.801634033203125,-0.17613764107227325,1.0454133749008179,-0.6403424143791199
1789021727918636300,2.81163623046875,-0.19391505420207977,0.9509396553039551,-0.5458958745002747
1789021727928638200,2.82163818359375,-0.23085922002792358,0.8075689077377319,-0.43025320768356323
1789021727938641400,2.831641357421875,-0.2840089797973633,0.6255297660827637,-0.29329678416252136
1789021727948643300,2.841643310546875,-0.3393515944480896,0.40920624136924744,-0.14949139952659607
1789021727958645000,2.85164501953125,-0.3888232707977295,0.1880340576171875,-0.009052472189068794
1789021727968647200,2.861647216796875,-0.4302053451538086,-0.011282769031822681,0.10354571044445038
1789021727978649000,2.871649169921875,-0.46736788749694824,-0.17787761986255646,0.17611901462078094
1789021727988651300,2.8816513671875,-0.4877602458000183,-0.29863518476486206,0.22754812240600586
1789021727998653200,2.891653076171875,-0.49466606974601746,-0.3501018285751343,0.2777034044265747
1789021728008655400,2.9016552734375,-0.5025392174720764,-0.3431469798088074,0.3387784957885742
1789021728018657300,2.9116572265625,-0.5148483514785767,-0.307440847158432,0.38819533586502075
1789021728028659200,2.9216591796875,-0.5555952191352844,-0.2194763720035553,0.4422471225261688
1789021728038661000,2.9316611328125,-0.6053484082221985,-0.05084912106394768,0.521760106086731
1789021728048663000,2.9416630859375,-0.6529372334480286,0.1537434309720993,0.5997313261032104
1789021728058665200,2.951665283203125,-0.7159042358398438,0.3317248523235321,0.6831568479537964
1789021728068667100,2.961667236328125,-0.7486342191696167,0.45752429962158203,0.7749589681625366
1789021728078669300,2.97166943359375,-0.7524582147598267,0.5336542725563049,0.8941525816917419
1789021728088671200,2.981671142578125,-0.7445923089981079,0.630256175994873,1.0119549036026
1789021728098673200,2.991673095703125,-0.7503935098648071,0.8250131607055664,1.1064046621322632
1789021728108675300,3.00167529296875,-0.7973124980926514,1.0380194187164307,1.1684197187423706
1789021728118677200,3.01167724609375,-0.815937340259552,1.0837743282318115,1.2498762607574463
1789021728128679200,3.02167919921875,-0.7562457919120789,0.9191752672195435,1.3818646669387817
1789021728138681000,3.03168115234375,-0.6474370360374451,0.69108647108078,1.5327041149139404
1789021728148683300,3.041683349609375,-0.5442262291908264,0.5453226566314697,1.6496070623397827
1789021728158685200,3.051685302734375,-0.4885331392288208,0.5437711477279663,1.7041484117507935
1789021728168687000,3.06168701171875,-0.5083084106445312,0.6819180846214294,1.7015880346298218
1789021728178689300,3.071689208984375,-0.6192426681518555,0.8761109709739685,1.6238064765930176
1789021728188691200,3.081691162109375,-0.844179630279541,1.0411365032196045,1.4365659952163696
1789021728198693400,3.091693359375,-1.090663194656372,1.1109713315963745,1.1790803670883179
1789021728208695300,3.1016953125,-1.2483761310577393,1.0572956800460815,0.9134042859077454
1789021728218697200,3.111697265625,-1.3231757879257202,0.865653932094574,0.7029704451560974
1789021728228699100,3.12169921875,-1.2698521614074707,0.46872973442077637,0.663702666759491
1789021728238702300,3.131702392578125,-1.164880394935608,0.09920461475849152,0.6516222953796387
1789021728248704300,3.141704345703125,-1.0871576070785522,-0.040163662284612656,0.5418843626976013
1789021728258706400,3.15170654296875,-1.00079345703125,-0.11912735551595688,0.40921470522880554
1789021728268708400,3.161708251953125,-0.8943040370941162,-0.19520747661590576,0.28347939252853394
1789021728278710000,3.1717099609375,-0.8438986539840698,-0.24553067982196808,0.10376562178134918
1789021728288712200,3.181712158203125,-0.8193581700325012,-0.2911117374897003,-0.12729822099208832
1789021728298714000,3.191714111328125,-0.7843048572540283,-0.4357977509498596,-0.34965780377388
1789021728308716300,3.20171630859375,-0.7342909574508667,-0.3928678631782532,-0.638929545879364
1789021728318718200,3.21171826171875,-0.6386938691139221,0.05995295196771622,-1.0531319379806519
1789021728328720400,3.221720458984375,-0.6391902565956116,-0.008458330295979977,-1.1290302276611328
1789021728338722300,3.231722412109375,-0.7449132204055786,-0.271615207195282,-1.1589926481246948
1789021728348724200,3.24172412109375,-0.8751295804977417,-0.4145742356777191,-1.2372575998306274
1789021728358726100,3.25172607421875,-0.9671716690063477,-0.4043792486190796,-1.2860814332962036
1789021728368728000,3.26172802734375,-0.9959204792976379,-0.29510655999183655,-1.2815042734146118
1789021728378730200,3.271730224609375,-0.9273012280464172,-0.1775328367948532,-1.2725995779037476
1789021728388732200,3.281732177734375,-0.8510549068450928,-0.16119354963302612,-1.2547959089279175
1789021728398734300,3.291734375,-0.7489263415336609,-0.19314409792423248,-1.175429105758667
1789021728408736300,3.301736328125,-0.5990995764732361,-0.2522108852863312,-1.0495470762252808
1789021728418738200,3.31173828125,-0.48434609174728394,-0.3087793290615082,-0.9488940834999084
1789021728428740400,3.321740234375,-0.3703252375125885,-0.3633381724357605,-0.8179254531860352
1789021728438742300,3.3317421875,-0.28089362382888794,-0.4100164771080017,-0.677040696144104
1789021728448744200,3.341744140625,-0.2532537579536438,-0.4138173460960388,-0.5540726780891418
1789021728458746000,3.35174609375,-0.24680791795253754,-0.4286945164203644,-0.47770243883132935
1789021728468748300,3.361748291015625,-0.26165157556533813,-0.4777454137802124,-0.48544132709503174
1789021728478750200,3.371750244140625,-0.26600927114486694,-0.5136569738388062,-0.5995601415634155
1789021728488753400,3.38175341796875,-0.24547575414180756,-0.4750656485557556,-0.7523036003112793
1789021728498755300,3.39175537109375,-0.22158589959144592,-0.40512922406196594,-0.8739330172538757
1789021728508757000,3.401757080078125,-0.2291330248117447,-0.4263719320297241,-0.9014586210250854
1789021728518759200,3.41175927734375,-0.25772181153297424,-0.5501633882522583,-0.7958515286445618
1789021728528761000,3.421760986328125,-0.27433061599731445,-0.5743012428283691,-0.6588321328163147
1789021728538763300,3.43176318359375,-0.24235907196998596,-0.4636288285255432,-0.5694477558135986
1789021728548765200,3.44176513671875,-0.18372958898544312,-0.3611370623111725,-0.5129210948944092
1789021728558767400,3.451767333984375,-0.1645079255104065,-0.347441166639328,-0.43321359157562256
1789021728568769300,3.461769287109375,-0.17900404334068298,-0.34739190340042114,-0.2647228240966797
1789021728578771200,3.471771240234375,-0.21982313692569733,-0.4027225077152252,-0.14419443905353546
1789021728588773400,3.4817734375,-0.22988349199295044,-0.4721098244190216,-0.14879398047924042
1789021728598775000,3.491775146484375,-0.19020773470401764,-0.4801888167858124,-0.29814931750297546
1789021728608777200,3.501777099609375,-0.1885235607624054,-0.402549684047699,-0.46816739439964294
1789021728618779100,3.511779052734375,-0.23578080534934998,-0.298994779586792,-0.5844730138778687
1789021728628781300,3.52178125,-0.23653234541416168,-0.27928444743156433,-0.6468591690063477
1789021728638783200,3.531783203125,-0.1299734115600586,-0.2864406406879425,-0.6827213168144226
1789021728648785200,3.54178515625,-0.03157226741313934,-0.29175683856010437,-0.710350513458252
1789021728658787300,3.551787353515625,-0.00498538464307785,-0.31228187680244446,-0.7161903381347656
1789021728668789200,3.561789306640625,-0.0561034269630909,-0.3775508999824524,-0.6422035098075867
1789021728678791200,3.571791259765625,-0.06729726493358612,-0.4621911942958832,-0.4794312119483948
1789021728688793000,3.58179296875,0.02506915107369423,-0.45405521988868713,-0.2095208764076233
1789021728698795300,3.591795166015625,0.12667222321033478,-0.35932478308677673,0.06140264868736267
1789021728708798200,3.601798095703125,0.22023093700408936,-0.2839573323726654,0.0810415968298912
1789021728718800400,3.61180029296875,0.269789457321167,-0.3341401517391205,-0.22795751690864563
1789021728728802300,3.62180224609375,0.21582633256912231,-0.4177197515964508,-0.5586997270584106
1789021728738804000,3.631803955078125,0.07035485655069351,-0.5358110666275024,-0.8165223002433777
1789021728748806000,3.641805908203125,-0.07230722159147263,-0.6145604252815247,-1.0330945253372192
1789021728758807800,3.651807861328125,-0.17910802364349365,-0.6310247182846069,-1.2010447978973389
1789021728768809700,3.661809814453125,-0.2362504005432129,-0.6068559885025024,-1.2427517175674438
1789021728778812000,3.67181201171875,-0.2629043161869049,-0.48488008975982666,-1.1197768449783325
1789021728788813800,3.681813720703125,-0.2528513967990875,-0.3569418489933014,-0.9361720681190491
1789021728798815700,3.691815673828125,-0.18154901266098022,-0.2914769947528839,-0.7739807963371277
1789021728808818000,3.70181787109375,-0.07194528728723526,-0.2983524799346924,-0.6710554361343384
1789021728818819800,3.71181982421875,-0.009144238196313381,-0.39110374450683594,-0.5758354067802429
1789021728828822000,3.721822021484375,-0.0341329462826252,-0.49604639410972595,-0.5326618552207947
1789021728838823700,3.73182373046875,-0.04101965203881264,-0.5241004824638367,-0.7091684937477112
1789021728848825900,3.741825927734375,-0.03313589468598366,-0.5404652953147888,-0.9542813301086426
1789021728858827800,3.751827880859375,-0.06059487164020538,-0.5096564292907715,-1.13301682472229
1789021728868829700,3.76182958984375,-0.07731632888317108,-0.4487096965312958,-1.2307705879211426
1789021728878831900,3.771831787109375,-0.054155390709638596,-0.39254239201545715,-1.2193869352340698
1789021728888833800,3.781833740234375,-0.04618321731686592,-0.37478363513946533,-1.240670084953308
1789021728898836700,3.791836669921875,-0.029663139954209328,-0.4597053527832031,-1.343888759613037
1789021728908838700,3.801838623046875,-0.02330084703862667,-0.546172022819519,-1.3811492919921875
1789021728918840800,3.8118408203125,-0.033197928220033646,-0.561896562576294,-1.3680142164230347
1789021728928842800,3.8218427734375,0.033165380358695984,-0.48396340012550354,-1.2988852262496948
1789021728938845000,3.831844970703125,0.16218014061450958,-0.39689794182777405,-1.1433463096618652
1789021728948846800,3.841846923828125,0.23885734379291534,-0.3553057610988617,-0.9720683693885803
1789021728958849000,3.85184912109375,0.23906102776527405,-0.38529932498931885,-0.7913880944252014
1789021728968851000,3.861850830078125,0.2074008285999298,-0.3851717710494995,-0.6021694540977478
1789021728978852900,3.871852783203125,0.17350494861602783,-0.3639357388019562,-0.46404096484184265
1789021728988854800,3.881854736328125,0.12840858101844788,-0.32867977023124695,-0.36893734335899353
1789021728998856700,3.891856689453125,0.09598487615585327,-0.2866255044937134,-0.3667028248310089
1789021729008859000,3.90185888671875,0.1053200513124466,-0.22870732843875885,-0.44270357489585876
1789021729018860800,3.91186083984375,0.12872177362442017,-0.19019217789173126,-0.5446043014526367
1789021729028863000,3.921863037109375,0.13458073139190674,-0.1945781409740448,-0.577003538608551
1789021729038865000,3.931864990234375,0.13073192536830902,-0.20854297280311584,-0.5069748759269714
1789021729048866800,3.94186669921875,0.11166980117559433,-0.2389083355665207,-0.3760293424129486
1789021729058869000,3.951868896484375,0.0879516676068306,-0.2464262992143631,-0.2341669350862503
1789021729068870700,3.96187060546875,0.08936794102191925,-0.22356253862380981,-0.1656493991613388
1789021729078872800,3.971872802734375,0.09971243888139725,-0.20638373494148254,-0.16724218428134918
1789021729088875800,3.981875732421875,0.10527098923921585,-0.22493211925029755,-0.1667364537715912
1789021729098878000,3.9918779296875,0.11015335470438004,-0.22982695698738098,-0.15351994335651398
1789021729108880000,4.0018798828125,0.11979346722364426,-0.22789642214775085,-0.1259988248348236
1789021729118882000,4.011882080078125,0.1370489001274109,-0.24194031953811646,-0.09933213144540787
1789021729128883700,4.0218837890625,0.15373946726322174,-0.2436942756175995,-0.09662210196256638
1789021729138885600,4.0318857421875,0.17653265595436096,-0.23455414175987244,-0.1165613904595375
1789021729148887800,4.0418876953125,0.20007792115211487,-0.23174157738685608,-0.1379670947790146
1789021729158889700,4.0518896484375,0.21802178025245667,-0.22708633542060852,-0.16152632236480713
1789021729168892000,4.061891845703125,0.23335440456867218,-0.22656993567943573,-0.19272898137569427
1789021729178893800,4.071893798828125,0.2409459799528122,-0.23384948074817657,-0.23942336440086365
1789021729188896000,4.08189599609375,0.2443913072347641,-0.23493844270706177,-0.29296621680259705
1789021729198898000,4.09189794921875,0.24527385830879211,-0.22915810346603394,-0.34973031282424927
1789021729208899800,4.10189990234375,0.2590937912464142,-0.21419593691825867,-0.4130275249481201
1789021729218901800,4.11190185546875,0.2668311297893524,-0.18099850416183472,-0.47164809703826904
1789021729228903700,4.121903564453125,0.23833370208740234,-0.13633649051189423,-0.5087219476699829
1789021729238905900,4.13190576171875,0.16466209292411804,-0.08602286875247955,-0.49636906385421753
1789021729248908800,4.14190869140625,0.07054811716079712,-0.0633644312620163,-0.44505366683006287
1789021729258911000,4.151910888671875,0.014319507405161858,-0.05251678079366684,-0.38910213112831116
1789021729268913000,4.161912841796875,0.0133399972692132,-0.049121782183647156,-0.3325970470905304
1789021729278914800,4.171914794921875,0.04874749854207039,-0.06387191265821457,-0.28313058614730835
1789021729288916700,4.181916748046875,0.10742811858654022,-0.1065240353345871,-0.2498685121536255
1789021729298919000,4.1919189453125,0.18909607827663422,-0.17366357147693634,-0.22623933851718903
1789021729308920800,4.2019208984375,0.2909627854824066,-0.2549149990081787,-0.2320394366979599
1789021729318922800,4.2119228515625,0.39104363322257996,-0.3341188132762909,-0.28259482979774475
1789021729328925000,4.221925048828125,0.4940989017486572,-0.3526565432548523,-0.36439916491508484
1789021729338926800,4.2319267578125,0.5960989594459534,-0.32202085852622986,-0.44736340641975403
1789021729348929000,4.241928955078125,0.6841116547584534,-0.2974585294723511,-0.4994465410709381
1789021729358931000,4.251930908203125,0.7766697406768799,-0.30779239535331726,-0.5202275514602661
1789021729368932900,4.261932861328125,0.8636049032211304,-0.3294025957584381,-0.5287706851959229
1789021729378934800,4.271934814453125,0.9404323697090149,-0.35614731907844543,-0.579596757888794
1789021729388936700,4.281936767578125,1.004271388053894,-0.3763199746608734,-0.6691319942474365
1789021729398940000,4.29193994140625,1.03903329372406,-0.3963065445423126,-0.7429621815681458
1789021729408941800,4.30194189453125,1.049648642539978,-0.3649592697620392,-0.7931337356567383
1789021729418944000,4.311944091796875,1.0185190439224243,-0.2607886493206024,-0.8191076517105103
1789021729428945700,4.321945556640625,0.9440580010414124,-0.14134880900382996,-0.8386904001235962
1789021729438947800,4.33194775390625,0.8375111222267151,-0.07429010421037674,-0.8488267660140991
1789021729448949800,4.34194970703125,0.7131175398826599,-0.09418338537216187,-0.8546848893165588
1789021729458952000,4.351951904296875,0.6327717304229736,-0.1254040002822876,-0.8676614165306091
1789021729468953900,4.361953857421875,0.5831348896026611,-0.1958635300397873,-0.8727746605873108
1789021729478955800,4.371955810546875,0.5382964015007019,-0.2422882467508316,-0.8239063024520874
1789021729488958000,4.3819580078125,0.550469696521759,-0.21648994088172913,-0.760798454284668
1789021729498960000,4.3919599609375,0.5655255317687988,-0.20372046530246735,-0.6814510822296143
1789021729508961800,4.4019619140625,0.5755142569541931,-0.2943851053714752,-0.5831027030944824
1789021729518963700,4.411963623046875,0.610906183719635,-0.4446677267551422,-0.47536346316337585
1789021729528966000,4.4219658203125,0.702048122882843,-0.6213729977607727,-0.3596307337284088
1789021729538967800,4.4319677734375,0.7693638801574707,-0.7648935914039612,-0.20165328681468964
1789021729548971000,4.441970947265625,0.7709535360336304,-0.7923228144645691,-0.018054965883493423
1789021729558973000,4.451972900390625,0.6501457095146179,-0.6893701553344727,0.18558499217033386
1789021729568974800,4.461974853515625,0.4591352939605713,-0.5604989528656006,0.4266633689403534
1789021729578976800,4.471976806640625,0.3205960690975189,-0.4976402521133423,0.6781041026115417
1789021729588978700,4.481978759765625,0.29668378829956055,-0.49157169461250305,0.8405923247337341
1789021729598980900,4.49198095703125,0.31234046816825867,-0.5056849122047424,0.874171793460846
1789021729608982800,4.501982666015625,0.28322678804397583,-0.5016549825668335,0.8659135699272156
1789021729618985000,4.51198486328125,0.18509140610694885,-0.46216881275177,0.8871239423751831
1789021729628987000,4.52198681640625,0.08026377856731415,-0.46735745668411255,0.9612333178520203
1789021729638988800,4.53198876953125,0.02113017812371254,-0.5748001933097839,1.000267744064331
1789021729648991000,4.541990966796875,0.045062143355607986,-0.7255308032035828,0.9668610095977783
1789021729658992600,4.55199267578125,0.13027960062026978,-0.8448176383972168,0.8646267056465149
1789021729668994800,4.561994873046875,0.20121635496616364,-0.8412956595420837,0.7731924057006836
1789021729678996700,4.571996826171875,0.2613009512424469,-0.7658348679542542,0.7251483201980591
1789021729689000000,4.582,0.30880749225616455,-0.6500600576400757,0.7095472812652588
1789021729699001900,4.592001953125,0.3689911961555481,-0.5123552083969116,0.7026406526565552
1789021729709004000,4.602004150390625,0.4407511353492737,-0.3878313899040222,0.6936221122741699
1789021729719005700,4.612005615234375,0.5409246683120728,-0.2723032236099243,0.7136020660400391
1789021729729007900,4.6220078125,0.6252264976501465,-0.14943988621234894,0.7771677374839783
1789021729739010000,4.632010009765625,0.6550134420394897,-0.02282876707613468,0.8823932409286499
1789021729749012000,4.642011962890625,0.6371873021125793,0.07237737625837326,0.9968425631523132
1789021729759014100,4.65201416015625,0.621086835861206,0.09186667948961258,1.0618003606796265
1789021729769016000,4.66201611328125,0.6215070486068726,0.03042115829885006,1.0425982475280762
1789021729779018000,4.67201806640625,0.6674468517303467,-0.0494595430791378,0.9890662431716919
1789021729789020200,4.682020263671875,0.7285709381103516,-0.08313068747520447,0.91822350025177
1789021729799022000,4.69202197265625,0.7559913992881775,-0.0450625978410244,0.8353902101516724
1789021729809024000,4.70202392578125,0.7299118638038635,0.027881652116775513,0.7763636708259583
1789021729819027000,4.71202685546875,0.6812755465507507,0.08184517174959183,0.7605873942375183
1789021729829029000,4.722029052734375,0.6641727089881897,0.08798535168170929,0.7644156813621521
1789021729839031000,4.732031005859375,0.6907579898834229,0.08009769767522812,0.7823403477668762
1789021729849033200,4.742033203125,0.7399686574935913,0.11235204339027405,0.8524944186210632
1789021729859035100,4.75203515625,0.7704209089279175,0.2136477380990982,0.9772782921791077
1789021729869036800,4.762036865234375,0.7509377598762512,0.322504460811615,1.1305419206619263
1789021729879039000,4.7720390625,0.6894828677177429,0.41927337646484375,1.250374674797058
1789021729889041000,4.782041015625,0.588977575302124,0.4507303833961487,1.2583340406417847
1789021729899043000,4.79204296875,0.48656436800956726,0.38271835446357727,1.2001639604568481
1789021729909045000,4.802044921875,0.40053895115852356,0.2797973155975342,1.1452783346176147
1789021729919047200,4.812047119140625,0.2966996133327484,0.2247847467660904,1.146674394607544
1789021729929049000,4.822049072265625,0.18404366075992584,0.18320401012897491,1.1592828035354614
1789021729939051000,4.832051025390625,0.07285246253013611,0.0960150882601738,1.117181658744812
1789021729949054000,4.842053955078125,0.007113925646990538,-0.018457967787981033,1.0361751317977905
1789021729959056000,4.852055908203125,0.057637251913547516,-0.11360254138708115,0.9841794967651367
1789021729969058000,4.86205810546875,0.13395866751670837,-0.16239911317825317,1.0001912117004395
1789021729979060000,4.87206005859375,0.1422480046749115,-0.16452424228191376,1.0884201526641846
1789021729989062100,4.882062255859375,0.10449369996786118,-0.16123096644878387,1.212857961654663
1789021729999064000,4.89206396484375,0.08571048080921173,-0.19284404814243317,1.33200204372406
1789021730009066000,4.90206591796875,0.08479967713356018,-0.2513883113861084,1.3840141296386719
1789021730019068000,4.91206787109375,0.0954064130783081,-0.3191176950931549,1.331228256225586
1789021730029069800,4.92206982421875,0.15635284781455994,-0.34979039430618286,1.1886961460113525
1789021730039072000,4.932072021484375,0.2881764769554138,-0.33274999260902405,0.9894070029258728
1789021730049074000,4.942073974609375,0.4478902518749237,-0.2813299298286438,0.8019739985466003
1789021730059076000,4.952076171875,0.5440745949745178,-0.23190754652023315,0.6906553506851196
1789021730069078000,4.962078125,0.5550923347473145,-0.2239590734243393,0.6608812212944031
1789021730079081000,4.9720810546875,0.47493141889572144,-0.2297709584236145,0.6654238700866699
1789021730089083000,4.982082763671875,0.3245096802711487,-0.19166192412376404,0.651441752910614
1789021730099085000,4.9920849609375,0.1871456503868103,-0.12366128712892532,0.5859801173210144
1789021730109087000,5.0020869140625,0.10628940910100937,-0.06372231990098953,0.46057185530662537
1789021730119089200,5.012089111328125,0.04728156700730324,-0.05337221175432205,0.29130563139915466
1789021730129091000,5.022091064453125,-0.012445946224033833,-0.10011760890483856,0.11361368745565414
1789021730139093000,5.032093017578125,-0.05573109909892082,-0.1290888786315918,-0.04283105954527855
1789021730149095200,5.04209521484375,-0.10089830309152603,-0.0903438925743103,-0.17114056646823883
1789021730159096800,5.052096923828125,-0.15245449542999268,-0.019177904352545738,-0.2677079737186432
1789021730169099000,5.06209912109375,-0.18594054877758026,0.03592662885785103,-0.3285374939441681
1789021730179101000,5.072100830078125,-0.16731064021587372,0.07225193083286285,-0.31571075320243835
1789021730189103000,5.08210302734375,-0.12097562849521637,0.13225214183330536,-0.18446192145347595
1789021730199106000,5.09210595703125,-0.07834479212760925,0.21503840386867523,0.026836436241865158
1789021730209108200,5.102108154296875,-0.07978556305170059,0.28412505984306335,0.21305477619171143
1789021730219110000,5.11210986328125,-0.10707288235425949,0.28358206152915955,0.33000892400741577
1789021730229111800,5.12211181640625,-0.11637823283672333,0.20003660023212433,0.4006652534008026
1789021730239114000,5.132114013671875,-0.04401209577918053,0.07809335738420486,0.47264179587364197
1789021730249116000,5.142115966796875,0.03041207045316696,-0.04910401254892349,0.5513312816619873
1789021730259118000,5.1521181640625,0.06947074830532074,-0.14606043696403503,0.6087491512298584
1789021730269120000,5.1621201171875,0.07508203387260437,-0.15284164249897003,0.653836190700531
1789021730279122200,5.1721220703125,0.07423800975084305,-0.10438274592161179,0.7012302279472351
1789021730289124000,5.1821240234375,0.059877973049879074,0.015910906717181206,0.7775915861129761
1789021730299126000,5.1921259765625,0.026532838121056557,0.1400892734527588,0.8887010216712952
1789021730309128000,5.2021279296875,-0.029196469113230705,0.17590132355690002,0.9843119382858276
1789021730319131000,5.212130859375,-0.10142753273248672,0.11299104988574982,1.0428911447525024
1789021730329133000,5.222133056640625,-0.1518275886774063,0.0015044710598886013,1.074080228805542
1789021730339135000,5.232135009765625,-0.20020782947540283,-0.1152723878622055,1.0363866090774536
1789021730349137200,5.24213720703125,-0.252188503742218,-0.18224050104618073,0.930454432964325
1789021730359139000,5.25213916015625,-0.3367026448249817,-0.19973577558994293,0.8176681399345398
1789021730369141000,5.26214111328125,-0.4057903587818146,-0.1736743450164795,0.7024760246276855
1789021730379143000,5.272142822265625,-0.4232788383960724,-0.129938006401062,0.5549769401550293
1789021730389144800,5.282144775390625,-0.40409448742866516,-0.11484267562627792,0.3814946413040161
1789021730399147000,5.29214697265625,-0.384079247713089,-0.1428656131029129,0.20492863655090332
1789021730409149000,5.30214892578125,-0.35340893268585205,-0.19647185504436493,0.053933531045913696
1789021730419151000,5.312151123046875,-0.32139715552330017,-0.2515256106853485,-0.07608986645936966
1789021730429153000,5.322153076171875,-0.266488641500473,-0.2777164578437805,-0.20894858241081238
1789021730439156000,5.332156005859375,-0.19188016653060913,-0.2775569558143616,-0.33027851581573486
1789021730449158000,5.342157958984375,-0.12344570457935333,-0.2562628388404846,-0.43199262022972107
1789021730459160000,5.35216015625,-0.07716669887304306,-0.23035311698913574,-0.5020002722740173
1789021730469162000,5.362161865234375,-0.06587596237659454,-0.23785364627838135,-0.5336751341819763
1789021730479164200,5.3721640625,-0.07329175621271133,-0.2720603048801422,-0.5628073215484619
1789021730489166000,5.382166015625,-0.1168229877948761,-0.3175279200077057,-0.5978598594665527
1789021730499168000,5.39216796875,-0.21362914144992828,-0.30970299243927,-0.5891659259796143
1789021730509170200,5.402170166015625,-0.27073878049850464,-0.22451193630695343,-0.5758274793624878
1789021730519171800,5.412171875,-0.28472253680229187,-0.11421200633049011,-0.6364971995353699
1789021730529174000,5.422174072265625,-0.3126241862773895,0.006754360161721706,-0.6554898023605347
1789021730539176000,5.432176025390625,-0.3446126878261566,0.15934813022613525,-0.5832681655883789
1789021730549179100,5.44217919921875,-0.3055265545845032,0.30042269825935364,-0.5372886657714844
1789021730559181000,5.45218115234375,-0.1964864432811737,0.38621971011161804,-0.5520171523094177
1789021730569183200,5.462183349609375,-0.11898364871740341,0.4540501534938812,-0.5240778923034668
1789021730579185000,5.472184814453125,-0.08705603331327438,0.5080074667930603,-0.42990145087242126
1789021730589186800,5.482186767578125,-0.04215726628899574,0.5232247710227966,-0.3310779333114624
1789021730599189000,5.49218896484375,0.0014285193756222725,0.48403915762901306,-0.27586036920547485
1789021730609191000,5.50219091796875,-0.005103415809571743,0.44307762384414673,-0.24355491995811462
1789021730619193000,5.512193115234375,-0.02345786988735199,0.4367283284664154,-0.22500373423099518
1789021730629195000,5.522195068359375,-0.059358611702919006,0.45520880818367004,-0.20262892544269562
1789021730639197200,5.532197265625,-0.11773519963026047,0.4112808406352997,-0.19105404615402222
1789021730649199000,5.54219921875,-0.22023068368434906,0.33498552441596985,-0.22366152703762054
1789021730659202000,5.5522021484375,-0.3085840344429016,0.2593524158000946,-0.3025200068950653
1789021730669204000,5.562203857421875,-0.38093093037605286,0.2191283106803894,-0.3608458936214447
1789021730679206000,5.572205810546875,-0.45220860838890076,0.22716666758060455,-0.39417529106140137
1789021730689208000,5.5822080078125,-0.5262849926948547,0.24914759397506714,-0.43540236353874207
1789021730699210000,5.5922099609375,-0.5905158519744873,0.2694622278213501,-0.5114914178848267
1789021730709212200,5.602212158203125,-0.6024736762046814,0.28489527106285095,-0.6597397327423096
1789021730719214000,5.612214111328125,-0.603398859500885,0.27018940448760986,-0.8329099416732788
1789021730729216000,5.622216064453125,-0.6432514786720276,0.25989094376564026,-0.9723647832870483
1789021730739218700,5.63221875,-0.6829810738563538,0.22448788583278656,-1.011008858680725
1789021730749220600,5.642220703125,-0.6544378995895386,0.21329036355018616,-1.0140526294708252
1789021730759222500,5.652222412109375,-0.581256628036499,0.2775895297527313,-1.038961410522461
1789021730769225500,5.6622255859375,-0.4870251715183258,0.37818244099617004,-1.0787714719772339
1789021730779227400,5.672227294921875,-0.38842108845710754,0.4810411334037781,-1.1129871606826782
1789021730789229600,5.6822294921875,-0.2755003869533539,0.520802915096283,-1.1882550716400146
1789021730799231500,5.6922314453125,-0.1476263403892517,0.49673697352409363,-1.301578402519226
1789021730809233700,5.702233642578125,-0.06060967594385147,0.45617756247520447,-1.3881745338439941
1789021730819235600,5.712235595703125,-0.023927992209792137,0.40357208251953125,-1.4242873191833496
1789021730829237800,5.72223779296875,-0.021084269508719444,0.35142257809638977,-1.4339263439178467
1789021730839239700,5.73223974609375,-0.051766883581876755,0.2996125817298889,-1.4392770528793335
1789021730849241600,5.74224169921875,-0.1441231667995453,0.28097498416900635,-1.4956949949264526
1789021730859243500,5.752243408203125,-0.2814429700374603,0.2964745759963989,-1.6179924011230469
1789021730869245400,5.762245361328125,-0.40397021174430847,0.3075019121170044,-1.7855165004730225
1789021730879248600,5.77224853515625,-0.45394203066825867,0.3013092279434204,-1.9975593090057373
1789021730889250600,5.78225048828125,-0.35332435369491577,0.31223219633102417,-2.1808316707611084
1789021730899252700,5.792252685546875,-0.10141119360923767,0.357414573431015,-2.2992424964904785
1789021730909254700,5.802254638671875,0.16657045483589172,0.40330296754837036,-2.3981821537017822
1789021730919256600,5.812256591796875,0.35583049058914185,0.33120933175086975,-2.4935598373413086
1789021730929258500,5.822258544921875,0.4684734344482422,0.15119272470474243,-2.589063882827759
1789021730939260400,5.832260498046875,0.5366414785385132,-0.09648854285478592,-2.6900784969329834
1789021730949262600,5.8422626953125,0.532474935054779,-0.40317630767822266,-2.7499961853027344
1789021730959264500,5.852264404296875,0.4686797559261322,-0.7948843836784363,-2.6383161544799805
1789021730969266700,5.8622666015625,0.3610246777534485,-1.0222620964050293,-2.3821771144866943
1789021730979269600,5.87226953125,0.33244073390960693,-0.7407267689704895,-2.0194242000579834
1789021730989271600,5.882271484375,0.5686098337173462,-0.05117524042725563,-1.6726269721984863
1789021730999273500,5.8922734375,0.8147907853126526,0.5115832686424255,-1.455333948135376
1789021731009275600,5.902275634765625,0.8588210940361023,0.6124390959739685,-1.2945804595947266
1789021731019277600,5.912277587890625,0.725967288017273,0.4291781783103943,-1.121909260749817
1789021731029279700,5.92227978515625,0.5847262740135193,0.14274056255817413,-1.0025461912155151
1789021731039281700,5.93228173828125,0.530587911605835,-0.010339025408029556,-0.8857662081718445
1789021731049283600,5.94228369140625,0.5191834568977356,-0.04536944627761841,-0.6912686228752136
1789021731059285800,5.95228564453125,0.4544249475002289,-0.06163916364312172,-0.4318405091762543
1789021731069287400,5.962287353515625,0.33646637201309204,-0.06296035647392273,-0.1640188992023468
1789021731079290600,5.97229052734375,0.26103729009628296,-0.03270898759365082,0.026268180459737778
1789021731089292500,5.98229248046875,0.22020436823368073,-0.006186036858707666,0.11012286692857742
1789021731099294700,5.992294677734375,0.2251882404088974,-0.017121287062764168,0.14931730926036835
1789021731109296600,6.002296630859375,0.2931089699268341,-0.0758407935500145,0.19049696624279022
1789021731119298800,6.012298828125,0.35869842767715454,-0.12059419602155685,0.21344560384750366
1789021731129300500,6.022300537109375,0.36655715107917786,-0.10817960649728775,0.24568849802017212
1789021731139302400,6.032302490234375,0.3332952857017517,-0.08728580921888351,0.2714437246322632
1789021731149304600,6.0423046875,0.30857235193252563,-0.07968754321336746,0.28775691986083984
1789021731159306500,6.052306396484375,0.33442655205726624,-0.06050759553909302,0.2946562170982361
1789021731169308700,6.06230859375,0.40592098236083984,-0.016502324491739273,0.329887717962265
1789021731179310600,6.072310546875,0.4811819791793823,0.03451201692223549,0.4131251871585846
1789021731189313500,6.0823134765625,0.5237241387367249,0.08042997121810913,0.5356149077415466
1789021731199315500,6.0923154296875,0.5288753509521484,0.09631960839033127,0.6547199487686157
1789021731209317600,6.102317626953125,0.5200797319412231,0.10305394977331161,0.7688539624214172
1789021731219319600,6.112319580078125,0.4924074113368988,0.10595418512821198,0.8536882996559143
1789021731229321500,6.122321533203125,0.44998112320899963,0.10748257488012314,0.9069536924362183
1789021731239323600,6.13232373046875,0.39071881771087646,0.0938514992594719,0.9349423050880432
1789021731249325600,6.14232568359375,0.3140975534915924,0.06491625308990479,0.9540291428565979
1789021731259327700,6.15232763671875,0.2681823968887329,-0.012234296649694443,0.972518801689148
1789021731269329700,6.16232958984375,0.2996457815170288,-0.16831523180007935,0.966160237789154
1789021731279331600,6.17233154296875,0.36617618799209595,-0.32280299067497253,0.9313174486160278
1789021731289334500,6.18233447265625,0.4539465308189392,-0.39068642258644104,0.907087504863739
1789021731299336700,6.192336669921875,0.5301756262779236,-0.3721632957458496,0.9286244511604309
1789021731309338600,6.202338623046875,0.5914651155471802,-0.3269311189651489,0.9765973091125488
1789021731319340800,6.2123408203125,0.6694908738136292,-0.2965392470359802,1.0147690773010254
1789021731329342700,6.2223427734375,0.7869421243667603,-0.3204571008682251,1.0206135511398315
1789021731339344400,6.232344482421875,0.8702987432479858,-0.38246339559555054,1.0195518732070923
1789021731349346600,6.2423466796875,0.8810930848121643,-0.3863223195075989,1.054085612297058
1789021731359348500,6.252348388671875,0.8468102812767029,-0.4073637127876282,1.1266847848892212
1789021731369350700,6.2623505859375,0.776788055896759,-0.43408453464508057,1.174065351486206
1789021731379352600,6.2723525390625,0.6677924990653992,-0.42203810811042786,1.1865153312683105
1789021731389355800,6.282355712890625,0.5519521832466125,-0.372902512550354,1.1984364986419678
1789021731399357400,6.292357421875,0.5271386504173279,-0.3773472011089325,1.1580308675765991
1789021731409359600,6.302359619140625,0.5738589763641357,-0.3796473741531372,0.9620198011398315
1789021731419361500,6.312361572265625,0.6041665077209473,-0.23918530344963074,0.6235055923461914
1789021731429363500,6.322363525390625,0.5955871343612671,0.04733007773756981,0.2877422571182251
1789021731439365600,6.33236572265625,0.552711009979248,0.4050722122192383,0.07194872945547104
1789021731449367600,6.342367431640625,0.4675694704055786,0.7215705513954163,-0.0019902046769857407
1789021731459369700,6.35236962890625,0.362908273935318,0.9293626546859741,0.050235815346241
1789021731469371600,6.36237158203125,0.26237207651138306,1.0511436462402344,0.17393405735492706
1789021731479374600,6.37237451171875,0.18466639518737793,1.0675573348999023,0.31026914715766907
1789021731489376500,6.38237646484375,0.08397122472524643,0.9919157028198242,0.4510060250759125
1789021731499378700,6.392378662109375,-0.030324021354317665,0.872075617313385,0.5607500672340393
1789021731509380600,6.402380615234375,-0.12493707984685898,0.7046301960945129,0.6385779976844788
1789021731519382500,6.412382568359375,-0.16293495893478394,0.5325967073440552,0.7128583788871765
1789021731529384700,6.422384765625,-0.12336598336696625,0.39501065015792847,0.7622288465499878
1789021731539386600,6.43238671875,-0.04505814611911774,0.3108310103416443,0.7414224743843079
1789021731549388500,6.442388427734375,0.02021033875644207,0.2667272090911865,0.6471129655838013
1789021731559390500,6.452390380859375,0.015490666031837463,0.2509916424751282,0.5120540261268616
1789021731569392600,6.462392578125,-0.03940720483660698,0.1887170821428299,0.3954631984233856
1789021731579394600,6.47239453125,-0.07312482595443726,0.031818240880966187,0.34608712792396545
1789021731589397800,6.482397705078125,-0.09446952491998672,-0.13178479671478271,0.36181575059890747
1789021731599399700,6.492399658203125,-0.10936426371335983,-0.22693009674549103,0.3838229477405548
1789021731609401600,6.502401611328125,-0.1577770709991455,-0.16460679471492767,0.3810548484325409
1789021731619403500,6.512403564453125,-0.24969379603862762,0.0048182373866438866,0.34721508622169495
1789021731629405400,6.522405517578125,-0.3323306143283844,0.19304326176643372,0.279548704624176
1789021731639407600,6.53240771484375,-0.41656893491744995,0.30615636706352234,0.1861272156238556
1789021731649409500,6.542409423828125,-0.37855446338653564,0.293520987033844,0.025740208104252815
1789021731659411700,6.55241162109375,-0.27245137095451355,0.2641468644142151,-0.11493006348609924
1789021731669413600,6.56241357421875,-0.19490011036396027,0.33738914132118225,-0.13387152552604675
1789021731679416600,6.57241650390625,-0.12274529784917831,0.502213180065155,-0.07533400505781174
1789021731689418500,6.58241845703125,-0.05798973888158798,0.624535322189331,-0.03058011643588543
1789021731699420700,6.592420654296875,-0.06546168029308319,0.6929649710655212,0.025144211947917938
1789021731709422600,6.602422607421875,-0.09355776011943817,0.7422789931297302,0.10751684755086899
1789021731719424500,6.612424560546875,-0.025741420686244965,0.7836962938308716,0.14484740793704987
1789021731729426700,6.6224267578125,-0.04472177103161812,0.810029923915863,0.12522417306900024
1789021731739427800,6.632427734375,-0.19112935662269592,0.8094019293785095,0.10783115774393082
1789021731749430000,6.642429931640625,-0.28823167085647583,0.8213919997215271,0.0810629278421402
1789021731759432000,6.652431884765625,-0.3244667053222656,0.8513925075531006,0.07919060438871384
1789021731769433900,6.662433837890625,-0.3442001938819885,0.8357160687446594,0.0785682275891304
1789021731779436800,6.672436767578125,-0.3542253077030182,0.7291056513786316,0.00264959828928113
1789021731789439000,6.68243896484375,-0.39953288435935974,0.5505856871604919,-0.15499834716320038
1789021731799441000,6.69244091796875,-0.509985089302063,0.40464910864830017,-0.2932289242744446
1789021731809442800,6.70244287109375,-0.6337903738021851,0.4948514401912689,-0.24111510813236237
1789021731819445000,6.712445068359375,-0.6639654040336609,0.6861319541931152,-0.11814355105161667
1789021731829447000,6.722447021484375,-0.5364881157875061,0.7033290266990662,-0.11272374540567398
1789021731839448800,6.73244873046875,-0.47272050380706787,0.5409132242202759,-0.1996610164642334
1789021731849450800,6.74245068359375,-0.4873095750808716,0.4333476424217224,-0.24955986440181732
1789021731859453000,6.752452880859375,-0.5222125053405762,0.42348504066467285,-0.20671333372592926
1789021731869454800,6.762454833984375,-0.6389985084533691,0.4457762539386749,-0.08972545713186264
1789021731879458000,6.7724580078125,-0.7183681726455688,0.40419039130210876,0.0288983341306448
1789021731889460000,6.7824599609375,-0.7269190549850464,0.24723805487155914,0.07611005753278732
1789021731899461600,6.792461669921875,-0.6938664317131042,0.07425177842378616,0.01573406159877777
1789021731909463800,6.8024638671875,-0.6950666904449463,0.03812173753976822,-0.05661603435873985
1789021731919465700,6.8124658203125,-0.7292308807373047,0.2077733278274536,-0.004454902373254299
1789021731929468000,6.822468017578125,-0.6978881359100342,0.3976106345653534,0.10540874302387238
1789021731939469800,6.8324697265625,-0.5331330895423889,0.3448140621185303,0.07678781449794769
1789021731949472000,6.842471923828125,-0.39195168018341064,0.1266721487045288,-0.08636968582868576
1789021731959474000,6.852473876953125,-0.2936294674873352,-0.04101219028234482,-0.23505990207195282
1789021731969476900,6.862476806640625,-0.26999685168266296,-0.14878739416599274,-0.2651706635951996
1789021731979478800,6.872478759765625,-0.3632311224937439,-0.1905287355184555,-0.12487974762916565
1789021731989480700,6.882480712890625,-0.4547080397605896,-0.19865989685058594,0.036657750606536865
1789021731999483000,6.89248291015625,-0.5029757022857666,-0.25148189067840576,0.03531439229846001
1789021732009484800,6.90248486328125,-0.5087227821350098,-0.37602514028549194,-0.1736617237329483
1789021732019487000,6.912487060546875,-0.45255616307258606,-0.49185410141944885,-0.441139817237854
1789021732029489000,6.922489013671875,-0.32836654782295227,-0.5453705787658691,-0.6794357895851135
1789021732039490800,6.93249072265625,-0.20257475972175598,-0.5542430281639099,-0.8343530297279358
1789021732049492700,6.94249267578125,-0.12467650324106216,-0.567983865737915,-0.9563489556312561
1789021732059494700,6.95249462890625,-0.18639503419399261,-0.5208887457847595,-1.055074691772461
1789021732069497900,6.962497802734375,-0.32229533791542053,-0.4901726245880127,-1.1040019989013672
1789021732079500000,6.9725,-0.45334526896476746,-0.5618852376937866,-1.15375816822052
1789021732089502000,6.982501953125,-0.5433766841888428,-0.6499953866004944,-1.343680739402771
1789021732099503900,6.99250390625,-0.5332249402999878,-0.7135096788406372,-1.664273738861084
1789021732109505800,7.002505859375,-0.4346368908882141,-0.6977448463439941,-1.9404802322387695
1789021732119507700,7.0125078125,-0.32824355363845825,-0.5920224189758301,-2.0628392696380615
1789021732129510000,7.022510009765625,-0.23170316219329834,-0.4563378393650055,-2.0414297580718994
1789021732139511800,7.03251171875,-0.16886009275913239,-0.28421372175216675,-1.9702361822128296
1789021732149514000,7.042513916015625,-0.16344241797924042,-0.09062321484088898,-1.9040755033493042
1789021732159517000,7.052516845703125,-0.2274583876132965,0.13615617156028748,-1.828684687614441
1789021732169518800,7.062518798828125,-0.19698329269886017,0.5001484751701355,-1.6118645668029785
1789021732179520800,7.072520751953125,-0.08895222097635269,0.834965705871582,-1.3458868265151978
1789021732189522700,7.082522705078125,0.01654145121574402,0.8541598916053772,-1.14725923538208
1789021732199524900,7.09252490234375,0.10714095830917358,0.6489302515983582,-0.9914698004722595
1789021732209526800,7.10252685546875,0.08913372457027435,0.4023827612400055,-0.8355499505996704
1789021732219529000,7.112529052734375,-0.07115452736616135,0.23126564919948578,-0.6432254314422607
1789021732229531000,7.12253076171875,-0.30945631861686707,0.16756096482276917,-0.35292091965675354
1789021732239533000,7.132532958984375,-0.5240617990493774,0.07455568015575409,-0.058780133724212646
1789021732249535700,7.14253564453125,-0.6409533023834229,-0.08841193467378616,0.12022557109594345
1789021732259538000,7.152537841796875,-0.5981459021568298,-0.18573765456676483,0.23689822852611542
1789021732269539800,7.162539794921875,-0.4814305007457733,-0.17010729014873505,0.3674735426902771
1789021732279541800,7.172541748046875,-0.380864679813385,-0.1936139613389969,0.45326873660087585
1789021732289544000,7.1825439453125,-0.3676857650279999,-0.33630213141441345,0.378236323595047
1789021732299545900,7.1925458984375,-0.371060848236084,-0.44279617071151733,0.1696435809135437
1789021732309547800,7.2025478515625,-0.33627888560295105,-0.5028573274612427,-0.06967898458242416
1789021732319549700,7.2125498046875,-0.25607430934906006,-0.5147425532341003,-0.2382233589887619
1789021732329552000,7.2225517578125,-0.11529002338647842,-0.5647128224372864,-0.37702465057373047
1789021732339554800,7.232554931640625,-0.050104834139347076,-0.7042354941368103,-0.48519253730773926
1789021732349557000,7.242556884765625,-0.060436833649873734,-0.8038800954818726,-0.5170444846153259
1789021732359559000,7.252558837890625,-0.0799722820520401,-0.8234565854072571,-0.4541654586791992
1789021732369560800,7.262560791015625,-0.07448963075876236,-0.7593343257904053,-0.25738289952278137
1789021732379562800,7.272562744140625,-0.062342073768377304,-0.6857830882072449,0.040528006851673126
1789021732389564700,7.282564697265625,-0.08613848686218262,-0.6372637748718262,0.32302629947662354
1789021732399566800,7.29256689453125,-0.09219503402709961,-0.6906427145004272,0.4394277036190033
1789021732409568800,7.30256884765625,-0.04009800776839256,-0.7065886855125427,0.4467109143733978
1789021732419571000,7.312571044921875,-0.015994843095541,-0.6207821369171143,0.5748497843742371
1789021732429572900,7.32257275390625,-0.010991295799612999,-0.49501359462738037,0.8487420082092285
1789021732439575800,7.332575927734375,-0.05047984793782234,-0.43393343687057495,1.1789666414260864
1789021732449577700,7.34257763671875,-0.1457030326128006,-0.4868483245372772,1.491110920906067
1789021732459580000,7.352579833984375,-0.2699754536151886,-0.6267552971839905,1.7202222347259521
1789021732469581800,7.362581787109375,-0.3120403587818146,-0.7635480165481567,1.8824084997177124
1789021732479583700,7.372583740234375,-0.1937353014945984,-0.7145495414733887,2.0204949378967285
1789021732489586000,7.3825859375,-0.06388276815414429,-0.4851160943508148,2.215620756149292
1789021732499587800,7.392587890625,0.04397615045309067,-0.2924273908138275,2.4377918243408203
1789021732509590000,7.402590087890625,0.0597444623708725,-0.1929500550031662,2.586876153945923
1789021732519592000,7.412592041015625,0.09043830633163452,-0.23208963871002197,2.5642638206481934
1789021732529595000,7.422594970703125,0.2075827717781067,-0.3464694619178772,2.4221036434173584
1789021732539596800,7.4325966796875,0.3741164803504944,-0.40406423807144165,2.2160933017730713
1789021732549599000,7.442598876953125,0.5256221294403076,-0.4177515506744385,1.9519942998886108
1789021732559601000,7.452600830078125,0.5682744979858398,-0.37868332862854004,1.67569100856781
1789021732569602800,7.462602783203125,0.5928871631622314,-0.3136462867259979,1.508994698524475
1789021732579605000,7.47260498046875,0.6791602373123169,-0.31729209423065186,1.398299217224121
1789021732589606700,7.482606689453125,0.7841364145278931,-0.35363996028900146,1.2912827730178833
1789021732599608800,7.49260888671875,0.8656066060066223,-0.358609139919281,1.168938398361206
1789021732609610800,7.50261083984375,0.8865576386451721,-0.25383585691452026,1.0866408348083496
1789021732619614000,7.512614013671875,0.8130271434783936,-0.019784295931458473,1.0617538690567017
1789021732629615900,7.522615966796875,0.7069286704063416,0.2574867308139801,1.1258145570755005
1789021732639617800,7.53261767578125,0.5836851000785828,0.47405770421028137,1.3047921657562256
1789021732649619700,7.54261962890625,0.4078647792339325,0.5653561949729919,1.5034072399139404
1789021732659622000,7.552621826171875,0.23781608045101166,0.5023083090782166,1.6692862510681152
1789021732669623800,7.562623779296875,0.10398610681295395,0.4692630171775818,1.7332007884979248
1789021732679625700,7.572625732421875,-0.056795477867126465,0.49864035844802856,1.6011089086532593
1789021732689628000,7.5826279296875,-0.24979715049266815,0.45748892426490784,1.3008524179458618
1789021732699629800,7.5926298828125,-0.3945269286632538,0.14556244015693665,0.9564154148101807
1789021732709632800,7.6026328125,-0.4843369722366333,-0.41721224784851074,0.7339035272598267
1789021732719634700,7.612634765625,-0.4691004157066345,-0.9486324787139893,0.8058810830116272
1789021732729636900,7.622636962890625,-0.2345888316631317,-0.9277093410491943,1.263777494430542
1789021732739638800,7.632638671875,-0.05872419849038124,-0.7542840242385864,1.4899572134017944
1789021732749640700,7.642640625,-0.24779531359672546,-1.132146954536438,1.2500258684158325
1789021732759643000,7.652642822265625,-0.514270007610321,-1.6504347324371338,1.1099342107772827
1789021732769644800,7.662644775390625,-0.6306506991386414,-1.6417571306228638,1.498570203781128
1789021732779646700,7.672646728515625,-0.5045448541641235,-1.209905982017517,2.0972931385040283
1789021732789649000,7.68264892578125,-0.3579618036746979,-1.008333444595337,2.2095088958740234
1789021732799651600,7.692651611328125,-0.3673461079597473,-0.9803014993667603,1.9556058645248413
1789021732809653800,7.70265380859375,-0.4222106635570526,-0.7583624720573425,1.7143464088439941
1789021732819655700,7.71265576171875,-0.4696749746799469,-0.3799316883087158,1.568301796913147
1789021732829657900,7.722657958984375,-0.44586339592933655,0.000001285210601054132,1.4587095975875854
1789021732839659800,7.73265966796875,-0.29759249091148376,0.3084227442741394,1.3397589921951294
1789021732849662000,7.742661865234375,-0.12107550352811813,0.5782283544540405,1.2025259733200073
1789021732859663600,7.75266357421875,0.015300181694328785,0.8216071724891663,1.0307058095932007
1789021732869665500,7.76266552734375,0.039938416332006454,0.9548674821853638,0.8528410196304321
1789021732879667700,7.772667724609375,-0.05745089799165726,0.8772369027137756,0.7069478034973145
1789021732889669600,7.782669677734375,-0.19123800098896027,0.5972582101821899,0.6105930805206299
1789021732899672800,7.7926728515625,-0.27804458141326904,0.2604789435863495,0.5079248547554016
1789021732909674800,7.8026748046875,-0.3580925464630127,-0.0700790211558342,0.3707267940044403
1789021732919676700,7.8126767578125,-0.497221976518631,-0.4014973044395447,0.22214379906654358
1789021732929678600,7.8226787109375,-0.7126318216323853,-0.7172861695289612,0.1039910614490509
1789021732939680800,7.8326806640625,-0.9525928497314453,-0.9968406558036804,0.008626825176179409
1789021732949682700,7.8426826171875,-1.1401020288467407,-1.245015263557434,-0.07866253703832626
1789021732959684600,7.8526845703125,-1.226348638534546,-1.4029279947280884,-0.138926163315773
1789021732969686800,7.862686767578125,-1.2303721904754639,-1.3605083227157593,-0.12464283406734467
1789021732979688700,7.872688720703125,-1.2043122053146362,-1.1229944229125977,-0.03342636674642563
1789021732989691600,7.882691650390625,-1.195290207862854,-0.8436213135719299,0.04606712609529495
1789021732999693600,7.892693603515625,-1.1948294639587402,-0.6972896456718445,0.03820819780230522
1789021733009695700,7.90269580078125,-1.1704742908477783,-0.6369128823280334,0.05683834105730057
1789021733019697700,7.91269775390625,-0.9556065797805786,-0.6550556421279907,0.038770657032728195
1789021733029699800,7.922699951171875,-0.5781775116920471,-0.6875648498535156,-0.08137199282646179
1789021733039701800,7.93270166015625,-0.2343735545873642,-0.6726706624031067,-0.2393258512020111
1789021733049704000,7.942703857421875,0.04506419971585274,-0.7022266983985901,-0.4179869294166565
1789021733059705900,7.952705810546875,0.2851320207118988,-0.7232343554496765,-0.542529821395874
1789021733069708800,7.962708740234375,0.44049495458602905,-0.704535722732544,-0.6083919405937195
1789021733079710700,7.972710693359375,0.4715974032878876,-0.7243055105209351,-0.7735921740531921
1789021733089712600,7.982712646484375,0.3845546543598175,-0.7594930529594421,-1.0152015686035156
1789021733099714800,7.99271484375,0.267234742641449,-0.7979429364204407,-1.2403408288955688
1789021733109716700,8.002716796875,0.12316437810659409,-0.7903984785079956,-1.3472198247909546
1789021733119719000,8.012718994140625,-0.10824064910411835,-0.6671189069747925,-1.286661982536316
1789021733129720600,8.022720458984375,-0.32980045676231384,-0.4087001383304596,-1.2029268741607666
1789021733139722800,8.03272265625,-0.4463936388492584,-0.07670263200998306,-1.3000991344451904
1789021733149724700,8.042724609375,-0.4340519905090332,0.16591161489486694,-1.54445481300354
1789021733159726600,8.0527265625,-0.3686456084251404,0.23320245742797852,-1.8174488544464111
1789021733169729800,8.062729736328125,-0.2773180902004242,0.20431089401245117,-2.020172119140625
1789021733179731700,8.072731689453125,-0.18395747244358063,0.1651884913444519,-2.100290536880493
1789021733189733600,8.082733642578125,-0.0744624137878418,0.13975156843662262,-2.1535627841949463
1789021733199735600,8.092735595703125,0.06409330666065216,0.15938745439052582,-2.3350942134857178
1789021733209737700,8.10273779296875,0.21173788607120514,0.17545351386070251,-2.6495985984802246
1789021733219739600,8.11273974609375,0.33491167426109314,0.14651304483413696,-2.967224359512329
1789021733229741800,8.122741943359374,0.4508390724658966,0.0491500087082386,-3.1796138286590576
1789021733239743700,8.13274365234375,0.5263387560844421,-0.15545476973056793,-3.303196430206299
1789021733249745700,8.14274560546875,0.5457862615585327,-0.427102267742157,-3.348372220993042
1789021733259748600,8.15274853515625,0.49148401618003845,-0.6002979278564453,-3.376725435256958
1789021733269750800,8.162750732421875,0.4315788745880127,-0.5678233504295349,-3.3967103958129883
1789021733279752700,8.172752685546875,0.42020654678344727,-0.22246679663658142,-3.275642156600952
1789021733289754600,8.182754638671875,0.3997556269168854,0.7668786644935608,-2.57912540435791
1789021733299756800,8.1927568359375,0.1035085991024971,1.3521877527236938,-1.7036559581756592
1789021733309758700,8.2027587890625,-0.23109707236289978,0.8630741834640503,-1.3274309635162354
1789021733319761000,8.212760986328124,-0.11514086276292801,0.23874320089817047,-1.324570655822754
1789021733329762800,8.2227626953125,0.08144942671060562,-0.18800519406795502,-1.4191662073135376
1789021733339764700,8.2327646484375,0.1030164584517479,-0.3754582107067108,-1.1417423486709595
1789021733349767700,8.242767578125,0.10326626151800156,-0.48167839646339417,-0.7126830220222473
1789021733359769900,8.252769775390625,0.2360256165266037,-0.5623027682304382,-0.4315786063671112
1789021733369771800,8.262771728515625,0.5314913392066956,-0.6839107275009155,-0.404582142829895
1789021733379773700,8.272773681640626,0.500739574432373,-0.8284916281700134,-0.445557564496994
1789021733389776000,8.28277587890625,0.21852357685565948,-0.7826256155967712,-0.23788796365261078
1789021733399777500,8.292777587890624,0.11646685004234314,-0.8697496056556702,-0.08141528069972992
1789021733409779700,8.30277978515625,0.1908809095621109,-0.9698578119277954,0.10273218899965286
1789021733419781600,8.31278173828125,0.373330295085907,-0.9176647067070007,0.3416013717651367
1789021733429783800,8.32278369140625,0.44382256269454956,-0.7201558947563171,0.5326016545295715
1789021733439786800,8.332786865234375,0.35698702931404114,-0.5556669235229492,0.6963742971420288
1789021733449789000,8.342788818359375,0.21654362976551056,-0.5400831699371338,0.8490021824836731
1789021733459790600,8.35279052734375,0.10915832221508026,-0.6554426550865173,1.0098330974578857
1789021733469792500,8.36279248046875,0.05258985236287117,-0.7335571646690369,1.1557786464691162
1789021733479794700,8.372794677734374,0.020664580166339874,-0.733947217464447,1.2678955793380737
1789021733489796600,8.382796630859374,-0.05233532935380936,-0.6619361042976379,1.370627999305725
1789021733499798800,8.392798828125,-0.14854852855205536,-0.6098300218582153,1.4799920320510864
1789021733509800700,8.40280078125,-0.25393781065940857,-0.5864973068237305,1.6296433210372925
1789021733519803000,8.412802978515625,-0.27780044078826904,-0.5810351371765137,1.8229987621307373
1789021733529805600,8.4228056640625,-0.16853199899196625,-0.5844900608062744,2.028085470199585
1789021733539807700,8.432807861328126,0.07355596125125885,-0.7037995457649231,2.0615732669830322
1789021733549809700,8.4428095703125,0.2576722800731659,-0.7847543358802795,2.0276992321014404
1789021733559811800,8.452811767578124,0.3178865909576416,-0.6324247121810913,2.2274181842803955
1789021733569813800,8.462813720703124,0.36635878682136536,-0.44531866908073425,2.5902247428894043
1789021733579815700,8.472815673828125,0.5055497288703918,-0.47274112701416016,2.815523147583008
1789021733589817900,8.48281787109375,0.6417214274406433,-0.7807298302650452,2.693553924560547
1789021733599819800,8.49281982421875,0.7843554615974426,-1.0736230611801147,2.4197661876678467
1789021733609822700,8.50282275390625,1.023564100265503,-1.1585304737091064,2.1649506092071533
1789021733619824600,8.51282470703125,1.2347488403320312,-0.9856485724449158,2.0280985832214355
1789021733629826800,8.522826904296876,1.4023852348327637,-0.7181942462921143,1.9166574478149414
1789021733639828700,8.532828857421874,1.4740381240844727,-0.45039504766464233,1.7632516622543335
1789021733649831000,8.542830810546874,1.466545581817627,-0.13373000919818878,1.6018680334091187
1789021733659832800,8.552832763671875,1.3804466724395752,0.22917331755161285,1.4765387773513794
1789021733669834500,8.56283447265625,1.1792775392532349,0.5824434757232666,1.4067444801330566
1789021733679836700,8.572836669921875,0.9261623024940491,0.802497386932373,1.3302054405212402
1789021733689838600,8.582838623046875,0.5843817591667175,1.0254276990890503,1.152688980102539
1789021733699840800,8.5928408203125,0.1594051867723465,1.2259106636047363,0.8564208149909973
1789021733709843700,8.60284375,-0.2615596354007721,1.3220300674438477,0.5468733310699463
1789021733719846000,8.612845947265624,-0.5836436748504639,1.3105717897415161,0.21250604093074799
1789021733729847600,8.62284765625,-0.7508051991462708,1.2426286935806274,-0.11421535909175873
1789021733739849700,8.632849609375,-0.738506019115448,1.1240589618682861,-0.41750994324684143
1789021733749852400,8.642852294921875,-0.5640907883644104,0.9164389371871948,-0.6452453136444092
1789021733759854600,8.6528544921875,-0.2841245234012604,0.5740755796432495,-0.7402029633522034
1789021733769856500,8.6628564453125,-0.0025194876361638308,0.10939021408557892,-0.7133393883705139
1789021733779858700,8.672858642578126,0.2178747057914734,-0.3608328104019165,-0.5910865068435669
1789021733789860600,8.682860595703126,0.34021711349487305,-0.6799442172050476,-0.3879435360431671
1789021733799863600,8.692863525390624,0.2929193377494812,-0.6122249960899353,-0.11932206898927689
1789021733809865500,8.702865478515625,0.0709693506360054,-0.28700801730155945,0.1457737684249878
1789021733819867600,8.71286767578125,-0.14176425337791443,-0.05832364037632942,0.3558304011821747
1789021733829869600,8.72286962890625,-0.22809620201587677,-0.04045542702078819,0.4743839502334595
1789021733839871500,8.73287158203125,-0.28823229670524597,-0.19608856737613678,0.5704839825630188
1789021733849873700,8.742873779296875,-0.4248389005661011,-0.4881870150566101,0.7128035426139832
1789021733859875300,8.752875244140625,-0.5635664463043213,-0.8737035989761353,0.8434136509895325
1789021733869877500,8.76287744140625,-0.6457114219665527,-1.2557686567306519,0.8939857482910156
1789021733879879400,8.77287939453125,-0.8599967360496521,-1.4834134578704834,0.9139463305473328
1789021733889882600,8.782882568359375,-1.1286852359771729,-1.5550380945205688,0.8317068219184875
1789021733899884500,8.792884521484375,-1.3265916109085083,-1.4956471920013428,0.6656631231307983
1789021733909886700,8.80288671875,-1.3525161743164062,-1.3113327026367188,0.44377365708351135
1789021733919888400,8.812888427734375,-1.2928414344787598,-1.0192210674285889,0.23479346930980682
1789021733929890300,8.822890380859375,-1.1877552270889282,-0.670571506023407,0.10826242715120316
1789021733939892500,8.832892578125,-1.0037815570831299,-0.23373927175998688,0.1582183688879013
1789021733949894400,8.842894287109376,-0.6984440684318542,0.13932804763317108,0.2707606256008148
1789021733959896600,8.852896484375,-0.3990248143672943,0.27775874733924866,0.2684238851070404
1789021733969898500,8.8628984375,-0.2018963098526001,0.21873164176940918,0.19339412450790405
1789021733979901400,8.8729013671875,-0.16754984855651855,0.18422837555408478,0.19455565512180328
1789021733989903400,8.8829033203125,-0.11293480545282364,0.07284194231033325,0.14180083572864532
1789021733999905500,8.892905517578125,-0.1314024031162262,-0.060375504195690155,0.06202724203467369
1789021734009907500,8.902907470703125,-0.2641220986843109,-0.09451749920845032,0.011532377451658249
1789021734019909600,8.91290966796875,-0.41560623049736023,0.029591692611575127,0.019347837194800377
1789021734029911600,8.92291162109375,-0.515478789806366,0.2161455899477005,0.024040592834353447
1789021734039913500,8.93291357421875,-0.5426948666572571,0.2639676630496979,-0.09474186599254608
1789021734049915600,8.94291552734375,-0.5595449805259705,0.24789577722549438,-0.28640690445899963
1789021734059917600,8.95291748046875,-0.5135907530784607,0.22010767459869385,-0.5053936839103699
1789021734069920500,8.96292041015625,-0.4444337785243988,0.2393261045217514,-0.6492576003074646
1789021734079922400,8.97292236328125,-0.44844168424606323,0.27290409803390503,-0.7049137353897095
1789021734089924600,8.982924560546875,-0.6216204166412354,0.3359070420265198,-0.6467707753181458
1789021734099926500,8.992926513671875,-0.8195528388023376,0.4278406798839569,-0.5460957288742065
1789021734109928700,9.0029287109375,-0.8351954817771912,0.4558456838130951,-0.578345000743866
1789021734119930600,9.0129306640625,-0.7399222254753113,0.4334768056869507,-0.8207597732543945
1789021734129932300,9.022932373046874,-0.673067569732666,0.45959657430648804,-1.0684337615966797
1789021734139934500,9.0329345703125,-0.5889763832092285,0.49979501962661743,-1.2501121759414673
1789021734149936400,9.042936279296875,-0.4958597421646118,0.5307369828224182,-1.2594292163848877
1789021734159939600,9.052939697265625,-0.44632047414779663,0.5282790064811707,-1.1280077695846558
1789021734169941500,9.06294140625,-0.37463805079460144,0.516157865524292,-1.0450031757354736
1789021734179943700,9.072943603515625,-0.2922847270965576,0.49314746260643005,-1.1730782985687256
1789021734189945300,9.0829453125,-0.1909186840057373,0.41825324296951294,-1.4499942064285278
1789021734199947500,9.092947509765626,-0.052878592163324356,0.24426142871379852,-1.8280943632125854
1789021734209949400,9.102949462890624,0.019095465540885925,0.10050718486309052,-2.1024248600006104
1789021734219951600,9.11295166015625,0.11204347759485245,0.0422821082174778,-2.1012489795684814
1789021734229953500,9.12295361328125,0.24556559324264526,0.025115102529525757,-1.9756481647491455
1789021734239955500,9.13295556640625,0.4092541038990021,-0.02768145129084587,-1.9361506700515747
1789021734249957600,9.14295751953125,0.5421937704086304,-0.0750550925731659,-1.9793784618377686
1789021734259960300,9.152960205078125,0.6272437572479248,-0.01547311432659626,-1.9467322826385498
1789021734269962500,9.16296240234375,0.6525003910064697,0.15640278160572052,-1.7909293174743652
1789021734279964400,9.17296435546875,0.6918149590492249,0.518717885017395,-1.5541831254959106
1789021734289966600,9.182966552734374,0.6793734431266785,1.0466793775558472,-1.2651822566986084
1789021734299968500,9.192968505859374,0.5137892961502075,1.4241358041763306,-0.9635480046272278
1789021734309970700,9.202970703125,0.22062110900878906,1.2655526399612427,-0.7481036186218262
1789021734319972600,9.21297265625,0.03609283268451691,0.6958205103874207,-0.629152774810791
1789021734329974500,9.222974609375,0.0635705292224884,0.17581675946712494,-0.7956514954566956
1789021734339976400,9.2329765625,0.10204397141933441,0.015722164884209633,-1.0128624439239502
1789021734349979400,9.2429794921875,0.0008015062194317579,0.022348642349243164,-0.9185671806335449
1789021734359981600,9.252981689453126,-0.1579761952161789,-0.07428419589996338,-0.548741340637207
1789021734369983500,9.2629833984375,-0.11628653854131699,-0.1523057520389557,-0.15059107542037964
1789021734379985700,9.272985595703124,0.07265479117631912,-0.26151055097579956,0.11215206235647202
1789021734389987600,9.282987548828125,0.2340141236782074,-0.4419652819633484,0.11220026761293411
1789021734399989500,9.292989501953125,0.1618071049451828,-0.625970184803009,-0.026520997285842896
1789021734409991400,9.302991455078125,0.009666038677096367,-0.6807780861854553,-0.09381401538848877
1789021734419993300,9.312993408203125,0.05388352647423744,-0.851900577545166,-0.20480330288410187
1789021734429995500,9.32299560546875,0.17295026779174805,-1.0876768827438354,-0.28494447469711304
1789021734439998700,9.332998779296876,0.2594999372959137,-1.1364669799804688,-0.1435713917016983
1789021734450000600,9.343000732421874,0.32005009055137634,-1.0492359399795532,0.17137429118156433
1789021734460002300,9.353002197265624,0.350930392742157,-0.9106736779212952,0.5682763457298279
1789021734470004500,9.36300439453125,0.40309399366378784,-0.7755736112594604,0.9592115879058838
1789021734480006400,9.37300634765625,0.5180855393409729,-0.6943072080612183,1.247416377067566
1789021734490008600,9.383008544921875,0.5409239530563354,-0.6030535101890564,1.4752860069274902
1789021734500010500,9.393010498046875,0.43446940183639526,-0.4471401870250702,1.7652720212936401
1789021734510012700,9.4030126953125,0.2718623876571655,-0.3681308329105377,2.067667245864868
1789021734520014600,9.4130146484375,0.2565077543258667,-0.49578049778938293,2.1783947944641113
1789021734530017500,9.423017578125,0.47994643449783325,-0.7110028266906738,2.053499221801758
1789021734540019500,9.43301953125,0.7828686237335205,-0.8188663125038147,1.9026148319244385
1789021734550021400,9.443021484375,0.9064739346504211,-0.7755923271179199,1.9072662591934204
1789021734560023600,9.4530234375,0.9005140662193298,-0.5965338349342346,2.0796585083007812
1789021734570025500,9.463025390625,0.8991731405258179,-0.40491676330566406,2.268897294998169
1789021734580027600,9.473027587890625,0.9344657063484192,-0.2769530713558197,2.339845895767212
1789021734590029600,9.483029541015625,1.0643967390060425,-0.222444549202919,2.1973073482513428
1789021734600031500,9.493031494140626,1.2160395383834839,-0.179437518119812,1.9593911170959473
1789021734610033400,9.503033447265626,1.2854883670806885,-0.08938992023468018,1.7688100337982178
1789021734620036600,9.51303662109375,1.3112726211547852,0.02457652986049652,1.6495819091796875
1789021734630038500,9.52303857421875,1.36186945438385,0.10669989883899689,1.5469977855682373
1789021734640040400,9.53304052734375,1.3662968873977661,0.25796520709991455,1.4064240455627441
1789021734650042600,9.543042724609375,1.2509100437164307,0.4830175042152405,1.1718510389328003
1789021734660044500,9.55304443359375,1.0104641914367676,0.747854471206665,0.8771364092826843
1789021734670046500,9.56304638671875,0.5763497352600098,1.120581030845642,0.6414405107498169
1789021734680048400,9.57304833984375,0.031155064702033997,1.4702649116516113,0.4069758653640747
1789021734690050600,9.583050537109376,-0.4144700765609741,1.5971605777740479,0.16630282998085022
1789021734700052500,9.593052490234374,-0.5769612789154053,1.3653898239135742,-0.07714924216270447
1789021734710054400,9.603054443359374,-0.46682021021842957,0.9049924612045288,-0.3530050814151764
1789021734720057600,9.6130576171875,-0.2396005392074585,0.39965349435806274,-0.6248226761817932
1789021734730059500,9.6230595703125,-0.030867040157318115,-0.006939033046364784,-0.7729695439338684
1789021734740061400,9.6330615234375,0.042690735310316086,-0.24737966060638428,-0.7395281195640564
1789021734750063600,9.643063720703125,-0.047390952706336975,-0.3236320912837982,-0.5735689401626587
1789021734760065800,9.653065673828126,-0.21477462351322174,-0.2745521664619446,-0.37088268995285034
1789021734770067700,9.663067626953126,-0.3497217893600464,-0.15385529398918152,-0.17599895596504211
1789021734780070000,9.67306982421875,-0.44095632433891296,-0.0579448938369751,-0.013599740341305733
1789021734790071800,9.68307177734375,-0.5026114583015442,-0.08563724160194397,0.07916748523712158
1789021734800073700,9.69307373046875,-0.5083408355712891,-0.251801073551178,0.09747941792011261
1789021734810076700,9.70307666015625,-0.4674117863178253,-0.45007261633872986,0.09814015030860901
1789021734820078600,9.71307861328125,-0.4890282452106476,-0.5647960305213928,0.16579502820968628
1789021734830080800,9.723080810546875,-0.5883617401123047,-0.691135048866272,0.2936914563179016
1789021734840082700,9.733082763671876,-0.6627586483955383,-0.9371852278709412,0.4244770407676697
1789021734850084900,9.7430849609375,-0.5878828167915344,-1.2210808992385864,0.5152801871299744
1789021734860086800,9.753086669921874,-0.5443189144134521,-1.340201497077942,0.6317128539085388
1789021734870088700,9.763088623046874,-0.6656681895256042,-1.2373228073120117,0.7611525654792786
1789021734880090600,9.773090576171874,-0.873346745967865,-1.0964159965515137,0.7997110486030579
1789021734890092500,9.783092529296875,-1.0954562425613403,-1.0733418464660645,0.6676734089851379
1789021734900095700,9.793095703125,-1.1552271842956543,-1.1170238256454468,0.4132092595100403
1789021734910098000,9.803097900390625,-1.1957895755767822,-1.0784157514572144,0.20963430404663086
1789021734920099800,9.813099853515626,-1.2187968492507935,-0.8910226225852966,0.19354292750358582
1789021734930101800,9.823101806640626,-1.1092681884765625,-0.7198013663291931,0.2241666167974472
1789021734940103700,9.833103759765624,-0.8823110461235046,-0.6616374850273132,0.2120482474565506
1789021734950105600,9.843105712890624,-0.6919994354248047,-0.5764490962028503,0.2341809719800949
1789021734960107800,9.853107666015624,-0.5820460915565491,-0.40658438205718994,0.34077244997024536
1789021734970109700,9.863109619140625,-0.5002449750900269,-0.19079695641994476,0.43534237146377563
1789021734980112000,9.87311181640625,-0.39006665349006653,-0.07231519371271133,0.3319568634033203
1789021734990113800,9.88311376953125,-0.23897941410541534,-0.12155331671237946,0.01999763771891594
1789021735000116700,9.89311669921875,-0.09139364212751389,-0.1809425801038742,-0.29016056656837463
1789021735010118700,9.90311865234375,-0.0736420750617981,-0.06794651597738266,-0.35925814509391785
1789021735020120600,9.91312060546875,-0.19467853009700775,0.1504586637020111,-0.18425346910953522
1789021735030122800,9.923122802734374,-0.3547171950340271,0.32760652899742126,0.012704333290457726
1789021735040124700,9.933124755859374,-0.4509236514568329,0.423229455947876,0.07897398620843887
1789021735050126800,9.943126953125,-0.3745300769805908,0.34240463376045227,-0.11059834063053131
1789021735060128800,9.953128662109375,-0.26839593052864075,0.20546871423721313,-0.45507317781448364
1789021735070131000,9.963130859375,-0.26647260785102844,0.17118743062019348,-0.7452738285064697
1789021735080132600,9.973132568359375,-0.3954332172870636,0.22350692749023438,-0.8194741010665894
1789021735090135800,9.9831357421875,-0.5765385627746582,0.3237869143486023,-0.6708585023880005
1789021735100137700,9.9931376953125,-0.5959916710853577,0.3404315114021301,-0.6546360850334167
1789021735110139600,10.0031396484375,-0.5271918177604675,0.23771949112415314,-0.841636061668396
1789021735120141800,10.013141845703124,-0.5206819772720337,0.1834041327238083,-1.082633137702942
1789021735130143700,10.023143798828125,-0.5537493824958801,0.1721339076757431,-1.3722178936004639
1789021735140145700,10.033145751953125,-0.586549699306488,0.17754456400871277,-1.667864203453064
1789021735150147600,10.043147705078125,-0.5383877754211426,0.08223029226064682,-1.8715951442718506
1789021735160149800,10.053149658203125,-0.46233734488487244,-0.08490747213363647,-1.8912945985794067
1789021735170151700,10.063151611328125,-0.4210447669029236,-0.15748153626918793,-1.8160333633422852
1789021735180153600,10.073153564453126,-0.3288268446922302,-0.10299943387508392,-1.820752739906311
1789021735190156800,10.08315673828125,-0.15804336965084076,-0.028165409341454506,-1.9441215991973877
1789021735200158700,10.09315869140625,0.12391121685504913,0.0179563257843256,-2.081982135772705
1789021735210160600,10.10316064453125,0.4770096242427826,0.02783692069351673,-2.1869406700134277
1789021735220162600,10.11316259765625,0.754597008228302,0.09150286018848419,-2.14509654045105
1789021735230164700,10.123164794921875,0.9043809175491333,0.25383666157722473,-1.9182583093643188
1789021735240166700,10.133166748046875,0.9207851886749268,0.606326699256897,-1.4461567401885986
1789021735250168800,10.1431689453125,0.8330127596855164,1.2084320783615112,-0.7579965591430664
1789021735260170800,10.153170654296876,0.8327891230583191,1.176405668258667,-0.5757816433906555
1789021735270173000,10.1631728515625,0.6997359991073608,0.7763189673423767,-0.6442307233810425
1789021735280175600,10.173175537109374,0.351664662361145,0.5627451539039612,-0.4477654695510864
1789021735290177800,10.183177734375,0.07673190534114838,0.5581037998199463,-0.0027001164853572845
1789021735300179700,10.1931796875,0.08043079078197479,0.4869031310081482,0.24311520159244537
1789021735310181600,10.203181640625,0.22097378969192505,0.050696808844804764,0.02315487340092659
1789021735320183800,10.213183837890625,0.343761682510376,-0.3604365885257721,-0.2856219410896301
1789021735330185700,10.223185791015625,0.3597651422023773,-0.3867312967777252,-0.36224400997161865
1789021735340188000,10.23318798828125,0.34370237588882446,-0.3230847120285034,-0.23263055086135864
1789021735350189600,10.243189453125,0.37170419096946716,-0.2957550585269928,-0.028586601838469505
1789021735360191700,10.253191650390624,0.3790977895259857,-0.38582906126976013,0.13734321296215057
1789021735370193700,10.263193603515624,0.361177921295166,-0.5221964716911316,0.2478468269109726
1789021735380196900,10.27319677734375,0.3682985007762909,-0.6238213777542114,0.3812670111656189
1789021735390198800,10.28319873046875,0.3729023039340973,-0.6422187685966492,0.5590899586677551
1789021735400200700,10.29320068359375,0.3346918523311615,-0.5625131726264954,0.764347493648529
1789021735410202600,10.30320263671875,0.276082307100296,-0.4298720061779022,0.9934187531471252
1789021735420204500,10.31320458984375,0.24709118902683258,-0.2926850914955139,1.2491505146026611
1789021735430206700,10.323206787109376,0.27929040789604187,-0.1703338921070099,1.5360296964645386
1789021735440208600,10.333208740234374,0.3453390598297119,-0.12427552789449692,1.7920669317245483
1789021735450210800,10.3432109375,0.3819175958633423,-0.12660686671733856,1.977713942527771
1789021735460212700,10.353212646484375,0.48139330744743347,-0.25791552662849426,2.038808584213257
1789021735470215700,10.363215576171875,0.6591175198554993,-0.4165000915527344,2.074420928955078
1789021735480217600,10.373217529296875,0.87520831823349,-0.5233088731765747,2.1371676921844482
1789021735490219800,10.3832197265625,1.0475279092788696,-0.47869765758514404,2.2390809059143066
1789021735500221700,10.3932216796875,1.1998090744018555,-0.36994877457618713,2.254768133163452
1789021735510223600,10.4032236328125,1.3579760789871216,-0.23019510507583618,2.1508328914642334
1789021735520225800,10.413225830078124,1.4803744554519653,-0.07306576520204544,2.0091395378112793
1789021735530227700,10.423227783203124,1.5410693883895874,0.14225400984287262,1.9151513576507568
1789021735540230000,10.43322998046875,1.5048542022705078,0.41987234354019165,1.8851888179779053
1789021735550231800,10.443231689453125,1.3990992307662964,0.7001383304595947,1.7978174686431885
1789021735560233700,10.453233642578125,1.3314038515090942,1.0028963088989258,1.647091031074524
1789021735570236700,10.463236572265625,1.1902267932891846,1.3307594060897827,1.4646048545837402
1789021735580238800,10.47323876953125,0.9248915314674377,1.647320032119751,1.1961839199066162
1789021735590240800,10.48324072265625,0.5068055987358093,1.99858558177948,0.8504947423934937
1789021735600242700,10.49324267578125,-0.0037697074003517628,2.242654323577881,0.44085943698883057
1789021735610244900,10.503244873046874,-0.42561763525009155,2.2662296295166016,0.003299156203866005
1789021735620246500,10.51324658203125,-0.606209933757782,1.994268536567688,-0.3429338335990906
1789021735630248700,10.523248779296875,-0.49559900164604187,1.5044654607772827,-0.5249691009521484
1789021735640250600,10.533250732421875,-0.25939813256263733,0.8914804458618164,-0.5765511989593506
1789021735650252800,10.543252685546875,-0.09614158421754837,0.252789169549942,-0.4893297255039215
1789021735660255700,10.553255859375,-0.07982936501502991,-0.32321882247924805,-0.2847517430782318
1789021735670258000,10.5632578125,-0.13192959129810333,-0.715124785900116,-0.07414497435092926
1789021735680259600,10.573259521484376,-0.18403497338294983,-0.789692223072052,0.0735296756029129
1789021735690261500,10.583261474609374,-0.22283217310905457,-0.5863832831382751,0.09484081715345383
1789021735700263700,10.593263671875,-0.22983606159687042,-0.27402257919311523,0.039166226983070374
1789021735710265600,10.603265625,-0.26546144485473633,0.016498731449246407,-0.022681964561343193
1789021735720267800,10.613267822265625,-0.3514150083065033,0.20944684743881226,-0.07017242908477783
1789021735730269700,10.623269775390625,-0.46631523966789246,0.29432761669158936,-0.08344508707523346
1789021735740271900,10.63327197265625,-0.5991478562355042,0.28570079803466797,-0.048865824937820435
1789021735750273500,10.6432734375,-0.6985641717910767,0.15814681351184845,0.025086432695388794
1789021735760276500,10.6532763671875,-0.7188336849212646,-0.03839387372136116,0.14230000972747803
1789021735770278400,10.6632783203125,-0.6984357237815857,-0.24198640882968903,0.3224833607673645
1789021735780280300,10.6732802734375,-0.7107069492340088,-0.4442622661590576,0.5470592379570007
1789021735790282500,10.683282470703125,-0.7731125354766846,-0.5850233435630798,0.7651750445365906
1789021735800284400,10.693284423828125,-0.8266502022743225,-0.5728908777236938,0.9272294640541077
1789021735810286600,10.70328662109375,-0.8393292427062988,-0.3972117602825165,0.9942675828933716
1789021735820288500,10.71328857421875,-0.8521739840507507,-0.22594457864761353,0.9278545379638672
1789021735830290400,10.72329052734375,-0.887040376663208,-0.1947144865989685,0.7319343090057373
1789021735840292400,10.733292236328126,-0.9424830079078674,-0.2675268054008484,0.504021406173706
1789021735850294300,10.743294189453126,-0.9463139176368713,-0.38605424761772156,0.2983052730560303
1789021735860297500,10.75329736328125,-0.9229401350021362,-0.42943868041038513,0.2410583347082138
1789021735870299600,10.763299560546875,-0.9013703465461731,-0.3544784188270569,0.33465245366096497
1789021735880301600,10.773301513671875,-0.8428967595100403,-0.2631259858608246,0.36410605907440186
1789021735890303500,10.783303466796875,-0.7285656332969666,-0.2665145993232727,0.20607832074165344
1789021735900305400,10.793305419921875,-0.6661127209663391,-0.2219783365726471,0.011704403907060623
1789021735910307300,10.803307373046875,-0.7147414684295654,-0.025455154478549957,-0.027896001935005188
1789021735920309500,10.8133095703125,-0.7560381889343262,0.2518523633480072,0.06174927577376366
1789021735930311400,10.8233115234375,-0.7465829253196716,0.4671790599822998,0.13287991285324097
1789021735940313600,10.833313720703124,-0.6967498660087585,0.4796225130558014,0.07296804338693619
1789021735950316500,10.843316650390625,-0.666239321231842,0.41194865107536316,0.02043212577700615
1789021735960318500,10.853318359375,-0.688418447971344,0.38519924879074097,0.03153376653790474
1789021735970320400,10.8633203125,-0.7313339114189148,0.34760579466819763,0.0775020569562912
1789021735980322300,10.873322265625,-0.7722387313842773,0.307119756937027,0.10329488664865494
1789021735990324500,10.883324462890625,-0.8445755243301392,0.39287248253822327,0.08641070872545242
1789021736000326400,10.893326416015626,-0.8298991322517395,0.49255409836769104,-0.02635374292731285
1789021736010328600,10.90332861328125,-0.6897987127304077,0.5120135545730591,-0.21468955278396606
1789021736020330500,10.91333056640625,-0.5433732271194458,0.522681474685669,-0.35840147733688354
1789021736030332700,10.923332763671874,-0.4363234043121338,0.5485846996307373,-0.4129805564880371
1789021736040334300,10.933334228515625,-0.38989099860191345,0.6058962941169739,-0.5006437301635742
1789021736050337500,10.943337646484375,-0.3763251304626465,0.5811917781829834,-0.701498806476593
1789021736060339500,10.95333935546875,-0.3498287498950958,0.43879827857017517,-1.0241621732711792
1789021736070341600,10.963341552734375,-0.18371646106243134,0.13775479793548584,-1.5256150960922241
1789021736080343600,10.973343505859376,0.041444748640060425,-0.24611616134643555,-1.9969984292984009
1789021736090345500,10.983345458984376,0.20415642857551575,-0.5350371599197388,-2.264922857284546
1789021736100347400,10.993347412109374,0.2934251129627228,-0.7612362504005432,-2.3796463012695312
1789021736110349300,11.003349365234374,0.2786456346511841,-0.818187415599823,-2.3577418327331543
1789021736120351500,11.0133515625,0.19294215738773346,-0.7036440372467041,-2.290447235107422
1789021736130353400,11.023353515625,0.1925370991230011,-0.4772569239139557,-2.2302067279815674
1789021736140355600,11.03335546875,0.34011518955230713,-0.277332603931427,-2.2369234561920166
1789021736150358500,11.043358642578125,0.4844641089439392,0.06601674854755402,-2.0869686603546143
1789021736160360400,11.0533603515625,0.46730610728263855,0.717556893825531,-1.556639313697815
1789021736170362400,11.0633623046875,0.3837563395500183,0.9560695886611938,-0.9361821413040161
1789021736180364300,11.0733642578125,0.27066782116889954,0.5253915786743164,-0.6701610088348389
1789021736190366500,11.083366455078124,0.27183428406715393,0.18133381009101868,-0.7556926608085632
1789021736200368400,11.093368408203125,0.40000033378601074,0.020734086632728577,-1.1317881345748901
1789021736210370600,11.10337060546875,0.4476325511932373,-0.1911289095878601,-1.4552104473114014
1789021736220372500,11.11337255859375,0.37514978647232056,-0.2660123407840729,-1.46160089969635
1789021736230374700,11.123374755859375,0.3691214621067047,-0.4018220901489258,-1.1978943347930908
1789021736240376600,11.13337646484375,0.43654948472976685,-0.5352426171302795,-0.8150290250778198
1789021736250379500,11.143379638671876,0.4933467209339142,-0.6513047814369202,-0.5631499290466309
1789021736260381400,11.15338134765625,0.40533286333084106,-0.7055703997612,-0.4085923731327057
1789021736270383400,11.16338330078125,0.3391391932964325,-0.7261214852333069,-0.13993054628372192
1789021736280385500,11.173385498046875,0.3424573838710785,-0.7007954716682434,0.17065903544425964
1789021736290387500,11.183387451171875,0.39146485924720764,-0.6043062210083008,0.45121586322784424
1789021736300389600,11.1933896484375,0.4397628903388977,-0.4238894581794739,0.693992555141449
1789021736310391600,11.2033916015625,0.46035897731781006,-0.2092812955379486,0.9407802224159241
1789021736320393500,11.2133935546875,0.43681880831718445,-0.002852199599146843,1.2247400283813477
1789021736330395400,11.2233955078125,0.3551119565963745,0.14500436186790466,1.542406678199768
1789021736340397300,11.233397216796876,0.25024572014808655,0.22566477954387665,1.8473186492919922
1789021736350400500,11.243400390625,0.20562686026096344,0.20312511920928955,2.0634334087371826
1789021736360402700,11.253402587890625,0.30734923481941223,0.025534534826874733,2.186500310897827
1789021736370404600,11.263404541015625,0.4944232404232025,-0.17569205164909363,2.277655601501465
1789021736380406300,11.27340625,0.6940510869026184,-0.29557451605796814,2.378065347671509
1789021736390408400,11.283408447265625,0.8971035480499268,-0.30423110723495483,2.4454219341278076
1789021736400410400,11.293410400390625,1.069510579109192,-0.233711376786232,2.4455134868621826
1789021736410412500,11.30341259765625,1.181574821472168,-0.12263838201761246,2.364471912384033
1789021736420414500,11.31341455078125,1.3289707899093628,-0.06692507863044739,2.153270721435547
1789021736430416600,11.323416748046874,1.496793270111084,-0.08223292976617813,1.8568525314331055
1789021736440418600,11.33341845703125,1.6431260108947754,-0.05656563118100166,1.580790638923645
1789021736450421500,11.34342138671875,1.6763458251953125,0.06923837214708328,1.4060441255569458
1789021736460423400,11.35342333984375,1.572192907333374,0.2332431823015213,1.3267110586166382
1789021736470425300,11.36342529296875,1.3613970279693604,0.3705565333366394,1.225475788116455
1789021736480427500,11.373427490234375,1.1459656953811646,0.4044703543186188,1.0414878129959106
1789021736490429400,11.383429443359375,0.9041687250137329,0.37197473645210266,0.7381742000579834
1789021736500431600,11.393431640625,0.5601403713226318,0.2557299733161926,0.35914522409439087
1789021736510433500,11.40343359375,0.18807516992092133,0.013991117477416992,-0.009809086099267006
1789021736520435500,11.413435546875,-0.18200230598449707,-0.27799591422080994,-0.2635008692741394
1789021736530437400,11.423437255859374,-0.47977539896965027,-0.4219650626182556,-0.41206371784210205
1789021736540439300,11.433439208984375,-0.6488562822341919,-0.2769888937473297,-0.5649885535240173
1789021736550442500,11.4434423828125,-0.6851930022239685,0.05664819851517677,-0.759445071220398
1789021736560444400,11.4534443359375,-0.6303873062133789,0.3459617495536804,-0.9603779315948486
1789021736570446600,11.463446533203125,-0.5946436524391174,0.432257741689682,-1.092961311340332
1789021736580448500,11.473448486328126,-0.6473420858383179,0.3144073188304901,-1.127005696296692
1789021736590450400,11.483450439453126,-0.7179304957389832,0.10333102196455002,-1.0728505849838257
1789021736600452400,11.493452392578124,-0.7602765560150146,-0.08486943691968918,-0.9317289590835571
1789021736610454500,11.50345458984375,-0.6868164539337158,-0.19574162364006042,-0.7176851034164429
1789021736620456400,11.51345654296875,-0.5623136758804321,-0.21184921264648438,-0.502760112285614
1789021736630458400,11.523458251953125,-0.47518011927604675,-0.17197956144809723,-0.3280910551548004
1789021736640460500,11.53346044921875,-0.46313366293907166,-0.20721733570098877,-0.11747211217880249
1789021736650463500,11.54346337890625,-0.4891332983970642,-0.3089871108531952,0.1302817463874817
1789021736660465400,11.55346533203125,-0.5067586302757263,-0.3897169828414917,0.3709009885787964
1789021736670467300,11.56346728515625,-0.5293025374412537,-0.40111690759658813,0.5633711218833923
1789021736680469500,11.573469482421874,-0.5787254571914673,-0.36710596084594727,0.7141579389572144
1789021736690471400,11.583471435546874,-0.5931568741798401,-0.3155255913734436,0.8084535598754883
1789021736700473600,11.5934736328125,-0.6187421083450317,-0.28753358125686646,0.8169815540313721
1789021736710475500,11.6034755859375,-0.688953161239624,-0.340582937002182,0.7338685393333435
1789021736720477700,11.613477783203125,-0.8239671587944031,-0.4658312201499939,0.6357875466346741
1789021736730479400,11.623479248046875,-0.9104506373405457,-0.5742617845535278,0.5753921270370483
1789021736740481300,11.633481201171875,-0.97715163230896,-0.533449649810791,0.5485011339187622
1789021736750483000,11.64348291015625,-1.1380717754364014,-0.3213725984096527,0.5990370512008667
1789021736760486100,11.653486083984374,-1.2892756462097168,0.01783926598727703,0.7439805269241333
1789021736770488000,11.663488037109374,-1.239778757095337,0.32212939858436584,0.8539421558380127
1789021736780490000,11.673489990234375,-0.9438784718513489,0.34392157196998596,0.7047425508499146
1789021736790492200,11.6834921875,-0.6579028964042664,0.237370103597641,0.45173367857933044
1789021736800494000,11.693494140625,-0.47798070311546326,0.16969798505306244,0.3463267683982849
1789021736810496000,11.70349609375,-0.31951701641082764,0.17766615748405457,0.2860511541366577
1789021736820498000,11.713497802734375,-0.2846408784389496,0.21070925891399384,0.19594836235046387
1789021736830500000,11.7235,-0.39505821466445923,0.2191256433725357,0.1743011325597763
1789021736840502000,11.733501953125,-0.4575510621070862,0.234645277261734,0.14670048654079437
1789021736850504000,11.74350390625,-0.4064284861087799,0.17067642509937286,-0.06350865960121155
1789021736860507100,11.753507080078125,-0.32944080233573914,0.06426127254962921,-0.40209144353866577
1789021736870508800,11.7635087890625,-0.3577515184879303,0.011720837093889713,-0.6307627558708191
1789021736880511000,11.773510986328125,-0.43689408898353577,0.037713099271059036,-0.6739227771759033
1789021736890513000,11.783512939453125,-0.4885522425174713,0.07810419797897339,-0.6961244940757751
1789021736900515000,11.79351513671875,-0.5619065761566162,0.11022314429283142,-0.8084234595298767
1789021736910517000,11.80351708984375,-0.6559113264083862,0.17940780520439148,-1.0057522058486938
1789021736920519200,11.813519287109376,-0.6581788063049316,0.16189737617969513,-1.288854956626892
1789021736930521000,11.82352099609375,-0.6401777267456055,0.14043469727039337,-1.5771775245666504
1789021736940523000,11.83352294921875,-0.6810832619667053,0.190651074051857,-1.720360517501831
1789021736950525000,11.84352490234375,-0.706275463104248,0.19298586249351501,-1.690348744392395
1789021736960526800,11.85352685546875,-0.5029835104942322,0.009387209080159664,-1.7682156562805176
1789021736970530000,11.863530029296875,-0.2795983552932739,-0.26304030418395996,-2.0742990970611572
1789021736980532000,11.873531982421875,-0.21562056243419647,-0.3413889706134796,-2.2211766242980957
1789021736990534100,11.8835341796875,-0.18416623771190643,-0.3140702545642853,-2.0037569999694824
1789021737000536000,11.8935361328125,-0.1048646867275238,-0.24375267326831818,-1.6062414646148682
1789021737010538000,11.9035380859375,0.01468807552009821,-0.002790129743516445,-1.2806050777435303
1789021737020540000,11.913539794921874,0.2363320291042328,0.22140423953533173,-1.2114121913909912
1789021737030541800,11.923541748046874,0.6171403527259827,0.12013301253318787,-1.531808853149414
1789021737040544000,11.9335439453125,0.9102178812026978,-0.2127808928489685,-1.9693117141723633
1789021737050546000,11.9435458984375,0.9039075374603271,-0.34205445647239685,-1.9764225482940674
1789021737060548000,11.953548095703125,0.6861267685890198,-0.25282543897628784,-1.4292938709259033
1789021737070551000,11.963551025390625,0.41973552107810974,-0.07867841422557831,-0.670856237411499
1789021737080553000,11.973552978515626,0.32836368680000305,-0.1211085170507431,-0.4066307842731476
1789021737090555000,11.983554931640626,0.3286747634410858,-0.34999629855155945,-0.3477288484573364
1789021737100557000,11.99355712890625,0.42991676926612854,-0.5210387110710144,-0.2516789436340332
1789021737110559000,12.00355908203125,0.5573884844779968,-0.7070197463035583,-0.2291182279586792
1789021737120561200,12.01356103515625,0.48731154203414917,-0.7735717296600342,-0.13667219877243042
1789021737130563000,12.02356298828125,0.26619860529899597,-0.7247831225395203,0.10860227048397064
1789021737140565000,12.03356494140625,0.10985696315765381,-0.6285154223442078,0.4213469922542572
1789021737150567200,12.043567138671875,0.0977044329047203,-0.5330794453620911,0.7126853466033936
1789021737160568800,12.05356884765625,0.19356821477413177,-0.42813923954963684,0.9483200311660767
1789021737170572000,12.063572021484376,0.3446655869483948,-0.3206031918525696,1.1694936752319336
1789021737180574000,12.073573974609374,0.49001580476760864,-0.20698340237140656,1.383033037185669
1789021737190576000,12.083576171875,0.5449045896530151,-0.014809438027441502,1.6153395175933838
1789021737200578000,12.093578125,0.5725106000900269,0.22707512974739075,1.8519446849822998
1789021737210580200,12.103580322265625,0.6158514022827148,0.4164210855960846,2.056506395339966
1789021737220582000,12.113581787109375,0.7366332411766052,0.4553321897983551,2.13960599899292
1789021737230583800,12.123583740234375,0.861123263835907,0.5192818641662598,2.229321002960205
1789021737240586000,12.1335859375,0.963826060295105,0.6844911575317383,2.397603988647461
1789021737250588000,12.143587890625,1.0935313701629639,0.8430296778678894,2.5746030807495117
1789021737260590000,12.153590087890626,1.265921711921692,0.8778984546661377,2.633920192718506
1789021737270592000,12.163592041015624,1.4249082803726196,0.784377932548523,2.5668997764587402
1789021737280595000,12.173594970703125,1.5484459400177002,0.7050504684448242,2.353395700454712
1789021737290596900,12.183596923828125,1.685110330581665,0.6548823714256287,1.9883145093917847
1789021737300599000,12.19359912109375,1.8174703121185303,0.6017183065414429,1.611687183380127
1789021737310601000,12.20360107421875,1.8975989818572998,0.6574401259422302,1.3406010866165161
1789021737320603000,12.213602783203125,1.8391779661178589,0.84344881772995,1.1599575281143188
1789021737330605000,12.22360498046875,1.6518086194992065,0.9896249771118164,0.9456761479377747
1789021737340607000,12.23360693359375,1.3784465789794922,1.0181976556777954,0.676120936870575
1789021737350609200,12.243609130859374,1.0532530546188354,0.9137381315231323,0.33358678221702576
1789021737360611000,12.253611083984374,0.6915906071662903,0.7704760432243347,-0.012002794072031975
1789021737370613000,12.263613037109375,0.2808380126953125,0.5866918563842773,-0.3431956470012665
1789021737380615000,12.273614990234375,-0.1442280113697052,0.30427923798561096,-0.635530412197113
1789021737390618000,12.2836181640625,-0.4758794605731964,0.02416316233575344,-0.8777845501899719
1789021737400620000,12.2936201171875,-0.6671846508979797,-0.036544691771268845,-1.0764226913452148
1789021737410622200,12.303622314453126,-0.703931450843811,0.13469602167606354,-1.2345186471939087
1789021737420624100,12.3136240234375,-0.6440144777297974,0.40761905908584595,-1.3470126390457153
1789021737430625800,12.323625732421876,-0.5421608090400696,0.6121767163276672,-1.400170087814331
1789021737440628000,12.3336279296875,-0.4685661196708679,0.7250710129737854,-1.3627209663391113
1789021737450630000,12.3436298828125,-0.4459742605686188,0.7621973752975464,-1.2325900793075562
1789021737460632000,12.353632080078125,-0.3552173972129822,0.6944198608398438,-1.050401210784912
1789021737470634000,12.363634033203125,-0.2278599888086319,0.5557839870452881,-0.8707596063613892
1789021737480636200,12.37363623046875,-0.16101768612861633,0.4424179792404175,-0.6856096982955933
1789021737490638000,12.38363818359375,-0.1599830538034439,0.2845846712589264,-0.43574342131614685
1789021737500641000,12.39364111328125,-0.1512790471315384,0.04142262414097786,-0.12663137912750244
1789021737510643000,12.403642822265626,-0.1210620179772377,-0.1912979781627655,0.1949826031923294
1789021737520644900,12.413644775390624,-0.11732601374387741,-0.3231337368488312,0.4962497353553772
1789021737530647000,12.42364697265625,-0.18366242945194244,-0.2978547215461731,0.7198804616928101
1789021737540649000,12.43364892578125,-0.33508583903312683,-0.19854409992694855,0.849334716796875
1789021737550651100,12.443651123046875,-0.5099947452545166,-0.14408911764621735,0.9302705526351929
1789021737560653000,12.453653076171875,-0.6023085117340088,-0.17870868742465973,0.967797040939331
1789021737570655200,12.4636552734375,-0.6708734631538391,-0.25172483921051025,0.9782544374465942
1789021737580657000,12.473656982421875,-0.9100212454795837,-0.39231255650520325,0.9846312403678894
1789021737590658800,12.483658935546876,-1.3810487985610962,-0.5774616599082947,1.1446572542190552
1789021737600661000,12.493660888671876,-1.7340426445007324,-0.6279569864273071,1.4410041570663452
