time,seconds_elapsed,z,y,x
1789031091622011100,0.04001123046875,-0.09641389548778534,0.38691189885139465,-0.5077852606773376
1789031091632014300,0.050014404296875,-0.14968644082546234,0.42942872643470764,-0.49006906151771545
1789031091642018300,0.060018310546875,-0.19119523465633392,0.48093152046203613,-0.4928877353668213
1789031091652022000,0.07002197265625,-0.2278459221124649,0.504032552242279,-0.48783090710639954
1789031091662025200,0.080025146484375,-0.26197299361228943,0.47625604271888733,-0.4591265320777893
1789031091672029200,0.090029296875,-0.3033638298511505,0.3938501179218292,-0.4193035066127777
1789031091682032400,0.100032470703125,-0.33289670944213867,0.23486076295375824,-0.3332644999027252
1789031091692036000,0.1100361328125,-0.33865633606910706,-0.04140198975801468,-0.17715346813201904
1789031091702040300,0.120040283203125,-0.3233657479286194,-0.4877524971961975,0.08697861433029175
1789031091712043300,0.130043212890625,-0.3329451382160187,-1.0915590524673462,0.46531152725219727
1789031091722047200,0.140047119140625,-0.4353974163532257,-1.5739821195602417,0.7985084652900696
1789031091732051200,0.15005126953125,-0.6196900010108948,-1.758909821510315,0.8995466828346252
1789031091742054100,0.16005419921875,-0.8538572192192078,-1.6999987363815308,0.7676634192466736
1789031091752058400,0.170058349609375,-1.1372344493865967,-1.4531047344207764,0.4285280108451843
1789031091762061000,0.18006103515625,-1.439540982246399,-1.092552661895752,0.006689144764095545
1789031091772065300,0.190065185546875,-1.6485565900802612,-0.7191457748413086,-0.3817688524723053
1789031091782069500,0.200069580078125,-1.702678918838501,-0.4635846018791199,-0.6328293085098267
1789031091792072400,0.210072509765625,-1.6556117534637451,-0.532837450504303,-0.675468921661377
1789031091802076400,0.220076416015625,-1.496625304222107,-0.49974939227104187,-0.8411220908164978
1789031091812080400,0.230080322265625,-1.2516523599624634,-0.3408782482147217,-1.1229205131530762
1789031091822083600,0.24008349609375,-1.1110447645187378,-0.3543422520160675,-1.300785779953003
1789031091832087600,0.250087646484375,-1.0186461210250854,-0.36669424176216125,-1.4598979949951172
1789031091842091300,0.26009130859375,-0.88179612159729,-0.34387075901031494,-1.5899394750595093
1789031091852094500,0.270094482421875,-0.6671120524406433,-0.26201796531677246,-1.7668410539627075
1789031091862098400,0.280098388671875,-0.45487338304519653,-0.1511642336845398,-1.896424412727356
1789031091872101600,0.2901015625,-0.26648613810539246,0.006387852597981691,-1.997613787651062
1789031091882105300,0.300105224609375,-0.11476557701826096,0.13360922038555145,-2.0847411155700684
1789031091892109300,0.310109375,-0.05896329507231712,0.2500183880329132,-2.174492835998535
1789031091902112500,0.320112548828125,-0.14539110660552979,0.45424985885620117,-2.348877191543579
1789031091912116500,0.330116455078125,-0.20072892308235168,0.5662539005279541,-2.503232479095459
1789031091922120400,0.340120361328125,-0.1292078197002411,0.4816383421421051,-2.5587449073791504
1789031091932123400,0.350123291015625,-0.06466370820999146,0.17963799834251404,-2.42256236076355
1789031091942127400,0.36012744140625,-0.11216439306735992,-0.2790558934211731,-2.072996139526367
1789031091952131600,0.370131591796875,-0.20171263813972473,-0.3824525773525238,-1.7041443586349487
1789031091962134300,0.38013427734375,-0.22664251923561096,0.005842882674187422,-1.4796371459960938
1789031091972138500,0.390138427734375,-0.2458665519952774,0.3503914773464203,-1.334149718284607
1789031091982142500,0.400142578125,-0.35798078775405884,0.26209908723831177,-1.2523529529571533
1789031091992145700,0.410145751953125,-0.4372599124908447,-0.022025322541594505,-1.1987711191177368
1789031092002149400,0.4201494140625,-0.46709874272346497,-0.14811982214450836,-1.1142369508743286
1789031092012153300,0.4301533203125,-0.4342891275882721,-0.1135844811797142,-0.999925434589386
1789031092022156500,0.440156494140625,-0.2984585464000702,-0.05982455983757973,-0.8857356905937195
1789031092032160500,0.450160400390625,-0.13208475708961487,-0.09255906939506531,-0.7528005838394165
1789031092042164200,0.460164306640625,-0.01036729384213686,-0.2138744294643402,-0.6121741533279419
1789031092052167400,0.47016748046875,0.07259523123502731,-0.37375569343566895,-0.4827048182487488
1789031092062171400,0.48017138671875,0.12291105091571808,-0.4553992450237274,-0.37330859899520874
1789031092072175600,0.490175537109375,0.1361999660730362,-0.4386618137359619,-0.30902281403541565
1789031092082178300,0.50017822265625,0.14755012094974518,-0.35752126574516296,-0.27268025279045105
1789031092092182300,0.510182373046875,0.20320218801498413,-0.2446034997701645,-0.24887292087078094
1789031092102186500,0.5201865234375,0.2344147115945816,-0.1517806202173233,-0.1966930627822876
1789031092112189400,0.530189453125,0.21929088234901428,-0.10201732814311981,-0.1320405751466751
1789031092122193400,0.540193359375,0.15015073120594025,-0.11151259392499924,-0.06575474143028259
1789031092132197400,0.550197265625,0.05162201076745987,-0.1672120839357376,-0.01724792830646038
1789031092142200600,0.56020068359375,0.030632536858320236,-0.20654049515724182,-0.010835333727300167
1789031092152204500,0.57020458984375,0.13235250115394592,-0.21039675176143646,-0.028980515897274017
1789031092162208300,0.580208251953125,0.2524499297142029,-0.2058260291814804,-0.020854637026786804
1789031092172211500,0.59021142578125,0.3252128064632416,-0.2386375069618225,0.020779628306627274
1789031092182215400,0.60021533203125,0.35828208923339844,-0.28905540704727173,0.05774881690740585
1789031092192219400,0.610219482421875,0.3953319787979126,-0.32159578800201416,0.058544304221868515
1789031092202222300,0.620222412109375,0.43552252650260925,-0.3252571225166321,0.02629687264561653
1789031092212226300,0.630226318359375,0.42188820242881775,-0.3493126630783081,-0.014250287786126137
1789031092222230500,0.64023046875,0.3765551447868347,-0.37615102529525757,-0.0887836143374443
1789031092232233500,0.6502333984375,0.44006139039993286,-0.3858473300933838,-0.2735763490200043
1789031092242237400,0.660237548828125,0.5574308633804321,-0.37501227855682373,-0.43889689445495605
1789031092252241400,0.670241455078125,0.5568524599075317,-0.3437510132789612,-0.464300274848938
1789031092262244400,0.680244384765625,0.5219874382019043,-0.2530185580253601,-0.5123782753944397
1789031092272248600,0.69024853515625,0.5144816040992737,-0.10510391741991043,-0.5706220865249634
1789031092282252500,0.70025244140625,0.4377271831035614,0.03766458109021187,-0.6622121930122375
1789031092292255500,0.71025537109375,0.24462589621543884,0.12326043844223022,-0.9258550405502319
1789031092302259500,0.720259521484375,0.053432293236255646,0.11697611212730408,-1.3243619203567505
1789031092312263400,0.730263427734375,0.08236701041460037,0.040827278047800064,-1.7322531938552856
1789031092322266400,0.740266357421875,0.2601929306983948,-0.04886665567755699,-1.935141921043396
1789031092332270300,0.750270263671875,0.40296393632888794,-0.18091896176338196,-1.9284824132919312
1789031092342274300,0.7602744140625,0.48461323976516724,-0.2637072503566742,-1.873449444770813
1789031092352277500,0.770277587890625,0.4821871221065521,-0.24221660196781158,-1.8067429065704346
1789031092362281200,0.78028125,0.4211093485355377,-0.1420305371284485,-1.6840614080429077
1789031092372285400,0.790285400390625,0.37241849303245544,-0.02082234062254429,-1.4959405660629272
1789031092382289400,0.800289306640625,0.36753013730049133,0.10815905034542084,-1.3168648481369019
1789031092392292600,0.810292724609375,0.4397055208683014,0.2485971301794052,-1.1930283308029175
1789031092402296600,0.820296630859375,0.5262563824653625,0.34947469830513,-1.1148909330368042
1789031092412300300,0.83030029296875,0.5725730061531067,0.38400736451148987,-1.0495774745941162
1789031092422303500,0.840303466796875,0.5817606449127197,0.35365960001945496,-0.9704951643943787
1789031092432307500,0.850307373046875,0.5671523809432983,0.33433249592781067,-0.9214895367622375
1789031092442311400,0.8603115234375,0.5230307579040527,0.35081133246421814,-0.9149083495140076
1789031092452314400,0.870314453125,0.4818265438079834,0.3503788411617279,-0.9211552739143372
1789031092462318300,0.880318359375,0.4449481964111328,0.30175065994262695,-0.9333592653274536
1789031092472322600,0.890322509765625,0.3972347378730774,0.22641728818416595,-0.9502769708633423
1789031092482326500,0.900326416015625,0.3677613437175751,0.15264467895030975,-0.9486976265907288
1789031092492329500,0.91032958984375,0.3532005250453949,0.1008901447057724,-0.914897084236145
1789031092502333400,0.92033349609375,0.34749549627304077,0.0835074931383133,-0.851980447769165
1789031092512337400,0.93033740234375,0.361377477645874,0.07742856442928314,-0.7682058811187744
1789031092522340600,0.940340576171875,0.3648609220981598,0.10224372148513794,-0.6778848171234131
1789031092532344300,0.95034423828125,0.37635138630867004,0.11546019464731216,-0.6105837821960449
1789031092542348300,0.960348388671875,0.4096355140209198,0.12443000078201294,-0.5759807825088501
1789031092552351500,0.9703515625,0.47465261816978455,0.13511887192726135,-0.5546267628669739
1789031092562355500,0.98035546875,0.5336011648178101,0.18192727863788605,-0.5015033483505249
1789031092572359400,0.990359375,0.5794754028320312,0.306797057390213,-0.4171820878982544
1789031092582363400,1.00036328125,0.6306710243225098,0.49249985814094543,-0.3454474210739136
1789031092592366300,1.010366455078125,0.6989595293998718,0.6927729845046997,-0.31172436475753784
1789031092602370600,1.02037060546875,0.7757408022880554,0.8793382048606873,-0.31014567613601685
1789031092612374500,1.03037451171875,0.832037627696991,1.0569344758987427,-0.33191779255867004
1789031092622377500,1.04037744140625,0.8319437503814697,1.1737114191055298,-0.39262741804122925
1789031092632381400,1.05038134765625,0.7569006681442261,1.2026475667953491,-0.48280203342437744
1789031092642385400,1.060385498046875,0.6558923125267029,1.1990851163864136,-0.6489524245262146
1789031092652389600,1.0703896484375,0.5872786045074463,1.1497215032577515,-0.8364202976226807
1789031092662392300,1.080392333984375,0.5272203087806702,0.9685945510864258,-0.9540124535560608
1789031092672396500,1.090396484375,0.4869365692138672,0.743005096912384,-1.0519847869873047
1789031092682400500,1.100400390625,0.5095303654670715,0.533990740776062,-1.1089255809783936
1789031092692403500,1.110403564453125,0.5813558101654053,0.27681881189346313,-1.046940565109253
1789031092702407400,1.120407470703125,0.5730013847351074,-0.20322343707084656,-0.7769747972488403
1789031092712411400,1.130411376953125,0.46544861793518066,-0.5734859108924866,-0.44806668162345886
1789031092722415400,1.140415283203125,0.33973056077957153,-0.6605740189552307,-0.12278050929307938
1789031092732418600,1.15041845703125,0.3159048557281494,-0.5522334575653076,0.22702620923519135
1789031092742422300,1.16042236328125,0.32412463426589966,-0.4419572949409485,0.6129516959190369
1789031092752426500,1.170426513671875,0.3049283027648926,-0.39705532789230347,0.9387257695198059
1789031092762430500,1.180430419921875,0.25713908672332764,-0.4134795367717743,1.175830364227295
1789031092772433400,1.190433349609375,0.2095494568347931,-0.44611015915870667,1.3438332080841064
1789031092782437400,1.200437255859375,0.17468073964118958,-0.44402754306793213,1.432450294494629
1789031092792441300,1.21044140625,0.17496329545974731,-0.4236074984073639,1.4608811140060425
1789031092802444300,1.2204443359375,0.18862128257751465,-0.3854891061782837,1.4858827590942383
1789031092812448300,1.2304482421875,0.19576308131217957,-0.3632085621356964,1.546339750289917
1789031092822452200,1.2404521484375,0.1827448308467865,-0.3442310690879822,1.6173043251037598
1789031092832456400,1.25045654296875,0.16443000733852386,-0.32929980754852295,1.6776888370513916
1789031092842459100,1.260459228515625,0.14498911798000336,-0.3493027985095978,1.7148842811584473
1789031092852463400,1.27046337890625,0.13005703687667847,-0.39141136407852173,1.7412083148956299
1789031092862467300,1.28046728515625,0.15126095712184906,-0.4402826428413391,1.7785048484802246
1789031092872471300,1.29047119140625,0.21662744879722595,-0.4699598252773285,1.7850676774978638
1789031092882474500,1.300474609375,0.24870333075523376,-0.5012999773025513,1.7347930669784546
1789031092892478200,1.310478271484375,0.22367948293685913,-0.5467012524604797,1.6311484575271606
1789031092902482200,1.320482177734375,0.14860893785953522,-0.6136899590492249,1.514276385307312
1789031092912485400,1.3304853515625,0.17615267634391785,-0.6894060373306274,1.3729698657989502
1789031092922489300,1.3404892578125,0.347002238035202,-0.7714273929595947,1.2231559753417969
1789031092932493300,1.350493408203125,0.4533180296421051,-0.8202436566352844,1.1576693058013916
1789031092942497300,1.360497314453125,0.4372278153896332,-0.746981143951416,1.0810879468917847
1789031092952500200,1.370500244140625,0.3400711715221405,-0.547039270401001,0.9795973896980286
1789031092962504400,1.38050439453125,0.2501968741416931,-0.2899642586708069,0.9169778823852539
1789031092972508400,1.39050830078125,0.21443621814250946,0.03925836458802223,0.8786597847938538
1789031092982512000,1.40051220703125,0.2289353758096695,0.3868890106678009,0.8434494137763977
1789031092992515300,1.410515380859375,0.2544732391834259,0.7060664296150208,0.775068461894989
1789031093002519300,1.420519287109375,0.33354058861732483,0.8738719820976257,0.7003622651100159
1789031093012523500,1.4305234375,0.44462183117866516,0.8702620267868042,0.6923344731330872
1789031093022527200,1.44052734375,0.45427200198173523,0.8262314796447754,0.718669593334198
1789031093032530400,1.450530517578125,0.3748094141483307,0.7560172080993652,0.7133941054344177
1789031093042534400,1.460534423828125,0.2073504626750946,0.6343602538108826,0.6757309436798096
1789031093052538400,1.470538330078125,0.06292697042226791,0.5106479525566101,0.5883039236068726
1789031093062542000,1.4805419921875,0.08308202773332596,0.4441307783126831,0.4537847340106964
1789031093072545300,1.490545166015625,0.10609520226716995,0.3723761737346649,0.41755959391593933
1789031093082549200,1.50054931640625,0.002570952055975795,0.09648672491312027,0.5620217323303223
1789031093092553500,1.510553466796875,-0.08089890331029892,0.03593815490603447,0.5696596503257751
1789031093102557400,1.520557373046875,-0.1599108725786209,0.16626062989234924,0.5007352232933044
1789031093112560400,1.530560302734375,-0.20807866752147675,0.09944458305835724,0.5569590330123901
1789031093122564400,1.540564453125,-0.2583202123641968,-0.12064912170171738,0.6663936972618103
1789031093132568300,1.550568359375,-0.3122665286064148,-0.3184639513492584,0.7227906584739685
1789031093142572300,1.560572265625,-0.3496232330799103,-0.44881075620651245,0.6934176087379456
1789031093152575200,1.5705751953125,-0.3501497209072113,-0.5201770663261414,0.6104092597961426
1789031093162579200,1.5805791015625,-0.32570359110832214,-0.49428537487983704,0.5231672525405884
1789031093172583400,1.59058349609375,-0.2828757166862488,-0.39873912930488586,0.48907026648521423
1789031093182587400,1.60058740234375,-0.22813467681407928,-0.296074777841568,0.5524172782897949
1789031093192590300,1.61059033203125,-0.17594070732593536,-0.19442377984523773,0.6902158856391907
1789031093202594300,1.62059423828125,-0.14162391424179077,-0.06957992166280746,0.8187118768692017
1789031093212598300,1.630598388671875,-0.13790667057037354,0.05869442597031593,0.8871955871582031
1789031093222602200,1.640602294921875,-0.16190892457962036,0.11373092234134674,0.8975816369056702
1789031093232605200,1.650605224609375,-0.15041154623031616,0.026385629549622536,0.8612809181213379
1789031093242609200,1.660609130859375,-0.10073752701282501,-0.21670429408550262,0.75046706199646
1789031093252613400,1.67061328125,-0.05750296264886856,-0.5124621987342834,0.5650151371955872
1789031093262617300,1.680617431640625,-0.04634210839867592,-0.78246009349823,0.33275213837623596
1789031093272621300,1.690621337890625,-0.06207073852419853,-0.981515645980835,0.09449668228626251
1789031093282624300,1.700624267578125,-0.031497128307819366,-1.17753005027771,-0.0699324682354927
1789031093292628200,1.710628173828125,0.042097464203834534,-1.4034286737442017,-0.12793931365013123
1789031093302632400,1.720632568359375,0.08285129815340042,-1.6493566036224365,-0.07782821357250214
1789031093312636400,1.730636474609375,0.022650541737675667,-1.8455796241760254,0.047710008919239044
1789031093322639000,1.74063916015625,-0.1330631673336029,-1.9704208374023438,0.20724427700042725
1789031093332643300,1.750643310546875,-0.3126166760921478,-2.108379364013672,0.3504834473133087
1789031093342647300,1.760647216796875,-0.41539373993873596,-2.269374370574951,0.39894935488700867
1789031093352651300,1.7706513671875,-0.45504263043403625,-2.3382198810577393,0.33451390266418457
1789031093362654200,1.780654296875,-0.4799468219280243,-2.3661859035491943,0.2684660851955414
1789031093372658200,1.790658203125,-0.4797055423259735,-2.3731513023376465,0.2713542878627777
1789031093382662400,1.800662353515625,-0.42683613300323486,-2.263274908065796,0.3542579710483551
1789031093392666400,1.810666259765625,-0.3333088457584381,-2.059208393096924,0.49811795353889465
1789031093402670300,1.82067041015625,-0.24331532418727875,-1.817225694656372,0.6706276535987854
1789031093412673300,1.83067333984375,-0.178386390209198,-1.6190340518951416,0.8140673637390137
1789031093422677200,1.84067724609375,-0.13281838595867157,-1.4825737476348877,0.8863333463668823
1789031093432681200,1.85068115234375,-0.08137703686952591,-1.4006943702697754,0.9155873656272888
1789031093442685400,1.860685546875,-0.036877308040857315,-1.3537113666534424,0.9247066378593445
1789031093452688100,1.870688232421875,0.0008165417239069939,-1.2595025300979614,0.9523816704750061
1789031093462692400,1.8806923828125,0.04997185617685318,-0.9540148377418518,0.9967890381813049
1789031093472696300,1.8906962890625,0.11180885136127472,-0.5101111531257629,1.028847336769104
1789031093482700300,1.9007001953125,0.16063253581523895,-0.12448658049106598,1.0260196924209595
1789031093492704500,1.91070458984375,0.15527984499931335,0.06560292840003967,0.9719047546386719
1789031093502707200,1.920707275390625,0.10562994331121445,0.11838194727897644,0.8557410836219788
1789031093512711200,1.930711181640625,0.06244145706295967,0.15704332292079926,0.6889054775238037
1789031093522715400,1.94071533203125,0.009997173212468624,0.17398975789546967,0.5411354899406433
1789031093532719400,1.95071923828125,-0.028309470042586327,0.16861017048358917,0.429347962141037
1789031093542722300,1.960722412109375,-0.013591199181973934,0.2503913342952728,0.30751878023147583
1789031093552726300,1.970726318359375,0.03607356175780296,0.42465314269065857,0.162933349609375
1789031093562730200,1.980730224609375,0.07973863184452057,0.5536554455757141,0.05230451375246048
1789031093572734500,1.990734375,0.12122482061386108,0.5849859118461609,-0.0035622157156467438
1789031093582738400,2.000738525390625,0.1934698224067688,0.5781629085540771,-0.0399278849363327
1789031093592741400,2.010741455078125,0.29175829887390137,0.6246569156646729,-0.10703422129154205
1789031093602745300,2.020745361328125,0.3533187210559845,0.6776677966117859,-0.18684591352939606
1789031093612749300,2.030749267578125,0.35376134514808655,0.661966860294342,-0.2311643660068512
1789031093622753300,2.040753173828125,0.32326486706733704,0.6451305150985718,-0.2774943709373474
1789031093632757500,2.050757568359375,0.26690545678138733,0.6161074042320251,-0.3070317506790161
1789031093642760200,2.06076025390625,0.18645784258842468,0.5502493977546692,-0.31534260511398315
1789031093652764400,2.070764404296875,0.09168712794780731,0.49887514114379883,-0.3156483471393585
1789031093662768400,2.080768310546875,-0.014445274136960506,0.47665780782699585,-0.30787768959999084
1789031093672772400,2.0907724609375,-0.1095462217926979,0.4659609794616699,-0.264382928609848
1789031093682776300,2.1007763671875,-0.16938990354537964,0.5060632228851318,-0.219876229763031
1789031093692779300,2.110779296875,-0.1793152391910553,0.4636973738670349,-0.11463236808776855
1789031093702783200,2.120783203125,-0.16208383440971375,0.396416038274765,-0.03619617596268654
1789031093712787500,2.130787353515625,-0.1655760407447815,0.35841670632362366,-0.06433726847171783
1789031093722791200,2.140791259765625,-0.2019868791103363,0.20989184081554413,-0.09720365703105927
1789031093732794400,2.15079443359375,-0.24470797181129456,-0.01595088094472885,-0.07532311975955963
1789031093742798300,2.16079833984375,-0.2408543974161148,-0.19962778687477112,-0.031155139207839966
1789031093752802300,2.17080224609375,-0.2042660266160965,-0.2720242142677307,-0.031229175627231598
1789031093762806500,2.180806640625,-0.18817825615406036,-0.2501372694969177,-0.08245713263750076
1789031093772810200,2.190810302734375,-0.2144727110862732,-0.22877897322177887,-0.1171187087893486
1789031093782814200,2.200814208984375,-0.28631889820098877,-0.30529674887657166,-0.09623710066080093
1789031093792817400,2.2108173828125,-0.34753698110580444,-0.3701290190219879,-0.10528439283370972
1789031093802821400,2.2208212890625,-0.3812883496284485,-0.4065614640712738,-0.13818539679050446
1789031093812825300,2.230825439453125,-0.3993144929409027,-0.5007140040397644,-0.11494265496730804
1789031093822829300,2.240829345703125,-0.3848010301589966,-0.6093217730522156,-0.053028929978609085
1789031093832832300,2.250832275390625,-0.3210638761520386,-0.6180662512779236,-0.009301958605647087
1789031093842836500,2.26083642578125,-0.243874654173851,-0.4940584897994995,0.000564059242606163
1789031093852840400,2.27084033203125,-0.16744859516620636,-0.29311126470565796,-0.021908225491642952
1789031093862844400,2.280844482421875,-0.12135017663240433,-0.0793367251753807,-0.06407596170902252
1789031093872848400,2.290848388671875,-0.08117000013589859,0.09195858985185623,-0.12400934100151062
1789031093882852400,2.300852294921875,-0.03500945866107941,0.19150559604167938,-0.19107255339622498
1789031093892855300,2.310855224609375,-0.00046160188503563404,0.2063623070716858,-0.24769480526447296
1789031093902859500,2.320859619140625,0.02553054317831993,0.19033437967300415,-0.3146440386772156
1789031093912863200,2.33086328125,0.033622290939092636,0.19229179620742798,-0.4088973104953766
1789031093922867200,2.3408671875,0.03016424924135208,0.16806134581565857,-0.4969693422317505
1789031093932871400,2.350871337890625,-0.015311624854803085,0.0915580540895462,-0.5531138181686401
1789031093942874400,2.360874267578125,-0.10342596471309662,-0.03865423798561096,-0.568381667137146
1789031093952878300,2.37087841796875,-0.21291038393974304,-0.23466981947422028,-0.5080490708351135
1789031093962882300,2.38088232421875,-0.31717100739479065,-0.43003711104393005,-0.3986470103263855
1789031093972886300,2.39088623046875,-0.3709852397441864,-0.5605793595314026,-0.29331710934638977
1789031093982890200,2.40089013671875,-0.38011375069618225,-0.5825706720352173,-0.21866871416568756
1789031093992893400,2.4108935546875,-0.351473867893219,-0.5109095573425293,-0.1789734959602356
1789031094002897200,2.420897216796875,-0.31458941102027893,-0.370032399892807,-0.16991451382637024
1789031094012901400,2.4309013671875,-0.29532569646835327,-0.20517580211162567,-0.18742160499095917
1789031094022905300,2.4409052734375,-0.24597018957138062,-0.05502709001302719,-0.22475701570510864
1789031094032909300,2.450909423828125,-0.18998654186725616,0.051286567002534866,-0.2545098662376404
1789031094042912300,2.460912353515625,-0.14248932898044586,0.09554244577884674,-0.2657396197319031
1789031094052916200,2.470916259765625,-0.1403919756412506,0.10790617763996124,-0.26598456501960754
1789031094062920400,2.48092041015625,-0.15719443559646606,0.10644014924764633,-0.28540006279945374
1789031094072924400,2.49092431640625,-0.16595304012298584,0.09864453971385956,-0.34075093269348145
1789031094082928400,2.500928466796875,-0.15955524146556854,0.05445309728384018,-0.4074047803878784
1789031094092932400,2.510932373046875,-0.1393144130706787,-0.04476323351264,-0.437360018491745
1789031094102935300,2.520935302734375,-0.12670953571796417,-0.175801083445549,-0.4314863383769989
1789031094112939300,2.530939208984375,-0.12894845008850098,-0.27566346526145935,-0.42679813504219055
1789031094122943500,2.540943603515625,-0.13693110644817352,-0.31714099645614624,-0.43606889247894287
1789031094132947500,2.550947509765625,-0.13547728955745697,-0.30988815426826477,-0.47004735469818115
1789031094142951200,2.560951171875,-0.14442899823188782,-0.3086445927619934,-0.48559972643852234
1789031094152954400,2.570954345703125,-0.13909628987312317,-0.3287397623062134,-0.46652376651763916
1789031094162958300,2.580958251953125,-0.1317526400089264,-0.33978110551834106,-0.4235483407974243
1789031094172962300,2.59096240234375,-0.1392688751220703,-0.3080764412879944,-0.38502517342567444
1789031094182966500,2.600966552734375,-0.15202930569648743,-0.21604856848716736,-0.3617030084133148
1789031094192970200,2.61097021484375,-0.1573505699634552,-0.10422643274068832,-0.3540536165237427
1789031094202974200,2.62097412109375,-0.15608100593090057,0.01188173983246088,-0.35514843463897705
1789031094212977400,2.630977294921875,-0.14193616807460785,0.13613684475421906,-0.35725101828575134
1789031094222981400,2.6409814453125,-0.10542339831590652,0.255184143781662,-0.3746190369129181
1789031094232985300,2.6509853515625,-0.027753377333283424,0.3606056571006775,-0.40861058235168457
1789031094242989300,2.6609892578125,0.04190634936094284,0.48042425513267517,-0.45545879006385803
1789031094252993300,2.6709931640625,0.10497826337814331,0.5922144055366516,-0.5099196434020996
1789031094262997500,2.68099755859375,0.1262318193912506,0.6580244302749634,-0.53377366065979
1789031094273000200,2.691000244140625,0.13024254143238068,0.6681393980979919,-0.5298545360565186
1789031094283004200,2.701004150390625,0.11819044500589371,0.6572294235229492,-0.5240280032157898
1789031094293008400,2.71100830078125,0.1025044322013855,0.6406488418579102,-0.5203424692153931
1789031094303012400,2.721012451171875,0.09444062411785126,0.6031941771507263,-0.5140062570571899
1789031094313016300,2.731016357421875,0.11223959177732468,0.561453104019165,-0.5267982482910156
1789031094323019300,2.741019287109375,0.13192088901996613,0.5030276775360107,-0.5515230298042297
1789031094333023200,2.751023193359375,0.10484293848276138,0.4373184144496918,-0.5939354300498962
1789031094343027500,2.76102734375,0.05105357989668846,0.36579403281211853,-0.6486285328865051
1789031094353031400,2.771031494140625,0.03791247680783272,0.3111369013786316,-0.7131885886192322
1789031094363035400,2.781035400390625,0.057172756642103195,0.30126866698265076,-0.7646032571792603
1789031094373039400,2.791039306640625,0.038162846118211746,0.31519752740859985,-0.7435469627380371
1789031094383042300,2.801042236328125,0.030971447005867958,0.35466301441192627,-0.7344643473625183
1789031094393046300,2.81104638671875,0.02984519861638546,0.4184289574623108,-0.7956525683403015
1789031094403050500,2.821050537109375,-0.05013806372880936,0.48822465538978577,-0.8946905136108398
1789031094413054500,2.831054443359375,-0.10088220238685608,0.558413565158844,-1.037834882736206
1789031094423058200,2.84105810546875,-0.10210878401994705,0.5861082077026367,-1.181084394454956
1789031094433062400,2.8510625,-0.08658761531114578,0.538938581943512,-1.2577086687088013
1789031094443065300,2.8610654296875,-0.030181869864463806,0.46273916959762573,-1.2966424226760864
1789031094453069600,2.871069580078125,-0.025893114507198334,0.3926900327205658,-1.294142246246338
1789031094463073300,2.8810732421875,-0.05501490831375122,0.41658225655555725,-1.3139604330062866
1789031094473077200,2.8910771484375,-0.0717688500881195,0.5001149773597717,-1.4044485092163086
1789031094483081200,2.901081298828125,-0.05065484344959259,0.5723511576652527,-1.5410419702529907
1789031094493085400,2.91108544921875,0.012860748916864395,0.5872150659561157,-1.6852366924285889
1789031094503089400,2.92108935546875,0.06167048215866089,0.5196304321289062,-1.8006563186645508
1789031094513092400,2.93109228515625,0.0919242575764656,0.2542629539966583,-1.792556643486023
1789031094523096300,2.941096435546875,0.13046468794345856,-0.30376747250556946,-1.526110291481018
1789031094533100300,2.951100341796875,0.18980124592781067,-0.925564169883728,-1.0463935136795044
1789031094543104500,2.9611044921875,0.22223228216171265,-1.0746809244155884,-0.7122758626937866
1789031094553108500,2.9711083984375,0.2728853225708008,-0.7413493990898132,-0.5909190773963928
1789031094563112200,2.9811123046875,0.4110129475593567,-0.3187819719314575,-0.5549036860466003
1789031094573115400,2.991115478515625,0.5349951386451721,-0.12647803127765656,-0.46460333466529846
1789031094583119400,3.001119384765625,0.5741507411003113,-0.08254852145910263,-0.395300030708313
1789031094593123300,3.011123291015625,0.6057494282722473,-0.02658672444522381,-0.42186373472213745
1789031094603127300,3.021127197265625,0.6347439885139465,0.02213265374302864,-0.45976826548576355
1789031094613131300,3.03113134765625,0.6017228960990906,0.03610599413514137,-0.44552648067474365
1789031094623135200,3.04113525390625,0.5013494491577148,-0.07030519843101501,-0.2497580349445343
1789031094633138400,3.051138427734375,0.4157314896583557,-0.03425639122724533,0.019311513751745224
1789031094643142400,3.061142333984375,0.42555728554725647,0.2314031422138214,0.21873383224010468
1789031094653146400,3.071146484375,0.4576646089553833,0.49402040243148804,0.31484463810920715
1789031094663150300,3.081150390625,0.4663104712963104,0.5438290238380432,0.2207745909690857
1789031094673154300,3.091154296875,0.5274420380592346,0.40319550037384033,0.14363637566566467
1789031094683158300,3.101158203125,0.6134979724884033,0.31036895513534546,0.16537237167358398
1789031094693162500,3.11116259765625,0.6958556771278381,0.3755820393562317,0.38325223326683044
1789031094703165200,3.121165283203125,0.8026986122131348,0.4617486894130707,0.572891354560852
1789031094713169400,3.13116943359375,0.8873773217201233,0.4440027177333832,0.5917633175849915
1789031094723173400,3.14117333984375,0.8626591563224792,0.31904786825180054,0.5428495407104492
1789031094733177300,3.15117724609375,0.7775935530662537,0.2599096894264221,0.5083627104759216
1789031094743181600,3.161181640625,0.6089239120483398,0.2913895845413208,0.49345406889915466
1789031094753185300,3.171185302734375,0.4295078217983246,0.3843275010585785,0.4580356478691101
1789031094763188500,3.1811884765625,0.3506792485713959,0.505115270614624,0.35429856181144714
1789031094773192400,3.1911923828125,0.33919382095336914,0.5147716403007507,0.20741696655750275
1789031094783197000,3.201197021484375,0.37493062019348145,0.45885342359542847,0.06618239730596542
1789031094793201000,3.211200927734375,0.38967838883399963,0.4067031443119049,-0.03705371543765068
1789031094803205000,3.221205078125,0.3141937255859375,0.38712969422340393,-0.12432018667459488
1789031094822588000,3.240587890625,0.03607584536075592,0.46475762128829956,-0.5073562264442444
1789031094832591000,3.250591064453125,0.030177991837263107,0.593119740486145,-0.7824724912643433
1789031094842594800,3.2605947265625,0.07225194573402405,0.74053955078125,-0.9610970616340637
1789031094852598800,3.270598876953125,0.19114959239959717,0.7749956250190735,-0.967573881149292
1789031094862603000,3.28060302734375,0.3366199731826782,0.6222537159919739,-0.878573477268219
1789031094872607000,3.29060693359375,0.33358901739120483,0.36945483088493347,-0.8057019114494324
1789031094882611000,3.30061083984375,0.19457601010799408,0.10191846638917923,-0.7815811038017273
1789031094892615200,3.310615234375,0.10913089662790298,-0.0345660001039505,-0.7503510117530823
1789031094902617900,3.320617919921875,0.07460780441761017,-0.09059784561395645,-0.6560101509094238
1789031094912622000,3.3306220703125,0.10457799583673477,0.015339462086558342,-0.48974448442459106
1789031094922626000,3.3406259765625,0.16105325520038605,0.14942775666713715,-0.34221574664115906
1789031094932630000,3.350630126953125,0.1780109405517578,0.031429216265678406,-0.3582437038421631
1789031094942634000,3.360634033203125,0.09203717112541199,-0.20094171166419983,-0.48916736245155334
1789031094952638000,3.370637939453125,-0.05269712954759598,-0.32550275325775146,-0.6112256646156311
1789031094962642000,3.380641845703125,-0.10194776952266693,-0.26336827874183655,-0.6204825043678284
1789031094972645000,3.39064501953125,-0.05657783895730972,-0.06726717948913574,-0.48461148142814636
1789031094982649000,3.400649169921875,0.015994898974895477,0.1005612388253212,-0.30925723910331726
1789031094992652800,3.41065283203125,0.045600276440382004,0.07222550362348557,-0.1917036771774292
1789031095002657000,3.420656982421875,-0.019215205684304237,-0.09146622568368912,-0.1789173036813736
1789031095012661000,3.430660888671875,-0.13171599805355072,-0.19662703573703766,-0.23265035450458527
1789031095022665000,3.4406650390625,-0.2428169548511505,-0.1857573390007019,-0.29018235206604004
1789031095032669200,3.450669189453125,-0.31359395384788513,-0.1897120177745819,-0.3070593476295471
1789031095042671900,3.460671875,-0.2959550619125366,-0.24752338230609894,-0.2756665349006653
1789031095052675800,3.47067578125,-0.23738382756710052,-0.3212980628013611,-0.22945454716682434
1789031095062680000,3.48068017578125,-0.1689123511314392,-0.41303887963294983,-0.18003055453300476
1789031095072684000,3.49068408203125,-0.14405730366706848,-0.43397021293640137,-0.12691164016723633
1789031095082688000,3.50068798828125,-0.15292297303676605,-0.3387899100780487,-0.10432325303554535
1789031095092692000,3.51069189453125,-0.16969817876815796,-0.2751725912094116,-0.04997716471552849
1789031095102696000,3.520696044921875,-0.1438513994216919,-0.28085577487945557,0.0679774358868599
1789031095112699100,3.53069921875,-0.09618329256772995,-0.2702423334121704,0.21758392453193665
1789031095122703000,3.540703125,-0.02037242241203785,-0.18667714297771454,0.34206143021583557
1789031095132706800,3.550706787109375,0.04435187205672264,-0.09639482945203781,0.40910524129867554
1789031095142711000,3.5607109375,0.074187271296978,-0.03354635089635849,0.383186012506485
1789031095152715000,3.570715087890625,0.03998645395040512,-0.0010465194936841726,0.3567761480808258
1789031095162719000,3.580718994140625,0.018998080864548683,-0.055067677050828934,0.44004762172698975
1789031095172723000,3.590722900390625,0.09041649103164673,-0.10507144033908844,0.6273208856582642
1789031095182726000,3.600725830078125,0.1997499018907547,0.0006310178432613611,0.7589585185050964
1789031095192729900,3.610729736328125,0.2866269648075104,0.2474774718284607,0.7604703903198242
1789031095202734000,3.620734130859375,0.29864636063575745,0.5068643093109131,0.7145993113517761
1789031095212738000,3.630738037109375,0.25701820850372314,0.7477459907531738,0.7171400189399719
1789031095222742000,3.640741943359375,0.2212703377008438,0.9179670214653015,0.7909340262413025
1789031095232746000,3.65074609375,0.20364369451999664,0.9200295209884644,0.9217924475669861
1789031095242750000,3.66075,0.17904087901115417,0.7694743275642395,1.040767788887024
1789031095252754000,3.67075390625,0.12573766708374023,0.5808242559432983,1.0439447164535522
1789031095262757000,3.680757080078125,0.026221731677651405,0.359719842672348,0.9263094663619995
1789031095272760800,3.6907607421875,-0.09886686503887177,0.07832416146993637,0.7593140602111816
1789031095282764800,3.700764892578125,-0.19092515110969543,-0.19802726805210114,0.6324887275695801
1789031095292769000,3.71076904296875,-0.2221294641494751,-0.42793506383895874,0.6033372282981873
1789031095302773000,3.72077294921875,-0.22786350548267365,-0.5791213512420654,0.6695839166641235
1789031095312777000,3.73077685546875,-0.21713154017925262,-0.6239398717880249,0.7313345670700073
1789031095322781200,3.74078125,-0.20846588909626007,-0.5743901133537292,0.748317301273346
1789031095332783900,3.750783935546875,-0.26192477345466614,-0.4137023091316223,0.6679461002349854
1789031095342788000,3.7607880859375,-0.34624841809272766,-0.24236729741096497,0.5141844749450684
1789031095352792000,3.7707919921875,-0.3547697067260742,-0.17412739992141724,0.38790324330329895
1789031095362796000,3.780796142578125,-0.26803162693977356,-0.25636979937553406,0.3516131341457367
1789031095372800000,3.790800048828125,-0.18231964111328125,-0.4038758873939514,0.36133795976638794
1789031095382804000,3.800803955078125,-0.1278635859489441,-0.479447603225708,0.31736093759536743
1789031095392808000,3.810807861328125,-0.15651513636112213,-0.42630910873413086,0.253167062997818
1789031095402812000,3.82081201171875,-0.1899537742137909,-0.35401228070259094,0.2511284053325653
1789031095412815000,3.830815185546875,-0.1768808811903,-0.34718823432922363,0.2987994849681854
1789031095422818800,3.84081884765625,-0.09799540042877197,-0.4137009382247925,0.37008991837501526
1789031095432823000,3.850822998046875,-0.02200348675251007,-0.4497716724872589,0.39280083775520325
1789031095442827000,3.860826904296875,-0.03637124225497246,-0.3450532555580139,0.32495465874671936
1789031095452831000,3.8708310546875,-0.10934613645076752,-0.23941785097122192,0.25694361329078674
1789031095462835200,3.880835205078125,-0.10740016400814056,-0.2686087489128113,0.23334082961082458
1789031095472839000,3.8908388671875,-0.05292447283864021,-0.3692607283592224,0.2561419904232025
1789031095482843000,3.9008427734375,-0.08697459101676941,-0.5410537719726562,0.3474351465702057
1789031095492846000,3.91084619140625,-0.2281520664691925,-0.7911421656608582,0.4882062077522278
1789031095502850000,3.92085009765625,-0.20632213354110718,-0.6930707097053528,0.4372103810310364
1789031095512853800,3.930853759765625,-0.17207267880439758,-0.3109242022037506,0.2953392267227173
1789031095522858000,3.94085791015625,-0.23569878935813904,-0.13823473453521729,0.23841626942157745
1789031095532862000,3.950862060546875,-0.32653331756591797,-0.5334463715553284,0.3114614486694336
1789031095542866000,3.960865966796875,-0.33398696780204773,-1.0749484300613403,0.3691900074481964
1789031095552870100,3.9708701171875,-0.2662043869495392,-1.4275709390640259,0.3543927073478699
1789031095562874000,3.9808740234375,-0.18998205661773682,-1.4378550052642822,0.2697625160217285
1789031095572877000,3.990876953125,-0.21172766387462616,-0.9921995997428894,0.0338764488697052
1789031095582881000,4.000881103515625,-0.2928462326526642,-0.5187819600105286,-0.21758109331130981
1789031095592885000,4.010885009765625,-0.3334934711456299,-0.32830822467803955,-0.25549301505088806
1789031095602889000,4.020888916015625,-0.2551528513431549,-0.36097055673599243,-0.15582767128944397
1789031095612893000,4.030892822265625,-0.15512394905090332,-0.29241418838500977,-0.009525314904749393
1789031095622897000,4.04089697265625,-0.10036084055900574,0.13752518594264984,0.06994101405143738
1789031095632900900,4.05090087890625,-0.08074405789375305,0.42615216970443726,-0.11400354653596878
1789031095642905000,4.060905029296875,-0.06261564791202545,0.26099997758865356,-0.28433188796043396
1789031095652908000,4.070907958984375,-0.04703175276517868,0.062249988317489624,-0.23827509582042694
1789031095662912000,4.080912109375,-0.017140164971351624,0.1691921502351761,-0.0005650711245834827
1789031095672916000,4.090916015625,-0.02980949357151985,0.5667876601219177,0.29619330167770386
1789031095682920000,4.100919921875,-0.08244101703166962,1.0120532512664795,0.4328310191631317
1789031095692924000,4.110923828125,-0.04510985687375069,1.3527474403381348,0.304733544588089
1789031095702928100,4.12092822265625,-0.03181535750627518,1.5620793104171753,-0.021858954802155495
1789031095712931800,4.130931884765625,-0.12956960499286652,1.3357070684432983,-0.3110627830028534
1789031095722935800,4.140935791015625,-0.22572436928749084,0.702737033367157,-0.3414859473705292
1789031095732939000,4.15093896484375,-0.1533215492963791,0.4224800169467926,-0.21125391125679016
1789031095742943000,4.16094287109375,-0.06386969983577728,0.6060205698013306,-0.1491450071334839
1789031095752947200,4.170947265625,-0.0486099049448967,0.7842250466346741,-0.17490676045417786
1789031095762951000,4.180950927734375,-0.04445350915193558,0.914921760559082,-0.33125507831573486
1789031095772955000,4.190954833984375,-0.10559817403554916,1.0314446687698364,-0.5277482271194458
1789031095782958600,4.20095849609375,-0.1909618079662323,0.8987664580345154,-0.5917458534240723
1789031095792962600,4.210962646484375,-0.22928762435913086,0.6159809827804565,-0.49671119451522827
1789031095802966300,4.22096630859375,-0.20740681886672974,0.45713135600090027,-0.3750297725200653
1789031095812969500,4.230969482421875,-0.181108757853508,0.42583999037742615,-0.3210250437259674
1789031095822973400,4.240973388671875,-0.17886318266391754,0.38365602493286133,-0.36297571659088135
1789031095832977400,4.250977294921875,-0.1561199426651001,0.31472668051719666,-0.5094131231307983
1789031095842981400,4.2609814453125,-0.143049955368042,0.24509674310684204,-0.5853790044784546
1789031095852985300,4.2709853515625,-0.12695802748203278,0.21620559692382812,-0.507490873336792
1789031095862989300,4.2809892578125,-0.15528473258018494,0.12244687229394913,-0.2995472550392151
1789031095872993500,4.29099365234375,-0.23590561747550964,0.02252676896750927,-0.14218641817569733
1789031095882997500,4.30099755859375,-0.30095598101615906,0.014214511960744858,-0.19405095279216766
1789031095893001200,4.311001220703125,-0.2671329379081726,0.0924493744969368,-0.3968609869480133
1789031095903004400,4.32100439453125,-0.2946133017539978,0.0027309441938996315,-0.42062464356422424
1789031095913008400,4.33100830078125,-0.3857154846191406,-0.25920918583869934,-0.24886192381381989
1789031095923012600,4.3410126953125,-0.34526845812797546,-0.22746507823467255,-0.23296046257019043
1789031095933016600,4.3510166015625,-0.236014723777771,-0.0032711615785956383,-0.4285787343978882
1789031095943020300,4.361020263671875,-0.23345036804676056,0.055934906005859375,-0.5235084295272827
1789031095953024500,4.3710244140625,-0.34720396995544434,-0.041096508502960205,-0.43215063214302063
1789031095963028500,4.381028564453125,-0.44275951385498047,-0.13013717532157898,-0.19027462601661682
1789031095973032400,4.391032470703125,-0.460614949464798,-0.14207185804843903,0.09546206146478653
1789031095983035400,4.401035400390625,-0.4182280898094177,-0.09261616319417953,0.2680218517780304
1789031095993039400,4.411039306640625,-0.3152357339859009,-0.02919742837548256,0.2160729616880417
1789031096003043300,4.421043212890625,-0.22214177250862122,-0.04425307735800743,0.01248336210846901
1789031096013047600,4.431047607421875,-0.2012871652841568,-0.22190967202186584,-0.1279483586549759
1789031096023051500,4.441051513671875,-0.1809576451778412,-0.4461374282836914,-0.085969477891922
1789031096033055500,4.451055419921875,-0.24833795428276062,-0.6021521091461182,0.026607433333992958
1789031096043059500,4.4610595703125,-0.1788366287946701,-0.4731200933456421,-0.026845138520002365
1789031096053063400,4.4710634765625,-0.005415900144726038,-0.1508820801973343,-0.27522939443588257
1789031096063067400,4.4810673828125,0.06272000819444656,0.03164192661643028,-0.5201866626739502
1789031096073070600,4.491070556640625,0.0642586424946785,0.06684857606887817,-0.6622700095176697
1789031096083074300,4.50107421875,0.013939013704657555,-0.1320301741361618,-0.529544472694397
1789031096093078300,4.511078369140625,-0.058846354484558105,-0.3793627917766571,-0.2444075644016266
1789031096103082500,4.52108251953125,-0.03552158921957016,-0.36345812678337097,-0.12500421702861786
1789031096113086500,4.53108642578125,-0.010085614398121834,-0.3075094521045685,-0.11718325316905975
1789031096123090400,4.54109033203125,0.03091721422970295,-0.20673488080501556,-0.21196062862873077
1789031096133094700,4.5510947265625,0.10836231708526611,-0.051911696791648865,-0.46799564361572266
1789031096143098400,4.561098388671875,0.21232174336910248,-0.06399259716272354,-0.7162555456161499
1789031096153101600,4.5711015625,0.28294044733047485,-0.38375890254974365,-0.6385177969932556
1789031096163105500,4.58110546875,0.3541712164878845,-0.7050439715385437,-0.28815868496894836
1789031096173109500,4.591109619140625,0.4082091748714447,-0.7839657068252563,0.03914475440979004
1789031096183113200,4.60111328125,0.49870768189430237,-0.6743997931480408,0.258594810962677
1789031096193117400,4.611117431640625,0.6717930436134338,-0.36766597628593445,0.28616514801979065
1789031096203121400,4.621121337890625,0.8522331714630127,-0.1877521276473999,0.09598616510629654
1789031096213125400,4.63112548828125,0.7181556820869446,-0.3103744387626648,0.04118398576974869
1789031096223129600,4.641129638671875,0.44989708065986633,-0.38482123613357544,0.3444384038448334
1789031096233133600,4.651133544921875,0.32681241631507874,-0.24998700618743896,0.6366444230079651
1789031096243136500,4.661136474609375,0.26482200622558594,-0.07350172102451324,0.6973804831504822
1789031096253140500,4.671140380859375,0.35836589336395264,-0.05904989689588547,0.5225970149040222
1789031096263144400,4.68114453125,0.53159499168396,-0.4868054986000061,0.22668011486530304
1789031096273148400,4.6911484375,0.563921332359314,-0.9072818160057068,0.10095567256212234
1789031096283152400,4.70115234375,0.3725585341453552,-0.7311456799507141,0.35296767950057983
1789031096293156400,4.71115625,0.22276557981967926,-0.6212512254714966,0.4357677400112152
1789031096303160300,4.721160400390625,0.28194528818130493,-0.6630257964134216,0.07746179401874542
1789031096313164500,4.73116455078125,0.4324651062488556,-0.6003881096839905,-0.36378052830696106
1789031096323168500,4.74116845703125,0.4393656253814697,-0.8321701884269714,-0.6320785880088806
1789031096333171500,4.75117138671875,0.24556928873062134,-0.8647462129592896,-0.6171203851699829
1789031096343175400,4.761175537109375,0.10464572161436081,-0.5905058979988098,-0.5325247645378113
1789031096353179400,4.771179443359375,0.06898082047700882,-0.37898141145706177,-0.4844081699848175
1789031096363183600,4.78118359375,0.17717574536800385,-0.3290165364742279,-0.37982770800590515
1789031096373187600,4.7911875,0.3827768862247467,-0.32653170824050903,-0.17041482031345367
1789031096383191300,4.80119140625,0.505788266658783,-0.3700869083404541,0.08592721819877625
1789031096393195300,4.8111953125,0.5396078824996948,-0.4306640028953552,0.2742343246936798
1789031096403199500,4.821199462890625,0.4538000524044037,-0.5803765058517456,0.38327986001968384
1789031096413203500,4.831203369140625,0.30922895669937134,-0.752324640750885,0.3752674162387848
1789031096423206400,4.841206298828125,0.2290225327014923,-0.7688703536987305,0.25434261560440063
1789031096433210400,4.85121044921875,0.24376840889453888,-0.697512149810791,0.17702382802963257
1789031096443214300,4.86121435546875,0.29537433385849,-0.6526237726211548,0.18554861843585968
1789031096453218600,4.871218505859375,0.30118685960769653,-0.6273322701454163,0.2274830937385559
1789031096463222500,4.881222412109375,0.2147694081068039,-0.5549829602241516,0.2748383581638336
1789031096473226500,4.8912265625,0.12349548935890198,-0.4086783826351166,0.28607308864593506
1789031096483230500,4.90123046875,0.14373284578323364,-0.15815483033657074,0.22572371363639832
1789031096493234400,4.911234375,0.27889880537986755,0.11074580997228622,0.17672240734100342
1789031096503238400,4.92123828125,0.35145875811576843,0.237452894449234,0.2183566689491272
1789031096513242400,4.931242431640625,0.3295134902000427,0.2617086172103882,0.31903961300849915
1789031096523245300,4.941245361328125,0.2596089541912079,0.3360110819339752,0.37802836298942566
1789031096533249300,4.951249267578125,0.19744554162025452,0.5726350545883179,0.39843645691871643
1789031096543253500,4.96125341796875,0.2032672017812729,0.8961817026138306,0.4064009189605713
1789031096553257500,4.971257568359375,0.25640854239463806,1.1153080463409424,0.44256362318992615
1789031096563261400,4.981261474609375,0.243016317486763,1.0760536193847656,0.5675079226493835
1789031096573265700,4.991265625,0.1493958681821823,0.8545188307762146,0.7211146354675293
1789031096583269400,5.001269287109375,0.08083172142505646,0.6589950919151306,0.7857365012168884
1789031096593273300,5.0112734375,0.03686773031949997,0.6865522265434265,0.6889305710792542
1789031096603277600,5.021277587890625,-0.025981007143855095,0.915523111820221,0.5518057346343994
1789031096613280500,5.031280517578125,-0.06743326783180237,1.014905333518982,0.5676225423812866
1789031096623284200,5.0412841796875,-0.07507921010255814,0.8107961416244507,0.7375044822692871
1789031096633288400,5.051288330078125,-0.043890394270420074,0.4037913382053375,0.8881201148033142
1789031096643292400,5.06129248046875,-0.048884619027376175,0.0359526127576828,0.9235955476760864
1789031096653296400,5.07129638671875,-0.08223950862884521,-0.11210016161203384,0.822557806968689
1789031096663300600,5.081300537109375,-0.15374085307121277,-0.15607960522174835,0.7180039882659912
1789031096673304300,5.09130419921875,-0.22236700356006622,-0.288944810628891,0.6971355080604553
1789031096683308300,5.101308349609375,-0.26010453701019287,-0.5582329630851746,0.7427597045898438
1789031096693312500,5.1113125,-0.21916471421718597,-0.8547759652137756,0.7731829285621643
1789031096703315500,5.1213154296875,-0.14052556455135345,-0.9903135299682617,0.7177659869194031
1789031096713319400,5.1313193359375,-0.1457386165857315,-0.9091513156890869,0.6384987831115723
1789031096723323400,5.141323486328125,-0.18900220096111298,-0.7741362452507019,0.5713399648666382
1789031096733327400,5.151327392578125,-0.2090800255537033,-0.7490400671958923,0.5297592282295227
1789031096743331300,5.161331298828125,-0.20475931465625763,-0.8260725736618042,0.47578445076942444
1789031096753335600,5.17133544921875,-0.18375246226787567,-0.9397242665290833,0.3902093768119812
1789031096763339500,5.181339599609375,-0.16661874949932098,-1.0086023807525635,0.29987576603889465
1789031096773343200,5.19134326171875,-0.1713402271270752,-1.0028831958770752,0.23764675855636597
1789031096783347200,5.20134716796875,-0.18829549849033356,-0.9778358340263367,0.22583697736263275
1789031096793350100,5.21135009765625,-0.17602455615997314,-0.9569227695465088,0.2915847897529602
1789031096803354400,5.221354248046875,-0.12655873596668243,-0.9054268002510071,0.3905065655708313
1789031096813358000,5.231358154296875,-0.09261088818311691,-0.7897672653198242,0.3991866111755371
1789031096823362000,5.241362060546875,-0.09354405850172043,-0.6222746968269348,0.29247400164604187
1789031096833366300,5.2513662109375,-0.14862501621246338,-0.5709686875343323,0.17668117582798004
1789031096843370200,5.261370361328125,-0.2098071426153183,-0.7819784283638,0.1567724496126175
1789031096853374200,5.271374267578125,-0.21462306380271912,-1.0487329959869385,0.15921823680400848
1789031096863378200,5.281378173828125,-0.18152263760566711,-1.1033711433410645,0.07586555182933807
1789031096873382100,5.291382080078125,-0.17719395458698273,-0.9060719013214111,-0.062173280864953995
1789031096883385000,5.301385009765625,-0.23204708099365234,-0.7734576463699341,-0.06490381807088852
1789031096893389300,5.311389404296875,-0.2862788736820221,-0.8238881230354309,0.10444367676973343
1789031096903393300,5.321393310546875,-0.3250505030155182,-0.8975293040275574,0.29068198800086975
1789031096913397000,5.33139697265625,-0.3770141899585724,-0.6551247835159302,0.27311789989471436
1789031096923401200,5.341401123046875,-0.42283573746681213,-0.017610881477594376,0.07589268684387207
1789031096933405200,5.3514052734375,-0.38756564259529114,0.6854576468467712,-0.0389297679066658
1789031096943409200,5.3614091796875,-0.23737771809101105,1.1109356880187988,0.013125973753631115
1789031096953413400,5.371413330078125,-0.08055535703897476,1.1953411102294922,0.12639448046684265
1789031096963417300,5.381417236328125,-0.10235466063022614,1.118837833404541,0.18054692447185516
1789031096973420000,5.391419921875,-0.2117047905921936,1.0396678447723389,0.1357768326997757
1789031096983424300,5.40142431640625,-0.2633562684059143,1.029646873474121,0.04714975133538246
1789031096993428200,5.41142822265625,-0.1699753999710083,1.0533034801483154,-0.05774548277258873
1789031097003432200,5.42143212890625,0.021513869985938072,1.090785026550293,-0.1672845035791397
1789031097013436200,5.431436279296875,0.2243177890777588,1.2032318115234375,-0.28766101598739624
1789031097023440100,5.441440185546875,0.34253445267677307,1.366086721420288,-0.43084800243377686
1789031097033444000,5.451444091796875,0.42024925351142883,1.3902734518051147,-0.5288757085800171
1789031097043448300,5.4614482421875,0.4341568052768707,1.2226932048797607,-0.4632543623447418
1789031097053452300,5.471452392578125,0.36642250418663025,0.9933162927627563,-0.2910088300704956
1789031097063456300,5.481456298828125,0.3039492666721344,0.9942457675933838,-0.23271544277668
1789031097073459200,5.491459228515625,0.2806946337223053,1.2155375480651855,-0.32871943712234497
1789031097083463200,5.501463134765625,0.23668430745601654,1.2576833963394165,-0.39006027579307556
1789031097093467100,5.511467041015625,0.21631449460983276,0.9611977934837341,-0.3484550714492798
1789031097103471400,5.521471435546875,0.17903289198875427,0.5595400929450989,-0.2666110694408417
1789031097113475000,5.53147509765625,0.12458010017871857,0.3631916642189026,-0.2685908377170563
1789031097123479000,5.54147900390625,0.07140716165304184,0.3895569443702698,-0.37091749906539917
1789031097133483300,5.551483154296875,0.023994186893105507,0.4538797438144684,-0.48822876811027527
1789031097143487200,5.5614873046875,0.026331109926104546,0.4043595790863037,-0.5304004549980164
1789031097153491200,5.5714912109375,0.0353357307612896,0.31895729899406433,-0.5331447720527649
1789031097163494100,5.581494140625,0.020717374980449677,0.27138710021972656,-0.5810196399688721
1789031097173498000,5.591498046875,-0.0512167327105999,0.18197786808013916,-0.6330003142356873
1789031097183502000,5.601502197265625,-0.1403956115245819,-0.0991925448179245,-0.6050997376441956
1789031097193506300,5.61150634765625,-0.16898904740810394,-0.5418721437454224,-0.49323785305023193
1789031097203510300,5.62151025390625,-0.1779135763645172,-0.7795289158821106,-0.37946414947509766
1789031097213514000,5.631513916015625,-0.17354853451251984,-0.6007944345474243,-0.38003936409950256
1789031097223518200,5.641518310546875,-0.1697053164243698,-0.26601138710975647,-0.43892133235931396
1789031097233522200,5.651522216796875,-0.14878883957862854,-0.02903677150607109,-0.5114480257034302
1789031097243526100,5.661526123046875,-0.1347436010837555,0.016891570761799812,-0.5441468358039856
1789031097253530400,5.6715302734375,-0.12962597608566284,-0.02952774241566658,-0.5310196280479431
1789031097263533000,5.681532958984375,-0.13973693549633026,-0.094243623316288,-0.48577040433883667
1789031097273537300,5.691537353515625,-0.13791784644126892,-0.03281448036432266,-0.5043935775756836
1789031097283541200,5.701541259765625,-0.1090308129787445,0.037446100264787674,-0.5667546391487122
1789031097293545200,5.711545166015625,-0.007904471829533577,0.12400268763303757,-0.6726054549217224
1789031097303549200,5.721549072265625,0.15227001905441284,0.15677900612354279,-0.7665883898735046
1789031097313553200,5.73155322265625,0.23997238278388977,0.026810670271515846,-0.6974013447761536
1789031097323557000,5.74155712890625,0.22934450209140778,-0.13422349095344543,-0.5138800144195557
1789031097333561000,5.75156103515625,0.1367655247449875,-0.10508979856967926,-0.31818854808807373
1789031097343565300,5.7615654296875,0.0635288655757904,0.11195597052574158,-0.1620572954416275
1789031097353568000,5.771568115234375,0.1483333557844162,0.4375791847705841,-0.17116603255271912
1789031097363572200,5.781572265625,0.2325901836156845,0.46342116594314575,-0.30135229229927063
1789031097373576200,5.791576171875,0.20538188517093658,0.1407376080751419,-0.37724122405052185
1789031097383580200,5.801580078125,0.14345672726631165,-0.10382792353630066,-0.37983620166778564
1789031097393584000,5.811584228515625,0.09542638063430786,-0.1081659272313118,-0.2156936079263687
1789031097403588400,5.82158837890625,0.11621501296758652,0.020028792321681976,0.05295730009675026
1789031097413592000,5.831592041015625,0.21900464594364166,0.0812581330537796,0.23093044757843018
1789031097423596000,5.841595947265625,0.25345849990844727,-0.098028264939785,0.26132774353027344
1789031097433600300,5.851600341796875,0.2095947265625,-0.36616241931915283,0.30791234970092773
1789031097443603200,5.861603271484375,0.09489424526691437,-0.4773499071598053,0.5328578352928162
1789031097453607200,5.871607177734375,0.018297802656888962,-0.3020419180393219,0.8285177946090698
1789031097463611100,5.881611083984375,-0.006735112518072128,-0.2148553431034088,1.0960795879364014
1789031097473615000,5.891614990234375,0.05701514706015587,-0.316864937543869,1.2362555265426636
1789031097483619300,5.901619384765625,0.1132962554693222,-0.5860710740089417,1.1439125537872314
1789031097493623300,5.911623291015625,0.022968715056777,-0.8371274471282959,1.0606892108917236
1789031097503627300,5.921627197265625,-0.11755271255970001,-0.8742468953132629,1.1085346937179565
1789031097513631200,5.93163134765625,-0.18343031406402588,-0.7680809497833252,1.0836381912231445
1789031097523635200,5.94163525390625,-0.021944474428892136,-0.5191923379898071,0.7158931493759155
1789031097533639200,5.95163916015625,0.17517507076263428,-0.5541533827781677,-0.026534035801887512
1789031097543642400,5.961642333984375,0.16918295621871948,-0.699072003364563,-0.5863872170448303
1789031097553646000,5.97164599609375,0.011139576323330402,-0.5270965695381165,-0.4951598048210144
1789031097563650000,5.981650146484375,-0.10069641470909119,-0.4069459140300751,-0.2696782052516937
1789031097573654300,5.991654296875,0.01706387847661972,-0.17310075461864471,-0.4507703185081482
1789031097583658200,6.001658203125,0.18553891777992249,-0.2924255430698395,-0.9657074213027954
1789031097593662200,6.011662109375,0.17277078330516815,-0.48187902569770813,-1.3423289060592651
1789031097603666400,6.02166650390625,0.04286472126841545,-0.5329635143280029,-1.4540953636169434
1789031097613670100,6.031670166015625,-0.04671657457947731,-0.36376479268074036,-1.3032118082046509
1789031097623674000,6.041674072265625,-0.00997853372246027,-0.16268759965896606,-1.0922319889068604
1789031097633677300,6.05167724609375,0.12092091143131256,-0.08505197614431381,-0.9067665338516235
1789031097643681300,6.061681396484375,0.3407544791698456,-0.16989415884017944,-0.6639099717140198
1789031097653685000,6.07168505859375,0.55408775806427,-0.32319873571395874,-0.31985992193222046
1789031097663689200,6.081689208984375,0.703680157661438,-0.35183703899383545,0.1204247921705246
1789031097673693200,6.091693115234375,0.775713324546814,-0.1999407857656479,0.4747903048992157
1789031097683697200,6.101697265625,0.7335461378097534,0.0422942191362381,0.6880546808242798
1789031097693701400,6.111701416015625,0.5203542709350586,0.23633013665676117,0.842268705368042
1789031097703705000,6.121705078125,0.24029438197612762,0.37659671902656555,0.9881955981254578
1789031097713709000,6.131708984375,0.11218881607055664,0.3629842698574066,1.1076459884643555
1789031097723712300,6.141712158203125,0.09857127815485,0.2589026093482971,1.1023657321929932
1789031097733716200,6.15171630859375,0.08375962823629379,0.1285456269979477,0.9938084483146667
1789031097743720200,6.16172021484375,-0.02384619414806366,0.0505344457924366,0.9034801721572876
1789031097753724200,6.17172412109375,-0.18691277503967285,-0.02574789524078369,0.9361041188240051
1789031097763728100,6.18172802734375,-0.30482104420661926,-0.11293446272611618,1.0654520988464355
1789031097773732000,6.191732177734375,-0.40431153774261475,-0.19487053155899048,1.177533507347107
1789031097783736600,6.201736572265625,-0.4789077341556549,-0.19528092443943024,1.2098551988601685
1789031097793740500,6.211740478515625,-0.526974618434906,-0.1974673718214035,1.199574589729309
1789031097803744500,6.22174462890625,-0.5310918688774109,-0.20943854749202728,1.1337993144989014
1789031097813747700,6.231747802734375,-0.5447061061859131,-0.2163255363702774,1.052090048789978
1789031097823751400,6.24175146484375,-0.6277973055839539,-0.10874368250370026,1.013617753982544
1789031097833755400,6.25175537109375,-0.723640501499176,0.12126040458679199,1.0238806009292603
1789031097843759600,6.261759521484375,-0.6913930773735046,0.2629179358482361,1.0380113124847412
1789031097853763600,6.271763671875,-0.5308319330215454,0.15577411651611328,1.0436595678329468
1789031097863767600,6.281767578125,-0.3637979030609131,-0.11420409381389618,1.019796371459961
1789031097873771800,6.291771728515625,-0.28462502360343933,-0.33934468030929565,0.9117943048477173
1789031097883775500,6.301775390625,-0.30489540100097656,-0.480013370513916,0.7482455372810364
1789031097893779500,6.311779541015625,-0.35114040970802307,-0.6036256551742554,0.5870678424835205
1789031097903783700,6.32178369140625,-0.35518762469291687,-0.7895854115486145,0.4670865833759308
1789031097913786600,6.33178662109375,-0.3009420335292816,-1.0870013236999512,0.4219585061073303
1789031097923790300,6.341790283203125,-0.24828733503818512,-1.369965672492981,0.43770071864128113
1789031097933794600,6.351794677734375,-0.22784990072250366,-1.4823391437530518,0.42288345098495483
1789031097943798500,6.361798583984375,-0.2431766539812088,-1.4744056463241577,0.3111209571361542
1789031097953802500,6.371802490234375,-0.31212180852890015,-1.3781548738479614,0.12286815047264099
1789031097963806700,6.381806640625,-0.4087037444114685,-1.2989535331726074,0.06263277679681778
1789031097973810700,6.391810791015625,-0.46133363246917725,-1.2669836282730103,0.16858133673667908
1789031097983814400,6.401814453125,-0.41602179408073425,-1.2798359394073486,0.28882333636283875
1789031097993818600,6.411818603515625,-0.3405807912349701,-1.3672230243682861,0.29761576652526855
1789031098003821600,6.421821533203125,-0.31637078523635864,-1.3822003602981567,0.19108347594738007
1789031098013825500,6.431825439453125,-0.34214353561401367,-1.2861618995666504,0.04724294692277908
1789031098023829500,6.44182958984375,-0.39972320199012756,-1.095281720161438,-0.02660784125328064
1789031098033833500,6.45183349609375,-0.4243161082267761,-0.9071512222290039,0.015032034367322922
1789031098043837400,6.46183740234375,-0.42123615741729736,-0.7784385085105896,0.11501668393611908
1789031098053841700,6.471841552734375,-0.4070671796798706,-0.7166348695755005,0.18169313669204712
1789031098063845600,6.481845703125,-0.3481908142566681,-0.6276426911354065,0.1488286703824997
1789031098073849600,6.491849609375,-0.27544325590133667,-0.5078014135360718,-0.014989244751632214
1789031098083853600,6.501853515625,-0.2652396261692047,-0.3491044044494629,-0.21519237756729126
1789031098093856500,6.5118564453125,-0.25643816590309143,-0.1925259530544281,-0.33811113238334656
1789031098103860700,6.52186083984375,-0.17221863567829132,-0.15771816670894623,-0.3699902296066284
1789031098113864700,6.53186474609375,-0.07979102432727814,-0.20173080265522003,-0.3724728524684906
1789031098123868400,6.541868408203125,0.001737118698656559,-0.07960674911737442,-0.41018375754356384
1789031098133872400,6.551872314453125,0.020491497591137886,0.27410951256752014,-0.4640357494354248
1789031098143876600,6.561876708984375,0.006088589318096638,0.5902043581008911,-0.42515677213668823
1789031098153880600,6.571880615234375,0.05646888539195061,0.5762861371040344,-0.26757705211639404
1789031098163884500,6.581884521484375,0.12056717276573181,0.28201985359191895,-0.05370468646287918
1789031098173888500,6.591888427734375,0.13637349009513855,0.09725464135408401,0.058069486171007156
1789031098183891500,6.601891357421875,0.11111634969711304,0.2530099153518677,-0.013907238841056824
1789031098193895700,6.611895751953125,0.09062749892473221,0.633098840713501,-0.21051141619682312
1789031098203899600,6.621899658203125,0.1525326669216156,1.0151633024215698,-0.38922443985939026
1789031098213903600,6.631903564453125,0.25761669874191284,1.2035706043243408,-0.4068119525909424
1789031098223907600,6.641907470703125,0.3484877645969391,1.1362946033477783,-0.25465330481529236
1789031098233911600,6.65191162109375,0.38790223002433777,0.9385446310043335,-0.08254218846559525
1789031098243915500,6.66191552734375,0.35611021518707275,0.8418148756027222,-0.0954183042049408
1789031098253919500,6.67191943359375,0.3309227526187897,0.8993348479270935,-0.3412688672542572
1789031098263923700,6.681923828125,0.32344937324523926,0.9093126654624939,-0.5875585675239563
1789031098273926400,6.691926513671875,0.3423141837120056,0.7485902309417725,-0.686887264251709
1789031098283930600,6.7019306640625,0.34600532054901123,0.5653897523880005,-0.7467774748802185
1789031098293934600,6.7119345703125,0.3683500289916992,0.5673072934150696,-0.8955680131912231
1789031098303938600,6.7219384765625,0.4391251504421234,0.7155044674873352,-1.0265486240386963
1789031098313942800,6.73194287109375,0.5043978691101074,0.8951568007469177,-1.0294188261032104
1789031098323946500,6.741946533203125,0.5163144469261169,0.9924641847610474,-0.9184339046478271
1789031098333950500,6.751950439453125,0.48205894231796265,0.9565994739532471,-0.7829629182815552
1789031098343954700,6.76195458984375,0.4542241096496582,0.7490859627723694,-0.6435016989707947
1789031098353958700,6.771958740234375,0.4450530409812927,0.6329979300498962,-0.5961152911186218
1789031098363961300,6.78196142578125,0.4737296998500824,0.7560151815414429,-0.6673524379730225
1789031098373965600,6.791965576171875,0.5275558233261108,0.8457124829292297,-0.7462201118469238
1789031098383969500,6.801969482421875,0.5617958307266235,0.6903105974197388,-0.7610637545585632
1789031098393973500,6.811973388671875,0.5305008292198181,0.30256879329681396,-0.7408165335655212
1789031098403977700,6.821977783203125,0.44176509976387024,-0.07462696731090546,-0.7696322202682495
1789031098413981700,6.831981689453125,0.3860585689544678,-0.19469605386257172,-0.9464794993400574
1789031098423985400,6.8419853515625,0.45975491404533386,-0.08377698808908463,-1.2002688646316528
1789031098433989600,6.85198974609375,0.5516052842140198,-0.02946888655424118,-1.4035273790359497
1789031098443993600,6.86199365234375,0.5533115863800049,-0.29923510551452637,-1.4069247245788574
1789031098453996500,6.87199658203125,0.45721572637557983,-0.5192165970802307,-1.255557656288147
1789031098464000500,6.88200048828125,0.44522085785865784,-0.34570392966270447,-1.0667831897735596
1789031098474004500,6.89200439453125,0.5114305019378662,-0.016492385417222977,-0.9306516647338867
1789031098484008400,6.902008544921875,0.6198582053184509,0.21296502649784088,-0.9192051291465759
1789031098494012700,6.9120126953125,0.6761264801025391,0.23802229762077332,-0.9129547476768494
1789031098504016600,6.9220166015625,0.6822762489318848,0.19685781002044678,-0.8081707954406738
1789031098514020400,6.932020263671875,0.5889201164245605,0.28025272488594055,-0.5710727572441101
1789031098524024600,6.942024658203125,0.5020206570625305,0.5074893832206726,-0.26913610100746155
1789031098534028500,6.952028564453125,0.46480587124824524,0.7217360734939575,-0.054145243018865585
1789031098544031700,6.96203173828125,0.5423619747161865,0.7528052926063538,-0.06545435637235641
1789031098554035700,6.97203564453125,0.5562927722930908,0.5099236965179443,-0.030118966475129128
1789031098564039400,6.982039306640625,0.2949436902999878,0.4138815999031067,0.25940176844596863
1789031098574043400,6.99204345703125,-0.08865319937467575,0.7047152519226074,0.5276369452476501
1789031098584047600,7.002047607421875,-0.3424050509929657,0.9124839305877686,0.5747528076171875
1789031098594051600,7.012051513671875,-0.31050196290016174,0.9002901315689087,0.5820797085762024
1789031098604055600,7.0220556640625,-0.0487569123506546,0.8853316903114319,0.7146806120872498
1789031098614059500,7.0320595703125,0.32909682393074036,0.4221247136592865,0.7158633470535278
1789031098624063500,7.0420634765625,0.5140306949615479,-0.20236340165138245,0.6300975680351257
1789031098634066700,7.052066650390625,0.44592806696891785,-0.41509371995925903,0.6673424243927002
1789031098644070700,7.062070556640625,0.31722787022590637,-0.3698612451553345,0.7382344007492065
1789031098654074600,7.07207470703125,0.24327631294727325,-0.17718613147735596,0.6283469796180725
1789031098664078600,7.08207861328125,0.21154022216796875,-0.03139856830239296,0.25896576046943665
1789031098674082600,7.09208251953125,0.18037739396095276,0.0573362298309803,-0.2009914070367813
1789031098684086500,7.10208642578125,0.05038077011704445,0.1429091989994049,-0.7150746583938599
1789031098694090500,7.112090576171875,-0.04781337454915047,0.18122126162052155,-1.0951024293899536
1789031098704094700,7.1220947265625,-0.02106485329568386,0.1565132439136505,-1.0747121572494507
1789031098714097400,7.132097412109375,0.09533096849918365,0.057469937950372696,-0.7707882523536682
1789031098724101600,7.1421015625,0.16875670850276947,0.013889968395233154,-0.48624977469444275
1789031098734105600,7.152105712890625,0.2471388280391693,0.009698798879981041,-0.33377397060394287
1789031098744109600,7.162109619140625,0.30961817502975464,-0.06616561114788055,-0.3740156590938568
1789031098754113800,7.17211376953125,0.28503379225730896,-0.13646963238716125,-0.6425219178199768
1789031098764117500,7.182117431640625,0.19197149574756622,-0.14803867042064667,-0.8647006750106812
1789031098774121500,7.19212158203125,0.17024804651737213,-0.11575546115636826,-0.8662301301956177
1789031098784126000,7.2021259765625,0.2929422855377197,-0.12590636312961578,-0.8179227709770203
1789031098794130200,7.212130126953125,0.5059093832969666,-0.19057217240333557,-0.8410142660140991
1789031098804133000,7.222133056640625,0.6900236010551453,-0.28470054268836975,-0.8825968503952026
1789031098814137000,7.23213720703125,0.7966377139091492,-0.28222569823265076,-0.7733545303344727
1789031098824141000,7.24214111328125,0.8156763911247253,-0.15525470674037933,-0.4479614794254303
1789031098834145000,7.25214501953125,0.8337477445602417,0.07929413765668869,-0.1102023720741272
1789031098844149000,7.26214892578125,0.8368638753890991,0.3523017168045044,0.19319292902946472
1789031098854153200,7.2721533203125,0.716149628162384,0.5767942070960999,0.5261239409446716
1789031098864157000,7.282156982421875,0.5280393362045288,0.8711621761322021,0.8158572316169739
1789031098874161000,7.292160888671875,0.34253400564193726,1.3374320268630981,1.0139248371124268
1789031098884164000,7.3021640625,0.2894497513771057,1.9094995260238647,1.2279585599899292
1789031098894168000,7.31216796875,0.3380817174911499,2.4468955993652344,1.5197280645370483
1789031098904172000,7.322172119140625,0.3080686926841736,2.8187105655670166,1.8667025566101074
1789031098914176000,7.332176025390625,0.06691339612007141,2.8000426292419434,2.1959028244018555
1789031098924180000,7.342179931640625,-0.25507450103759766,2.3759756088256836,2.3410160541534424
1789031098934184200,7.35218408203125,-0.4990428388118744,1.7049145698547363,2.222170352935791
1789031098944188200,7.362188232421875,-0.6153483986854553,0.8829046487808228,1.8933278322219849
1789031098954192100,7.372192138671875,-0.6935727596282959,0.04964534565806389,1.4896104335784912
1789031098964195800,7.38219580078125,-0.7423011660575867,-0.6725898385047913,1.0696264505386353
1789031098974199000,7.392198974609375,-0.7434870600700378,-1.2478426694869995,0.7300987243652344
1789031098984203000,7.402203125,-0.6765900254249573,-1.7009515762329102,0.5302878618240356
1789031098994207200,7.412207275390625,-0.5859637260437012,-1.9447425603866577,0.42538565397262573
1789031099004211000,7.4222109375,-0.5269776582717896,-1.8815652132034302,0.3420755863189697
1789031099014215000,7.43221484375,-0.5500545501708984,-1.522723913192749,0.25047722458839417
1789031099024219100,7.44221923828125,-0.6122265458106995,-1.1770775318145752,0.24750885367393494
1789031099034223000,7.45222314453125,-0.7043772339820862,-1.2018550634384155,0.402954638004303
1789031099044227000,7.46222705078125,-0.725379228591919,-1.37846040725708,0.5296116471290588
1789031099054230000,7.47222998046875,-0.6461798548698425,-1.2733912467956543,0.4046940207481384
1789031099064234000,7.48223388671875,-0.6149575114250183,-0.9995378255844116,0.03899992257356644
1789031099074238000,7.492238037109375,-0.7573885321617126,-1.0233829021453857,-0.3297581970691681
1789031099084242200,7.5022421875,-0.8679350018501282,-1.4409290552139282,-0.4946605861186981
1789031099094246100,7.51224609375,-0.8194934725761414,-1.8514678478240967,-0.41173985600471497
1789031099104249900,7.522249755859375,-0.6602728962898254,-1.6742347478866577,-0.177456796169281
1789031099114254000,7.532254150390625,-0.5288642048835754,-0.9155682921409607,0.05919890105724335
1789031099124258000,7.542258056640625,-0.44218340516090393,-0.0220791045576334,0.10006856918334961
1789031099134262000,7.552261962890625,-0.47050249576568604,0.662423849105835,0.06741044670343399
1789031099144265200,7.56226513671875,-0.5630452036857605,0.9163112640380859,0.1396055519580841
1789031099154269000,7.57226904296875,-0.666386067867279,0.7469140887260437,0.3527405261993408
1789031099164273000,7.58227294921875,-0.7254600524902344,0.6553487777709961,0.49365317821502686
1789031099174277000,7.592277099609375,-0.6932910084724426,0.9799414873123169,0.4128184914588928
1789031099184281000,7.602281005859375,-0.6056844592094421,1.3293142318725586,0.26512065529823303
1789031099194285000,7.61228515625,-0.508845865726471,1.3116755485534668,0.16151860356330872
1789031099204289000,7.6222890625,-0.44845595955848694,0.9620959758758545,0.11198487132787704
1789031099214293000,7.63229296875,-0.43020257353782654,0.5773880481719971,0.03586643561720848
1789031099224296200,7.642296142578125,-0.42739400267601013,0.30353763699531555,-0.08811622858047485
1789031099234300200,7.652300048828125,-0.3829648494720459,0.05197799578309059,-0.21342997252941132
1789031099244304100,7.66230419921875,-0.28145313262939453,-0.17882566154003143,-0.31236907839775085
1789031099254308000,7.67230810546875,-0.22428570687770844,-0.18154099583625793,-0.3709509074687958
1789031099264312000,7.68231201171875,-0.2351766973733902,-0.11911410838365555,-0.2979768216609955
1789031099274316000,7.69231591796875,-0.21840019524097443,-0.17112214863300323,-0.10560579597949982
1789031099284320000,7.702320068359375,-0.14528070390224457,-0.2190052568912506,0.08020694553852081
1789031099294324200,7.71232421875,-0.061753276735544205,-0.13557812571525574,0.15003052353858948
1789031099304328000,7.722327880859375,-0.06674403697252274,0.13703130185604095,0.015474038198590279
1789031099314331100,7.7323310546875,-0.08393718302249908,0.3962472081184387,-0.1640843003988266
1789031099324335000,7.742335205078125,-0.019876714795827866,0.5096752047538757,-0.19667872786521912
1789031099334339000,7.752339111328125,0.16410531103610992,0.5577777028083801,-0.059749919921159744
1789031099344343000,7.762343017578125,0.2757847011089325,0.625098705291748,0.08649276942014694
1789031099354347000,7.772346923828125,0.21847563982009888,0.6667790412902832,0.1282719373703003
1789031099364351000,7.78235107421875,0.07715047150850296,0.5969030261039734,0.06311476230621338
1789031099374355200,7.792355224609375,0.02250353991985321,0.5169631242752075,-0.10481295734643936
1789031099384359200,7.802359130859375,0.08344385772943497,0.42187175154685974,-0.22257688641548157
1789031099394361900,7.81236181640625,0.1772233098745346,0.24598684906959534,-0.2064831554889679
1789031099404366000,7.822365966796875,0.309649258852005,0.1362675428390503,-0.1928754597902298
1789031099414370000,7.8323701171875,0.36619383096694946,0.18797770142555237,-0.21835282444953918
1789031099424374000,7.8423740234375,0.2689277231693268,0.14179955422878265,-0.1581059992313385
1789031099434378200,7.852378173828125,0.15832634270191193,-0.09544635564088821,-0.07594963163137436
1789031099444382000,7.8623818359375,0.19449952244758606,-0.2114318162202835,-0.19888700544834137
1789031099454386000,7.872385986328125,0.2892502248287201,-0.13939033448696136,-0.4535118341445923
1789031099464390100,7.88239013671875,0.30954882502555847,-0.12435200065374374,-0.6015177965164185
1789031099474393000,7.89239306640625,0.3098868131637573,-0.27987611293792725,-0.5488420724868774
1789031099484397000,7.90239697265625,0.31805285811424255,-0.5127895474433899,-0.39600807428359985
1789031099494401000,7.912401123046875,0.3092104494571686,-0.6509868502616882,-0.3391979932785034
1789031099504405000,7.922405029296875,0.3078586459159851,-0.7550219297409058,-0.35658442974090576
1789031099514409000,7.932408935546875,0.2812444865703583,-0.8394099473953247,-0.39648744463920593
1789031099524413200,7.9424130859375,0.34197068214416504,-0.7284368276596069,-0.5985185503959656
1789031099534417200,7.952417236328125,0.5531530380249023,-0.6052241921424866,-1.082584261894226
1789031099544420900,7.9624208984375,0.6667783856391907,-1.003836750984192,-1.3482547998428345
1789031099554424000,7.972424072265625,0.4119971692562103,-1.6401705741882324,-1.092278242111206
1789031099564428000,7.982427978515625,-0.006402470171451569,-1.7322901487350464,-0.7515605688095093
1789031099574432300,7.992432373046875,-0.31909430027008057,-0.6841511726379395,-0.6710079312324524
1789031099584436200,8.002436279296875,-0.23613817989826202,0.8198634386062622,-0.6567312479019165
1789031099594440000,8.01243994140625,0.28377947211265564,1.6316683292388916,-0.7987465262413025
1789031099604444000,8.02244384765625,0.9354568719863892,1.1821709871292114,-0.9963115453720093
1789031099614448000,8.0324482421875,0.9779343605041504,0.2564493417739868,-0.6577051877975464
1789031099624452000,8.0424521484375,0.5040000677108765,-0.1946805715560913,0.24769392609596252
1789031099634455000,8.052455078125,0.24316802620887756,0.26926982402801514,0.7070289850234985
1789031099644459000,8.062458984375,0.184910848736763,0.6633710861206055,0.5126562714576721
1789031099654463000,8.072462890625,0.29077672958374023,0.3878746032714844,0.1851314902305603
1789031099664467200,8.08246728515625,0.3680320978164673,-0.04362352937459946,0.24833789467811584
1789031099674471200,8.09247119140625,0.29768145084381104,-0.39863869547843933,0.6427499055862427
1789031099684475000,8.102474853515625,0.05527069419622421,-0.5169522762298584,0.9372673034667969
1789031099694479000,8.11247900390625,-0.24483588337898254,-0.3767630457878113,1.0561549663543701
1789031099704483000,8.122483154296875,-0.2950175702571869,-0.23694947361946106,0.9860507249832153
1789031099714486000,8.132486083984375,-0.09950130432844162,-0.4897126853466034,0.616801917552948
1789031099724490200,8.142490234375,0.11134088784456253,-0.891162097454071,0.3302987813949585
1789031099734494000,8.152493896484375,0.23765785992145538,-0.9832257032394409,0.24018621444702148
1789031099744498000,8.162497802734375,0.23860754072666168,-0.8136957883834839,0.17873165011405945
1789031099754502100,8.172502197265626,0.1788962185382843,-0.584872305393219,-0.016569972038269043
1789031099764506000,8.182506103515625,0.1425648331642151,-0.3533168435096741,-0.4270813465118408
1789031099774510000,8.192510009765625,0.1419593244791031,-0.19207517802715302,-0.8493883609771729
1789031099784514000,8.20251416015625,0.28613966703414917,-0.08032787591218948,-1.0230543613433838
1789031099794517000,8.21251708984375,0.5336528420448303,0.07334400713443756,-0.8786783218383789
1789031099804521000,8.22252099609375,0.6696538329124451,0.2602646052837372,-0.4048505425453186
1789031099814525000,8.23252490234375,0.5164620280265808,0.5091720819473267,0.2803754210472107
1789031099824529000,8.24252880859375,0.10006129741668701,0.8241707682609558,0.9494463801383972
1789031099834532900,8.252532958984375,-0.24057996273040771,0.9923251867294312,1.2300868034362793
1789031099844537000,8.262537109375,-0.23072439432144165,1.0088964700698853,0.7912937998771667
1789031099854541000,8.272541015625,-0.06227194517850876,0.8266320824623108,0.19342586398124695
1789031099864544800,8.282544677734375,0.11139944195747375,0.4266844093799591,0.0633392333984375
1789031099874548000,8.2925478515625,0.32095640897750854,0.08326181769371033,0.39800670742988586
1789031099884552000,8.302552001953124,0.41323041915893555,0.03899474814534187,0.8746765851974487
1789031099894556200,8.31255615234375,0.30069243907928467,0.1929391622543335,1.2603307962417603
1789031099904560000,8.32256005859375,0.13372847437858582,0.42684540152549744,1.442588448524475
1789031099914563800,8.332563720703124,0.01716146431863308,0.6895824074745178,1.4160312414169312
1789031099924568000,8.342568115234375,-0.10443047434091568,0.8479254245758057,1.3083386421203613
1789031099934572000,8.352572021484375,-0.23369312286376953,0.7423117160797119,1.2270405292510986
1789031099944576000,8.362575927734374,-0.39129313826560974,0.43029606342315674,1.1579781770706177
1789031099954579000,8.372578857421875,-0.4998176097869873,-0.017162078991532326,1.0426011085510254
1789031099964583000,8.3825830078125,-0.5262811183929443,-0.5319972038269043,0.8628489375114441
1789031099974587000,8.3925869140625,-0.548030436038971,-0.9904947876930237,0.6903602480888367
1789031099984591000,8.402591064453125,-0.6125694513320923,-1.2641769647598267,0.5657749176025391
1789031099994595000,8.412594970703125,-0.6590933203697205,-1.4007210731506348,0.5022116303443909
1789031100004599000,8.42259912109375,-0.6431782841682434,-1.5038655996322632,0.48352450132369995
1789031100014603000,8.43260302734375,-0.599796712398529,-1.5848116874694824,0.48027411103248596
1789031100024606000,8.44260595703125,-0.5654237866401672,-1.6000863313674927,0.4607086777687073
1789031100034610000,8.45260986328125,-0.5075109004974365,-1.544804334640503,0.42176875472068787
1789031100044614100,8.4626142578125,-0.4498215317726135,-1.4665718078613281,0.3635976016521454
1789031100054617900,8.472617919921875,-0.4300239682197571,-1.3571778535842896,0.28536903858184814
1789031100064621800,8.482621826171876,-0.41704025864601135,-1.2247180938720703,0.20991423726081848
1789031100074626000,8.4926259765625,-0.40551891922950745,-1.2135818004608154,0.1216493546962738
1789031100084630000,8.502630126953125,-0.4229453206062317,-1.4839906692504883,0.04590478911995888
1789031100094634000,8.512634033203126,-0.45761629939079285,-1.7210943698883057,0.014522440731525421
1789031100104637000,8.522636962890624,-0.5014538168907166,-1.6850969791412354,0.0768638476729393
1789031100114641000,8.532640869140625,-0.5174503922462463,-1.4606715440750122,0.20104676485061646
1789031100124645000,8.54264501953125,-0.42543789744377136,-1.0745283365249634,0.28707003593444824
1789031100134649000,8.552649169921875,-0.2807297706604004,-0.4956740438938141,0.31849905848503113
1789031100144653000,8.562653076171875,-0.2176317572593689,-0.015518332831561565,0.3808005154132843
1789031100154656800,8.57265673828125,-0.16170918941497803,0.1863977015018463,0.3965781331062317
1789031100164661000,8.582660888671874,-0.07263470441102982,0.20228798687458038,0.2814826965332031
1789031100174664000,8.592663818359375,-0.07317819446325302,0.4370121657848358,0.11150140315294266
1789031100184668200,8.602668212890626,-0.15423549711704254,0.7948709726333618,-0.01629464514553547
1789031100194671900,8.612671875,-0.18229131400585175,1.0391818284988403,-0.0818568542599678
1789031100204675800,8.62267578125,-0.09520382434129715,1.1518950462341309,-0.11590670049190521
1789031100214680000,8.63268017578125,0.04151836037635803,1.2738341093063354,-0.13529956340789795
1789031100224684000,8.64268408203125,0.1217639297246933,1.293134093284607,-0.09816471487283707
1789031100234688000,8.65268798828125,0.16429664194583893,1.0738563537597656,-0.03896774351596832
1789031100244692000,8.66269189453125,0.22099082171916962,0.8688228130340576,-0.10893431305885315
1789031100254695000,8.67269482421875,0.19700221717357635,0.7302044630050659,-0.2703237235546112
1789031100264699000,8.682698974609375,0.0981946736574173,0.4578467011451721,-0.31973013281822205
1789031100274703000,8.692703125,0.06133648753166199,0.12373623251914978,-0.21097490191459656
1789031100284707000,8.70270703125,0.1071212887763977,-0.020350905135273933,-0.06826409697532654
1789031100294710800,8.712710693359375,0.1645459681749344,0.1387348175048828,-0.051899503916502
1789031100304715000,8.722715087890625,0.199898362159729,0.430005818605423,-0.13668736815452576
1789031100314719000,8.732718994140624,0.2536444365978241,0.6551626920700073,-0.2748681306838989
1789031100324722200,8.74272216796875,0.33263111114501953,0.8214938640594482,-0.4689768850803375
1789031100334726100,8.75272607421875,0.41327211260795593,0.9155827164649963,-0.6219344735145569
1789031100344729900,8.762729736328126,0.4223867952823639,0.8125948309898376,-0.5841772556304932
1789031100354733800,8.77273388671875,0.33160400390625,0.5155797600746155,-0.3864324390888214
1789031100364738000,8.782738037109375,0.15497277677059174,0.2373441755771637,-0.24141347408294678
1789031100374742000,8.792741943359376,0.05046754330396652,0.1983579695224762,-0.30771613121032715
1789031100384746000,8.80274609375,0.008212500251829624,0.2685042917728424,-0.45958662033081055
1789031100394750000,8.81275,-0.008266672492027283,0.2542218863964081,-0.5837154984474182
1789031100404753000,8.8227529296875,-0.010020630434155464,0.1790352463722229,-0.6930539608001709
1789031100414757000,8.832757080078125,0.00182400643825531,0.2055700272321701,-0.8306808471679688
1789031100424761000,8.842760986328125,0.027911268174648285,0.25182247161865234,-0.9057502746582031
1789031100434764800,8.852764892578126,0.023292675614356995,0.20685693621635437,-0.8957777619361877
1789031100444769000,8.86276904296875,-0.0026158869732171297,0.08463488519191742,-0.9039525985717773
1789031100454773000,8.87277294921875,-0.027775082737207413,-0.11283313482999802,-0.9021917581558228
1789031100464777000,8.88277685546875,-0.1110910102725029,-0.37194380164146423,-0.8460251688957214
1789031100474780200,8.8927802734375,-0.1985446810722351,-0.5450243353843689,-0.7978363037109375
1789031100484783900,8.902783935546875,-0.24805817008018494,-0.4662778973579407,-0.8140349984169006
1789031100494787800,8.912787841796876,-0.14344844222068787,-0.06873665750026703,-0.9356666207313538
1789031100504792000,8.9227919921875,0.08011648803949356,0.35050827264785767,-1.0766217708587646
1789031100514796000,8.932796142578125,0.26891735196113586,0.35683301091194153,-1.0550355911254883
1789031100524800000,8.942800048828126,0.2848318815231323,-0.07271758466959,-0.7560461759567261
1789031100534804000,8.952803955078124,0.16501674056053162,-0.33245158195495605,-0.3772405982017517
1789031100544807000,8.962806884765625,0.09172281622886658,0.0242756437510252,-0.16388386487960815
1789031100554811000,8.972810791015625,0.1189299076795578,0.6315682530403137,-0.09244910627603531
1789031100564815000,8.982815185546874,0.1342627853155136,0.9342468976974487,-0.07114115357398987
1789031100574819000,8.992819091796875,0.20601509511470795,0.8342903256416321,-0.21750791370868683
1789031100584822800,9.00282275390625,0.23100939393043518,0.4283929467201233,-0.355632483959198
1789031100594827000,9.012826904296874,0.07800628989934921,0.016859648749232292,-0.21600614488124847
1789031100604831000,9.0228310546875,-0.10434488207101822,-0.07816273719072342,0.04329279810190201
1789031100614834200,9.032834228515625,-0.049173031002283096,0.3538900315761566,0.05967200919985771
1789031100624838000,9.042837890625,0.17152313888072968,0.7542654275894165,-0.26828083395957947
1789031100634841900,9.052841796875,0.32471978664398193,0.3968513011932373,-0.5526747703552246
1789031100644846000,9.06284619140625,0.37569108605384827,-0.06332187354564667,-0.4673044681549072
1789031100654850000,9.07285009765625,0.4001767337322235,-0.13197438418865204,-0.20310106873512268
1789031100664854000,9.08285400390625,0.26706793904304504,-0.11043287068605423,0.09645288437604904
1789031100674858000,9.09285791015625,-0.022818515077233315,-0.19940464198589325,0.4667600989341736
1789031100684861000,9.10286083984375,-0.12137891352176666,-0.1999409943819046,0.714268684387207
1789031100694865000,9.112864990234375,-0.011351912282407284,-0.1603589951992035,0.5992121696472168
1789031100704869000,9.122869140625,0.024845238775014877,-0.22091235220432281,0.3989781439304352
1789031100714873000,9.132873046875,0.04245993122458458,-0.21966184675693512,0.38019782304763794
1789031100724876800,9.142876708984375,0.08018095046281815,-0.2111240178346634,0.3031770884990692
1789031100734881000,9.152881103515625,0.02105652540922165,-0.28846055269241333,0.056583747267723083
1789031100744885000,9.162885009765626,-0.09450256079435349,-0.2974596321582794,-0.032946936786174774
1789031100754888000,9.172887939453124,-0.13264551758766174,-0.11479073017835617,0.06710144877433777
1789031100764892000,9.182891845703125,0.010464508086442947,0.022995630279183388,-0.1601809710264206
1789031100774895900,9.192895751953126,0.13310998678207397,-0.10592740774154663,-0.42312660813331604
1789031100784898800,9.20289892578125,0.19643302261829376,-0.32018139958381653,-0.2974245846271515
1789031100794902800,9.21290283203125,0.3221200108528137,-0.3588394820690155,-0.13145005702972412
1789031100804906800,9.22290673828125,0.4195767939090729,-0.235382542014122,-0.1751037985086441
1789031100814911000,9.232910888671874,0.33163896203041077,-0.1393556147813797,-0.04085783660411835
1789031100824913700,9.24291357421875,0.20661097764968872,-0.047959644347429276,0.2842608392238617
1789031100834918000,9.25291796875,0.23332668840885162,0.025765879079699516,0.41974836587905884
1789031100844921900,9.262921875,0.23532937467098236,-0.09698933362960815,0.2739301919937134
1789031100854925800,9.27292578125,0.04036132991313934,-0.3641064465045929,0.09909476339817047
1789031100864929800,9.2829296875,-0.14945121109485626,-0.374967098236084,0.017516275867819786
1789031100874933800,9.292933837890626,0.01915031671524048,0.021442558616399765,-0.09077876806259155
1789031100884937700,9.302937744140625,0.36028367280960083,0.2784985899925232,-0.06484650075435638
1789031100894941000,9.31294091796875,0.585130512714386,0.28909337520599365,0.14381647109985352
1789031100904945000,9.32294482421875,0.598132848739624,0.2281319946050644,0.2929987609386444
1789031100914948600,9.332948486328124,0.5117270350456238,0.17653588950634003,0.32596999406814575
1789031100924952800,9.342952880859375,0.3170217275619507,0.05163710191845894,0.3865683674812317
1789031100934956800,9.352956787109376,-0.02271359972655773,-0.1522873491048813,0.4753572940826416
1789031100944960800,9.362960693359375,-0.19212126731872559,-0.2952732443809509,0.5155267715454102
1789031100954965000,9.372965087890625,0.06453084945678711,-0.17333385348320007,0.3243640959262848
1789031100964967700,9.3829677734375,0.2472708374261856,-0.0893462672829628,0.01983668841421604
1789031100974971600,9.3929716796875,0.2184707224369049,-0.19013077020645142,-0.05734764784574509
1789031100984976000,9.402975830078125,0.143354132771492,-0.3226270079612732,0.06081227958202362
1789031100994979800,9.412979736328126,0.06881198287010193,-0.4622465968132019,0.2623920142650604
1789031101004983800,9.42298388671875,0.021969109773635864,-0.5589187741279602,0.4270523190498352
1789031101014987800,9.43298779296875,0.034205347299575806,-0.46271705627441406,0.4065955579280853
1789031101024991700,9.44299169921875,0.08099069446325302,-0.27363473176956177,0.18526822328567505
1789031101034995000,9.452994873046874,0.04677781090140343,-0.25169944763183594,-0.033731527626514435
1789031101044999000,9.4629990234375,0.031965043395757675,-0.359513521194458,-0.06853931397199631
1789031101055003000,9.4730029296875,0.1488802284002304,-0.36099350452423096,-0.010204624384641647
1789031101065006800,9.4830068359375,0.3179238438606262,-0.2698385417461395,-0.00590521702542901
1789031101075010800,9.4930107421875,0.40798506140708923,-0.16791123151779175,-0.05113339424133301
1789031101085014800,9.503014892578125,0.35844120383262634,-0.0322418212890625,-0.030774062499403954
1789031101095018800,9.513018798828124,0.1332879364490509,-0.10508942604064941,0.18053895235061646
1789031101105021700,9.523021728515625,-0.03695649281144142,-0.1766698807477951,0.3899451792240143
1789031101115025700,9.533025634765625,-0.09226898849010468,-0.07749506086111069,0.3852020800113678
1789031101125030000,9.54302978515625,-0.07641758769750595,0.06403596699237823,0.17612504959106445
1789031101135033900,9.553033935546875,-0.056330401450395584,0.1523110568523407,-0.06827003508806229
1789031101145037800,9.563037841796875,0.03688209876418114,0.2618196904659271,-0.22524899244308472
1789031101155041800,9.573041748046874,0.20045846700668335,0.39849743247032166,-0.2521112561225891
1789031101165045800,9.583045654296875,0.30767253041267395,0.48490607738494873,-0.21497854590415955
1789031101175048700,9.593048583984375,0.3355776369571686,0.5668337345123291,-0.18468670547008514
1789031101185053000,9.603052978515626,0.24406155943870544,0.6219497323036194,-0.14398854970932007
1789031101195057000,9.613056884765625,0.0727611631155014,0.7153886556625366,-0.11018078774213791
1789031101205060600,9.623060546875,-0.11755045503377914,0.8109522461891174,-0.08826190233230591
1789031101215064800,9.63306494140625,-0.28391405940055847,0.7286339402198792,-0.0727553442120552
1789031101225068800,9.64306884765625,-0.406668484210968,0.46289628744125366,-0.1046629473567009
1789031101235072000,9.653072021484375,-0.4406816065311432,0.11919499188661575,-0.21384938061237335
1789031101245075700,9.66307568359375,-0.4130992591381073,-0.23751385509967804,-0.34311893582344055
1789031101255079700,9.67307958984375,-0.4637075960636139,-0.5177743434906006,-0.37779733538627625
1789031101265084000,9.683083984375,-0.5258178114891052,-0.6812887191772461,-0.38601210713386536
1789031101275088000,9.693087890625,-0.5081671476364136,-0.7166962623596191,-0.40109992027282715
1789031101285091800,9.703091796875,-0.4393715560436249,-0.5680588483810425,-0.4481595754623413
1789031101295095800,9.713095703125,-0.34655991196632385,-0.27447280287742615,-0.5340422987937927
1789031101305098800,9.7230986328125,-0.2980341911315918,-0.09612756222486496,-0.5750499367713928
1789031101315102700,9.733102783203124,-0.2803443968296051,-0.1522408276796341,-0.5344966053962708
1789031101325107000,9.74310693359375,-0.2413882166147232,-0.21987074613571167,-0.47603756189346313
1789031101335111000,9.75311083984375,-0.13788984715938568,-0.08714322000741959,-0.4932890236377716
1789031101345114600,9.763114501953124,0.08931934088468552,0.23909001052379608,-0.6307513117790222
1789031101355118800,9.773118896484375,0.28058716654777527,0.30221131443977356,-0.7380124926567078
1789031101365122800,9.783122802734376,0.3267684876918793,0.025290770456194878,-0.5349725484848022
1789031101375125800,9.793125732421874,0.28456056118011475,-0.06258775293827057,-0.16567915678024292
1789031101385130000,9.8031298828125,0.27885952591896057,0.13267068564891815,0.11912461370229721
1789031101395133700,9.8131337890625,0.2792029082775116,0.29846328496932983,0.16605965793132782
1789031101405137700,9.8231376953125,0.25521954894065857,0.34277987480163574,0.09719004482030869
1789031101415142000,9.833141845703125,0.18450404703617096,0.2722403109073639,0.11075057089328766
1789031101425145900,9.843145751953125,0.10530855506658554,0.13042965531349182,0.18221783638000488
1789031101435148800,9.853148681640626,0.11747772246599197,0.11624929308891296,0.15626712143421173
1789031101445152800,9.86315283203125,0.1386495977640152,0.22336669266223907,0.041420429944992065
1789031101455156700,9.87315673828125,0.06062727048993111,0.2374628335237503,-0.03245456516742706
1789031101465161000,9.883160888671876,-0.10578087717294693,0.052360888570547104,0.028536085039377213
1789031101475165000,9.8931650390625,-0.29143619537353516,-0.23394395411014557,0.22421586513519287
1789031101485168600,9.903168701171875,-0.4174617826938629,-0.3984180986881256,0.34809839725494385
1789031101495171800,9.913171875,-0.43593108654022217,-0.34878286719322205,0.22716155648231506
1789031101505175800,9.92317578125,-0.39169996976852417,-0.17550723254680634,-0.11573134362697601
1789031101515179800,9.9331796875,-0.3312951922416687,-0.10819154232740402,-0.43708139657974243
1789031101525184000,9.94318408203125,-0.32137757539749146,-0.13641013205051422,-0.5887427926063538
1789031101535187700,9.953187744140624,-0.3354625105857849,-0.13452117145061493,-0.5456374287605286
1789031101545191700,9.963191650390625,-0.2820669412612915,0.03980642929673195,-0.46833279728889465
1789031101555196000,9.97319580078125,-0.18350312113761902,0.3682442009449005,-0.48616746068000793
1789031101565198800,9.98319873046875,-0.1535867601633072,0.6430899500846863,-0.5029554963111877
1789031101575202800,9.993202880859375,-0.18769963085651398,0.7247381806373596,-0.4503958225250244
1789031101585206800,10.003206787109375,-0.18375654518604279,0.6832826137542725,-0.35292333364486694
1789031101595210800,10.013210693359374,-0.1156950369477272,0.6034759283065796,-0.2667807936668396
1789031101605214700,10.023214599609375,-0.03642924502491951,0.5128373503684998,-0.2041485607624054
1789031101615219000,10.033218994140626,0.03569347783923149,0.414480060338974,-0.07632079720497131
1789031101625221600,10.0432216796875,0.11036425083875656,0.31924009323120117,0.08277112245559692
1789031101635225900,10.053225830078125,0.16026188433170319,0.23033343255519867,0.14607678353786469
1789031101645229800,10.063229736328125,0.16698263585567474,0.15283437073230743,0.16294178366661072
1789031101655233800,10.07323388671875,0.1971464604139328,0.12864744663238525,0.1157657727599144
1789031101665238000,10.083238037109375,0.25400999188423157,0.2096509486436844,-0.07235220074653625
1789031101675241700,10.09324169921875,0.19896648824214935,0.31219053268432617,-0.27558785676956177
1789031101685244700,10.10324462890625,0.06401267647743225,0.28629207611083984,-0.2902562916278839
1789031101695249000,10.113248779296875,-0.03680442273616791,0.22008927166461945,-0.109124556183815
1789031101705252900,10.1232529296875,-0.0988619327545166,0.18863174319267273,0.08854565024375916
1789031101715256800,10.1332568359375,-0.14338496327400208,0.1920424997806549,0.1733524054288864
1789031101725260800,10.1432607421875,-0.15545333921909332,0.13143107295036316,0.20307619869709015
1789031101735264800,10.1532646484375,-0.11915593594312668,-0.07632605731487274,0.2636646330356598
1789031101745268700,10.163268798828126,-0.042824938893318176,-0.3851163983345032,0.3472708463668823
1789031101755272000,10.17327197265625,0.03909491375088692,-0.6780194640159607,0.4309599995613098
1789031101765275600,10.183275634765625,0.02412714995443821,-0.8693904876708984,0.46905919909477234
1789031101775279900,10.19327978515625,-0.012088249437510967,-0.9370000958442688,0.4299812316894531
1789031101785285000,10.20328515625,-0.025589942932128906,-0.8666013479232788,0.34235817193984985
1789031101795289000,10.2132890625,-0.01861892081797123,-0.7569959759712219,0.30547788739204407
1789031101805293000,10.22329296875,-0.000007152673788368702,-0.7513338327407837,0.38137027621269226
1789031101815296000,10.2332958984375,0.03263270482420921,-0.866346538066864,0.5225972533226013
1789031101825300000,10.243300048828125,-0.014934016391634941,-1.0855809450149536,0.6656891107559204
1789031101835304000,10.253303955078126,-0.2189788669347763,-1.2565147876739502,0.7136297225952148
1789031101845308200,10.26330810546875,-0.3597162663936615,-1.1257541179656982,0.589662492275238
1789031101855312000,10.273311767578125,-0.20622947812080383,-0.5003381967544556,0.3006083369255066
1789031101865315800,10.28331591796875,0.1003459021449089,0.2633538544178009,0.013668978586792946
1789031101875319000,10.293319091796874,0.6244950294494629,0.7963955402374268,-0.17982570827007294
1789031101885323000,10.303322998046875,1.2080538272857666,1.1474305391311646,0.05437561124563217
1789031101895327000,10.313326904296876,1.5376026630401611,1.6093263626098633,0.5340026021003723
1789031101905331000,10.3233310546875,1.4658632278442383,2.218491315841675,0.8121647238731384
1789031101915335000,10.3333349609375,1.2935473918914795,2.562781572341919,0.9272695779800415
1789031101925339000,10.3433388671875,1.125990629196167,2.618788957595825,1.0173836946487427
1789031101935343000,10.353343017578124,0.8134362101554871,2.415630578994751,1.1145310401916504
1789031101945345800,10.363345703125,0.2556525766849518,1.8303402662277222,1.2325814962387085
1789031101955350000,10.37335009765625,-0.3383665084838867,0.9196198582649231,1.3038232326507568
1789031101965354000,10.38335400390625,-0.7938759922981262,0.02326909452676773,1.2532190084457397
1789031101975358000,10.39335791015625,-1.0286864042282104,-0.71079021692276,1.0680018663406372
1789031101985362200,10.403362060546876,-1.0411369800567627,-1.2526448965072632,0.7720256447792053
1789031101995366100,10.4133662109375,-0.9083578586578369,-1.5568996667861938,0.40017297863960266
1789031102005368800,10.423368896484375,-0.7455809712409973,-1.6376514434814453,0.03135871887207031
1789031102015373000,10.433373046875,-0.6038131713867188,-1.5611822605133057,-0.2505429983139038
1789031102025377000,10.443376953125,-0.49038514494895935,-1.4387702941894531,-0.37255650758743286
1789031102035381000,10.453381103515625,-0.4306456446647644,-1.3410773277282715,-0.31290438771247864
1789031102045385000,10.463385009765625,-0.5184870958328247,-1.166813850402832,-0.1520792841911316
1789031102055389000,10.473388916015624,-0.5740549564361572,-0.9076963067054749,0.02550031617283821
1789031102065392000,10.48339208984375,-0.6302638649940491,-0.6711050868034363,0.22632981836795807
1789031102075396000,10.49339599609375,-0.7221155166625977,-0.570469081401825,0.44262218475341797
1789031102085399800,10.50339990234375,-0.8030726909637451,-0.638601541519165,0.604916512966156
1789031102095404000,10.513404052734375,-0.8016319274902344,-0.7934114933013916,0.6458829045295715
1789031102105408000,10.523407958984375,-0.7717408537864685,-1.0616182088851929,0.6165282130241394
1789031102115412000,10.533411865234376,-0.6690047383308411,-1.3255083560943604,0.5203166604042053
1789031102125415200,10.543415283203124,-0.5446524024009705,-1.3398295640945435,0.2498510628938675
1789031102135419000,10.5534189453125,-0.4958789348602295,-1.039644718170166,-0.09953989833593369
1789031102145422800,10.5634228515625,-0.43354764580726624,-0.6957628726959229,-0.2689667344093323
1789031102155427000,10.573427001953124,-0.269424170255661,-0.46053239703178406,-0.12320420145988464
1789031102165431000,10.58343115234375,-0.13645468652248383,-0.18003948032855988,0.16605184972286224
1789031102175435000,10.59343505859375,-0.16139821708202362,-0.05424926057457924,0.3515385687351227
1789031102185438000,10.60343798828125,-0.18223585188388824,-0.24724161624908447,0.3037033975124359
1789031102195442000,10.61344189453125,-0.2066604197025299,-0.49854743480682373,0.11934345215559006
1789031102205446000,10.62344580078125,-0.32156383991241455,-0.6623475551605225,-0.06920088827610016
1789031102215450000,10.6334501953125,-0.484846830368042,-0.7760045528411865,-0.18174424767494202
1789031102225454000,10.6434541015625,-0.5824236869812012,-0.9354698657989502,-0.18407930433750153
1789031102235457800,10.653457763671875,-0.4827682077884674,-1.1469048261642456,-0.09118449687957764
1789031102245461000,10.6634609375,-0.312186062335968,-0.975227415561676,0.02877786010503769
1789031102255465000,10.67346484375,-0.21681995689868927,-0.2985248565673828,0.10370557755231857
1789031102265469200,10.68346923828125,-0.30714505910873413,0.3704763650894165,0.15333439409732819
1789031102275473000,10.693472900390624,-0.4068390727043152,0.6063960790634155,0.13528378307819366
1789031102285476900,10.703476806640625,-0.38665711879730225,0.8488255143165588,0.06221836432814598
1789031102295481000,10.713481201171875,-0.2730189859867096,1.2025359869003296,0.0052019450813531876
1789031102305484000,10.723484130859376,-0.11739902943372726,1.550532341003418,-0.056486986577510834
1789031102315487700,10.73348779296875,0.05351940169930458,1.8356322050094604,-0.18571211397647858
1789031102325492000,10.743491943359375,0.1952187418937683,2.0290493965148926,-0.3774951100349426
1789031102335496000,10.753495849609376,0.2788954973220825,2.057809591293335,-0.6167612671852112
1789031102345500000,10.7635,0.2951200008392334,1.8009718656539917,-0.8700230717658997
1789031102355504000,10.773504150390625,0.31755876541137695,1.180067539215088,-0.9312810897827148
1789031102365506800,10.7835068359375,0.33729302883148193,0.4596106708049774,-0.8074966073036194
1789031102375511000,10.793510986328124,0.2913689613342285,0.05957162007689476,-0.7226219177246094
1789031102385515000,10.803514892578125,0.2617167830467224,0.0838809609413147,-0.7787344455718994
1789031102395519000,10.81351904296875,0.25907060503959656,0.2388000786304474,-0.8202853798866272
1789031102405523000,10.82352294921875,0.3408142030239105,0.20989839732646942,-0.7266355752944946
1789031102415526000,10.83352587890625,0.41776737570762634,0.0885171964764595,-0.5943941473960876
1789031102425529900,10.84352978515625,0.45937713980674744,0.04453456029295921,-0.564772367477417
1789031102435534000,10.8535341796875,0.5207177996635437,0.1839662492275238,-0.6909262537956238
1789031102445538000,10.8635380859375,0.5918079614639282,0.35570043325424194,-0.8746212124824524
1789031102455542000,10.8735419921875,0.6749358773231506,0.39318785071372986,-0.9445643424987793
1789031102465546000,10.8835458984375,0.7220975160598755,0.2768750786781311,-0.8248145580291748
1789031102475549000,10.893548828125,0.7397611737251282,0.2227090448141098,-0.6982669830322266
1789031102485553200,10.90355322265625,0.7274174094200134,0.23384878039360046,-0.5933514833450317
1789031102495557000,10.91355712890625,0.6583558917045593,0.1909363865852356,-0.49123746156692505
1789031102505560800,10.923560791015625,0.540034294128418,0.09622372686862946,-0.44802045822143555
1789031102515564800,10.933564697265625,0.44723761081695557,0.0993245542049408,-0.5548723340034485
1789031102525569000,10.943569091796874,0.3928835690021515,0.16377438604831696,-0.7551489472389221
1789031102535572000,10.953572021484375,0.32023945450782776,0.17478786408901215,-0.8947300314903259
1789031102545576200,10.963576171875,0.24282002449035645,0.17322991788387299,-0.9463889598846436
1789031102555580000,10.973579833984376,0.24783189594745636,0.3095625042915344,-0.9893201589584351
1789031102565584000,10.983583984375,0.3072070777416229,0.5661202073097229,-1.0643864870071411
1789031102575588000,10.993588134765625,0.3714727759361267,0.693990170955658,-0.9980402588844299
1789031102585592000,11.003592041015626,0.410162091255188,0.6940168142318726,-0.75394606590271
1789031102595595000,11.013594970703124,0.41007936000823975,0.638805627822876,-0.46121400594711304
1789031102605599000,11.023598876953125,0.4203130900859833,0.5177479386329651,-0.07741200178861618
1789031102615603000,11.03360302734375,0.3791123628616333,0.48232319951057434,0.3046051263809204
1789031102625607000,11.04360693359375,0.4472237825393677,0.7049770355224609,0.6654930114746094
1789031102635611100,11.053611083984375,0.5939686894416809,0.5235818028450012,0.6307289004325867
1789031102645613800,11.06361376953125,0.6090390086174011,-0.14542824029922485,0.3844059109687805
1789031102655618000,11.0736181640625,0.4867609739303589,-0.5253216624259949,0.18716712296009064
1789031102665622000,11.0836220703125,0.29364609718322754,-0.5281648635864258,0.1182732805609703
1789031102675626000,11.0936259765625,0.11742961406707764,-0.458352655172348,0.09701063483953476
1789031102685630200,11.103630126953124,-0.05935635045170784,-0.4969913959503174,0.0424046516418457
1789031102695634000,11.113634033203125,-0.2594367265701294,-0.495581716299057,-0.1403111219406128
1789031102705636900,11.123636962890625,-0.4124390482902527,-0.42631396651268005,-0.38105714321136475
1789031102715641000,11.13364111328125,-0.5834529399871826,-0.30025237798690796,-0.5518345236778259
1789031102725645000,11.14364501953125,-0.7032483220100403,-0.06391255557537079,-0.5617803335189819
1789031102735648800,11.153648681640625,-0.6027500033378601,0.019557004794478416,-0.6778302788734436
1789031102745653000,11.163653076171874,-0.3845462501049042,-0.2781713604927063,-0.8945031762123108
1789031102755657000,11.173656982421875,-0.13235753774642944,-0.5691450238227844,-0.9533363580703735
1789031102765660200,11.18366015625,0.03358188644051552,-0.7010127305984497,-0.8178032636642456
1789031102775664000,11.1936640625,0.16173547506332397,-0.5926497578620911,-0.6287452578544617
1789031102785667000,11.2036669921875,0.25750648975372314,-0.3787047266960144,-0.428774356842041
1789031102795671300,11.21367138671875,0.263506144285202,-0.19672049582004547,-0.13384892046451569
1789031102805675300,11.22367529296875,0.2779783010482788,-0.06153843179345131,0.1824464499950409
1789031102815678200,11.23367822265625,0.35469913482666016,0.0633346363902092,0.34925511479377747
1789031102825682200,11.24368212890625,0.464434415102005,0.19514699280261993,0.447206974029541
1789031102835686100,11.25368603515625,0.4812213182449341,0.26383695006370544,0.5760930180549622
1789031102845690400,11.2636904296875,0.3744264245033264,0.2365451157093048,0.7562886476516724
1789031102855694300,11.2736943359375,0.2708822190761566,0.23645131289958954,0.8885936737060547
1789031102865698000,11.283697998046875,0.2634226977825165,0.3036487400531769,0.9324426054954529
1789031102875701200,11.293701171875,0.2908783555030823,0.3609517514705658,0.9289563298225403
1789031102885705200,11.303705322265625,0.24768586456775665,0.3248794972896576,0.9707993865013123
1789031102895709200,11.313709228515625,0.17738451063632965,0.34270015358924866,1.0828747749328613
1789031102905713200,11.323713134765624,0.10373585671186447,0.4575447142124176,1.244045615196228
1789031102915717000,11.333717041015625,0.03319718688726425,0.5484821796417236,1.3764545917510986
1789031102925720300,11.34372021484375,-0.01658261939883232,0.5225813388824463,1.4295998811721802
1789031102935724300,11.353724365234376,-0.09365946799516678,0.411592036485672,1.3920537233352661
1789031102945728300,11.363728271484375,-0.19466544687747955,0.2147253006696701,1.296429991722107
1789031102955732200,11.373732177734375,-0.2018461376428604,-0.1715266853570938,1.1642285585403442
1789031102965736200,11.383736083984376,-0.11428114026784897,-0.690858781337738,1.044021725654602
1789031102975740200,11.393740234375,-0.041117507964372635,-1.074204921722412,0.9140849113464355
1789031102985743400,11.403743408203125,-0.01960742101073265,-1.1860555410385132,0.8130861520767212
1789031102995747000,11.4137470703125,-0.06803270429372787,-1.0484223365783691,0.8006440997123718
1789031103005751000,11.4237509765625,-0.2008405476808548,-0.7515061497688293,0.8274775743484497
1789031103015755300,11.43375537109375,-0.3348316252231598,-0.4859755039215088,0.8265170454978943
1789031103025759200,11.44375927734375,-0.3604182004928589,-0.45904213190078735,0.7637532949447632
1789031103035762200,11.45376220703125,-0.2712689936161041,-0.6270104050636292,0.6347332000732422
1789031103045766100,11.46376611328125,-0.19324158132076263,-0.6798133850097656,0.45014092326164246
1789031103055770000,11.47377001953125,-0.15805211663246155,-0.605514407157898,0.2768160402774811
1789031103065774000,11.483774169921874,-0.1677585393190384,-0.4836878180503845,0.2582141160964966
1789031103075778300,11.4937783203125,-0.17078714072704315,-0.3624604344367981,0.330810010433197
1789031103085782300,11.5037822265625,-0.12736722826957703,-0.12198442220687866,0.355057030916214
1789031103095785200,11.51378515625,-0.061182901263237,0.1539759635925293,0.219613716006279
1789031103105789200,11.5237890625,-0.01917686127126217,0.3600364625453949,-0.00914437510073185
1789031103115793200,11.533793212890625,-0.05016008019447327,0.4852585792541504,-0.18205010890960693
1789031103125797400,11.54379736328125,-0.12509344518184662,0.4113505184650421,-0.17485184967517853
1789031103135801000,11.553801025390625,-0.14714910089969635,0.10922142118215561,-0.0320296548306942
1789031103145804300,11.56380419921875,-0.07498354464769363,-0.052797574549913406,0.03457627072930336
1789031103155808300,11.573808349609376,-0.08059274405241013,0.08130879700183868,0.012931937351822853
1789031103165812200,11.583812255859375,-0.14476720988750458,0.2565879225730896,-0.028620831668376923
1789031103175816200,11.593816162109375,-0.16189993917942047,0.2630002498626709,-0.0845659077167511
1789031103185820200,11.603820068359376,-0.15608945488929749,0.1461457908153534,-0.13154646754264832
1789031103195824000,11.61382421875,-0.1649833470582962,0.08249464631080627,-0.15602144598960876
1789031103205827300,11.623827392578125,-0.1794389933347702,0.17617559432983398,-0.17837148904800415
1789031103215831300,11.633831298828126,-0.1969934105873108,0.37409698963165283,-0.2037457972764969
1789031103225835000,11.6438349609375,-0.1805603802204132,0.5596974492073059,-0.19268381595611572
1789031103235839200,11.653839111328125,-0.0987052172422409,0.6348811388015747,-0.1316942423582077
1789031103245843200,11.66384326171875,-0.034193601459264755,0.6520249843597412,-0.055042073130607605
1789031103255846100,11.67384619140625,-0.005354523658752441,0.6639963388442993,-0.053397856652736664
1789031103265850400,11.683850341796875,-0.024384407326579094,0.7427196502685547,-0.15705899894237518
1789031103275854000,11.69385400390625,-0.053604334592819214,0.7470772862434387,-0.2806435227394104
1789031103285858000,11.703858154296874,-0.10142112523317337,0.5806808471679688,-0.3342588245868683
1789031103295862300,11.7138623046875,-0.17795132100582123,0.3299124538898468,-0.33399781584739685
1789031103305865200,11.723865234375,-0.2586291432380676,0.11661908030509949,-0.3619048297405243
1789031103315869200,11.733869140625,-0.3351835608482361,-0.01483030803501606,-0.44382765889167786
1789031103325873200,11.743873046875,-0.37453123927116394,-0.07815787941217422,-0.5588887333869934
1789031103335877000,11.753877197265625,-0.34022167325019836,-0.034989722073078156,-0.7081682085990906
1789031103345881300,11.76388134765625,-0.22134773433208466,0.12622606754302979,-0.8286490440368652
1789031103355885300,11.77388525390625,-0.07037428021430969,0.27142149209976196,-0.8582437634468079
1789031103365888000,11.783887939453125,0.023543957620859146,0.2875378727912903,-0.7840592861175537
1789031103375892200,11.793892333984376,-0.0018969756783917546,0.2548598051071167,-0.6997209787368774
1789031103385896200,11.803896240234375,-0.05084934085607529,0.35485270619392395,-0.7358150482177734
1789031103395900200,11.813900146484375,-0.11701153963804245,0.48830828070640564,-0.7690504789352417
1789031103405904400,11.823904296875,-0.1570899784564972,0.4298039376735687,-0.677584171295166
1789031103415907000,11.833906982421874,-0.1991836577653885,0.29136624932289124,-0.546207070350647
1789031103425911300,11.843911376953125,-0.20545299351215363,0.24448128044605255,-0.4775722920894623
1789031103435915300,11.853915283203126,-0.164210245013237,0.2520667612552643,-0.48319879174232483
1789031103445919200,11.863919189453124,-0.09726343303918839,0.19078503549098969,-0.5461748242378235
1789031103455923200,11.873923095703125,-0.02004508674144745,-0.019017808139324188,-0.623691737651825
1789031103465926100,11.883926025390625,-0.02883298695087433,-0.3282686173915863,-0.6290489435195923
1789031103475930000,11.89393017578125,-0.1013982743024826,-0.5511907339096069,-0.5711126923561096
1789031103485934300,11.903934326171875,-0.0836123526096344,-0.4674258232116699,-0.5698436498641968
1789031103495938300,11.913938232421875,0.017653942108154297,-0.1548876166343689,-0.7425644993782043
1789031103505942000,11.92394189453125,0.05665114149451256,-0.019557485356926918,-0.8396703004837036
1789031103515945200,11.9339453125,0.021426722407341003,-0.13751941919326782,-0.5790001749992371
1789031103525949200,11.94394921875,-0.022956188768148422,-0.1092371791601181,-0.19635184109210968
1789031103535953400,11.953953369140624,-0.04074660688638687,0.1350322961807251,0.020852934569120407
1789031103545957000,11.96395703125,-0.048461783677339554,0.22739417850971222,0.13380424678325653
1789031103555961000,11.973961181640625,-0.16179253160953522,0.021378621459007263,0.3270653784275055
1789031103565964300,11.98396435546875,-0.36775341629981995,-0.24191533029079437,0.667246401309967
1789031103575968300,11.99396826171875,-0.46953579783439636,-0.16683751344680786,0.9664655327796936
1789031103585972000,12.003971923828125,-0.27127864956855774,0.31349796056747437,0.8371821045875549
1789031103595976200,12.01397607421875,-0.026839591562747955,0.2917006015777588,0.14123420417308807
1789031103605980200,12.023980224609375,0.02362571284174919,-0.13067755103111267,-0.41414299607276917
1789031103615984000,12.033984130859375,-0.08829843252897263,-0.27044355869293213,-0.25248754024505615
1789031103625987300,12.0439873046875,-0.06720034033060074,-0.1102461889386177,0.31981325149536133
1789031103635991000,12.053990966796874,0.11971703916788101,-0.09637141227722168,0.6034985184669495
1789031103645995300,12.063995361328125,0.236270010471344,-0.4107051193714142,0.3588002920150757
1789031103655999200,12.073999267578126,0.22792471945285797,-0.6180223822593689,-0.040390487760305405
1789031103666003200,12.084003173828124,0.1903453916311264,-0.6771962642669678,-0.24146686494350433
1789031103676006100,12.094006103515625,0.0839293971657753,-0.6164795160293579,-0.08454227447509766
1789031103686010000,12.104010009765625,-0.15668854117393494,-0.5057106614112854,0.37363114953041077
1789031103696014000,12.11401416015625,-0.2254757136106491,-0.2619591951370239,0.7114606499671936
1789031103706018300,12.124018310546875,0.0073823099955916405,-0.1874825656414032,0.6082743406295776
1789031103716022300,12.134022216796875,0.1415540874004364,-0.4917597770690918,0.2329065352678299
1789031103726025200,12.144025146484376,0.07533618807792664,-0.7160746455192566,-0.020434653386473656
1789031103736029200,12.154029296875,-0.033761508762836456,-0.49155333638191223,-0.034479089081287384
1789031103746033200,12.164033203125,-0.14355884492397308,-0.19017694890499115,0.05184594541788101
1789031103756037000,12.174037109375,-0.1890815794467926,-0.026405727490782738,0.05415225028991699
1789031103766041300,12.184041259765625,0.0030841336119920015,0.08756451308727264,-0.2641940414905548
1789031103776044000,12.1940439453125,0.27753540873527527,-0.014639475382864475,-0.7340917587280273
1789031103786048300,12.20404833984375,0.387875497341156,-0.28552156686782837,-0.8224913477897644
1789031103796052200,12.21405224609375,0.20910334587097168,-0.5524780750274658,-0.3938859701156616
1789031103806056000,12.224055908203125,0.11161433905363083,-0.4431704580783844,0.14433807134628296
1789031103816060200,12.23406005859375,0.20367924869060516,-0.10396819561719894,0.36296704411506653
1789031103826063000,12.24406298828125,0.2771869897842407,0.008042762987315655,0.28387144207954407
1789031103836067000,12.254067138671875,0.2583310902118683,-0.04279695078730583,0.14928463101387024
1789031103846071000,12.264071044921875,0.1640210896730423,-0.17070138454437256,0.15062472224235535
1789031103856075000,12.274074951171874,0.10224000364542007,-0.29288071393966675,0.22451013326644897
1789031103866079000,12.284078857421875,0.07838207483291626,-0.3288392424583435,0.19015322625637054
1789031103876082200,12.294082275390625,0.13597051799297333,-0.23255757987499237,0.01734309270977974
1789031103886086000,12.3040859375,0.20936137437820435,-0.13028819859027863,-0.09655045717954636
1789031103896090000,12.314090087890625,0.09706968069076538,-0.11768914759159088,-0.02682625874876976
1789031103906094000,12.324093994140625,-0.08504978567361832,-0.10548467934131622,0.18826553225517273
1789031103916098000,12.33409814453125,0.04732431098818779,0.015073679387569427,0.255325049161911
1789031103926101200,12.344101318359375,0.22848929464817047,-0.017615558579564095,0.09452924132347107
1789031103936105000,12.35410498046875,0.19070838391780853,-0.18950602412223816,-0.09313146770000458
1789031103946109200,12.364109130859376,0.020949166268110275,-0.2371068298816681,-0.14387425780296326
1789031103956113200,12.374113037109375,-0.004922948777675629,-0.06392994523048401,-0.08979827910661697
1789031103966117000,12.3841171875,-0.002967655658721924,0.027831396088004112,-0.04282277449965477
1789031103976120000,12.3941201171875,-0.017359355464577675,0.013368849642574787,-0.005451423116028309
1789031103986124000,12.4041240234375,0.06576535850763321,0.026611151173710823,-0.05610954016447067
