time,seconds_elapsed,z,y,x
1789324444087826700,0.10182666015625,0,0,0
1789324444106676500,0.120676513671875,-0.1515817642211914,-0.030574321746826172,0.04490768909454346
1789324444125526300,0.1395263671875,-0.10404396057128906,-0.06488370895385742,0.12235856056213379
1789324444144376000,0.1583759765625,-0.005183219909667969,-0.0901179313659668,-0.036507368087768555
1789324444163226000,0.17722607421875,-0.04827308654785156,-0.1261763572692871,-0.17745721340179443
1789324444182076000,0.196075927734375,-0.1645030975341797,-0.19170188903808594,-0.1881176233291626
1789324444210350600,0.2243505859375,-0.19475841522216797,-0.2735142707824707,-0.07674753665924072
1789324444229200600,0.24320068359375,-0.037888526916503906,-0.22523736953735352,-0.07501435279846191
1789324444248050400,0.262050537109375,0.08417606353759766,-0.13060379028320312,-0.11498439311981201
1789324444266900200,0.280900146484375,-0.07347297668457031,-0.03977680206298828,-0.050557851791381836
1789324444285750000,0.29975,-0.14893817901611328,0.08607244491577148,-0.07577240467071533
1789324444304600000,0.31860009765625,0.06775760650634766,0.2689208984375,-0.20570117235183716
1789324444323449900,0.337449951171875,0.24964237213134766,0.17222833633422852,-0.025409817695617676
1789324444342299600,0.356299560546875,0.15190601348876953,0.07555437088012695,0.2177533507347107
1789324444361149700,0.375149658203125,0.13475513458251953,0.12491512298583984,0.30102109909057617
1789324444379999500,0.39399951171875,0.5721349716186523,0.014351367950439453,0.29061806201934814
1789324444398849300,0.412849365234375,0.7023229598999023,-0.11523008346557617,0.1966644525527954
1789324444417699300,0.43169921875,0.5233488082885742,-0.4308462142944336,0.24215960502624512
1789324444436549000,0.450549072265625,0.27018260955810547,-0.41832685470581055,0.281564325094223
1789324444455399000,0.46939892578125,0.05670356750488281,-0.11399078369140625,0.13933467864990234
1789324444474249000,0.4882490234375,-0.028837203979492188,0.17637205123901367,-0.06641483306884766
1789324444493098800,0.5070986328125,-0.05973625183105469,0.08605575561523438,0.07114779949188232
1789324444511948500,0.525948486328125,-0.23090553283691406,0.09830951690673828,0.21695315837860107
1789324444530798600,0.544798583984375,-0.2051410675048828,0.21232843399047852,0.26954329013824463
1789324444549648400,0.5636484375,0.007332801818847656,0.20685672760009766,0.3270973563194275
1789324444568498400,0.58249853515625,-0.011021614074707031,0.12929344177246094,0.3528318405151367
1789324444587348200,0.60134814453125,-0.13840770721435547,0.12586498260498047,0.2513885498046875
1789324444606198000,0.620197998046875,-0.30901241302490234,0.17669057846069336,0.17665880918502808
1789324444625048000,0.639048095703125,-0.23466110229492188,0.29563426971435547,0.24102997779846191
1789324444643897900,0.65789794921875,-0.0872640609741211,0.3082008361816406,0.35718101263046265
1789324444662747600,0.67674755859375,0.14744853973388672,0.387753963470459,0.45155835151672363
1789324444681597700,0.69559765625,0.3891458511352539,0.39733028411865234,0.6558166742324829
1789324444700447500,0.714447509765625,0.6061334609985352,0.43160247802734375,0.6017285585403442
1789324444719297500,0.733297607421875,0.5440540313720703,0.3748941421508789,0.429260790348053
1789324444738147300,0.752147216796875,0.38611698150634766,0.2831406593322754,0.2805976867675781
1789324444756997400,0.770997314453125,0.11111831665039062,0.28351259231567383,0.19586259126663208
1789324444775847200,0.78984716796875,-0.11140918731689453,0.16335201263427734,0.13192659616470337
1789324444794697200,0.808697265625,-0.14428138732910156,-0.06324243545532227,0.06339848041534424
1789324444813547000,0.827547119140625,-0.23135757446289062,-0.16695356369018555,0.04123491048812866
1789324444832397000,0.84639697265625,-0.5408482551574707,-0.15240192413330078,0.04077863693237305
1789324444851246800,0.865246826171875,-0.6301007270812988,-0.12041044235229492,0.02254486083984375
1789324444870097000,0.884096923828125,-0.5311145782470703,-0.05153846740722656,-0.09529143571853638
1789324444888946700,0.90294677734375,-0.3793487548828125,-0.10289239883422852,-0.13739323616027832
1789324444907796700,0.921796630859375,-0.23708438873291016,-0.13907289505004883,-0.12258660793304443
1789324444926646500,0.940646484375,-0.1717672348022461,-0.03128385543823242,-0.07549965381622314
1789324444945496600,0.95949658203125,-0.15712738037109375,0.06136322021484375,0.0842708945274353
1789324444964346400,0.978346435546875,-0.11636734008789062,0.09485626220703125,0.1575711965560913
1789324444983196400,0.997196533203125,-0.04431629180908203,0.04588651657104492,0.1631927490234375
1789324445002046200,1.016046142578125,-0.07961082458496094,0.02781534194946289,0.1041027307510376
1789324445020896300,1.034896240234375,-0.20748138427734375,0.09865808486938477,0.12385451793670654
1789324445039746000,1.05374609375,-0.2856330871582031,0.21548748016357422,0.26206135749816895
1789324445058596000,1.07259619140625,-0.16898250579833984,0.2428908348083496,0.3269054889678955
1789324445077446000,1.09144580078125,0.14944934844970703,0.21126222610473633,0.2756270170211792
1789324445096296000,1.1102958984375,0.4277305603027344,0.11343526840209961,0.21636855602264404
1789324445115145700,1.129145751953125,0.5616998672485352,0.03938436508178711,0.24495446681976318
1789324445133995800,1.147995849609375,0.478302001953125,0.1352710723876953,0.34217333793640137
1789324445152845600,1.166845458984375,0.1975231170654297,0.2168283462524414,0.39808177947998047
1789324445171695600,1.185695556640625,0.03740882873535156,0.21374130249023438,0.3039141893386841
1789324445190545700,1.204545654296875,0.1732807159423828,0.12578916549682617,0.21990418434143066
1789324445209395500,1.2233955078125,0.20836448669433594,0.08175325393676758,0.2085268497467041
1789324445228245500,1.24224560546875,0.20327091217041016,0.14269399642944336,0.2642422914505005
1789324445247095300,1.26109521484375,0.13473796844482422,0.2502627372741699,0.23803842067718506
1789324445265945300,1.2799453125,0.13672828674316406,0.25321435928344727,0.2729915380477905
1789324445284795400,1.29879541015625,0.14665889739990234,0.1767587661743164,0.3057466745376587
1789324445303645200,1.317645263671875,0.017705917358398438,0.08676481246948242,0.2791737914085388
1789324445322495200,1.3364951171875,-0.11572551727294922,-0.0019268989562988281,0.31369316577911377
1789324445341345300,1.35534521484375,-0.09184646606445312,-0.08855819702148438,0.45235663652420044
1789324445360195000,1.374195068359375,0.032103538513183594,-0.09231376647949219,0.6556355953216553
1789324445379045000,1.393045166015625,0.16629791259765625,0.0159454345703125,0.7877250909805298
1789324445397895000,1.41189501953125,0.2003631591796875,0.03384208679199219,0.8039112687110901
1789324445416745000,1.430744873046875,0.1348733901977539,-0.051334381103515625,0.7840863466262817
1789324445435595000,1.449594970703125,-0.011610984802246094,-0.11661863327026367,0.7569271922111511
1789324445454444800,1.46844482421875,-0.09558868408203125,-0.13884782791137695,0.6929059028625488
1789324445473294800,1.487294921875,-0.07225418090820312,-0.1269245147705078,0.607555627822876
1789324445492145000,1.506144775390625,-0.24721240997314453,-0.21311378479003906,0.425288587808609
1789324445510994700,1.52499462890625,-0.5256261825561523,-0.3028445243835449,0.23115667700767517
1789324445529844700,1.5438447265625,-0.6305136680603027,-0.39419078826904297,0.24689555168151855
1789324445548694800,1.56269482421875,-0.5629115104675293,-0.38513660430908203,0.3819732666015625
1789324445567544600,1.581544677734375,-0.3536691665649414,-0.37352657318115234,0.44912809133529663
1789324445586394600,1.60039453125,0.014683723449707031,-0.47756147384643555,0.6125204563140869
1789324445605244700,1.61924462890625,0.17434310913085938,-0.550776481628418,0.6674771308898926
1789324445624094500,1.638094482421875,-0.03985023498535156,-0.47795534133911133,0.4783240258693695
1789324445642944500,1.656944580078125,-0.21772098541259766,-0.288454532623291,0.6241049766540527
1789324445661794600,1.675794677734375,-0.2771282196044922,-0.31166887283325195,0.6136990189552307
1789324445680644600,1.69464453125,-0.2634592056274414,-0.2588348388671875,0.44749319553375244
1789324445699494400,1.713494384765625,-0.28961753845214844,-0.2384505271911621,0.5658517479896545
1789324445718344400,1.732344482421875,-0.41166162490844727,-0.3579287528991699,0.8677242994308472
1789324445737194500,1.751194580078125,-0.39470815658569336,-0.4592323303222656,1.2067241668701172
1789324445756044300,1.770044189453125,-0.2493457794189453,-0.6335134506225586,1.4487690925598145
1789324445774894300,1.788894287109375,0.008058547973632812,-1.062669038772583,1.7301511764526367
1789324445793744400,1.807744384765625,0.3959941864013672,-1.4561810493469238,1.5267118215560913
1789324445812594400,1.826594482421875,0.3179750442504883,-1.5150535106658936,1.6360619068145752
1789324445831444200,1.8454443359375,0.3086214065551758,-0.9480295181274414,1.4452792406082153
1789324445850294300,1.864294189453125,-0.46950817108154297,-0.8891263008117676,1.4426681995391846
1789324445869144300,1.883144287109375,-1.2507328987121582,-0.8792648315429688,1.4302819967269897
1789324445887994400,1.901994384765625,-1.3065342903137207,-0.711606502532959,1.322582483291626
1789324445906844200,1.92084423828125,-0.5009465217590332,-0.7534580230712891,1.0161409378051758
1789324445925694200,1.939694091796875,0.2821493148803711,-0.5160622596740723,0.5276917219161987
1789324445944544300,1.958544189453125,0.25466346740722656,-0.42920398712158203,0.3862733840942383
1789324445963394300,1.977394287109375,-0.4150810241699219,-0.6982121467590332,0.5307435989379883
1789324445982244400,1.996244384765625,-1.4484682083129883,-0.6041655540466309,0.43537378311157227
1789324446001094100,2.01509423828125,-1.9082832336425781,-0.4741086959838867,0.5116435885429382
1789324446019944200,2.033944091796875,-1.6108675003051758,-0.3701820373535156,0.6935058236122131
1789324446038794200,2.052794189453125,-0.6956205368041992,0.062029361724853516,0.7211634516716003
1789324446057644300,2.071644287109375,0.7263002395629883,0.2574477195739746,0.807856559753418
1789324446076494300,2.090494384765625,1.2520360946655273,0.2806053161621094,0.6793704628944397
1789324446095344000,2.10934423828125,1.0608959197998047,0.30104875564575195,0.17586684226989746
1789324446114194200,2.128194091796875,0.5101432800292969,0.22691082954406738,-0.3892594575881958
1789324446133044200,2.147044189453125,-0.04870796203613281,0.1115109920501709,-0.6892284154891968
1789324446151894300,2.165894287109375,-0.26149749755859375,0.13606476783752441,-0.8266535997390747
1789324446170744300,2.184744384765625,-0.38388538360595703,0.23546314239501953,-0.6998070478439331
1789324446189594400,2.203594482421875,-0.22631359100341797,0.31531763076782227,-0.40613365173339844
1789324446208444200,2.222444091796875,-0.24156856536865234,0.04217684268951416,-0.18037199974060059
1789324446227294200,2.241294189453125,-0.3955497741699219,-0.1324704885482788,-0.17690205574035645
1789324446246144300,2.260144287109375,-0.4393157958984375,-0.18630993366241455,-0.1345205307006836
1789324446264994300,2.278994384765625,-0.15451717376708984,-0.3748513162136078,0.002369821071624756
1789324446283844400,2.29784423828125,0.26060009002685547,-0.5038373470306396,-0.09625452756881714
1789324446302694400,2.3166943359375,0.5087442398071289,-0.7144023776054382,-0.4023405909538269
1789324446321544400,2.33554443359375,0.5924139022827148,-0.6940720081329346,-0.5982689261436462
1789324446340394500,2.35439453125,0.7960901260375977,-0.49823224544525146,-0.5927433371543884
1789324446359244300,2.373244384765625,1.339395523071289,-0.7395923137664795,-0.7375984191894531
1789324446387519500,2.40151953125,1.9147472381591797,-0.5143663883209229,-1.1392792463302612
1789324446415794400,2.42979443359375,2.100895881652832,-0.17326736450195312,-1.6938097476959229
1789324446434644500,2.44864453125,0.9407367706298828,0.06576824188232422,-2.369743585586548
1789324446453494500,2.46749462890625,0.023635387420654297,-0.1078786849975586,-2.787736415863037
1789324446472344600,2.486344482421875,0.9869322776794434,-0.008483409881591797,-3.607616424560547
1789324446491194600,2.505194580078125,4.14127254486084,0.8363175392150879,-4.636675834655762
1789324446510044700,2.524044677734375,5.899177551269531,1.667783260345459,-4.47920036315918
1789324446528894700,2.542894775390625,2.648566722869873,0.8758759498596191,-4.4344868659973145
1789324446547744800,2.561744873046875,5.962700843811035,2.496607780456543,-5.050590515136719
1789324446566594800,2.5805947265625,7.2098894119262695,2.988398551940918,-5.021768093109131
1789324446585444900,2.59944482421875,5.1826629638671875,3.303682804107666,-4.120915412902832
1789324446604295000,2.618294921875,4.047273635864258,3.393063545227051,-3.413569450378418
1789324446623145000,2.63714501953125,3.747063398361206,3.378007411956787,-2.85783052444458
1789324446641995000,2.6559951171875,4.080389022827148,3.6692678928375244,-2.169309616088867
1789324446660844800,2.6748447265625,4.266275405883789,4.0999908447265625,-1.369490146636963
1789324446679694800,2.69369482421875,3.8818323612213135,3.8459994792938232,-0.6410732269287109
1789324446698545000,2.712544921875,2.8639633655548096,2.9988842010498047,-0.5113058090209961
1789324446717395000,2.73139501953125,1.7187814712524414,2.4155173301696777,-0.5256795883178711
1789324446736245000,2.750244873046875,1.1479730606079102,2.3513636589050293,-0.6418099403381348
1789324446755095000,2.769094970703125,0.053266286849975586,2.5918073654174805,-1.7147455215454102
1789324446773945300,2.7879453125,-0.8431599140167236,1.889249324798584,-2.3844685554504395
1789324446792795400,2.80679541015625,-0.4235410690307617,0.9232015609741211,-2.122547149658203
1789324446811645400,2.8256455078125,-1.8002790212631226,0.7484807968139648,-2.174057960510254
1789324446830495500,2.84449560546875,-1.4764561653137207,-2.122025489807129,0.7633709907531738
1789324446849345500,2.863345458984375,-0.7089998722076416,-3.6073946952819824,2.6150431632995605
1789324446868195600,2.882195556640625,-0.37358665466308594,-4.829442024230957,3.244802951812744
1789324446887045600,2.901045654296875,-0.7600851058959961,-5.506002902984619,2.591459035873413
1789324446905895700,2.919895751953125,-1.0434274673461914,-5.573546886444092,0.2406020164489746
1789324446924745700,2.938745849609375,-0.9673285484313965,-5.461898326873779,-2.5733871459960938
1789324446943595800,2.957595703125,-0.8990292549133301,-5.8166985511779785,-3.524745464324951
1789324446962445800,2.97644580078125,-0.8443384170532227,-4.2617716789245605,-4.1598920822143555
1789324446981295900,2.9952958984375,0.05824708938598633,-2.892085552215576,-3.5760483741760254
1789324447000146000,3.01414599609375,1.0419130325317383,-0.8795685768127441,-2.8006606101989746
1789324447018996000,3.032995849609375,1.1977572441101074,0.7122039794921875,-1.51715087890625
1789324447037846000,3.051845947265625,-0.02961444854736328,0.08830022811889648,-0.21214771270751953
1789324447056696000,3.070696044921875,-0.8869295120239258,-1.0142459869384766,-1.2974028587341309
1789324447075546000,3.089546142578125,-1.9112915992736816,-1.5448899269104004,-1.519338607788086
1789324447094396200,3.108396240234375,-1.8251471519470215,-2.464995861053467,-1.6229782104492188
1789324447113246200,3.12724609375,-2.4903721809387207,-2.645437240600586,-1.7481756210327148
1789324447132096300,3.14609619140625,-2.5447030067443848,-1.584115743637085,-0.8110218048095703
1789324447150946300,3.1649462890625,-3.462134838104248,-0.22517895698547363,-0.06838703155517578
1789324447169796400,3.18379638671875,-3.130420207977295,0.22899508476257324,-0.04422616958618164
1789324447188646400,3.202646484375,-1.663431167602539,0.96539306640625,-0.004810810089111328
1789324447207496400,3.221496337890625,-0.8480124473571777,1.0131940841674805,-0.22267961502075195
1789324447226346800,3.2403466796875,-0.817863941192627,0.8539023399353027,-0.05893707275390625
1789324447245196800,3.25919677734375,-1.492612361907959,0.9067894220352173,0.3141152858734131
1789324447264046800,3.278046875,-1.7015419006347656,0.7351329326629639,0.5147614479064941
1789324447282897000,3.29689697265625,-1.9404778480529785,0.38514745235443115,0.620436429977417
1789324447301747000,3.315746826171875,-2.253237247467041,-0.17245006561279297,0.6543440818786621
1789324447320597000,3.334596923828125,-2.125011920928955,-0.3759033679962158,0.5298056602478027
1789324447339447000,3.353447021484375,-1.8101921081542969,-0.394268274307251,0.871389627456665
1789324447358297000,3.372297119140625,-1.26277494430542,-0.4704169034957886,1.3876631259918213
1789324447377147400,3.3911474609375,-1.0093965530395508,-0.3014638423919678,1.3736019134521484
1789324447395997400,3.40999755859375,-1.0044784545898438,-0.25171661376953125,0.9307084083557129
1789324447414847500,3.428847412109375,-0.6794447898864746,0.07457590103149414,0.7928919792175293
1789324447433697500,3.447697509765625,-0.29018259048461914,0.3060140609741211,0.5186929702758789
1789324447452547600,3.466547607421875,-0.6435441970825195,0.6993124485015869,0.48741626739501953
1789324447471397600,3.485397705078125,-0.6241378784179688,1.1417114734649658,0.30034828186035156
1789324447490248000,3.504248046875,-0.3175663948059082,1.593853235244751,0.3695206642150879
1789324447509098000,3.523097900390625,-0.40622520446777344,1.7700319290161133,0.3601045608520508
1789324447527948000,3.541947998046875,-0.18340587615966797,2.0546789169311523,0.36266469955444336
1789324447546798000,3.560798095703125,0.20703983306884766,2.4159417152404785,0.2270674705505371
1789324447565648100,3.579648193359375,-0.11614847183227539,2.155766010284424,-0.7780933380126953
1789324447584498200,3.598498291015625,-0.47534704208374023,1.3319220542907715,-1.7775459289550781
1789324447603348500,3.617348388671875,-0.11406087875366211,1.1085424423217773,-1.4548301696777344
1789324447622198500,3.636198486328125,0.7816958427429199,1.0208048820495605,-1.0868558883666992
1789324447641048600,3.655048583984375,1.4928460121154785,1.6327166557312012,-1.1828060150146484
1789324447659898600,3.673898681640625,2.1496806144714355,2.6981029510498047,-1.0005736351013184
1789324447678748700,3.692748779296875,-1.3210642337799072,0.7372031211853027,-1.7308874130249023
1789324447697599000,3.711598876953125,-1.6687982082366943,-1.642763614654541,-2.412015438079834
1789324447716449000,3.730448974609375,0.544189453125,-2.2800302505493164,-2.971515417098999
1789324447735299000,3.749299072265625,0.718757152557373,-2.4735517501831055,-3.0452873706817627
1789324447754149000,3.768149169921875,-0.46407628059387207,-4.120383262634277,-1.5470845699310303
1789324447772999200,3.786999267578125,0.43317270278930664,-4.62918758392334,1.2772644758224487
1789324447791849500,3.805849365234375,0.840916633605957,-3.599456787109375,2.2217512130737305
1789324447810699500,3.824699462890625,1.1019392013549805,-2.166482448577881,1.8064693212509155
1789324447829549600,3.843549560546875,0.8327922821044922,-1.470179557800293,0.37539124488830566
1789324447848399600,3.862399658203125,0.711451530456543,-1.4384222030639648,-1.3597242832183838
1789324447867250000,3.88125,0.8179612159729004,-1.4388351440429688,-2.217855215072632
1789324447886100000,3.900099853515625,-0.06464910507202148,-1.537454605102539,-2.4457390308380127
1789324447904950000,3.918949951171875,-0.6256365776062012,-0.3747100830078125,-1.8677375316619873
1789324447923800000,3.937800048828125,-0.8191995620727539,-0.10627412796020508,-1.6012988090515137
1789324447942650000,3.956650146484375,-0.22295522689819336,-0.4842963218688965,-1.7161712646484375
1789324447961500400,3.97550048828125,-0.19240760803222656,-0.4714536666870117,-1.4577009677886963
1789324447980350500,3.9943505859375,-0.2168569564819336,-0.03545570373535156,-0.4232902526855469
1789324447999200500,4.013200439453125,0.471402645111084,1.6811180114746094,-0.33468174934387207
1789324448018050600,4.032050537109375,0.4869651794433594,0.13935041427612305,-1.2090339660644531
1789324448036900900,4.05090087890625,0.30458593368530273,-1.3324222564697266,-1.7941546440124512
1789324448055751000,4.0697509765625,-0.0788869857788086,-2.5974621772766113,-1.4723503589630127
1789324448074601000,4.08860107421875,-0.4159855842590332,-3.070241928100586,-0.5699857473373413
1789324448093451300,4.107451171875,-0.4307994842529297,-3.420928955078125,0.005472302436828613
1789324448112301300,4.12630126953125,-0.4865446090698242,-3.31117582321167,0.6790697574615479
1789324448131151400,4.1451513671875,-0.37535667419433594,-3.2544426918029785,1.4107885360717773
1789324448150001400,4.16400146484375,-0.3292202949523926,-2.517886161804199,1.5649847984313965
1789324448168851700,4.182851806640625,-0.5841889381408691,-2.08854341506958,1.1137219667434692
1789324448187701800,4.20170166015625,-0.6450185775756836,-2.2349653244018555,0.39467287063598633
1789324448206551800,4.2205517578125,-0.7690153121948242,-2.3150534629821777,-0.34444594383239746
1789324448225402000,4.239402099609375,-0.6075091361999512,-2.0145864486694336,-0.9369232654571533
1789324448244252200,4.258252197265625,-1.2774205207824707,-1.9569745063781738,-0.8347923755645752
1789324448263102200,4.277102294921875,-1.5022611618041992,-1.515791416168213,-0.8573336601257324
1789324448281952300,4.2959521484375,-2.166825294494629,-0.7756810188293457,-0.9270343780517578
1789324448300802600,4.314802490234375,-2.400195598602295,-0.283785343170166,-0.7239969968795776
1789324448319652600,4.333652587890625,-2.37777042388916,-0.14492058753967285,-0.03524494171142578
1789324448338502700,4.352502685546875,-2.9298572540283203,0.5231738090515137,0.3049485683441162
1789324448357353000,4.37135302734375,-3.1111888885498047,0.5279793739318848,0.7705817818641663
1789324448376203000,4.390203125,-2.9373388290405273,0.34783244132995605,1.129699945449829
1789324448395053000,4.409052978515625,-2.8670759201049805,0.3070180416107178,1.186018466949463
1789324448413903400,4.4279033203125,-2.6384830474853516,0.22482752799987793,1.2576732635498047
1789324448432753400,4.44675341796875,-1.358574390411377,0.3367276191711426,1.5777809619903564
1789324448451603500,4.465603515625,-0.43448734283447266,0.44808173179626465,1.3092751502990723
1789324448470453800,4.484453857421875,-1.2562999725341797,0.4902799129486084,0.46128666400909424
1789324448489303800,4.5033037109375,-1.540287971496582,0.7376306056976318,0.6405572891235352
1789324448508153900,4.52215380859375,-1.2211403846740723,0.9093184471130371,-0.00019431114196777344
1789324448527004200,4.541004150390625,-1.2826519012451172,0.7063314914703369,0.8672224283218384
1789324448545854200,4.559854248046875,-1.623434066772461,1.260716438293457,0.7045820951461792
1789324448564704300,4.578704345703125,-1.608078956604004,1.35296630859375,0.6884949207305908
1789324448583554600,4.597554443359375,-1.5552301406860352,2.3584444522857666,-0.07459592819213867
1789324448602404600,4.616404541015625,-0.9964113235473633,2.6367557048797607,-0.23587822914123535
1789324448621255000,4.6352548828125,-0.6533994674682617,1.5783414840698242,-0.6144967079162598
1789324448640105000,4.65410498046875,-1.1944184303283691,0.2695002555847168,-1.055466890335083
1789324448658955000,4.672955078125,-0.10126686096191406,-1.1205625534057617,-0.1855781078338623
1789324448677805300,4.691805419921875,-0.5161652565002441,-1.259047031402588,-0.35839247703552246
1789324448696655400,4.7106552734375,-0.28638648986816406,-1.6478166580200195,0.15370917320251465
1789324448715505400,4.72950537109375,0.17126083374023438,-2.0966920852661133,0.4366335868835449
1789324448734355700,4.748355712890625,0.8662948608398438,-2.453732490539551,-0.1273198127746582
1789324448753205800,4.767205810546875,0.6921443939208984,-2.5148520469665527,-0.7060434818267822
1789324448772056000,4.78605615234375,1.1017751693725586,-2.2987289428710938,-0.7084441184997559
1789324448790906000,4.804906005859375,1.7107086181640625,-2.613320827484131,-0.47930264472961426
1789324448809756200,4.823756103515625,2.2035107612609863,-2.734773635864258,-0.8348207473754883
1789324448828606500,4.8426064453125,1.8795156478881836,-2.7378883361816406,-0.9995017051696777
1789324448847456500,4.86145654296875,1.942741870880127,-2.204547882080078,-0.7914876937866211
1789324448866306600,4.880306640625,2.431654930114746,-1.6456584930419922,0.03758525848388672
1789324448885156900,4.899156982421875,2.0973081588745117,-1.1386213302612305,0.13686227798461914
1789324448904007000,4.9180068359375,1.4420228004455566,-0.3199272155761719,0.16695523262023926
1789324448922857200,4.936857177734375,1.6416382789611816,0.3443727493286133,-0.625180721282959
1789324448941707300,4.955707275390625,0.8744268417358398,-0.1753854751586914,-0.7953708171844482
1789324448960557300,4.974557373046875,0.7777795791625977,-0.4286012649536133,-0.5089349746704102
1789324448979407600,4.99340771484375,0.7809672355651855,-0.746953010559082,-0.20018482208251953
1789324448998257700,5.012257568359375,0.20936965942382812,-1.22243070602417,-0.286923885345459
1789324449017107700,5.031107666015625,-0.33441686630249023,-1.2761778831481934,-0.12699007987976074
1789324449035958000,5.0499580078125,-0.8820047378540039,-1.291163444519043,0.30437684059143066
1789324449054808000,5.06880810546875,-0.3342294692993164,-1.1704597473144531,0.10231351852416992
1789324449073658400,5.087658447265625,1.0244908332824707,-1.592677116394043,-0.18523454666137695
1789324449092508400,5.10650830078125,1.9209814071655273,-2.095893383026123,-0.9182345867156982
1789324449111358700,5.125358642578125,1.8178143501281738,-1.693887710571289,-1.2667896747589111
1789324449130208800,5.144208740234375,1.1684937477111816,-0.8229970932006836,-1.284048318862915
1789324449149058800,5.163058837890625,0.4906497001647949,0.14371395111083984,-0.8324294090270996
1789324449167909000,5.1819091796875,0.013593673706054688,0.6001806259155273,-1.0858492851257324
1789324449186759200,5.20075927734375,0.0027446746826171875,0.030243873596191406,-1.1724557876586914
1789324449205609500,5.219609375,0.25570201873779297,-0.3361701965332031,-1.773648738861084
1789324449224459500,5.23845947265625,0.17148780822753906,-1.0299267768859863,-1.7045185565948486
1789324449243309600,5.2573095703125,0.26281166076660156,-1.382697582244873,-1.06947922706604
1789324449262160000,5.276159912109375,0.0934596061706543,-1.344573974609375,-0.7840988636016846
1789324449281010000,5.295010009765625,-0.23287343978881836,-0.8779911994934082,-0.8531386852264404
1789324449299860200,5.313860107421875,-0.09688377380371094,-0.4602537155151367,-0.7404403686523438
1789324449318710300,5.332710205078125,0.03659629821777344,-0.5328521728515625,-0.3079237937927246
1789324449337560600,5.351560546875,-0.5554838180541992,-1.3484573364257812,0.06553983688354492
1789324449356410600,5.37041064453125,-2.1465792655944824,0.16533946990966797,-0.13680386543273926
1789324449375261000,5.389260986328125,-2.361856460571289,1.9666378498077393,-0.44137513637542725
1789324449394111000,5.408111083984375,-1.8699541091918945,0.36895179748535156,-0.0659095048904419
1789324449412961300,5.426961181640625,-2.8790359497070312,0.48041844367980957,0.31648457050323486
1789324449431811300,5.445811279296875,-3.1861133575439453,0.07167959213256836,0.5782318115234375
1789324449450661600,5.46466162109375,-2.5406198501586914,0.014057397842407227,1.3948737382888794
1789324449469511700,5.48351171875,-2.6559314727783203,-0.08849573135375977,0.9133999347686768
1789324449488361700,5.50236181640625,-3.234922409057617,-0.1562213897705078,0.8212635517120361
1789324449507212000,5.5212119140625,-3.0953097343444824,0.33049964904785156,1.6957483291625977
1789324449526062000,5.54006201171875,-1.866668701171875,1.0693401098251343,2.391679048538208
1789324449544912400,5.558912353515625,-2.2827134132385254,1.194778323173523,1.5842102766036987
1789324449563762400,5.577762451171875,-2.7712440490722656,1.400278091430664,1.1937828063964844
1789324449582612700,5.59661279296875,-2.7348685264587402,1.2112466096878052,1.1574379205703735
1789324449601462800,5.615462890625,-1.8532047271728516,1.4594680070877075,1.1743427515029907
1789324449620313000,5.63431298828125,-1.3291044235229492,1.376166582107544,1.1001849174499512
1789324449639163100,5.6531630859375,-1.07879638671875,1.0034456253051758,0.6643462181091309
1789324449658013400,5.672013427734375,-1.4522595405578613,0.6697041988372803,-0.5059864521026611
1789324449676863500,5.690863525390625,-0.9577169418334961,0.40619969367980957,-0.14850592613220215
1789324449705138700,5.719138671875,-0.842902660369873,-0.10385990142822266,-0.7393913269042969
1789324449723989000,5.737989013671875,-0.44342708587646484,-1.329566478729248,-0.14315032958984375
1789324449742839000,5.756839111328125,-0.40743541717529297,-1.3247036933898926,-0.009177207946777344
1789324449761689300,5.775689453125,-0.6775813102722168,-0.6822085380554199,0.20485591888427734
1789324449780539400,5.794539306640625,-0.44850587844848633,-0.37087488174438477,0.07265377044677734
1789324449799389700,5.8133896484375,0.14043807983398438,-0.7559895515441895,-0.1947166919708252
1789324449818239700,5.83223974609375,0.8948540687561035,-1.4744048118591309,-0.9027543067932129
1789324449846515000,5.860514892578125,0.3886275291442871,-2.903817653656006,-1.9668409824371338
1789324449865365200,5.879365234375,0.8184046745300293,-3.466383934020996,-1.9738759994506836
1789324449884215300,5.89821533203125,1.5497498512268066,-3.339740753173828,-2.071455717086792
1789324449903065600,5.917065673828125,2.033921241760254,-2.236203193664551,-2.149238348007202
1789324449921916000,5.935916015625,2.490752696990967,-1.067856788635254,-2.048454523086548
1789324449940766000,5.954765869140625,2.832423210144043,-0.49668312072753906,-1.701162576675415
1789324449959616000,5.973615966796875,2.9624128341674805,-0.7207183837890625,-1.3896467685699463
1789324449978466300,5.99246630859375,2.3949313163757324,-1.2078971862792969,-0.6430277824401855
1789324449997316400,6.01131640625,1.9047088623046875,-2.0201005935668945,-0.3146836757659912
1789324450016166700,6.030166748046875,1.6664347648620605,-1.4901256561279297,-0.2590956687927246
1789324450035016700,6.0490166015625,0.9576864242553711,-0.6272287368774414,-0.029326438903808594
1789324450053866200,6.0678662109375,0.43163299560546875,0.23119688034057617,0.02744460105895996
1789324450072716300,6.08671630859375,-0.17385530471801758,0.5678601264953613,-0.324129581451416
1789324450091566600,6.105566650390625,-0.5352625846862793,0.4742555618286133,-0.7174558639526367
1789324450110416600,6.124416748046875,-0.37330102920532227,0.05576372146606445,-0.4447968006134033
1789324450129267000,6.143266845703125,0.3439297676086426,-0.7335553169250488,-0.013897418975830078
1789324450148117000,6.162116943359375,0.8647985458374023,-1.529897689819336,-0.5144813060760498
1789324450166967300,6.18096728515625,0.6227388381958008,-2.020702838897705,-0.8786680698394775
1789324450185817300,6.1998173828125,0.6847224235534668,-2.1245579719543457,-1.1770143508911133
1789324450204667600,6.218667724609375,0.39320993423461914,-2.0356550216674805,-1.4226353168487549
1789324450223517700,6.237517578125,0.38027334213256836,-1.7250304222106934,-1.817683219909668
1789324450242368000,6.256367919921875,0.607640266418457,-1.4965262413024902,-1.807145595550537
1789324450261218000,6.275218017578125,0.8558669090270996,-1.1971635818481445,-1.7175004482269287
1789324450280068400,6.294068359375,0.36151933670043945,-1.1557002067565918,-1.8137409687042236
1789324450298918400,6.31291845703125,-0.7391014099121094,-1.2301864624023438,-1.5021660327911377
1789324450317768700,6.331768798828125,-1.6442747116088867,-0.8000779151916504,-0.8967478275299072
1789324450336618800,6.35061865234375,-1.3960161209106445,-0.3932228088378906,0.20694994926452637
1789324450355469000,6.369468994140625,-0.601231575012207,-0.37238025665283203,0.5129308700561523
1789324450383744300,6.397744140625,-0.5672531127929688,-1.5515365600585938,-0.0704796314239502
1789324450402594600,6.416594482421875,-1.3622856140136719,-1.8683571815490723,0.17947912216186523
1789324450421444600,6.435444580078125,-2.325531482696533,-0.5897278785705566,1.3534761667251587
1789324450440295000,6.454294921875,-1.795527458190918,1.6398265361785889,0.7302547693252563
1789324450459145000,6.47314501953125,-0.053958892822265625,0.33802318572998047,-0.34302282333374023
1789324450477995300,6.491995361328125,-1.9566774368286133,-0.3497958183288574,-0.2633020877838135
1789324450496845600,6.510845458984375,-3.5648093223571777,0.6323721408843994,0.052393198013305664
1789324450515695600,6.529695556640625,-2.7088356018066406,1.0083552598953247,1.7062017917633057
1789324450534546000,6.5485458984375,-2.4715957641601562,1.2099462747573853,2.0665981769561768
1789324450553396000,6.56739599609375,-2.6220316886901855,1.154050588607788,1.8493695259094238
1789324450572246300,6.586246337890625,-2.95786190032959,1.2465564012527466,1.2046427726745605
1789324450591096300,6.605096435546875,-3.485779285430908,1.0072507858276367,1.649646520614624
1789324450609946600,6.623946533203125,-2.078474998474121,1.0233101844787598,1.9434340000152588
1789324450628796700,6.642796630859375,-1.4359040260314941,0.5105912685394287,1.7130916118621826
1789324450647647000,6.66164697265625,-3.154632091522217,0.8665528297424316,0.91267991065979
1789324450666497000,6.6804970703125,-3.1708970069885254,1.2270023822784424,1.316214680671692
1789324450685347300,6.699347412109375,-1.2648777961730957,1.4236655235290527,1.5933647155761719
1789324450704197600,6.71819775390625,-0.7672700881958008,1.390479564666748,1.101466178894043
1789324450723047700,6.737047607421875,-1.2903361320495605,1.1047134399414062,1.1770448684692383
1789324450741898000,6.75589794921875,-1.953066349029541,1.4670917987823486,0.2752518653869629
1789324450760748000,6.774748046875,-1.0066514015197754,1.1641430854797363,-0.5612931251525879
1789324450779598300,6.793598388671875,-0.4433159828186035,-0.15496206283569336,-0.4452962875366211
1789324450798448400,6.812448486328125,0.3461952209472656,-1.9421448707580566,-0.7825303077697754
1789324450817298700,6.831298583984375,0.33265113830566406,-1.897752285003662,-0.8031215667724609
1789324450836148700,6.850148681640625,-0.6142315864562988,-2.162531852722168,-1.2827296257019043
1789324450854999000,6.8689990234375,-0.629673957824707,-2.561257839202881,-1.146418809890747
1789324450873849300,6.887849365234375,-0.3606600761413574,-2.0963497161865234,-1.4735023975372314
1789324450892699400,6.906699462890625,0.24755525588989258,-1.2630248069763184,-0.6047899723052979
1789324450911549700,6.9255498046875,1.6063942909240723,-0.6349310874938965,-0.3215982913970947
1789324450930399700,6.944399658203125,2.7843241691589355,-1.5501103401184082,-0.7447030544281006
1789324450949250000,6.96325,2.5734567642211914,-3.1796927452087402,-1.6641302108764648
1789324450968100000,6.98210009765625,1.9182090759277344,-3.5913867950439453,-1.8824963569641113
1789324450986950400,7.000950439453125,2.114095687866211,-3.005329132080078,-0.9102716445922852
1789324451005800700,7.01980078125,2.5445547103881836,-2.277191162109375,0.6644101142883301
1789324451024650800,7.038650634765625,2.173137664794922,-1.55560302734375,0.1237630844116211
1789324451043501000,7.0575009765625,2.1032862663269043,-0.4913454055786133,-0.9187417030334473
1789324451062351000,7.07635107421875,2.3442606925964355,0.3369140625,-1.4723706245422363
1789324451081201400,7.095201416015625,1.823941707611084,0.2261953353881836,-0.8299076557159424
1789324451100051500,7.114051513671875,1.9851188659667969,-0.44507884979248047,-0.8612897396087646
1789324451118901800,7.13290185546875,0.9278898239135742,-0.9336299896240234,-0.009923458099365234
1789324451137751800,7.151751708984375,0.35970163345336914,-0.6183285713195801,0.44691014289855957
1789324451166027300,7.18002734375,-0.0928654670715332,-0.5868387222290039,0.5609819889068604
1789324451184877300,7.198877197265625,-0.19863033294677734,-1.3585238456726074,0.005856752395629883
1789324451203727600,7.2177275390625,-0.13368463516235352,-1.5580377578735352,-1.004328727722168
1789324451222578000,7.236577880859375,0.3422861099243164,-1.4432015419006348,-1.036222219467163
1789324451241428000,7.255427978515625,1.0131845474243164,-1.462385654449463,-1.0561978816986084
1789324451260278300,7.2742783203125,1.1924118995666504,-1.8468270301818848,-0.8940091133117676
1789324451279128300,7.29312841796875,1.489023208618164,-1.9062905311584473,-1.332895278930664
1789324451297978600,7.311978515625,0.7027301788330078,-1.8419756889343262,-1.7479033470153809
1789324451316828700,7.33082861328125,-0.3535575866699219,-1.1915616989135742,-1.7623193264007568
1789324451345104100,7.359104248046875,-0.35054969787597656,-0.748934268951416,-1.0719261169433594
1789324451363954400,7.377954345703125,0.34502363204956055,-1.2518391609191895,-0.6538364887237549
1789324451382804500,7.396804443359375,0.7829699516296387,-1.470510482788086,-0.48885416984558105
1789324451401654800,7.41565478515625,0.13936710357666016,-1.008145809173584,-0.38050389289855957
1789324451420504800,7.4345048828125,-1.2468061447143555,-1.5386385917663574,0.23393607139587402
1789324451439355100,7.453355224609375,-2.6703715324401855,-0.14927887916564941,0.00621342658996582
1789324451458205200,7.472205078125,-3.387552261352539,0.1549394130706787,-0.39548540115356445
1789324451477055500,7.491055419921875,-1.6242847442626953,2.7294700145721436,1.332154393196106
1789324451495905500,7.509905517578125,-0.09244251251220703,0.8826522827148438,0.9449200630187988
1789324451514755800,7.528755859375,-2.3604259490966797,-0.8589742183685303,1.022135853767395
1789324451533606100,7.547606201171875,-3.4556922912597656,0.35951709747314453,1.0417933464050293
1789324451552456200,7.566456298828125,-2.536701202392578,-0.03616738319396973,1.3077534437179565
1789324451571306500,7.585306396484375,-2.6563549041748047,0.2603945732116699,1.2403768301010132
1789324451590156500,7.604156494140625,-2.6007766723632812,0.6515474319458008,1.272382140159607
1789324451609006800,7.6230068359375,-2.7249622344970703,0.745452880859375,1.4951069355010986
1789324451627857200,7.641857177734375,-2.4918417930603027,1.1479980945587158,2.293998956680298
1789324451646707200,7.660707275390625,-2.1016368865966797,1.074288249015808,2.033114433288574
1789324451665557500,7.6795576171875,-1.9977459907531738,1.0693937540054321,1.939115285873413
1789324451684407800,7.69840771484375,-2.6071653366088867,1.2285759449005127,1.0473241806030273
1789324451703257900,7.7172578125,-2.4556145668029785,1.168726921081543,0.6308314800262451
1789324451722108200,7.736108154296875,-2.6339879035949707,1.0625028610229492,0.8554072380065918
1789324451740958200,7.754958251953125,-1.6454858779907227,1.6221988201141357,1.0513577461242676
1789324451759808500,7.77380859375,-0.9906435012817383,1.852156400680542,0.8939530849456787
1789324451778658600,7.792658447265625,-0.8525571823120117,1.4990558624267578,0.3352677822113037
1789324451797508900,7.8115087890625,-1.4317641258239746,0.3367729187011719,-0.18107247352600098
1789324451816359200,7.830359130859375,-0.23617267608642578,-1.1724939346313477,-0.8509869575500488
1789324451844634400,7.85863427734375,-0.5912141799926758,-2.338759422302246,-1.256624698638916
1789324451863484700,7.877484619140625,-0.2520313262939453,-3.2278494834899902,-1.696401834487915
1789324451882334700,7.896334716796875,-0.15079402923583984,-3.4116873741149902,-1.7442443370819092
1789324451901185000,7.91518505859375,0.8260631561279297,-3.003422737121582,-1.5748467445373535
1789324451920035000,7.93403515625,1.7676496505737305,-2.740020275115967,-1.187361717224121
1789324451938885400,7.952885498046875,2.2502903938293457,-3.356579303741455,-1.2662224769592285
1789324451957735700,7.971735595703125,2.691739559173584,-4.009031772613525,-1.49367094039917
1789324451976585700,7.990585693359375,2.484023094177246,-2.4494481086730957,-1.5526986122131348
1789324451995436000,8.00943603515625,2.1180925369262695,0.14354324340820312,-1.6066081523895264
1789324452014286000,8.0282861328125,1.6845207214355469,1.4037137031555176,-1.670407772064209
1789324452033136400,8.047136474609376,0.9575119018554688,1.4232616424560547,-1.0745561122894287
1789324452051986400,8.065986328125,1.1812119483947754,0.5747084617614746,-0.710777997970581
1789324452070836700,8.084836669921875,1.0994539260864258,-0.6591815948486328,0.13705825805664062
1789324452089687000,8.10368701171875,1.2057647705078125,-1.6214656829833984,-0.41750121116638184
1789324452108537000,8.122537109375,1.168766975402832,-1.5645866394042969,-0.23475217819213867
1789324452127387400,8.141387451171875,0.6732444763183594,-1.2533245086669922,-0.2389061450958252
1789324452146237400,8.160237548828125,0.09411191940307617,-1.0735154151916504,-0.2940056324005127
1789324452165087700,8.179087646484374,-0.024722576141357422,-0.819854736328125,-0.5867147445678711
1789324452193363000,8.207363037109374,0.5873618125915527,-1.3032031059265137,-0.8000271320343018
1789324452212213200,8.226213134765626,0.9168848991394043,-2.0618553161621094,-1.1960093975067139
1789324452231063600,8.2450634765625,1.1239376068115234,-2.1970901489257812,-1.2481884956359863
1789324452249913600,8.26391357421875,0.9965238571166992,-1.7103338241577148,-1.326948642730713
1789324452268764000,8.282763916015625,0.46211814880371094,-1.3932642936706543,-0.4677438735961914
1789324452287614000,8.301614013671875,0.07638311386108398,-0.6524529457092285,-0.2159557342529297
1789324452306464300,8.32046435546875,-0.49716711044311523,-0.5722870826721191,-0.6359343528747559
1789324452325314600,8.339314453125,-0.6954402923583984,-0.7518372535705566,-1.2494103908538818
1789324452353589800,8.36758984375,-0.913701057434082,-1.5110692977905273,-1.5859243869781494
1789324452372439800,8.386439697265626,-0.1718897819519043,-1.6730785369873047,-1.0258798599243164
1789324452391290000,8.4052900390625,0.4413638114929199,-1.6541094779968262,-0.7294406890869141
1789324452419565600,8.433565673828125,-0.6355924606323242,-0.7033858299255371,-0.4603455066680908
1789324452438415600,8.45241552734375,-1.5017380714416504,-0.015131950378417969,0.21344256401062012
1789324452457266000,8.471265869140625,-2.338944911956787,0.39449405670166016,1.1558092832565308
1789324452476116000,8.490115966796875,-3.115778923034668,1.1567926406860352,1.0361700057983398
1789324452494966300,8.50896630859375,-2.1207733154296875,1.524909257888794,0.859326958656311
1789324452513816300,8.52781640625,-0.13416385650634766,0.7608499526977539,-0.45407629013061523
1789324452532666600,8.54666650390625,-2.3191680908203125,-0.7156453132629395,0.17566871643066406
1789324452551517000,8.565516845703126,-3.9324545860290527,0.15562152862548828,0.7328833341598511
1789324452570367000,8.584366943359376,-2.730661392211914,0.1233527660369873,1.6401276588439941
1789324452589217300,8.60321728515625,-1.0721979141235352,0.3732612133026123,2.1915087699890137
1789324452608067300,8.6220673828125,-0.40093517303466797,-0.4780895709991455,1.7147212028503418
1789324452626917600,8.640917724609375,-1.8055477142333984,-0.45092248916625977,0.4298233985900879
1789324452645768000,8.659767822265625,-2.480571746826172,0.4741518497467041,0.5917606353759766
1789324452674043100,8.688043212890625,-2.290461540222168,0.7877564430236816,1.1183120012283325
1789324452692893400,8.7068935546875,-3.2253661155700684,1.0920228958129883,1.676474928855896
1789324452711743500,8.725743408203124,-3.298811912536621,1.7975664138793945,2.2586288452148438
1789324452730593800,8.74459375,-3.0851707458496094,2.0837340354919434,1.6722602844238281
1789324452749443800,8.76344384765625,-3.300326347351074,1.9732048511505127,1.8088209629058838
1789324452768294100,8.782294189453125,-2.640866279602051,2.555558204650879,1.9501783847808838
1789324452796569300,8.8105693359375,-1.6434869766235352,2.370103120803833,1.483898401260376
1789324452815419600,8.829419677734375,-1.4443540573120117,2.0046465396881104,0.7840046882629395
1789324452843694800,8.85769482421875,0.5137186050415039,0.3241696357727051,-0.2863471508026123
1789324452862545200,8.876545166015624,1.1623668670654297,-2.2556910514831543,-1.383131980895996
1789324452881395200,8.895395263671874,0.7672457695007324,-4.167207717895508,-2.4721927642822266
1789324452900245500,8.91424560546875,-0.0780482292175293,-6.116023540496826,-2.960252285003662
1789324452919095800,8.933095703125,0.36960649490356445,-7.179429054260254,-2.4053337574005127
1789324452937945900,8.95194580078125,1.1483502388000488,-5.796944618225098,-1.557391881942749
1789324452956796200,8.970796142578125,1.715177059173584,-2.252382278442383,-0.3632500171661377
1789324452975646200,8.989646240234375,2.4499940872192383,0.48154401779174805,-0.912229061126709
1789324452994496500,9.00849658203125,2.7738447189331055,1.2490220069885254,-1.7009515762329102
1789324453013346800,9.027346923828125,1.878920078277588,0.8287830352783203,-1.847635269165039
1789324453032196900,9.04619677734375,1.9456210136413574,0.37731218338012695,-1.6111762523651123
1789324453051047200,9.065047119140624,1.628096103668213,-0.12090492248535156,-1.0446527004241943
1789324453069897200,9.083897216796874,1.6133008003234863,-0.7988786697387695,-0.6861777305603027
1789324453088747500,9.10274755859375,1.4531445503234863,-2.088437080383301,-0.8218436241149902
1789324453107597600,9.12159765625,1.0997505187988281,-2.476930618286133,-0.7832694053649902
1789324453126447900,9.14044775390625,1.4239249229431152,-1.1371850967407227,-0.25682973861694336
1789324453145298200,9.159298095703125,1.5677309036254883,-0.10282087326049805,-0.4088752269744873
1789324453164148200,9.178148193359375,0.6691536903381348,-0.1515660285949707,-0.6036765575408936
1789324453182998500,9.19699853515625,0.579829216003418,-0.6963295936584473,-0.713998556137085
1789324453201848600,9.2158486328125,0.739016056060791,-1.3124446868896484,-0.6489360332489014
1789324453220699000,9.234698974609374,0.24145030975341797,-1.3656692504882812,-0.38323330879211426
1789324453239549000,9.253548828125,0.05109405517578125,-0.8908481597900391,-0.5822062492370605
1789324453258399200,9.272399169921876,0.0021224021911621094,-0.7012534141540527,-0.2701129913330078
1789324453286674400,9.30067431640625,0.7025742530822754,-1.010538101196289,-0.9104154109954834
1789324453305524700,9.319524658203125,1.290938377380371,-1.67952299118042,-0.9111418724060059
1789324453324375000,9.338375,0.6540026664733887,-2.028618812561035,-1.8954265117645264
1789324453343225000,9.35722509765625,-0.130859375,-1.6347994804382324,-1.9962756633758545
1789324453362075400,9.376075439453125,-0.42383861541748047,-0.5507469177246094,-1.5462172031402588
1789324453380925400,9.394925537109375,-0.49267005920410156,-0.47057008743286133,-0.5597820281982422
1789324453399775700,9.413775634765624,-0.3215150833129883,-0.48360300064086914,-1.0594756603240967
1789324453418625800,9.432625732421876,-0.8836312294006348,-1.124007225036621,-1.302272081375122
1789324453437476000,9.45147607421875,-0.7197394371032715,-0.01512002944946289,-0.8990650177001953
1789324453456326400,9.470326416015626,-0.5520358085632324,-0.13312101364135742,-0.35894274711608887
1789324453475176400,9.489176513671875,0.06700801849365234,-1.544367790222168,0.19421982765197754
1789324453494026800,9.50802685546875,-1.8281545639038086,-0.8861145973205566,0.7175445556640625
1789324453512876800,9.526876708984375,-2.663294792175293,-0.839832067489624,0.7063314914703369
1789324453531727000,9.54572705078125,-1.8882498741149902,0.39131641387939453,-0.4113905429840088
1789324453550577200,9.5645771484375,-2.124856948852539,0.7268936634063721,0.4792160987854004
1789324453569427500,9.583427490234374,-3.197269916534424,1.0908995866775513,0.7808958292007446
1789324453588277800,9.60227783203125,-3.102397918701172,1.2112003564834595,1.9194936752319336
1789324453607127800,9.6211279296875,-2.4643001556396484,0.9324404001235962,2.0412206649780273
1789324453625978000,9.63997802734375,-3.1319289207458496,0.5225481986999512,0.8336007595062256
1789324453644828200,9.658828125,-2.5308046340942383,0.1991124153137207,1.0730825662612915
1789324453663678500,9.677678466796875,-1.9104809761047363,1.0060091018676758,1.521963357925415
1789324453682528500,9.696528564453125,-3.6919922828674316,0.9943976402282715,0.7806081771850586
1789324453701378800,9.71537890625,-3.2440919876098633,1.2489829063415527,1.6988471746444702
1789324453720229000,9.73422900390625,-1.67742919921875,1.5740830898284912,2.241602897644043
1789324453739079200,9.7530791015625,-2.5713090896606445,1.0245683193206787,1.008946418762207
1789324453757929500,9.771929443359374,-2.498137950897217,1.569961667060852,1.4296213388442993
1789324453786204700,9.80020458984375,-0.36739635467529297,1.7516505718231201,0.6936254501342773
1789324453805054700,9.8190546875,-0.8347110748291016,0.8479752540588379,0.30573344230651855
1789324453823905000,9.837905029296875,-0.9553837776184082,0.9655365943908691,-0.680788516998291
1789324453842755300,9.85675537109375,-1.0291509628295898,0.41414737701416016,-0.49782752990722656
1789324453861605400,9.87560546875,-0.5722298622131348,-1.9368700981140137,-0.7308456897735596
1789324453880455700,9.89445556640625,-0.1020817756652832,-3.344764232635498,-0.6232495307922363
1789324453899305700,9.9133056640625,-0.6227664947509766,-2.7613911628723145,-0.31485605239868164
1789324453918156000,9.932156005859374,-0.11724328994750977,-1.6824431419372559,-0.8865172863006592
1789324453937006000,9.951006103515626,0.3722219467163086,-1.3202433586120605,-0.8696861267089844
1789324453955856400,9.9698564453125,0.6746101379394531,-1.189012050628662,-1.6839148998260498
1789324453974706400,9.98870654296875,1.0347566604614258,-1.369795799255371,-2.039583444595337
1789324453993556700,10.007556640625,1.486609935760498,-1.4334769248962402,-1.8748900890350342
1789324454012406800,10.02640673828125,1.7127280235290527,-1.3703489303588867,-1.7710916996002197
1789324454031257000,10.045257080078125,1.480252742767334,-1.441500186920166,-1.435659646987915
1789324454050107400,10.064107421875,1.3350982666015625,-1.6698307991027832,-0.6894509792327881
1789324454068957400,10.08295751953125,2.1606903076171875,-1.5729970932006836,-0.2868540287017822
1789324454087807700,10.101807861328124,2.0253052711486816,-1.2795581817626953,0.07577729225158691
1789324454106657800,10.12065771484375,2.0306472778320312,-1.6174440383911133,-0.15606403350830078
1789324454125508000,10.139508056640626,2.5704145431518555,-1.8279170989990234,-0.48127293586730957
1789324454144358100,10.158358154296875,1.969728946685791,-1.3570246696472168,-0.580733060836792
1789324454163208400,10.17720849609375,1.5301952362060547,-0.28476381301879883,-0.6224327087402344
1789324454182058500,10.19605859375,0.8916792869567871,-0.10070991516113281,-0.3067164421081543
1789324454200908800,10.21490869140625,-0.02675628662109375,-0.09033775329589844,-0.20582270622253418
1789324454219759000,10.233759033203125,-0.41173505783081055,-0.23114871978759766,0.14621233940124512
1789324454238609200,10.252609130859375,0.27439117431640625,-0.8090910911560059,0.2664508819580078
1789324454257459500,10.27145947265625,0.4288821220397949,-1.6652297973632812,0.25469064712524414
1789324454276309500,10.2903095703125,0.3631157875061035,-1.3842387199401855,-0.28368425369262695
1789324454295159800,10.309159912109376,0.565239429473877,-1.0964255332946777,-0.2738182544708252
1789324454314009900,10.328009765625,1.3051228523254395,-0.8270144462585449,-0.46366405487060547
1789324454332860200,10.346860107421875,0.7666702270507812,-1.4200844764709473,-0.5491318702697754
1789324454351710200,10.365710205078125,0.8676662445068359,-1.3770298957824707,-0.9459564685821533
1789324454370560500,10.384560546875,1.2257423400878906,-1.2762184143066406,-1.1086926460266113
1789324454389410600,10.40341064453125,1.4399690628051758,-1.3720760345458984,-1.5729374885559082
1789324454408260900,10.4222607421875,1.3221979141235352,-1.3400321006774902,-1.9704556465148926
1789324454427111000,10.44111083984375,0.3105607032775879,-1.5964970588684082,-1.659550666809082
1789324454445961200,10.459961181640624,-0.10691308975219727,-1.2185912132263184,-1.1408090591430664
1789324454464811300,10.478811279296876,-0.5599923133850098,-0.769927978515625,-0.3154020309448242
1789324454483661600,10.49766162109375,-1.4163627624511719,-0.15404033660888672,0.10823321342468262
1789324454502511900,10.516511962890625,-2.3758082389831543,-0.3385453224182129,1.0007877349853516
1789324454521362000,10.53536181640625,-2.753206729888916,1.4263734817504883,1.6253507137298584
1789324454540212200,10.554212158203125,-2.7510457038879395,-0.2008357048034668,1.0294408798217773
1789324454559062300,10.573062255859375,-1.8843822479248047,0.3615403175354004,0.35552000999450684
1789324454577912600,10.59191259765625,-1.9928369522094727,1.1525158882141113,1.2185498476028442
1789324454596762600,10.6107626953125,-2.3812499046325684,0.6054809093475342,2.0541937351226807
1789324454615613000,10.629613037109374,-3.2029500007629395,0.5943231582641602,1.9953080415725708
1789324454634463000,10.648462890625,-2.5197010040283203,0.8048920631408691,2.211094617843628
1789324454653313300,10.667313232421876,-2.243131160736084,0.7084347009658813,1.75652277469635
1789324454672163300,10.686163330078125,-1.8833575248718262,0.6886622905731201,1.5176278352737427
1789324454691013600,10.705013671875,-3.4589600563049316,1.204140067100525,1.5390536785125732
1789324454709863700,10.72386376953125,-0.8757853507995605,0.919875979423523,2.672180652618408
1789324454728714000,10.7427138671875,-1.3518385887145996,0.9914064407348633,0.8858025074005127
1789324454747564000,10.76156396484375,-2.8829007148742676,0.5108952522277832,1.0936260223388672
1789324454766414300,10.780414306640624,-2.1414008140563965,0.9701721668243408,1.4533460140228271
1789324454785264400,10.799264404296874,-2.110610008239746,0.8501088619232178,1.780871868133545
1789324454804114700,10.81811474609375,-1.6040339469909668,1.1691088676452637,1.9928531646728516
1789324454822964700,10.83696484375,-1.8013958930969238,2.000605583190918,1.0936384201049805
1789324454841815000,10.85581494140625,-1.1337895393371582,2.3110194206237793,0.5356869697570801
1789324454860665000,10.8746650390625,-0.7921814918518066,2.1487865447998047,0.3656880855560303
1789324454879515400,10.893515380859375,-0.6400532722473145,0.2520890235900879,-0.2929368019104004
1789324454898365400,10.912365478515625,0.6114296913146973,-1.692446231842041,-0.42700719833374023
1789324454917215700,10.9312158203125,-0.21732568740844727,-3.1342763900756836,-1.584517478942871
1789324454936065800,10.950065673828124,0.0071201324462890625,-4.056533336639404,-1.6866097450256348
1789324454954916000,10.968916015625,-0.1923360824584961,-3.8819260597229004,-2.41644287109375
1789324454973766100,10.98776611328125,0.29088497161865234,-3.5077853202819824,-1.4870643615722656
1789324454992616400,11.006616455078126,1.6530466079711914,-2.266023635864258,-0.9356060028076172
1789324455011466500,11.025466552734375,2.830343246459961,-1.7134919166564941,-1.0435974597930908
1789324455030316800,11.04431689453125,2.8542022705078125,-1.6930561065673828,-1.6165461540222168
1789324455049166800,11.063166748046875,2.493323802947998,-1.600870132446289,-1.9904959201812744
1789324455068017200,11.08201708984375,2.3209991455078125,-0.7702732086181641,-0.9342329502105713
1789324455086867200,11.1008671875,2.0674967765808105,-0.2040691375732422,-0.2200639247894287
1789324455105717500,11.119717529296874,1.458047866821289,-0.251129150390625,-0.19108080863952637
1789324455124567600,11.138567626953124,1.4196105003356934,-0.3223419189453125,-0.20958948135375977
1789324455143417900,11.15741796875,1.4067463874816895,-0.6573123931884766,-0.004866838455200195
1789324455162268000,11.176267822265626,1.9621243476867676,-0.7996892929077148,-0.34435510635375977
1789324455181118200,11.1951181640625,1.5008831024169922,-0.3906421661376953,-0.3337893486022949
1789324455199968300,11.21396826171875,1.3020973205566406,-0.13888883590698242,-0.43799686431884766
1789324455218818300,11.232818359375,1.4341936111450195,-0.651486873626709,-1.0254693031311035
1789324455237668600,11.251668701171875,0.5936360359191895,-1.4147663116455078,-0.859363317489624
1789324455256519000,11.270518798828125,0.12848615646362305,-1.5718064308166504,-0.5411679744720459
1789324455275369000,11.289368896484374,-0.03710317611694336,-1.350010871887207,-0.29071950912475586
1789324455294219000,11.308218994140624,-0.1355733871459961,-0.8416004180908203,-0.45361852645874023
1789324455313069300,11.3270693359375,0.05388069152832031,-0.8122320175170898,-0.07998991012573242
1789324455341344500,11.355344482421875,1.0416874885559082,-1.7729005813598633,-0.3826162815093994
1789324455360194600,11.374194580078125,1.1357288360595703,-1.78245210647583,-0.6130368709564209
1789324455379044900,11.393044921875,0.8786888122558594,-1.0625557899475098,-1.0007259845733643
1789324455397895000,11.41189501953125,0.11488151550292969,-0.3896775245666504,-2.0240373611450195
1789324455416745200,11.4307451171875,-0.09389781951904297,0.11370086669921875,-1.9970738887786865
1789324455435595300,11.44959521484375,-0.24236488342285156,-0.11927413940429688,-1.3430583477020264
1789324455454445600,11.468445556640624,-0.3475666046142578,-0.8418383598327637,-1.2415039539337158
1789324455473295600,11.487295654296876,-0.3481597900390625,-1.399019718170166,-1.167290449142456
1789324455492146000,11.50614599609375,-0.49419546127319336,-0.6178545951843262,-0.6003201007843018
1789324455510996000,11.524995849609375,-0.7697820663452148,-1.4577221870422363,-0.2875545024871826
1789324455529846000,11.543845947265625,-1.201237678527832,-0.4225924015045166,0.6759800910949707
1789324455548696300,11.5626962890625,-2.2659120559692383,-0.2806580066680908,0.44956326484680176
1789324455567546400,11.58154638671875,-1.7623109817504883,0.07766127586364746,-0.7501115798950195
1789324455586396700,11.600396728515625,-2.418356418609619,1.0767247676849365,0.3272404670715332
1789324455605246700,11.619246826171874,-3.350994110107422,1.609523892402649,1.8928635120391846
1789324455624097000,11.638096923828124,-3.632154941558838,1.3660210371017456,2.3899760246276855
1789324455642947000,11.656947021484376,-3.374034881591797,1.3103394508361816,1.6707007884979248
1789324455661797400,11.67579736328125,-3.138453960418701,0.49886536598205566,1.5555371046066284
1789324455680647400,11.6946474609375,-3.3926100730895996,0.7163487672805786,1.1153292655944824
1789324455699497500,11.71349755859375,-2.8850955963134766,0.5060832500457764,1.655813455581665
1789324455718347800,11.73234765625,-2.777202606201172,1.0023969411849976,2.154569625854492
1789324455737197800,11.75119775390625,-2.133296012878418,1.2952749729156494,1.423293113708496
1789324455756048100,11.770048095703125,-2.0419206619262695,1.0207324028015137,1.6655467748641968
1789324455774898200,11.788898193359374,-1.831711769104004,0.9448184967041016,1.1821720600128174
1789324455793748500,11.80774853515625,-2.285402297973633,0.9564549922943115,0.6135866641998291
1789324455812598500,11.8265986328125,-1.0543785095214844,1.0410706996917725,1.0101573467254639
1789324455831448600,11.845448486328126,-1.4259114265441895,1.4978463649749756,0.5693025588989258
1789324455850299000,11.864298828125,-1.0751919746398926,1.5993306636810303,0.08734893798828125
1789324455869149000,11.88314892578125,-0.7426137924194336,1.3633346557617188,-0.1856095790863037
1789324455887999200,11.901999267578125,-0.8542170524597168,0.3032417297363281,-0.639493465423584
1789324455906849300,11.920849365234375,-0.813755989074707,-1.1626214981079102,-0.5598821640014648
1789324455925699600,11.939699462890625,-1.0719027519226074,-2.0031514167785645,-0.8591279983520508
1789324455944549600,11.958549560546874,-1.3727569580078125,-2.412280559539795,-1.3425335884094238
1789324455963399700,11.977399658203124,-0.4382634162902832,-2.0528154373168945,-1.708251953125
1789324455982250000,11.99625,0.1434192657470703,-1.6912236213684082,-1.496891975402832
1789324456001100000,12.01510009765625,1.4145822525024414,-1.612091064453125,-2.219728469848633
1789324456019950000,12.0339501953125,3.0067458152770996,-2.891364097595215,-2.8511240482330322
1789324456038800400,12.05280029296875,3.5429906845092773,-4.375275135040283,-3.352024793624878
1789324456057650400,12.071650390625,2.7408738136291504,-4.689736366271973,-2.9914133548736572
1789324456076500700,12.090500732421875,2.7381505966186523,-3.21547794342041,-1.4303627014160156
1789324456095350800,12.109350830078125,1.9210782051086426,-1.9292850494384766,-0.40825700759887695
1789324456114200800,12.128200927734374,2.061737537384033,-0.6088886260986328,-0.5549376010894775
1789324456133051100,12.147051025390626,2.07204532623291,0.1356501579284668,-0.7771680355072021
1789324456151901200,12.165901123046876,1.8759441375732422,0.39980506896972656,-1.1008403301239014
1789324456170751500,12.18475146484375,1.3641862869262695,0.6513152122497559,-0.1831352710723877
1789324456189601500,12.2036015625,1.0699410438537598,0.7810521125793457,0.12430334091186523
1789324456208451600,12.22245166015625,0.4308457374572754,0.5363588333129883,0.16870331764221191
1789324456227302000,12.241302001953125,-0.596916675567627,-0.0749058723449707,0.7621481418609619
1789324456246152000,12.26015185546875,-0.610051155090332,-0.2119426727294922,0.1831214427947998
1789324456265002000,12.279001953125,-0.8115277290344238,-1.0398163795471191,0.7919633388519287
1789324456283852300,12.297852294921874,0.11393404006958008,-1.075636386871338,-0.1859455108642578
1789324456302702300,12.316702392578126,0.4836249351501465,-1.5638704299926758,-0.7245762348175049
1789324456321552400,12.335552490234376,0.9754366874694824,-1.7795524597167969,-0.6512367725372314
1789324456349827600,12.36382763671875,1.2728304862976074,-1.963409423828125,-1.158989429473877
1789324456368678000,12.382677978515625,1.733628749847412,-1.81217622756958,-1.693685531616211
1789324456387528000,12.40152783203125,1.793494701385498,-1.5689120292663574,-1.8234083652496338
1789324456406378000,12.4203779296875,0.7619118690490723,-1.8279685974121094,-2.3690598011016846
1789324456425228300,12.439228271484374,-0.5015349388122559,-1.514631748199463,-1.444054365158081
1789324456444078300,12.458078369140624,-0.8344182968139648,-0.37888526916503906,-0.2704451084136963
1789324456462928600,12.4769287109375,-0.6909451484680176,-0.9349713325500488,0.1462538242340088
1789324456481778700,12.49577880859375,-0.7766432762145996,-1.150979995727539,-0.11019706726074219
1789324456500628700,12.514628662109375,-2.1804232597351074,0.24819040298461914,0.7674171924591064
1789324456519479000,12.53347900390625,-2.8858823776245117,0.721815824508667,1.9693866968154907
1789324456538329000,12.5523291015625,-3.0054564476013184,1.249298095703125,1.8388477563858032
1789324456557179100,12.57117919921875,-1.209120750427246,0.5562646389007568,0.7066001892089844
1789324456576029200,12.590029296875,-0.9813709259033203,0.23136210441589355,0.1352100372314453
1789324456594879500,12.60887939453125,-1.7774567604064941,-0.08655691146850586,0.8468806743621826
1789324456613729500,12.6277294921875,-2.299123764038086,-0.20759892463684082,1.0050864219665527
1789324456632579800,12.646579833984376,-2.2398505210876465,0.3172297477722168,1.4313808679580688
1789324456651430000,12.665429931640626,-1.1651110649108887,0.3650681972503662,1.9897650480270386
1789324456670280000,12.684280029296875,-2.1505002975463867,0.8362913131713867,1.2156579494476318
1789324456689130000,12.7031298828125,-2.8505921363830566,0.9310040473937988,1.8282055854797363
1789324456707980300,12.721980224609375,-2.046572685241699,1.2326024770736694,2.2541861534118652
1789324456726830300,12.740830322265625,-1.895296573638916,1.1594657897949219,2.2506351470947266
1789324456745680400,12.759680419921875,-2.722390651702881,0.9111926555633545,1.8557605743408203
1789324456764530700,12.77853076171875,-2.767773151397705,1.0843017101287842,2.5013301372528076
1789324456783380700,12.797380615234376,-2.5372862815856934,1.0784101486206055,2.2767226696014404
1789324456802230800,12.816230712890626,-2.3829870223999023,1.253171682357788,1.7481536865234375
1789324456821081000,12.8350810546875,-1.8672237396240234,1.471219539642334,1.5902044773101807
1789324456839931100,12.85393115234375,-1.4461112022399902,1.7708795070648193,0.8591539859771729
1789324456858781200,12.87278125,-1.4969654083251953,1.5256657600402832,0.5823285579681396
1789324456877631200,12.89163134765625,-0.5608835220336914,1.2200796604156494,0.6560633182525635
1789324456896481500,12.9104814453125,0.31476688385009766,-0.4571399688720703,0.11983966827392578
1789324456915331600,12.92933154296875,0.6773695945739746,-2.4475221633911133,-0.9279417991638184
1789324456934181600,12.948181640625,0.23977375030517578,-4.265992641448975,-2.213994026184082
1789324456953031700,12.96703173828125,-0.037622928619384766,-4.717724323272705,-2.4572296142578125
1789324456971882000,12.985882080078126,-0.4913296699523926,-4.138346195220947,-1.919567584991455
1789324456990732000,13.00473193359375,1.0021061897277832,-3.1728625297546387,-0.5796337127685547
1789324457009582000,13.02358203125,3.079699993133545,-2.682343006134033,0.02529454231262207
1789324457028432400,13.042432373046875,4.456631183624268,-3.1447067260742188,-1.2023777961730957
1789324457047282400,13.061282470703125,3.74127197265625,-2.0204625129699707,-2.7785117626190186
1789324457066132500,13.080132568359375,2.5794930458068848,0.11249113082885742,-2.579667091369629
1789324457084982500,13.098982421875,1.7131781578063965,1.1250910758972168,-1.007906436920166
1789324457103832800,13.117832763671874,1.167679786682129,0.7420048713684082,0.43674564361572266
1789324457122683000,13.136682861328126,1.6251153945922852,-0.20060205459594727,0.42501306533813477
1789324457141533000,13.155532958984375,1.6670331954956055,-1.1662654876708984,-0.2471022605895996
1789324457160383000,13.174383056640625,1.9339795112609863,-1.2691693305969238,-0.6245989799499512
1789324457179233300,13.1932333984375,1.6832151412963867,-0.5571341514587402,-0.14083194732666016
1789324457198083300,13.212083251953125,1.566612720489502,-0.4885854721069336,-0.10555505752563477
1789324457216933400,13.230933349609375,1.540919303894043,-0.9266066551208496,-0.6619324684143066
1789324457235783400,13.249783447265624,0.8733954429626465,-1.5235638618469238,-0.5464420318603516
1789324457254633700,13.2686337890625,0.5109505653381348,-1.2273831367492676,-0.4659867286682129
1789324457273483800,13.28748388671875,0.2064352035522461,-1.1935067176818848,-0.7501606941223145
1789324457292333800,13.306333740234376,0.024527549743652344,-0.5021562576293945,-0.8439404964447021
1789324457311184000,13.325183837890625,0.069976806640625,-0.4574747085571289,-0.6181368827819824
1789324457330034000,13.344033935546875,0.3540215492248535,-0.40573978424072266,-0.5811762809753418
1789324457348884200,13.36288427734375,0.6419382095336914,-0.8437566757202148,-0.2732579708099365
1789324457367734300,13.381734375,0.9549789428710938,-1.2053117752075195,-0.33196568489074707
1789324457386584300,13.400584228515624,0.5638198852539062,-1.445413589477539,-0.7354166507720947
1789324457405434400,13.419434326171874,0.04966878890991211,-1.2771196365356445,-1.0417227745056152
1789324457424284400,13.438284423828126,-0.05593061447143555,-1.0879812240600586,-1.178337574005127
1789324457443134700,13.457134765625,-0.3208937644958496,-1.068871021270752,-1.4202954769134521
1789324457461984800,13.47598486328125,-0.31178855895996094,-0.7722477912902832,-1.3149614334106445
1789324457480834800,13.494834716796875,-0.35468149185180664,-0.22284841537475586,-1.1190073490142822
1789324457499684900,13.513684814453125,-0.6576719284057617,0.349839448928833,-0.6584975719451904
1789324457518535000,13.532534912109375,-1.4253263473510742,-0.008188724517822266,-0.4403097629547119
1789324457537385200,13.55138525390625,-2.0529346466064453,-0.15444278717041016,-0.4878203868865967
1789324457556235300,13.5702353515625,-1.4826393127441406,-0.9432787895202637,-1.122006893157959
1789324457575085300,13.589085205078124,-1.8782958984375,-0.9269485473632812,0.0028066635131835938
1789324457593935400,13.607935302734376,-3.369110584259033,0.47301268577575684,1.1661572456359863
1789324457612785400,13.626785400390625,-4.0290446281433105,1.559747338294983,2.8929591178894043
1789324457631635500,13.645635498046875,-3.9239273071289062,1.6316100358963013,2.5033349990844727
1789324457650485800,13.66448583984375,-3.1619486808776855,0.8104121685028076,2.7083938121795654
1789324457669335800,13.683335693359375,-3.135711193084717,1.0870171785354614,2.843374490737915
1789324457688185900,13.702185791015625,-2.3286352157592773,1.4241632223129272,1.4362491369247437
1789324457707036000,13.721035888671874,-2.369722843170166,0.8916089534759521,1.5961116552352905
1789324457725886000,13.739885986328124,-1.3878002166748047,0.9075171947479248,0.976055383682251
1789324457744736300,13.758736328125,-2.368171215057373,0.6980712413787842,0.5642514228820801
1789324457763586300,13.77758642578125,-1.9946656227111816,0.9435436725616455,0.8168623447418213
1789324457782436400,13.796436279296875,-2.024935722351074,0.8531410694122314,0.6957249641418457
1789324457801286400,13.815286376953125,-1.8686399459838867,1.0636131763458252,0.549426794052124
1789324457820136400,13.834136474609375,-1.6135072708129883,1.1849329471588135,0.8269209861755371
1789324457838986500,13.852986572265625,-2.3577218055725098,1.8449270725250244,0.5994555950164795
1789324457857836500,13.87183642578125,-1.7917499542236328,1.9442412853240967,0.8434076309204102
1789324457876686600,13.8906865234375,-0.24058866500854492,0.936887264251709,0.8553919792175293
1789324457895537000,13.909536865234376,-0.22838211059570312,-0.9083490371704102,-0.07346343994140625
1789324457914387000,13.928386962890626,-0.30179882049560547,-1.9131193161010742,-0.9354102611541748
1789324457933237000,13.947237060546875,-1.1002922058105469,-2.7033190727233887,-2.0667552947998047
1789324457952087000,13.966087158203125,-0.27826833724975586,-3.3954081535339355,-2.1524641513824463
1789324457970937000,13.98493701171875,-0.09382820129394531,-3.0867795944213867,-2.5132014751434326
1789324457989787100,14.003787109375,0.6084446907043457,-2.488981246948242,-2.4520344734191895
1789324458008637200,14.02263720703125,1.813981533050537,-1.9549221992492676,-1.795020341873169
1789324458027487200,14.0414873046875,3.147132396697998,-1.9566888809204102,-1.9526262283325195
1789324458046337300,14.060337158203126,2.908656120300293,-1.6862430572509766,-2.5577573776245117
1789324458065187600,14.0791875,2.3336830139160156,-1.1793270111083984,-3.1308751106262207
1789324458084037600,14.09803759765625,1.9897727966308594,-0.6187891960144043,-1.8352959156036377
1789324458102887700,14.1168876953125,1.8297171592712402,-0.9734115600585938,-0.4303629398345947
1789324458121737700,14.13573779296875,1.967782974243164,-1.3316583633422852,-0.2745077610015869
1789324458140587800,14.154587890625,1.7963976860046387,-1.06502103805542,-0.8715419769287109
1789324458159437800,14.173437744140625,1.066300868988037,0.3585062026977539,-0.8576235771179199
1789324458178287900,14.192287841796874,0.8050851821899414,1.0814032554626465,-0.42643141746520996
1789324458197138000,14.211137939453126,0.628631591796875,0.8960819244384766,-0.45824432373046875
1789324458215988000,14.229988037109376,0.2752833366394043,-0.2573070526123047,-0.25476551055908203
1789324458234838000,14.248838134765625,0.2489309310913086,-1.4937610626220703,-0.08173298835754395
1789324458253688000,14.26768798828125,0.18188095092773438,-2.3088793754577637,-0.008577346801757812
1789324458272538000,14.2865380859375,0.11455821990966797,-2.5648632049560547,-0.2512526512145996
1789324458291388200,14.30538818359375,0.599517822265625,-2.3488101959228516,-0.6358695030212402
1789324458310238200,14.32423828125,1.015904426574707,-1.818291187286377,-1.273026466369629
1789324458329088300,14.343088134765624,0.8873233795166016,-1.036994457244873,-1.5456984043121338
1789324458347938300,14.361938232421876,0.728823184967041,0.11673116683959961,-1.490351915359497
1789324458366788400,14.380788330078126,0.40920019149780273,0.6391959190368652,-1.1641907691955566
1789324458385638400,14.399638427734375,0.21364736557006836,0.36099863052368164,-1.213756799697876
1789324458404488700,14.41848876953125,-0.19477510452270508,-0.30347490310668945,-1.3355467319488525
1789324458423338800,14.4373388671875,-0.11067724227905273,-1.0176029205322266,-1.0772714614868164
1789324458442188800,14.456188720703125,0.5048074722290039,-1.6552047729492188,-1.44596266746521
1789324458461038800,14.475038818359375,0.46083736419677734,-2.7096261978149414,-1.5144147872924805
1789324458479889000,14.493888916015624,-0.784029483795166,-1.4167356491088867,-0.8447446823120117
1789324458498739000,14.512739013671874,-2.851940631866455,-0.10599279403686523,0.10034728050231934
1789324458517589000,14.531589111328126,-2.8512043952941895,0.921583890914917,0.6499283313751221
1789324458536439000,14.55043896484375,-1.9655084609985352,0.15265870094299316,0.7515301704406738
1789324458555289000,14.5692890625,-1.0973949432373047,-0.5022919178009033,0.8032095432281494
1789324458574139100,14.58813916015625,-2.454601287841797,0.31732940673828125,1.0236268043518066
1789324458592989200,14.6069892578125,-3.718827247619629,0.6775901317596436,1.404849886894226
1789324458611839200,14.625839111328125,-3.5068187713623047,0.6559416055679321,2.0463109016418457
1789324458630689300,14.644689208984374,-2.483510971069336,0.44746851921081543,2.1917624473571777
1789324458649539300,14.663539306640626,-1.514516830444336,0.570669412612915,2.375178575515747
1789324458677814300,14.691814208984376,-2.779383659362793,0.6692719459533691,1.2596235275268555
1789324458696664300,14.710664306640625,-3.8326568603515625,1.06708562374115,1.2930477857589722
1789324458715514400,14.729514404296875,-2.472343921661377,0.6412186622619629,2.05012845993042
1789324458734364400,14.748364501953125,-1.5828580856323242,0.9251638650894165,2.360401153564453
1789324458753214500,14.76721435546875,-2.372903823852539,1.072343349456787,2.0685477256774902
1789324458772064500,14.786064453125,-1.7972488403320312,1.4027632474899292,2.0444960594177246
1789324458790914600,14.80491455078125,-1.8048925399780273,1.5269336700439453,1.5932748317718506
1789324458809764600,14.8237646484375,-1.353844165802002,1.507817268371582,0.8876791000366211
1789324458828614700,14.84261474609375,-1.182206153869629,1.2801260948181152,0.961033821105957
1789324458847464700,14.861464599609375,-1.0289568901062012,1.332409381866455,0.6124417781829834
1789324458866314800,14.880314697265625,-1.0698866844177246,-0.30557680130004883,0.21976900100708008
1789324458885164800,14.899164794921875,-0.2718510627746582,-2.172163963317871,-0.3290548324584961
1789324458904014800,14.918014892578125,-0.083984375,-2.5388307571411133,-0.8967466354370117
1789324458922865000,14.936864990234374,-0.013569831848144531,-2.847898006439209,-0.7933597564697266
1789324458941715000,14.95571484375,-0.16531658172607422,-2.521125316619873,-0.9185700416564941
1789324458960564700,14.974564697265626,0.22318124771118164,-2.506314277648926,-0.7099943161010742
1789324458979414800,14.993414794921875,1.6735644340515137,-2.4557576179504395,-0.7615752220153809
1789324458998264800,15.012264892578125,2.910187244415283,-2.7539210319519043,-1.3210582733154297
1789324459017115000,15.031114990234375,3.3860673904418945,-3.339324474334717,-1.476452350616455
1789324459035965000,15.04996484375,2.869687557220459,-2.983379364013672,-1.5719070434570312
1789324459054815000,15.06881494140625,2.691009998321533,-1.0510430335998535,-0.44199228286743164
1789324459073665000,15.0876650390625,2.3894336223602295,0.15858125686645508,0.19202423095703125
1789324459092515000,15.10651513671875,2.213860273361206,-0.019141197204589844,-0.09477567672729492
1789324459111365000,15.125365234375,2.2724273204803467,-0.6399707794189453,-0.2634611129760742
1789324459130215000,15.14421484375,2.737793207168579,-0.9860410690307617,-0.38318490982055664
1789324459149065000,15.16306494140625,2.810727119445801,-1.0718722343444824,-0.01610565185546875
1789324459167915000,15.1819150390625,2.3899478912353516,-1.0696296691894531,0.488832950592041
1789324459186765000,15.20076513671875,1.7971534729003906,-1.5650711059570312,0.25276994705200195
1789324459205615000,15.219614990234374,0.9994735717773438,-1.2986488342285156,-0.17951393127441406
1789324459224465200,15.238465087890624,0.22877931594848633,-0.6643638610839844,-0.13163280487060547
1789324459243315200,15.257315185546876,0.07562589645385742,-0.28211069107055664,-0.07852363586425781
1789324459262165200,15.276165283203126,0.15291166305541992,-0.10161066055297852,0.07788801193237305
1789324459281015000,15.29501513671875,0.583012580871582,-0.21506977081298828,0.27377939224243164
1789324459299865000,15.313864990234375,1.3352441787719727,-0.6714873313903809,0.42479801177978516
1789324459318715100,15.332715087890625,2.0213489532470703,-1.3534088134765625,0.3276662826538086
1789324459337565200,15.351565185546875,2.0965652465820312,-2.3710832595825195,0.030332565307617188
1789324459356415200,15.370415283203124,1.641237735748291,-2.6535282135009766,-0.8199558258056641
1789324459384690200,15.398690185546876,0.5018763542175293,-2.064152717590332,-1.1852359771728516
1789324459403540200,15.417540283203126,0.3085918426513672,-1.4225764274597168,-0.4432048797607422
1789324459422390300,15.436390380859375,0.3754434585571289,-1.0162649154663086,-0.21652507781982422
1789324459441240300,15.455240234375,0.2319049835205078,-1.027818202972412,-0.3051738739013672
1789324459460090000,15.474090087890625,0.10595846176147461,-0.7645411491394043,-0.09246397018432617
1789324459478940200,15.492940185546875,-1.334322452545166,-0.023620128631591797,1.113877773284912
1789324459497790200,15.511790283203124,-1.6888160705566406,1.0161170959472656,1.7337071895599365
1789324459516640300,15.53064013671875,-1.2460498809814453,1.141472578048706,0.9535157680511475
1789324459535490300,15.549490234375,-0.6635289192199707,-0.44376325607299805,0.41867494583129883
1789324459554340000,15.568340087890626,-3.1103358268737793,-0.5215697288513184,0.42749857902526855
1789324459573190100,15.587190185546875,-4.222090244293213,1.208056092262268,1.5516784191131592
1789324459592040200,15.606040283203125,-2.6025571823120117,1.4372526407241821,3.443009614944458
1789324459610890200,15.62489013671875,-1.5567512512207031,1.1796644926071167,3.4236183166503906
1789324459639165200,15.653165283203125,-2.652477741241455,0.7898217439651489,1.9038825035095215
1789324459658015200,15.67201513671875,-2.7873759269714355,1.0573445558547974,1.0044054985046387
1789324459676865000,15.690864990234376,-2.734645366668701,0.9527287483215332,1.5190272331237793
1789324459695715000,15.709715087890626,-1.6056575775146484,0.9141316413879395,2.4075987339019775
1789324459714565000,15.728565185546875,-2.3854708671569824,1.250929594039917,2.2931723594665527
1789324459733415200,15.747415283203125,-2.6188578605651855,1.4922330379486084,2.5385875701904297
1789324459752265200,15.76626513671875,-2.2543678283691406,1.8242990970611572,2.026259183883667
1789324459771115000,15.785114990234375,-1.7815265655517578,1.7804055213928223,1.740898847579956
1789324459789965000,15.803965087890624,-1.5747027397155762,1.7781658172607422,1.6969003677368164
1789324459808815000,15.822815185546874,-1.6792073249816895,2.158989429473877,0.9639370441436768
1789324459827665000,15.841664794921876,-1.2899985313415527,1.6976757049560547,1.1004512310028076
1789324459846515000,15.860514892578125,-0.16275978088378906,0.9060826301574707,0.24871063232421875
1789324459865365000,15.879364990234375,0.37213802337646484,-2.0731186866760254,-0.8367514610290527
1789324459884215000,15.898215087890625,0.6956205368041992,-3.703249931335449,-1.4463005065917969
1789324459903064800,15.91706494140625,-0.5449237823486328,-4.411949157714844,-2.338806629180908
1789324459921915000,15.935914794921874,-0.389737606048584,-4.261775970458984,-2.363586902618408
1789324459950189800,15.96418994140625,1.5361475944519043,-2.756657123565674,-1.499532699584961
1789324459969040000,15.983039794921876,3.302032947540283,-1.675830364227295,-1.4205093383789062
1789324459987889700,16.0018896484375,3.5270252227783203,-1.3714752197265625,-1.7261688709259033
1789324460006739700,16.02073974609375,2.352965831756592,-1.0353541374206543,-1.8423383235931396
1789324460025589800,16.03958984375,2.1326498985290527,-0.5746698379516602,-1.5472502708435059
1789324460044439600,16.058439453125,2.199227809906006,-0.35410594940185547,-0.45673704147338867
1789324460063289600,16.07728955078125,1.423828125,-0.6385917663574219,-0.24576759338378906
1789324460082139600,16.0961396484375,1.5613164901733398,-0.5918135643005371,-0.9352202415466309
1789324460100989400,16.114989501953126,1.9648241996765137,-0.8857402801513672,-1.2801275253295898
1789324460119839500,16.133839599609374,1.897874355316162,-1.2279930114746094,-0.9321775436401367
1789324460138689500,16.152689453125,1.8683266639709473,-0.840301513671875,-0.6708097457885742
1789324460157539600,16.17153955078125,1.430295467376709,-0.7032032012939453,-0.48160314559936523
1789324460176389400,16.190389404296877,0.665015697479248,-0.9026551246643066,-0.5313472747802734
1789324460195239400,16.209239501953125,-0.15911245346069336,-0.689152717590332,-0.22818326950073242
1789324460214089500,16.22808935546875,-0.4383053779602051,-0.26930809020996094,0.02539682388305664
1789324460232939300,16.246939208984376,-0.2533445358276367,-0.08523988723754883,-0.11702680587768555
1789324460251789300,16.265789306640624,0.3428683280944824,-0.6083073616027832,-0.3450136184692383
1789324460270639000,16.28463916015625,1.1032414436340332,-1.578681468963623,-0.887223482131958
1789324460289489200,16.3034892578125,1.3713903427124023,-2.2897629737854004,-1.4213125705718994
1789324460308339200,16.322339111328127,0.6967763900756836,-1.8377037048339844,-1.784656047821045
1789324460327189000,16.34118896484375,0.11168479919433594,-0.6436238288879395,-1.735957384109497
1789324460346039000,16.3600390625,-0.6133790016174316,-0.19997406005859375,-1.403381109237671
1789324460364888800,16.378888916015626,0.10515594482421875,-0.10420656204223633,-1.361161470413208
1789324460383739000,16.39773876953125,0.011776447296142578,-0.9268808364868164,-1.719322919845581
1789324460402589000,16.4165888671875,-0.32874584197998047,-1.6229782104492188,-1.949660301208496
1789324460421438700,16.435438720703125,-0.5899033546447754,-1.1787753105163574,-1.1879994869232178
1789324460440288800,16.454288818359377,-0.39100217819213867,-0.505378246307373,-0.2862691879272461
1789324460459138600,16.473138671875,-0.009052276611328125,-0.43195056915283203,0.1251235008239746
1789324460477988600,16.491988525390624,-1.5465612411499023,-0.8739125728607178,0.2872152328491211
1789324460506263600,16.520263671875,-3.7567501068115234,-0.5659124851226807,-0.4970118999481201
1789324460525113600,16.539113525390626,-3.168822765350342,1.3051570653915405,-0.1681361198425293
1789324460543963400,16.55796337890625,-2.845771312713623,0.9728748798370361,0.7785519361495972
1789324460562813400,16.5768134765625,-3.8196616172790527,1.0719690322875977,1.342957854270935
1789324460581663200,16.595663330078125,-3.9825010299682617,1.1753720045089722,2.2885966300964355
1789324460600513300,16.61451318359375,-3.462582588195801,1.1332818269729614,2.96067476272583
1789324460619363000,16.633363037109376,-2.774481773376465,0.667782187461853,2.6599395275115967
1789324460638213000,16.652213134765624,-3.0146379470825195,0.8503799438476562,1.4648979902267456
1789324460657063000,16.67106298828125,-3.0846333503723145,0.5653167963027954,1.5894641876220703
1789324460675913000,16.689912841796875,-2.3363232612609863,1.337196946144104,1.7580031156539917
1789324460694763000,16.708762939453123,-2.2816858291625977,1.3714030981063843,0.8563277721405029
1789324460713612800,16.72761279296875,-1.2188410758972168,0.6323678493499756,1.0528020858764648
1789324460732462800,16.746462890625,-2.3176393508911133,0.9033679962158203,0.4072988033294678
1789324460751312600,16.765312744140626,-2.1777844429016113,1.1702008247375488,0.4301025867462158
1789324460770162700,16.78416259765625,-0.4672536849975586,1.0479736328125,0.6918399333953857
1789324460789012500,16.803012451171874,-1.259364128112793,0.8741722106933594,0.2399451732635498
1789324460807862500,16.821862548828125,-1.3962945938110352,0.5289592742919922,-0.07843351364135742
1789324460826712300,16.84071240234375,-0.5819330215454102,-0.36468982696533203,-0.3147850036621094
1789324460845562400,16.859562255859377,-1.356424331665039,-0.836094856262207,-0.48728132247924805
1789324460864412200,16.878412109375,-1.8382830619812012,-1.182645320892334,-0.9654836654663086
1789324460883262200,16.89726220703125,-1.3067831993103027,-2.003117561340332,-0.6961884498596191
1789324460902112000,16.916112060546876,0.7123818397521973,-2.383511543273926,-0.9271161556243896
1789324460920962000,16.934962158203124,1.034874439239502,-3.4271202087402344,-2.0764026641845703
1789324460939811800,16.953811767578124,0.9573087692260742,-3.5536460876464844,-3.171271562576294
1789324460958661600,16.97266162109375,2.0503101348876953,-2.9482293128967285,-3.072500228881836
1789324460977511700,16.99151171875,2.8921804428100586,-1.8760395050048828,-1.5614705085754395
1789324460996361500,17.010361572265627,2.6606359481811523,-1.4588475227355957,-1.6319236755371094
1789324461015211500,17.02921142578125,2.688716411590576,-1.626800537109375,-1.9220201969146729
1789324461034061300,17.048061279296874,2.5630788803100586,-1.4625778198242188,-1.785900592803955
1789324461052911400,17.066911376953126,1.8985204696655273,-0.37381505966186523,-1.1387581825256348
1789324461071761200,17.08576123046875,1.3474507331848145,0.6254463195800781,-0.8849241733551025
1789324461090611200,17.104611083984373,0.8679971694946289,1.0111145973205566,-0.07867193222045898
1789324461109461000,17.1234609375,1.8653755187988281,0.3145160675048828,-0.21246337890625
1789324461128311000,17.14231103515625,1.964613437652588,-0.8482255935668945,-0.28243541717529297
1789324461147160800,17.161160888671876,0.9162235260009766,-1.2221221923828125,-0.08591556549072266
1789324461166010600,17.1800107421875,0.38359785079956055,-1.3032183647155762,-0.6433720588684082
1789324461184860700,17.198860595703124,-0.041620731353759766,-1.6994481086730957,-0.14730358123779297
1789324461203710500,17.21771044921875,0.07445096969604492,-1.9958891868591309,-0.3259282112121582
1789324461222560500,17.236560546875,0.2837228775024414,-1.5836267471313477,-0.884678840637207
1789324461241410300,17.255410400390623,0.46221017837524414,-1.314650535583496,-0.8700695037841797
1789324461260260000,17.274260009765626,0.43277645111083984,-1.1046481132507324,-0.5087890625
1789324461279110100,17.293110107421874,0.7348675727844238,-1.4661669731140137,-0.3442206382751465
1789324461297960000,17.3119599609375,0.8969459533691406,-1.4242901802062988,-0.5899996757507324
1789324461316810000,17.33081005859375,0.9526128768920898,-1.068830966949463,-1.2886967658996582
1789324461335659800,17.34965966796875,0.6346817016601562,-1.0093450546264648,-1.5506129264831543
1789324461354509600,17.368509521484373,0.5462431907653809,-1.2553906440734863,-1.4327149391174316
1789324461373359600,17.387359619140625,0.009586811065673828,-1.0979351997375488,-1.6285910606384277
1789324461392209400,17.40620947265625,-1.3733716011047363,-0.8366665840148926,-1.6749472618103027
1789324461411059500,17.4250595703125,-1.7070775032043457,0.09578800201416016,-1.015186071395874
1789324461429909200,17.4439091796875,-1.1357975006103516,0.628068208694458,0.3188929557800293
1789324461448759000,17.462759033203124,-0.8550724983215332,0.5379536151885986,1.571103572845459
1789324461467609000,17.481609130859376,-1.5300650596618652,-0.6878905296325684,1.2893810272216797
1789324461486459000,17.500458984375,-1.7077264785766602,-1.15248441696167,-0.07337164878845215
1789324461505308700,17.51930859375,-1.7083210945129395,-2.066840648651123,-0.14011263847351074
1789324461524158700,17.53815869140625,-2.4733290672302246,0.3431894779205322,0.5150556564331055
1789324461543008500,17.557008544921874,-3.130423069000244,1.170256495475769,1.5669561624526978
1789324461561858300,17.5758583984375,-4.089530944824219,1.415895700454712,1.6127747297286987
1789324461580708400,17.594708251953126,-3.1545233726501465,1.5400937795639038,3.094602108001709
1789324461599558100,17.61355810546875,-1.7415237426757812,1.7193288803100586,2.8411428928375244
1789324461618408000,17.632407958984373,-2.7181310653686523,1.436091423034668,1.642662763595581
1789324461637258000,17.651258056640625,-4.394040584564209,1.7015187740325928,1.316704511642456
1789324461656107800,17.670107666015625,-3.90474271774292,1.7379271984100342,1.4402953386306763
1789324461674957600,17.68895751953125,-2.3612260818481445,1.243085503578186,2.5513830184936523
1789324461693807600,17.7078076171875,-1.8732900619506836,1.2107194662094116,1.9800829887390137
1789324461712657400,17.726657470703124,-2.9703564643859863,1.2584587335586548,1.5651021003723145
1789324461731507200,17.745507080078124,-2.263638973236084,1.1082980632781982,1.3412754535675049
1789324461750357000,17.76435693359375,-1.2770934104919434,0.896190881729126,0.7525372505187988
1789324461769207000,17.78320703125,-1.2404608726501465,0.3636353015899658,0.554309606552124
1789324461788056800,17.802056884765626,-0.7222304344177246,0.21231555938720703,0.2490673065185547
1789324461806906600,17.82090673828125,-0.7978682518005371,-1.5243315696716309,-0.14371585845947266
1789324461825756700,17.839756591796874,-0.40491580963134766,-2.3749728202819824,-0.6360058784484863
1789324461844606500,17.8586064453125,-0.4846811294555664,-2.426833152770996,-0.6898078918457031
1789324461863456300,17.877456298828125,0.4926939010620117,-2.119208812713623,-0.7838544845581055
1789324461882306000,17.89630615234375,0.7615156173706055,-2.186861515045166,-1.4628667831420898
1789324461901156000,17.915156005859377,0.8357944488525391,-2.647871971130371,-2.3995461463928223
1789324461920006000,17.934005859375,1.4964203834533691,-3.0065975189208984,-2.436394691467285
1789324461938855700,17.952855712890624,3.0056471824645996,-2.721553325653076,-2.0826845169067383
1789324461957705500,17.97170556640625,2.870272636413574,-2.0520243644714355,-1.4949445724487305
1789324461976555500,17.990555419921876,2.5317344665527344,-1.2570042610168457,-1.6898040771484375
1789324461995405300,18.0094052734375,2.2143988609313965,-0.9439187049865723,-1.190546989440918
1789324462014255000,18.028255126953123,2.140899658203125,-1.0185546875,-0.701728343963623
1789324462033105000,18.04710498046875,1.7198009490966797,-1.2257976531982422,-0.6926412582397461
1789324462051955000,18.065954833984375,1.8677277565002441,-0.8163790702819824,-0.5628256797790527
1789324462070804700,18.0848046875,2.0973081588745117,-0.8001518249511719,-0.5085749626159668
1789324462089654500,18.103654541015626,2.0623817443847656,-0.6066656112670898,-0.14879322052001953
1789324462108504300,18.12250439453125,1.6503682136535645,-0.11110687255859375,0.22983455657958984
1789324462127354000,18.14135400390625,0.8787474632263184,0.47835826873779297,0.004778861999511719
1789324462146204200,18.1602041015625,0.26987695693969727,0.3929014205932617,0.2819385528564453
1789324462165054000,18.179053955078125,0.36040353775024414,-0.20597362518310547,0.04071521759033203
1789324462183903700,18.19790380859375,0.39628124237060547,-0.8683180809020996,-0.04968881607055664
1789324462202753500,18.21675341796875,0.9097542762756348,-0.7095026969909668,-0.6048312187194824
1789324462221603300,18.235603271484376,1.3130197525024414,-0.9157533645629883,-0.8327155113220215
1789324462240453400,18.254453369140624,1.383237361907959,-2.0105180740356445,-1.1010923385620117
1789324462259303200,18.27330322265625,1.115302562713623,-2.627981185913086,-1.0638833045959473
1789324462278153000,18.292153076171875,0.7772617340087891,-1.882725715637207,-1.2602620124816895
1789324462297002800,18.311002685546875,0.10836601257324219,-0.9894795417785645,-1.017974853515625
1789324462315852500,18.3298525390625,0.13469743728637695,-0.5898551940917969,-1.0931339263916016
1789324462344127200,18.358127197265624,0.5129718780517578,-1.1846790313720703,-1.030756950378418
1789324462362977300,18.376977294921875,0.22542381286621094,-0.6767716407775879,-1.2113418579101562
1789324462381827000,18.3958271484375,-0.7157120704650879,-1.0906357765197754,-0.8347268104553223
1789324462400676900,18.4146767578125,-0.9011421203613281,-0.07511758804321289,0.03989982604980469
1789324462419526700,18.433526611328126,-1.6563329696655273,-0.09065032005310059,1.1800754070281982
1789324462438376400,18.45237646484375,-2.122847557067871,0.3752014636993408,1.1993651390075684
1789324462457226200,18.471226318359374,-2.56663179397583,-0.13823866844177246,0.2691786289215088
1789324462476076300,18.490076171875,-1.7430992126464844,-0.3853740692138672,-0.2278134822845459
1789324462494926000,18.508926025390625,-1.2710990905761719,-1.1552200317382812,0.5815718173980713
1789324462513775900,18.52777587890625,-2.2754993438720703,1.210004210472107,1.1583166122436523
1789324462532625700,18.546625732421877,-3.7858715057373047,1.5631422996520996,1.8183132410049438
1789324462551475500,18.565475341796876,-3.335012435913086,1.1432688236236572,1.8979042768478394
1789324462570325200,18.5843251953125,-2.146533489227295,1.2042129039764404,2.620119333267212
1789324462589175000,18.603175048828124,-2.771117687225342,0.6757247447967529,1.7975099086761475
1789324462608024800,18.62202490234375,-2.7854628562927246,0.837626576423645,1.8373509645462036
1789324462626874600,18.64087451171875,-2.780390739440918,0.7846055030822754,1.7832982540130615
1789324462645724700,18.659724609375,-3.0242652893066406,0.32469987869262695,1.755411148071289
1789324462664574500,18.678574462890627,-2.708993434906006,1.1690411567687988,2.229490280151367
1789324462683424300,18.69742431640625,-2.8343629837036133,1.3377020359039307,2.6062917709350586
1789324462702274000,18.716274169921874,-1.8591694831848145,1.388129711151123,2.446291208267212
1789324462721123800,18.735123779296874,-2.20365571975708,1.7846182584762573,1.9766886234283447
1789324462739973600,18.7539736328125,-1.2582101821899414,2.2765612602233887,1.1802771091461182
1789324462758823400,18.772823486328125,-0.41994667053222656,1.444026231765747,0.678490161895752
1789324462777673200,18.791673095703125,-0.601935863494873,0.34476184844970703,-0.24240446090698242
1789324462796523000,18.81052294921875,-0.5357732772827148,-2.5577588081359863,-1.0411944389343262
1789324462815372800,18.829372802734376,0.3489718437194824,-3.838991641998291,-1.3820128440856934
1789324462843647500,18.8576474609375,0.7787408828735352,-4.564230918884277,-1.830674171447754
1789324462862497300,18.876497314453125,0.4964303970336914,-3.3206028938293457,-2.076636791229248
1789324462881347000,18.89534716796875,1.0285835266113281,-2.3914504051208496,-1.0871391296386719
1789324462900196900,18.91419677734375,2.0788002014160156,-2.0722403526306152,-1.0001378059387207
1789324462919047000,18.933046875,3.4328060150146484,-2.0724940299987793,-1.4732117652893066
1789324462937896700,18.951896728515624,3.149625778198242,-1.1818432807922363,-1.6401886940002441
1789324462956746500,18.97074658203125,3.118100166320801,-0.05265951156616211,-1.6669459342956543
1789324462975596300,18.98959619140625,2.371934413909912,0.025129318237304688,-0.9023513793945312
1789324462994446000,19.008446044921875,1.7334327697753906,-0.03701925277709961,-0.17804241180419922
1789324463013295900,19.0272958984375,1.5379118919372559,-0.7442011833190918,-0.06604957580566406
1789324463032145700,19.046145751953127,1.6592750549316406,-1.397446632385254,-0.21990585327148438
1789324463050995500,19.064995361328126,1.9828710556030273,-1.59621000289917,-1.181473731994629
1789324463069845200,19.08384521484375,2.483123302459717,-1.0567412376403809,-0.964867115020752
1789324463088695000,19.102695068359374,2.097806930541992,-0.1654672622680664,-0.8119668960571289
1789324463107544800,19.121544921875,0.9284830093383789,0.5274167060852051,-0.9544634819030762
1789324463126394600,19.14039453125,0.34602928161621094,0.6601104736328125,-0.8435602188110352
1789324463145244400,19.159244384765625,1.1977734565734863,-0.6467976570129395,-1.1754679679870605
1789324463164094200,19.17809423828125,1.1886472702026367,-2.791027069091797,-1.0245509147644043
1789324463182944000,19.196944091796876,0.5739412307739258,-2.310971260070801,-0.9840474128723145
1789324463201793800,19.215793701171876,-0.06687784194946289,-0.6940956115722656,-0.23266935348510742
1789324463220643600,19.2346435546875,-1.3376312255859375,-0.33146047592163086,0.4960470199584961
1789324463239493400,19.253493408203123,-1.67655611038208,0.2037677764892578,1.247312307357788
1789324463258343200,19.27234326171875,-0.640108585357666,0.8717765808105469,1.2087745666503906
1789324463277193000,19.29119287109375,0.7969484329223633,0.30777788162231445,0.3405332565307617
1789324463296042500,19.31004248046875,2.254703998565674,-1.0117111206054688,-1.341989517211914
1789324463314892300,19.328892333984374,2.352936267852783,-2.4796862602233887,-2.1876730918884277
1789324463343167000,19.3571669921875,0.8491063117980957,-3.0140175819396973,-2.323939800262451
1789324463362016800,19.376016845703123,-1.0983853340148926,-2.6325812339782715,-1.8173370361328125
1789324463380866600,19.394866455078127,-2.6307625770568848,-0.3100728988647461,-0.7309279441833496
1789324463399716400,19.41371630859375,-1.770226001739502,0.5022873878479004,0.18804287910461426
1789324463418566100,19.432566162109374,-0.8269944190979004,0.42528724670410156,0.6327409744262695
1789324463437416000,19.451416015625,-0.6309690475463867,-0.48827362060546875,1.288710355758667
1789324463456265700,19.470265625,-1.884657382965088,-0.7100622653961182,1.038414478302002
1789324463475115500,19.489115478515625,-2.2450804710388184,-0.6565115451812744,-0.0273587703704834
1789324463493965300,19.50796533203125,-3.1082186698913574,0.7947534322738647,1.091590404510498
1789324463512815000,19.526815185546877,-3.402374744415283,1.31967294216156,1.6746567487716675
1789324463531665000,19.545664794921876,-3.2253732681274414,0.3824491500854492,2.211038827896118
1789324463550514700,19.5645146484375,-4.831089496612549,1.307701826095581,1.3713512420654297
1789324463569364500,19.583364501953124,-3.969785213470459,1.406581997871399,3.1612086296081543
1789324463588214300,19.60221435546875,-2.374032497406006,1.6432157754898071,3.178086757659912
1789324463607063800,19.621063720703123,-2.4171953201293945,1.4446632862091064,2.5678467750549316
1789324463625913600,19.63991357421875,-3.084671974182129,1.638071060180664,2.0522356033325195
1789324463644763400,19.658763427734375,-2.13620662689209,1.6684335470199585,1.713613510131836
1789324463663613200,19.67761328125,-1.2332983016967773,1.0129075050354004,1.6458961963653564
1789324463682463000,19.696462890625,-2.3545188903808594,1.125964641571045,0.17253589630126953
1789324463701312800,19.715312744140626,-1.7177658081054688,1.126021385192871,0.453951358795166
1789324463720162600,19.73416259765625,-1.3950729370117188,1.2424116134643555,0.03265047073364258
1789324463739012000,19.75301220703125,-1.4440054893493652,0.7278151512145996,-0.44795942306518555
1789324463757862000,19.77186181640625,-0.2317972183227539,-0.19221115112304688,-0.5688385963439941
1789324463776711700,19.790711669921876,-0.2985038757324219,-0.8684501647949219,-0.480074405670166
1789324463795561500,19.8095615234375,-0.18129444122314453,-1.5201072692871094,-0.8805642127990723
1789324463814411300,19.828411376953124,-0.9767508506774902,-2.8562612533569336,-1.377241611480713
1789324463842686000,19.85668603515625,0.14375543594360352,-3.5368123054504395,-1.4763808250427246
1789324463861535700,19.87553564453125,1.1646170616149902,-3.1304984092712402,-1.2381463050842285
1789324463880385300,19.89438525390625,2.0054850578308105,-2.5073208808898926,-1.805513858795166
1789324463899235000,19.913235107421876,2.367588996887207,-1.7737698554992676,-2.121476411819458
1789324463918084900,19.9320849609375,2.275329113006592,-0.9218411445617676,-2.1541311740875244
1789324463936934700,19.9509345703125,2.1002097129821777,-0.12093114852905273,-1.7646028995513916
1789324463955784400,19.969784423828123,1.8566555976867676,0.01864147186279297,-0.9394848346710205
1789324463974634200,19.98863427734375,2.043139934539795,-0.7733306884765625,-0.8237655162811279
1789324463993483800,20.00748388671875,2.0867104530334473,-1.750028133392334,-1.188955307006836
1789324464012333600,20.02633349609375,2.0873208045959473,-1.47151517868042,-1.2643017768859863
1789324464031183400,20.045183349609374,2.2299108505249023,-1.236325740814209,-1.0469999313354492
1789324464050033200,20.064033203125,2.5423827171325684,-1.298769474029541,-0.8715510368347168
1789324464068883000,20.082883056640625,1.8328437805175781,-1.3924975395202637,-0.7358694076538086
1789324464087732700,20.101732666015625,1.0534577369689941,-0.6998591423034668,-1.1231589317321777
1789324464106582300,20.120582275390625,0.009807586669921875,0.4465198516845703,-1.1389808654785156
1789324464125432000,20.13943212890625,-0.5576086044311523,0.568875789642334,-0.16493701934814453
1789324464144281900,20.15828173828125,0.035631656646728516,0.1071615219116211,-0.43377161026000977
1789324464163131600,20.177131591796876,0.012166976928710938,-1.5115785598754883,-0.15146589279174805
1789324464181981400,20.1959814453125,0.4585909843444824,-1.4460086822509766,-0.9745268821716309
1789324464200831000,20.2148310546875,0.3440699577331543,-1.8120365142822266,-0.5603270530700684
1789324464219680800,20.2336806640625,0.3857231140136719,-1.789903163909912,-0.48322582244873047
1789324464238530600,20.252530517578126,0.6368684768676758,-1.7772111892700195,-0.4533376693725586
1789324464257380400,20.27138037109375,0.45941162109375,-1.3915424346923828,-1.2285666465759277
1789324464276230100,20.290230224609374,-0.2528548240661621,-0.7923154830932617,-2.124070167541504
1789324464295079700,20.30907958984375,-0.2841672897338867,-0.37700700759887695,-2.1553566455841064
1789324464313929500,20.327929443359373,-0.06783580780029297,-0.5754284858703613,-1.628596305847168
1789324464342204200,20.3562041015625,-0.2046365737915039,-0.5478191375732422,-1.0311777591705322
1789324464361053700,20.3750537109375,-0.9900369644165039,-0.595278263092041,-0.4571805000305176
1789324464379903500,20.393903564453126,-1.7379240989685059,-0.3762824535369873,0.7134182453155518
1789324464398753300,20.412753173828126,-2.5102524757385254,-0.08086729049682617,1.1191816329956055
1789324464417603000,20.43160302734375,-2.1634368896484375,-0.48828125,0.9493467807769775
1789324464436452900,20.450452880859373,-1.8031024932861328,-0.19943904876708984,-0.14306116104125977
1789324464455302400,20.469302490234377,-2.32216215133667,-0.5987753868103027,0.27047109603881836
1789324464474152200,20.488152099609376,-3.571225643157959,1.129335880279541,0.944664478302002
1789324464493002000,20.507001953125,-3.745075225830078,1.2311805486679077,2.1211142539978027
1789324464511851500,20.5258515625,-3.065441608428955,1.169689416885376,2.1990957260131836
1789324464530701300,20.544701416015624,-2.9051904678344727,-0.044487714767456055,1.8094017505645752
1789324464549551000,20.563551025390623,-3.1245594024658203,0.2522733211517334,1.231346607208252
1789324464568400600,20.582400634765627,-3.0206079483032227,0.24620890617370605,1.9363511800765991
1789324464587250400,20.60125048828125,-1.926797866821289,0.5979444980621338,1.9168144464492798
1789324464606100200,20.620100341796874,-2.101449966430664,0.33040857315063477,2.0511326789855957
1789324464624950000,20.638949951171874,-2.1006383895874023,0.8025758266448975,2.4793343544006348
1789324464643799600,20.657799560546874,-2.2523550987243652,1.4842714071273804,1.6020355224609375
1789324464662649300,20.6766494140625,-2.9916677474975586,1.3875243663787842,1.4609572887420654
1789324464681499100,20.6954990234375,-1.386795997619629,1.9050384759902954,1.3580513000488281
1789324464700348700,20.7143486328125,-1.4690589904785156,1.690516471862793,0.550663948059082
1789324464719198500,20.733198486328124,-0.5332489013671875,1.0744311809539795,0.6914901733398438
1789324464738048300,20.75204833984375,-1.0486359596252441,0.606769323348999,-1.0287809371948242
1789324464756898000,20.77089794921875,-1.0492544174194336,-1.8822822570800781,-1.390449047088623
1789324464775747600,20.78974755859375,-0.33330202102661133,-2.388308525085449,-1.5576539039611816
1789324464794597400,20.808597412109375,-0.44908666610717773,-2.457294464111328,-0.8978228569030762
1789324464813447200,20.827447265625,-0.723146915435791,-2.5207371711730957,-0.7310943603515625
1789324464841721600,20.8557216796875,0.601442813873291,-2.249752998352051,-0.7719259262084961
1789324464860571400,20.8745712890625,2.325758934020996,-2.618072032928467,-1.274390697479248
1789324464879421000,20.8934208984375,3.220867156982422,-3.0726985931396484,-2.6147890090942383
1789324464898270700,20.912270751953123,2.8865299224853516,-2.610525608062744,-2.635328769683838
1789324464917120500,20.93112060546875,2.4627490043640137,-1.1032986640930176,-1.521395206451416
1789324464935970000,20.949969970703126,1.7402424812316895,0.03800201416015625,-0.27449798583984375
1789324464954819800,20.96881982421875,1.5517196655273438,0.13314199447631836,-0.1977372169494629
1789324464973669600,20.987669677734374,2.095395088195801,-0.681248664855957,-0.8009085655212402
1789324464992519200,21.006519287109374,2.4665913581848145,-1.9415655136108398,-1.5627741813659668
1789324465011369000,21.025368896484373,1.9373679161071777,-1.1817960739135742,-1.3863439559936523
1789324465030218800,21.04421875,1.5786023139953613,0.3960294723510742,0.3584320545196533
1789324465049068300,21.063068359375,1.8665251731872559,0.774320125579834,0.34639668464660645
1789324465067918000,21.08191796875,1.1933846473693848,-0.7265682220458984,0.12985706329345703
1789324465086767600,21.100767578125,0.6061983108520508,-1.41546630859375,-0.6310968399047852
1789324465105617400,21.119617431640624,0.15185928344726562,-0.7080850601196289,-0.4156923294067383
1789324465124467200,21.13846728515625,0.15489864349365234,-0.34319591522216797,-0.28371572494506836
1789324465143316700,21.157316650390626,0.47740983963012695,-0.8757567405700684,-0.5109777450561523
1789324465162166500,21.17616650390625,0.5976715087890625,-1.6876335144042969,-0.7187290191650391
1789324465181016000,21.19501611328125,0.941990852355957,-1.0888981819152832,-1.1512527465820312
1789324465199865900,21.213865966796874,0.7275843620300293,-0.47510671615600586,-1.0761609077453613
1789324465218715600,21.232715576171874,0.5523552894592285,-0.5641546249389648,-0.9432449340820312
1789324465237565200,21.251565185546873,0.45574951171875,-0.793156623840332,-1.1305065155029297
1789324465256415000,21.2704150390625,0.6560840606689453,-1.0176377296447754,-1.3518939018249512
1789324465275264500,21.289264404296876,0.6367030143737793,-1.2891030311584473,-1.5110011100769043
1789324465294114300,21.3081142578125,0.20917749404907227,-1.5007233619689941,-1.349534034729004
1789324465312964000,21.326964111328124,-0.4723782539367676,-1.409583568572998,-1.132117748260498
1789324465331813600,21.345813720703124,-0.649085521697998,-1.1477069854736328,-0.7267417907714844
1789324465350663400,21.364663330078123,-0.400083065032959,-0.9914565086364746,-0.8509807586669922
1789324465369513000,21.383512939453126,-0.6310057640075684,-0.8398551940917969,-0.5215110778808594
1789324465407212300,21.42121240234375,-2.615017890930176,0.4679112434387207,1.4007930755615234
1789324465426062000,21.44006201171875,-2.3967065811157227,-0.1510612964630127,0.9717938899993896
1789324465444911900,21.458911865234374,-2.1228933334350586,-0.526932954788208,-0.20844006538391113
1789324465463761400,21.477761474609373,-2.8204455375671387,0.4387025833129883,0.6557326316833496
1789324465482611200,21.496611083984376,-4.01694917678833,2.0334134101867676,1.7043098211288452
1789324465501460700,21.515460693359376,-3.581662654876709,1.7437419891357422,2.451293468475342
1789324465520310500,21.534310546875,-2.8782339096069336,1.2602074146270752,2.095651865005493
1789324465539160000,21.55316015625,-2.4128293991088867,0.9337106943130493,1.4487650394439697
1789324465558009900,21.572009765625,-2.682570457458496,0.4628385305404663,0.8266963958740234
1789324465576859400,21.590859375,-2.7037792205810547,0.8796043395996094,1.7564839124679565
1789324465595709200,21.609709228515626,-2.2512192726135254,1.0248194932937622,0.9685592651367188
1789324465614558700,21.628558837890626,-1.9682230949401855,0.36351871490478516,1.7279329299926758
1789324465633408500,21.647408447265626,-1.7495689392089844,0.9960911273956299,0.943871021270752
1789324465652258000,21.666258056640626,-1.9374275207519531,0.8295516967773438,1.5279240608215332
1789324465671107800,21.68510791015625,-1.6590547561645508,1.191204309463501,1.1949665546417236
1789324465689957400,21.703957275390625,-1.937990665435791,1.1260552406311035,0.6019902229309082
1789324465708807200,21.72280712890625,-2.1414122581481934,0.9989414215087891,0.27527737617492676
1789324465727656700,21.74165673828125,-1.8788504600524902,0.8508772850036621,0.36182594299316406
1789324465746506500,21.760506591796876,-1.3687195777893066,0.5637083053588867,0.29045820236206055
1789324465765356000,21.77935595703125,-1.1949734687805176,-0.6056075096130371,-0.02995443344116211
1789324465784205800,21.798205810546875,-0.5650839805603027,-0.7822732925415039,-0.12366533279418945
1789324465803055400,21.817055419921875,-0.5948243141174316,-1.2307286262512207,-0.7455248832702637
1789324465821905200,21.8359052734375,-0.4102811813354492,-2.850452423095703,-1.893083095550537
1789324465840754700,21.854754638671874,0.1885089874267578,-3.8977408409118652,-2.8269925117492676
1789324465859604500,21.8736044921875,2.1543874740600586,-4.5420708656311035,-2.9492604732513428
1789324465878454000,21.8924541015625,3.87955904006958,-4.649489402770996,-2.4189324378967285
1789324465897303800,21.9113037109375,2.7874741554260254,-3.5977463722229004,-2.1701133251190186
1789324465916153300,21.9301533203125,2.691598892211914,-1.7193026542663574,-1.7325220108032227
1789324465935003100,21.949003173828125,2.805490016937256,-0.34278297424316406,-1.3200597763061523
1789324465953852700,21.967852783203124,2.210526943206787,0.3775601387023926,-1.3441228866577148
1789324465972702200,21.9867021484375,1.398345947265625,0.6574926376342773,-0.9728007316589355
1789324465991552000,22.005552001953124,1.339630126953125,0.6642422676086426,-0.7239537239074707
1789324466010401500,22.024401611328123,1.4736366271972656,0.8461265563964844,-0.15637874603271484
1789324466029251300,22.043251220703127,1.737332820892334,0.13005733489990234,0.2312309741973877
1789324466048100900,22.062100830078126,1.7411985397338867,-1.2014198303222656,-0.21770095825195312
1789324466066950700,22.08095068359375,1.104139804840088,-1.4780778884887695,-0.006755828857421875
1789324466085800200,22.09980029296875,0.4726247787475586,-0.9934940338134766,-0.1802382469177246
1789324466104650000,22.11864990234375,0.011731147766113281,-0.20197010040283203,-0.5671272277832031
1789324466123499500,22.13749951171875,-0.2178812026977539,0.13725900650024414,-0.5609040260314941
1789324466142349000,22.15634912109375,0.2425403594970703,-0.24745798110961914,-0.7343974113464355
1789324466161198800,22.17519873046875,1.069577693939209,-1.4097976684570312,-1.2398524284362793
1789324466180048400,22.19404833984375,1.2997846603393555,-2.147768497467041,-1.5228586196899414
1789324466198898200,22.212898193359376,0.9526300430297852,-1.588191032409668,-1.644012451171875
1789324466217747700,22.231747802734375,0.5445046424865723,-1.184995174407959,-1.2454557418823242
1789324466236597500,22.250597412109375,0.11036205291748047,-0.48686933517456055,-0.32625484466552734
1789324466255447000,22.269447021484375,0.16616439819335938,-0.3079380989074707,-0.03481149673461914
1789324466274296600,22.288296630859374,0.18947553634643555,-0.9323701858520508,-0.43497323989868164
1789324466293146400,22.307146484375,-0.00015211105346679688,-1.1245574951171875,-1.4641170501708984
1789324466311996000,22.325995849609374,-0.10421037673950195,-1.0471291542053223,-1.733081340789795
1789324466330845400,22.344845458984373,1.2850241661071777,-1.721247673034668,-0.7660458087921143
1789324466349695200,22.3636953125,1.1460676193237305,-1.9521331787109375,-0.40482234954833984
1789324466368544800,22.382544677734376,-1.7585296630859375,-2.0797300338745117,-0.2145552635192871
1789324466387394600,22.40139453125,-2.577317237854004,-0.13824677467346191,-0.1937572956085205
1789324466406244000,22.420244140625,-2.480022430419922,0.872788667678833,0.2765316963195801
1789324466425093600,22.43909375,-2.4159727096557617,0.4686133861541748,0.6507248878479004
1789324466443943400,22.457943359375,-2.6669840812683105,0.44916629791259766,1.1021533012390137
1789324466462793000,22.47679296875,-3.7542243003845215,1.5284667015075684,1.9037808179855347
1789324466481642800,22.495642822265626,-3.991450786590576,1.4589530229568481,2.781513214111328
1789324466500492300,22.5144921875,-3.216709613800049,0.9704128503799438,3.2489395141601562
1789324466519341800,22.533341796875,-2.5223169326782227,0.024338722229003906,2.9107651710510254
1789324466538191600,22.552191650390625,-2.7575058937072754,-0.04501795768737793,1.788581132888794
1789324466557041200,22.571041259765625,-3.372894763946533,0.10201859474182129,0.9379837512969971
1789324466575890700,22.589890625,-2.0141801834106445,1.0563989877700806,2.321439266204834
1789324466594740200,22.608740234375,2.6157350540161133,0.6014490127563477,2.0810658931732178
1789324466613590000,22.627590087890624,2.1571760177612305,-0.578094482421875,0.7202961444854736
1789324466632439600,22.646439453125,-2.447665214538574,-0.489177942276001,-0.004217624664306641
1789324466651289300,22.665289306640624,-2.257236957550049,0.06015443801879883,-0.804680347442627
1789324466670139000,22.684138916015623,-2.351776123046875,0.03503108024597168,0.4348316192626953
1789324466688988400,22.702988525390627,-2.8117527961730957,0.6595921516418457,1.8842666149139404
1789324466707838200,22.721838134765626,-3.038224697113037,1.3299190998077393,2.502346992492676
1789324466726687700,22.740687744140626,-2.324026584625244,2.534043788909912,3.0360944271087646
1789324466745537300,22.759537353515626,-1.4336485862731934,3.295140266418457,2.9784562587738037
1789324466764386800,22.77838671875,-0.6124653816223145,3.086040735244751,1.584359884262085
1789324466783236600,22.797236572265625,-1.1001768112182617,1.3569655418395996,0.34551000595092773
1789324466802086100,22.816086181640625,-0.6621317863464355,-0.39595508575439453,-0.9678044319152832
1789324466820935700,22.834935791015624,0.22353792190551758,-3.6380577087402344,-2.2997941970825195
1789324466839785500,22.853785400390624,0.9983816146850586,-6.407963275909424,-4.143510818481445
1789324466858635000,22.872635009765624,1.6168265342712402,-7.69778299331665,-4.410658836364746
1789324466877484500,22.891484619140623,3.757725238800049,-6.5752692222595215,-2.1203904151916504
1789324466896334000,22.910333984375,3.484281063079834,-3.7467918395996094,-1.3134431838989258
1789324466915183900,22.929183837890626,2.695970058441162,-1.5190210342407227,-0.8589353561401367
1789324466934033400,22.948033447265626,2.6725902557373047,-0.38589000701904297,-0.9339489936828613
1789324466952883000,22.966883056640626,2.674720287322998,0.16121196746826172,-0.2890744209289551
1789324466971732700,22.985732666015625,2.0411815643310547,0.6966848373413086,-0.31546735763549805
1789324466990582300,23.004582275390625,1.0558538436889648,1.4805068969726562,-0.010451316833496094
1789324467009431800,23.023431884765625,0.9613065719604492,1.8312811851501465,0.4251062870025635
1789324467028281300,23.04228125,0.9259319305419922,1.442615032196045,0.09202432632446289
1789324467047131100,23.061131103515624,1.0548734664916992,0.8485126495361328,-0.3758730888366699
1789324467065980700,23.079980712890624,0.9682965278625488,0.36150407791137695,-0.3142099380493164
1789324467084830200,23.098830322265623,1.620859146118164,-0.5797247886657715,-0.6339788436889648
1789324467103679700,23.1176796875,2.1703343391418457,-1.9070181846618652,-1.5338420867919922
1789324467122529500,23.136529541015626,1.8708076477050781,-3.5976152420043945,-1.2062935829162598
1789324467150803700,23.1648037109375,2.1687703132629395,-3.42669677734375,-1.7568345069885254
1789324467169653500,23.183653564453124,1.6811847686767578,-1.9694585800170898,-1.3042306900024414
1789324467188503000,23.2025029296875,1.0819001197814941,-1.1930251121520996,-1.193291187286377
1789324467207352600,23.2213525390625,0.21851396560668945,-0.8486785888671875,-1.0931363105773926
1789324467226202000,23.2402021484375,-0.5336627960205078,-0.1979351043701172,-0.8113408088684082
1789324467245052000,23.259052001953126,-0.936983585357666,0.10378551483154297,-0.7503538131713867
1789324467263901400,23.2779013671875,-0.918093204498291,0.038158416748046875,-0.4742922782897949
1789324467282751000,23.2967509765625,-0.6164741516113281,-0.23170900344848633,-0.916597843170166
1789324467301600500,23.3156005859375,-1.1635980606079102,-0.2652711868286133,-1.253342628479004
1789324467320450000,23.334449951171877,-1.6503844261169434,-0.049101829528808594,-1.475736141204834
1789324467348724500,23.362724365234374,-0.521728515625,-0.28763389587402344,-0.6704936027526855
1789324467367574000,23.381573974609374,-0.030614852905273438,-0.8976850509643555,-0.6721608638763428
1789324467386423800,23.400423828125,-1.354659080505371,-0.24156904220581055,-0.09718441963195801
1789324467405273300,23.4192734375,-2.1906933784484863,0.0977327823638916,-0.3180830478668213
1789324467424123000,23.438122802734377,-1.3872246742248535,-0.721729040145874,-0.28129076957702637
1789324467442972400,23.456972412109376,-0.06361961364746094,-0.39568281173706055,-0.3014187812805176
1789324467461822000,23.475822021484376,-0.5002613067626953,-0.5162365436553955,0.1232450008392334
1789324467480671500,23.49467138671875,-2.7854580879211426,0.06422114372253418,0.25934314727783203
1789324467499521300,23.513521240234375,-3.3398070335388184,0.0452880859375,1.0425333976745605
1789324467518370800,23.532370849609375,-3.8927927017211914,0.33754634857177734,1.4661957025527954
1789324467537220400,23.551220458984375,-3.0755362510681152,0.8018059730529785,2.557574987411499
1789324467556070000,23.57006982421875,-3.4592370986938477,1.6241917610168457,2.280388355255127
1789324467574919400,23.58891943359375,-3.457934856414795,1.469844937324524,2.6836955547332764
1789324467593769200,23.607769287109374,-3.305548667907715,1.6057878732681274,2.3710222244262695
1789324467612618800,23.62661865234375,-3.3113245964050293,1.6007784605026245,2.2439966201782227
1789324467631468300,23.64546826171875,-2.8377161026000977,1.1908135414123535,2.1730422973632812
1789324467650317800,23.66431787109375,-2.467324733734131,1.2283384799957275,1.502305269241333
1789324467669167400,23.68316748046875,-3.2219338417053223,1.2611114978790283,0.9037990570068359
1789324467688017000,23.702016845703124,-1.8209328651428223,1.7332494258880615,0.9235837459564209
1789324467716291300,23.730291259765625,0.05338716506958008,0.7785468101501465,-0.07173871994018555
1789324467735140900,23.749140869140625,-0.4949522018432617,-0.14603090286254883,-0.43399667739868164
1789324467753990400,23.767990478515625,-0.583747386932373,-1.2463970184326172,-1.674271583557129
1789324467772840000,23.78683984375,-0.27509117126464844,-2.8592605590820312,-1.4081645011901855
1789324467791689500,23.805689453125,-0.2414231300354004,-2.572880268096924,-1.3400259017944336
1789324467810539300,23.824539306640624,-0.859652042388916,-2.6773910522460938,-1.2657389640808105
1789324467829388800,23.843388916015623,0.06896018981933594,-1.9304347038269043,-0.8153872489929199
1789324467848238300,23.86223828125,0.3640475273132324,-1.3884553909301758,-1.074378490447998
1789324467885937400,23.8999375,1.1953659057617188,-0.8468279838562012,-1.9252595901489258
1789324467904787000,23.918786865234374,2.1392340660095215,-2.009871482849121,-2.1505026817321777
