time,seconds_elapsed,z,y,x
1789031942035843800,0.05284375,0.050282618777453894,0.016060323441028593,0.14015139801204204
1789031942045846800,0.0628466796875,-0.005239654219150543,0.03602525310516357,0.14863924037218093
1789031942055849700,0.072849609375,-0.0144043729275465,0.036433249384164805,0.16853081253916025
1789031942065852700,0.082852783203125,-0.02783843951821327,-0.02938917609155178,0.20834172166287898
1789031942075855600,0.092855712890625,-0.037759821812808514,0.02385258475244045,0.21120412535667418
1789031942085858800,0.10285888671875,-0.053612347722053526,0.06491933915615082,0.24611761782765387
1789031942095861800,0.11286181640625,-0.10747545533478259,0.05548515585660934,0.318157018122077
1789031942105864700,0.12286474609375,-0.13339257140159605,0.04195756576359272,0.43810237119048834
1789031942115868000,0.132867919921875,-0.13358312553763388,0.08817278897166252,0.5706289734125137
1789031942125870600,0.14287060546875,-0.15700228730887172,0.1769271772235632,0.6225193196475506
1789031942135873800,0.152873779296875,-0.14558540575951337,0.22906126908659932,0.6426181048244237
1789031942145876700,0.162876708984375,-0.24215309811085461,0.2692512406557798,0.5626452811822295
1789031942155879700,0.172879638671875,-0.023524667972326278,0.2820832497000694,0.5864262620031834
1789031942165883000,0.1828828125,0.3477349947839975,0.3567582591950893,0.6660726301699876
1789031942175885600,0.192885498046875,0.32997809655815363,0.4378846367865801,0.48489597880840296
1789031942185888800,0.202888671875,0.47530485138148065,0.4323281717032194,0.48420039775967594
1789031942195892000,0.21289208984375,0.5998129823207855,0.2601251003921032,0.41726650391072034
1789031942205894700,0.222894775390625,0.5021311912477017,0.021518004325032234,0.2474815996572375
1789031942215897900,0.23289794921875,0.38083442357033487,-0.2445166123718023,0.1386085524842143
1789031942225900500,0.242900634765625,0.43840193865895266,-0.41559331000149247,0.13959434865117074
1789031942235903700,0.25290380859375,0.3605526830419898,-0.5131453372150659,0.08513707453757524
1789031942245907000,0.262906982421875,0.3119032184243202,-0.6256558641076088,0.033203181421756746
1789031942255909600,0.27290966796875,0.3626204292267561,-0.692747286605835,0.1635024629831314
1789031942265912800,0.282912841796875,0.31106501403450965,-0.6664192516505718,0.40705519875884055
1789031942275915800,0.292915771484375,0.3217129570379853,-0.5933008239477873,0.5773953988075256
1789031942285918700,0.302918701171875,0.3180103031277656,-0.4234527913302183,0.6905582521289587
1789031942295922000,0.312921875,0.3799582252576947,-0.2616086169481277,0.6828788035422563
1789031942305924600,0.322924560546875,0.19023790969550608,-0.20751988388597964,0.6612289895310998
1789031942315927800,0.332927734375,0.32705051867365836,-0.18843582870960235,0.5743462403699755
1789031942325930800,0.3429306640625,0.17234160299897192,-0.04692132565081119,0.5699702172428369
1789031942335933700,0.35293359375,-0.21820669759511946,0.07971417270600795,0.46843584239482877
1789031942345937000,0.36293701171875,-0.2990621492907405,0.1258358724117279,0.5349252073466777
1789031942355939800,0.37293994140625,-0.41513533710092304,0.12443535796403885,0.6297767434298992
1789031942365942800,0.38294287109375,-0.6553714956745504,0.0005126256972551345,0.7620236519277095
1789031942375945700,0.39294580078125,-0.4309510381311178,-0.2080313405394554,0.7501091961197555
1789031942385948700,0.40294873046875,-0.30768472394645213,-0.32541268833875653,0.814995509789139
1789031942395951900,0.412951904296875,-0.5528393419608474,-0.3251180893063545,0.7836579761087894
1789031942405954800,0.422954833984375,-0.6443921287596225,-0.2737830388665199,0.7114892503462732
1789031942415957800,0.432957763671875,-0.5719286578342319,-0.37959494490325446,0.5144067354530095
1789031942425960700,0.442960693359375,-0.30495325315594674,-0.49552083319723605,0.4051167780421674
1789031942435964000,0.4529638671875,-0.38759383470267056,-0.5035089093416929,0.21653058107644318
1789031942445966800,0.462966796875,-0.3772498430818319,-0.49364568697512146,0.053242783757299184
1789031942455969800,0.4729697265625,-0.1535994931280613,-0.34713585984706874,0.041554099529236554
1789031942465972700,0.48297265625,-0.19614391886889934,-0.2057096195936203,-0.023529636408388614
1789031942475975700,0.4929755859375,0.2030944686591625,-0.08834405388534068,-0.12115443659722805
1789031942485979000,0.502978759765625,0.28361820418238637,0.09625555766224861,-0.23898630464300513
1789031942495981600,0.512981689453125,0.25349340729266406,0.09277765241861342,-0.2865596644617617
1789031942505984800,0.52298486328125,0.29329467180520297,-0.14945464840829373,-0.2592753516949713
1789031942515987700,0.53298779296875,0.17059797420203685,-0.4546124842256307,-0.12148586050868034
1789031942525990700,0.54299072265625,0.3796788237944245,-0.5624906751424074,-0.009253566035628318
1789031942535993900,0.552993896484375,0.3181599407315254,-0.4484633139461279,-0.05095628025531768
1789031942545996500,0.56299658203125,0.20985855596661565,-0.3024742958217859,-0.06429127038568258
1789031942556000800,0.573000732421875,-0.07122165417075156,-0.17921616494357584,0.01588160587325692
1789031942566003700,0.583003662109375,-0.3335682300046086,-0.04949672909677028,0.1740142123863101
1789031942576006700,0.593006591796875,-0.201245333661139,-0.3290706263244152,0.38344270637258887
1789031942586009900,0.603009765625,0.0004623568147420883,-0.5341133064419031,0.3711936117827892
1789031942596012800,0.6130126953125,-0.03954758201241493,-0.3956710504353046,0.2846954780250788
1789031942606015700,0.623015625,-0.009371931718289851,-0.316905556756258,0.2752769306860864
1789031942616018700,0.633018798828125,0.003626666064560413,-0.48361470682621,0.37529929353594776
1789031942626022000,0.64302197265625,-0.0720914227426052,-0.4254202920109033,0.5342636746980249
1789031942636024800,0.65302490234375,-0.25446517493426796,-0.20388123512268067,0.6667590049989521
1789031942646027800,0.66302783203125,-0.18040917412042617,0.07114741989076137,0.560209432337433
1789031942656030700,0.67303076171875,-0.45187721404284237,0.1691232254743576,0.5486654172770679
1789031942666033700,0.68303369140625,-0.5269800935611129,0.2770253817886114,0.4390893364012241
1789031942676036900,0.693036865234375,-0.4958393976271152,0.30787527808248993,0.3549883269131183
1789031942686039800,0.703039794921875,-0.6023474692344665,0.4734241522014141,0.32486995976418254
1789031942696042800,0.713042724609375,-0.45231940485239025,0.6000789397805929,0.2572251411668956
1789031942706046000,0.7230458984375,-0.4559010627314448,0.678203797468543,0.3078763009957969
1789031942716048600,0.733048583984375,-0.6276712955832481,0.7687380548745393,0.3991698523364961
1789031942726051800,0.7430517578125,-0.5735898690447211,1.116238071858883,0.27878786141648887
1789031942736054800,0.7530546875,-0.41998803782910105,1.3844588004231453,0.2074871506601572
1789031942746057700,0.7630576171875,-0.521623534964025,1.332854285392165,0.27953707234859465
1789031942756061000,0.77306103515625,-0.6489946541190147,1.130488131007552,0.3386468484431505
1789031942766063600,0.783063720703125,-0.9217012959256767,0.8336620702058076,0.447987513127923
1789031942776066800,0.79306689453125,-1.3437594180271029,0.37628538196384903,0.7333844174206257
1789031942786069800,0.80306982421875,-0.97287092667073,0.40464170787632464,0.5029983294710516
1789031942796072700,0.81307275390625,-0.6120239368572831,0.47183659074902534,0.11830094686225055
1789031942806076000,0.823075927734375,-0.4598562300980091,0.39610885733067985,-0.1490353270176798
1789031942816078600,0.83307861328125,-0.24187851895317433,0.7040653839558363,-0.2070166836041957
1789031942826081800,0.843081787109375,-0.27365181370228525,0.5862871457934379,0.012648469170928
1789031942836084700,0.853084716796875,-0.149113726016134,0.717566670563817,0.10928053199537098
1789031942846087700,0.863087646484375,-0.35355391019582744,0.8876888439476489,0.21164500099197028
1789031942856091000,0.8730908203125,-0.7676184031948446,0.6666232497900724,0.38532888544537125
1789031942866093600,0.883093505859375,-0.6178048583462834,0.6043219841778278,0.279288358284533
1789031942876096800,0.8930966796875,-0.5422273470535874,0.48756782836616036,0.11678389336280524
1789031942886099700,0.903099609375,-1.0026447181656957,-0.21414134785234926,0.537260153100267
1789031942896102700,0.9131025390625,-0.7998457253217697,-0.3996194958001375,0.7083142735719681
1789031942906105900,0.92310595703125,-0.6636239218436181,0.016108254235982895,0.719681105434522
1789031942916108800,0.93310888671875,-0.5887723867379129,0.4410118288964033,0.720353817064315
1789031942926111700,0.94311181640625,-0.6515116053760052,0.16590017177462577,0.8798438295356928
1789031942936114700,0.95311474609375,-0.4544374199196696,-0.19291852708160875,0.8978807137466966
1789031942946117600,0.96311767578125,-0.3277880391679704,0.010629530563950537,0.42011429455727334
1789031942956120800,0.973120849609375,-0.816139565257728,-0.0459101027816534,0.2959801114968955
1789031942966123800,0.983123779296875,-1.114375638987869,-0.5375076250553131,0.5074233793716877
1789031942976126700,0.993126708984375,-0.8239420557022095,-0.19980887111723422,0.5206184495747089
1789031942986129700,1.003129638671875,-0.8693363179162145,0.07014028867483138,0.5006557118676602
1789031942996132900,1.0131328125,-0.7612459455534816,0.3593319090753794,0.4990951114874333
1789031943006135800,1.0231357421875,-0.6885688318774104,0.6296884806245565,0.528425323933363
1789031943016138800,1.033138671875,-0.6438144750021397,0.5663409208297729,0.5655890064839273
1789031943026141700,1.0431416015625,-0.6243544261202216,0.20412614979445934,0.622820640681684
1789031943036144600,1.05314453125,-0.46349064107760785,0.04022738097012043,0.4053104009181261
1789031943046147800,1.06314794921875,-0.3178920835755765,0.29081016151309014,-0.07536613356433808
1789031943056150800,1.07315087890625,-0.2850150653682649,0.3454530213266611,-0.31363997908905145
1789031943066153700,1.08315380859375,-0.17534370742440222,0.30661154175698757,-0.36685580177418886
1789031943076157000,1.093156982421875,-0.22691738892570137,0.048969490352272986,-0.07180047697201371
1789031943086159600,1.10315966796875,-0.1249076516509056,-0.3887105637729168,0.06490604128316045
1789031943096163800,1.113163818359375,-0.0950923591017723,-0.4469657688647508,0.020070508930459616
1789031943106166800,1.123166748046875,-0.4776746492527425,-0.5460889909178018,0.29333230040185154
1789031943116169700,1.133169677734375,-0.49416518080458044,-0.3376186744391918,0.2695120835490525
1789031943126172700,1.143172607421875,-0.5817407345354557,0.11187047542333602,0.27055450527407227
1789031943136175900,1.15317578125,-0.3387209365926683,0.4020727341711521,0.11913374442458152
1789031943146178800,1.1631787109375,-0.18153014097437262,0.5408738866180182,-0.004136588348075747
1789031943156181800,1.173181640625,-1.0706849658213555,0.040248423758149146,0.6485608658116311
1789031943166184700,1.183184814453125,-1.4620621184550224,-0.685773940461874,1.2145680977076292
1789031943176187600,1.193187744140625,-0.5927613102436066,-0.0905482859313488,0.5765105057317763
1789031943186190800,1.20319091796875,-0.31433716757297514,0.5325111319422722,0.05636142723448574
1789031943196193800,1.21319384765625,0.10663199024796485,0.8159311832040548,-0.22339615599699317
1789031943206196700,1.22319677734375,-0.5474539956606924,0.4967769707381725,0.06855382320098578
1789031943216199700,1.23319970703125,-1.5622820497035979,-0.809009859508276,1.087070356498286
1789031943226202600,1.24320263671875,-0.4768307457745075,-0.5258715477973223,0.42265228860229254
1789031943236205800,1.253205810546875,0.20985256461724638,0.3607809388399124,-0.26825097757205363
1789031943246208800,1.263208740234375,0.1500641586087644,0.2876560813963413,-0.2780305402431637
1789031943256211700,1.273211669921875,0.24881109469532964,0.36440322099030015,-0.40495713050104676
1789031943266215000,1.28321484375,-0.09083002548217772,0.6607675094991922,-0.2688594648592174
1789031943276217600,1.293217529296875,-0.7171440612375736,0.5867436573892831,0.23383761664293706
1789031943286220800,1.303220703125,-0.5252350034594535,0.3058949179202318,0.32571970846131443
1789031943296223700,1.3132236328125,-0.3702922790288925,0.5656541076093912,0.21860103067494926
1789031943306226700,1.323226806640625,-0.3703964700557291,0.6501321337163448,0.3257761878889054
1789031943316230000,1.33322998046875,-0.2753016267359257,0.867609932515025,0.2904047225173563
1789031943326232600,1.343232666015625,-0.8039139976739883,0.6382780297935009,0.6722818600736558
1789031943336235800,1.35323583984375,-1.0527848597325384,0.44309038873612877,0.7423293558984995
1789031943346239000,1.363239013671875,-1.2210077753663062,0.47380526047348975,0.69527899704054
1789031943356241700,1.37324169921875,-1.0529190805714577,0.39294776295125483,0.6681647070784121
1789031943366244900,1.383244873046875,-1.003176194693893,0.17924831364750862,0.8329621052429079
1789031943376247600,1.39324755859375,-1.01797643507123,0.49004737022221084,0.9941980115335434
1789031943386250800,1.403250732421875,-0.9992951154768467,0.7226455812633037,0.8683797478437423
1789031943396254000,1.41325390625,-1.2178617324255405,0.7821937487751245,0.7929634915273636
1789031943406256600,1.423256591796875,-1.337360364639759,0.7307008774250745,1.0234897916652261
1789031943416259800,1.433259765625,-1.0795253479462117,0.4193476940989494,0.9144090930908918
1789031943426262800,1.4432626953125,-0.5651029034674168,-0.11587737297713756,0.7250975044600665
1789031943436265700,1.453265625,0.10789916063956916,-0.30000352179408074,0.4765265021309256
1789031943446268700,1.4632685546875,0.3657587272524834,-0.3496645015418529,0.3953765244681388
1789031943456271600,1.473271728515625,0.06503624353408813,-0.4129810816764831,0.4976949623659253
1789031943466274800,1.48327490234375,-0.3892061652701348,-0.4937403795212507,0.5837965710867196
1789031943476277800,1.49327783203125,-0.7088030069369823,-0.36047289580404757,0.431561425114423
1789031943486280700,1.50328076171875,-0.8618762842338532,-0.1768868452131748,0.08376819733716546
1789031943496283600,1.51328369140625,-0.799234169294685,-0.20331483341157436,0.0011092033509165049
1789031943506286800,1.523286865234375,-0.6683493429303169,-0.4571972400218248,0.017838877420872448
1789031943516289800,1.533289794921875,-0.5185924967050553,-0.239293324765563,0.11324293282032012
1789031943526292700,1.543292724609375,-0.8458686408281326,0.08969313040673732,0.5966599981825799
1789031943536295700,1.553295654296875,-1.0837842474997044,0.04721650920510292,1.0191416063930838
1789031943546298600,1.563298583984375,-0.97599490391016,0.12038462126851081,1.0800232875309883
1789031943556302000,1.573302001953125,-0.8851484387498348,0.35225042638182635,0.9330472311306744
1789031943566305300,1.58330517578125,-0.7512567587196827,0.5411784225225448,0.7279132925331592
1789031943576308000,1.593307861328125,-0.7922890263319015,0.6655582509070634,0.6294771028961986
1789031943586311200,1.603311279296875,-0.8571136729419231,0.707764238473773,0.5793673564676195
1789031943596314000,1.613314208984375,-0.9320411958932876,0.5765986954718828,0.4993794083215296
1789031943606317000,1.623317138671875,-1.0604746835827827,0.37930911369919773,0.49242286718189715
1789031943616320300,1.6333203125,-1.0529799439132213,0.12703238871991634,0.46607758883088823
1789031943626323200,1.6433232421875,-1.000928269636631,0.023918635725975034,0.5932810963340104
1789031943636326100,1.653326171875,-0.9795347684741019,-0.015253683233261107,0.5681560074277222
1789031943646329000,1.6633291015625,-0.868322464698553,-0.07530687765777111,0.4028296900182962
1789031943656332000,1.67333203125,-0.9534849659383297,-0.3620955285698175,0.4828543899782002
1789031943666335200,1.683335205078125,-0.850099410265684,-0.617964140561223,0.5975232639484107
1789031943676338200,1.693338134765625,-0.6255506501674651,-0.4592307916760444,0.5275755752362311
1789031943686342100,1.703342041015625,-0.5536357530355454,-0.10143909777998923,0.26268895953074095
1789031943696345000,1.713344970703125,-0.6861456963837146,-0.013943185156583784,0.32033859994485975
1789031943706348300,1.723348388671875,-0.9874743293017149,-0.2638303846508264,0.5344638734452426
1789031943716351000,1.73335107421875,-1.1813520568042992,-0.37053836274445057,0.667259063475579
1789031943726354200,1.743354248046875,-1.2161714412510394,-0.46526305757761,0.7509995690882205
1789031943736357000,1.753357177734375,-1.18371937045753,-0.6073726039201021,0.6033006783060729
1789031943746360000,1.763360107421875,-1.0593044707596302,-0.5954454347610473,0.3251436621390283
1789031943756363300,1.77336328125,-0.8625883049607277,-0.49578094543814655,0.1195015548236668
1789031943766366200,1.7833662109375,-0.9650924016237258,-0.24784078835844991,-0.005778729531913995
1789031943776369200,1.793369140625,-1.161807398378849,-0.07053425642848014,0.019766046091169116
1789031943786372000,1.8033720703125,-1.1609598416388034,0.08028174346089363,-0.020042524944990873
1789031943796375000,1.813375,-0.9841910698473453,0.22029928596019743,-0.16262977180182933
1789031943806378200,1.823378173828125,-0.9056149612605571,0.7088993799835444,-0.17353037439212202
1789031943816381200,1.833381103515625,-0.7456967865049838,1.0916326229125262,-0.15100363141596315
1789031943826384100,1.843384033203125,-0.5122621246397495,1.3271978670656681,-0.24867957727015017
1789031943836387000,1.853386962890625,-0.38468086986541744,1.4538006321966648,-0.3814811970412731
1789031943846390000,1.86339013671875,-0.21520459316968918,1.7364426848232746,-0.551718082845956
1789031943856393200,1.873393310546875,-0.08694646204710006,1.7840747890919446,-0.4406047094002366
1789031943866396200,1.883396240234375,-0.08659106360501609,1.4312977084875107,-0.5091501300990581
1789031943876399000,1.893399169921875,-0.40105566608309745,1.0812900925964117,-0.4165047257579863
1789031943886402000,1.903402099609375,-0.7104559617757796,0.35872751344144344,-0.09970350615903735
1789031943896405200,1.9134052734375,-0.43498482369184494,-0.2907102082699537,0.20676395095214248
1789031943906408200,1.923408203125,-0.029279852231871337,-0.4126221852362156,0.43554786440208554
1789031943916411100,1.9334111328125,-0.22752982173562047,-0.5408505057424307,0.6352675959311426
1789031943926414000,1.9434140625,-0.3893020999252796,-0.7337164258539676,1.116104654737562
1789031943936417000,1.9534169921875,-0.7119757186889648,-0.9739327106833457,1.5843721548281609
1789031943946420200,1.963420166015625,-0.9551205312509089,-0.8878010721504688,2.122163272999972
1789031943956423200,1.973423095703125,-0.9907364729028194,-0.7101689615279436,2.4286525035515427
1789031943966426000,1.983426025390625,-1.3039818266510963,-0.8102589827865362,2.5923697783291337
1789031943976429300,1.99342919921875,-1.4555563898228108,-1.1554659203976392,2.582235045544803
1789031943986432000,2.003431884765625,-1.30078566095829,-1.4246528636455535,2.1567679917827247
1789031943996435200,2.013435302734375,-1.044984780440852,-1.2463409540653227,1.7154767614230513
1789031944006438100,2.023438232421875,-1.230032793343067,-0.9467810843855142,1.5297174584463238
1789031944016441000,2.033441162109375,-1.4032839124023913,-0.9080050712674855,1.6094257859334349
1789031944026444300,2.0434443359375,-1.2549930470764636,-0.8079851926356554,1.3633651589900255
1789031944036447000,2.053447021484375,-1.285863986158371,-0.5691296747654676,1.068586970628798
1789031944046450200,2.0634501953125,-1.245564708995819,-0.16119126343131066,0.9463337790094315
1789031944056453000,2.073453125,-1.4425789809584617,0.17439678196310995,0.962912865627557
1789031944066456000,2.0834560546875,-1.31042793405056,0.2974959228873253,1.0313134710282086
1789031944076459300,2.093459228515625,-0.7945205847762524,0.5332096356004477,0.9032985010117291
1789031944086462000,2.1034619140625,-0.16709953762702642,0.8522568805605173,0.9019332040078938
1789031944096465200,2.113465087890625,0.21251002032347022,1.0628735614180564,0.8069707548961043
1789031944106468000,2.123468017578125,0.344815307945013,1.2582944267094134,0.6822910667821764
1789031944116471000,2.133470947265625,0.25088622046895326,1.3927005590677262,0.5373338759236037
1789031944126474200,2.14347412109375,0.19311551095843313,1.424579213887453,0.4091821277849376
1789031944136477200,2.153477294921875,0.0863162013195455,1.2553069353312254,0.4719662084780633
1789031944146480000,2.163480224609375,0.0054535892307758325,0.9524719895035028,0.48089229612499473
1789031944156483000,2.173483154296875,-0.18147168878540396,1.0062707997083664,0.876914644216001
1789031944166486000,2.183486083984375,-0.5218202265799046,1.0581196448892354,1.3786153350919483
1789031944176489200,2.1934892578125,-0.7017090300880372,1.0256477003514766,1.5437565051928162
1789031944186492200,2.2034921875,-0.9692647188723087,0.8178104210793972,1.4502870711177587
1789031944196495000,2.2134951171875,-1.2391827528737485,0.6601110914170741,1.3693971326306462
1789031944206498000,2.223498046875,-1.6290813573874532,0.5313356584221124,1.0781041560366749
1789031944216501200,2.233501220703125,-1.7998846449032424,0.29209844775795935,1.1651391731500624
1789031944226504200,2.243504150390625,-1.7563118990279734,0.03207096252143383,1.1641817262947558
1789031944236507100,2.253507080078125,-1.8220679812692104,-0.13914134418666363,1.1430772712066768
1789031944246510000,2.263510009765625,-1.853208969464153,-0.21267712051868437,1.3175716683253644
1789031944256513000,2.273512939453125,-1.4602012930192052,-0.04444236831665039,1.4364172434583304
1789031944266516200,2.28351611328125,-1.4839035095155237,0.3305062120854854,1.477461201508343
1789031944276519200,2.293519287109375,-1.5203567787744103,0.6270692380368709,1.3594985466897487
1789031944286522000,2.303522216796875,-1.494447992144525,0.7546183441072702,1.1446347297817467
1789031944296526000,2.313526123046875,-1.4747452205479143,0.8997656507104634,1.1752359120115636
1789031944306529000,2.323529052734375,-1.5164545106388627,1.0531921253591776,1.4034984319359063
1789031944316532200,2.3335322265625,-1.3769127689577638,1.2739385705649853,1.4497034260109065
1789031944326535200,2.34353515625,-1.3370625507369636,1.5305623848378658,1.4789026324883103
1789031944336538000,2.3535380859375,-1.349311499196291,1.5907207932025194,1.4352683656841516
1789031944346541000,2.363541015625,-1.255502604033798,1.5589637189358472,1.5502590189546346
1789031944356544000,2.3735439453125,-0.9980582671582698,1.343975398865342,1.413922795316577
1789031944366547200,2.383547119140625,-0.8020704156339168,1.1362252133548258,1.0519979471385479
1789031944376550100,2.393550048828125,-0.8226268814504146,0.861187205991149,0.5317085833877325
1789031944386553000,2.403552978515625,-0.7484345409058034,0.5677087020516395,0.09280980112254619
1789031944396556000,2.41355615234375,-0.8898992134734988,0.2532967156767845,-0.13678601323217152
1789031944406559200,2.423559326171875,-0.8885095126807689,-0.1509539470553398,-0.13226736676394937
1789031944416562200,2.433562255859375,-1.0956744456492364,-0.30338030475080013,0.05343202271908521
1789031944426565000,2.443565185546875,-1.3182184417963028,-0.24061083710491657,0.33682986214905974
1789031944436568000,2.453568115234375,-1.4270026416420936,-0.08545125505328179,0.3662491411179304
1789031944446571000,2.463571044921875,-1.7208265980184076,0.08638356746733188,0.3287628755494952
1789031944456574200,2.47357421875,-1.7250408547125755,0.0726186614871025,0.3779641288310289
1789031944466577200,2.4835771484375,-1.5025943275906144,0.03167173407077789,0.7258329791277647
1789031944476580000,2.493580078125,-1.4796353306770325,-0.20994974138140676,0.9637497548431158
1789031944486583300,2.503583251953125,-1.3086122629307209,-0.557795210802555,0.9854515913024544
1789031944496586000,2.5135859375,-1.0577671781897544,-0.6611433570742606,0.9188725022405385
1789031944506589200,2.523589111328125,-1.0714473284959793,-0.54989715102911,0.7579246921762823
1789031944516592000,2.533592041015625,-1.2792438373662531,-0.3013900077164173,0.6903507468581199
1789031944526595000,2.543594970703125,-1.1715712520241737,0.21345219654440878,0.8280433535411953
1789031944536598300,2.553598388671875,-0.7781890431784093,0.4373585670858621,0.7170446925163269
1789031944546601000,2.56360107421875,-0.5389570932112634,0.6835182704895735,0.806697198651731
1789031944556604400,2.5736044921875,-0.19615970095992089,0.7234568976461887,0.8544351013824343
1789031944566607400,2.583607421875,0.21030045451521873,0.7691162405371665,0.8492559451788664
1789031944576610300,2.5936103515625,0.3457202939607203,0.7452274154275655,0.8038906167984008
1789031944586613500,2.603613525390625,0.4553204863645136,0.7967834151417017,0.5578378809005021
1789031944596616200,2.6136162109375,0.23255101089850067,0.9147393479585647,0.2559215112224221
1789031944606619400,2.623619384765625,0.008877864591032266,0.9899293212383985,-0.020153730234503744
1789031944616622300,2.633622314453125,0.057753246919065714,0.9939356342703104,-0.17552666277587411
1789031944626625300,2.643625244140625,0.0546538195990026,0.7580763756066561,-0.26740064435303207
1789031944636628500,2.65362841796875,0.11014394389167427,0.6033101767867803,-0.3314057912737131
1789031944646631200,2.663631103515625,0.10187266689166426,0.6223755272626876,-0.31545331212133165
1789031944656634400,2.67363427734375,-0.00119578565582633,0.5518108756959438,-0.5553790895715356
1789031944666637300,2.68363720703125,0.1074329313673079,0.5543102912962437,-0.6224789876371621
1789031944676640300,2.69364013671875,0.028408932882547377,0.4155570696443319,-0.4392977184548974
1789031944686643500,2.7036435546875,0.17808292312994597,0.18667407973408698,-0.507941923353076
1789031944696646400,2.713646484375,0.00037993922829627987,-0.08136544704437255,-0.3441501220345497
1789031944706649300,2.7236494140625,-0.3901088862635195,-0.4311977063685655,-0.2215600996762514
1789031944716652300,2.73365234375,-0.6945417688071728,-0.8922545444279909,-0.09640724109262228
1789031944726655200,2.7436552734375,-0.7056652203679085,-1.3904460581392049,-0.133816057510674
1789031944736658400,2.753658447265625,-0.6092645551465451,-1.6216501844733953,-0.18009733169227837
1789031944746661400,2.763661376953125,-0.557169626250118,-1.6282289783418178,-0.4527048970386386
1789031944756664300,2.773664306640625,-0.6770012898109853,-1.4891472553879022,-0.6182052558407187
1789031944766667300,2.783667236328125,-0.7693230151556432,-1.2924585621178148,-0.49461774687767024
1789031944776670200,2.793670166015625,-0.8194273547567427,-1.0851719024658202,-0.33479368014633654
1789031944786673400,2.80367333984375,-0.7362041510164737,-0.8509861299723386,-0.17274521536380052
1789031944796676400,2.81367626953125,-0.4404207311354577,-0.6466115583747625,0.006751812347769737
1789031944806679300,2.82367919921875,-0.2375846211515367,-0.5388093553036452,0.23553777162432668
1789031944816682200,2.83368212890625,-0.020929098521173,-0.5616068780452013,0.3638707215487957
1789031944826685400,2.843685546875,0.10994754453673958,-0.5061041865319014,0.4406228295788169
1789031944836688400,2.8536884765625,0.41130014285221694,-0.285672214102745,0.328257848636806
1789031944846691300,2.86369140625,0.8326479247272014,-0.0900859291166067,0.09983137032240628
1789031944856694300,2.8736943359375,0.9486134143792092,0.008141805401444435,-0.02175824282169342
1789031944866698200,2.8836982421875,0.7746446485698223,-0.033490181669592854,-0.046919572085142136
1789031944876701400,2.893701416015625,0.6554561052180826,-0.11042319922447204,-0.04204261369854211
1789031944886703400,2.903703369140625,0.32767698000893,-0.059331309890747065,-0.019799217708408832
1789031944896707300,2.913707275390625,0.11343217178210616,0.008113748350739478,-0.16381752028167246
1789031944906710300,2.923710205078125,0.18838322173953057,0.2702835063129663,-0.5103483999729156
1789031944916713200,2.933713134765625,0.038047552713006735,0.5697212109178305,-0.6516600739359856
1789031944926716400,2.94371630859375,-0.08021028565987944,0.8650292683720588,-0.7743813214585185
1789031944936719400,2.95371923828125,0.044588498789072034,0.939289851847291,-0.7843570642888545
1789031944946722300,2.963722412109375,0.08619140589609742,0.7655676081448793,-0.5932067159235477
1789031944956725200,2.973725341796875,0.2826245169699192,0.5461643942415714,-0.5984563070148229
1789031944966728400,2.983728515625,0.23152327528595923,0.35375381668210026,-0.47824470422565935
1789031944976731400,2.9937314453125,-0.07140855504497885,0.2229980235248804,-0.02279781500250101
1789031944986734300,3.003734375,-0.21023601097688077,0.04698328497111797,0.41391280956864357
1789031944996737300,3.0137373046875,-0.15633520170226692,-0.19528058003783225,0.5206599506288767
1789031945006740200,3.023740234375,-0.024965952821820972,-0.4076929121404886,0.4950710436031222
1789031945016743400,3.033743408203125,0.1729240790620446,-0.4990910928994417,0.35397973439246416
1789031945026746400,3.043746337890625,-0.02069207489490509,-0.5878495728045702,0.2662009131744504
1789031945036749300,3.053749267578125,-0.21327888580411672,-0.6349398252815007,0.1059787870362401
1789031945046752500,3.06375244140625,-0.337786139960587,-0.47581367768645283,-0.15806816297471524
1789031945056755200,3.073755126953125,-0.21231354790329932,-0.41554713277220723,-0.42274376627802845
1789031945066758400,3.08375830078125,0.17443199940696358,-0.70264090411067,-0.5562763306722045
1789031945076761300,3.09376123046875,0.3919723420478403,-1.030977370941639,-0.5346212559640408
1789031945086764300,3.103764404296875,0.33282807916179297,-1.0378840815901755,-0.38272652092725035
1789031945096767500,3.113767578125,0.046447570659220214,-0.7727648261725902,-0.21578180853575465
1789031945106770200,3.123770263671875,-0.32572876855060456,-0.4993208100020885,0.013638649252057074
1789031945116773400,3.1337734375,-0.5114020006790757,-0.35764497890174385,0.28660248069018124
1789031945126776300,3.1437763671875,-0.6626365182414651,-0.39918519603610036,0.5202911173164845
1789031945136779300,3.153779296875,-0.6390167193315923,-0.361854121029377,0.6917647053092718
1789031945146782500,3.163782470703125,-0.4165738454714417,-0.15440145716071127,0.5970584229156375
1789031945156785200,3.17378515625,-0.339941126037389,0.1462561446279287,0.43677141484767196
1789031945166788400,3.183788330078125,-0.2956301290154457,0.46695641749203204,0.35758068149387834
1789031945176791600,3.19379150390625,-0.36647652013301846,0.6189221719384193,0.34228783529400825
1789031945186794200,3.203794189453125,-0.4967575353853404,0.5800684174090623,0.24702538032233715
1789031945196797400,3.21379736328125,-0.34842560739666223,0.4528028044551611,-0.11560323221087455
1789031945206800100,3.223800048828125,-0.04919248545318842,0.15503507888913154,-0.691044282080233
1789031945216803300,3.23380322265625,0.15564531974196433,-0.007979308316111565,-0.7827598582252859
1789031945226806500,3.243806640625,-0.05747632967382669,-0.06584755991697311,-0.2611749017059803
1789031945236809200,3.253809326171875,-0.32164719832539557,-0.012349778485298156,0.5010010181739926
1789031945246812400,3.2638125,-0.5715066330298781,0.043350481426715846,1.1772621571421622
1789031945256815400,3.2738154296875,-0.6885843217074871,-0.05194295320510864,1.647315079344809
1789031945266818300,3.283818359375,-0.6289455533027648,-0.2603682614982128,1.5862737506657838
1789031945276821200,3.2938212890625,-0.4494935337767005,-0.3583937514424324,0.8677847045600414
1789031945286824200,3.30382421875,-0.07454962954968214,-0.14072773659527302,0.14109715442955492
1789031945296827400,3.313827392578125,0.2851195486560464,0.4246107291936874,-0.14015490514338017
1789031945306830300,3.323830322265625,0.6511722904190421,0.9653858316123485,-0.30247312677800653
1789031945316833300,3.333833251953125,0.7650780710622668,1.2154068866193293,-0.22709406066685914
1789031945326836200,3.343836181640625,0.47789252978712315,0.9492197097092866,0.13960340874046087
1789031945336839400,3.35383935546875,0.2130034298636019,0.3719546592831611,0.3151455613464117
1789031945346842400,3.36384228515625,0.18421455775275825,-0.2599941674888134,-0.09742489370256661
1789031945356845300,3.37384521484375,0.4738602055311203,-0.6412596759527921,-0.7560536376073956
1789031945366848300,3.38384814453125,0.6334136386275291,-0.7411041980177163,-0.9971186482205986
1789031945376851200,3.393851318359375,0.5447442983105778,-0.5558616123914718,-0.5758695044144988
1789031945386854400,3.4038544921875,0.1526456995345652,-0.25976854203939437,0.020369418811798094
1789031945396857300,3.413857421875,-0.03579962765574455,-0.03733925831317901,0.3636845513269305
1789031945406860300,3.4238603515625,-0.15192688374072313,0.07557400416135787,0.8259861287504434
1789031945416863500,3.433863525390625,-0.16299378280863164,-0.14412906947135926,1.2765341400161385
1789031945426866200,3.4438662109375,-0.008410977731645107,-0.5138596229642629,1.5437003910914062
1789031945436869400,3.453869384765625,-0.1644564027070999,-0.8467553605347872,1.7118933499783278
1789031945446872300,3.463872314453125,-0.08736001128405332,-0.8682149126708507,1.4153086967170239
1789031945456875300,3.473875244140625,0.20834479040279982,-0.3917454014241695,0.5674325154587626
1789031945466878500,3.48387841796875,-0.08563158005625009,0.14080372444093225,0.12597206601202487
1789031945476881200,3.493881103515625,-0.3192912828490138,0.2423468671172857,-0.37563714718818664
1789031945486884400,3.50388427734375,-0.47100803097039456,0.2924573441982269,-0.4289157329112291
1789031945496888300,3.513888427734375,-0.6448682218387722,0.28368600872159,0.02340571776777506
1789031945506891300,3.523891357421875,-0.5798199956059455,0.2944879732429981,0.3356719242855906
1789031945516894500,3.53389453125,-0.8129089127734302,0.30018472357988357,0.31093291208744045
1789031945526897400,3.5438974609375,-1.0160524812713265,0.13870295276939867,-0.010676000054180622
1789031945536900400,3.553900390625,-0.7640136567011475,0.20974632776379584,0.4078030945166945
1789031945546903300,3.5639033203125,-0.9706129186108707,0.09896130948960781,0.7150146479934454
1789031945556905500,3.573905517578125,-0.7813681116059422,-0.09074877693951129,0.5023872118353844
1789031945566908700,3.58390869140625,-0.13212751990184188,-0.05553308665156364,0.6140753164291382
1789031945576911400,3.593911376953125,0.26009368234053254,-0.2052642139136791,0.7372989605158567
1789031945586914600,3.60391455078125,-0.1963455789208412,-0.43545010311603544,1.0660627128481863
1789031945596917500,3.61391748046875,-0.6997894602023065,-0.8335194468647241,1.1274795968413351
1789031945606920400,3.62392041015625,-0.5223075717054307,-0.7664847229897975,1.0354913412347435
1789031945616923600,3.633923583984375,-0.3224792652353644,-0.1713315491735935,0.8933721502810716
1789031945626926300,3.64392626953125,-0.4922491180501878,0.42306291522979733,0.7921060709804296
1789031945636929500,3.653929443359375,-0.7134213874526322,0.5813613798290491,0.7833312283724546
1789031945646932500,3.663932373046875,-0.3519499821305275,0.6796347070544958,0.544048425000906
1789031945656935400,3.673935302734375,-0.08992737755402921,0.6312532457232475,0.38638942734897136
1789031945666938600,3.683938720703125,-0.1444014566719532,0.28079496345520016,0.6467518436282873
1789031945676941300,3.69394140625,-0.16104264874085783,-0.1762596532255411,0.6574734363898634
1789031945686944500,3.703944580078125,-0.18868629633933304,-0.3056424044638872,0.6795449829444289
1789031945696947500,3.713947509765625,-0.25155805531591174,-0.25505846465229987,0.7906959119215607
1789031945706950400,3.723950439453125,-0.30395284394174815,-0.1354436587125063,0.8397416823804378
1789031945716953600,3.73395361328125,-0.2524947516441345,-0.00845218652486801,0.8388298282325267
1789031945726956500,3.74395654296875,0.25204963822513815,0.30145664321184157,0.504286323454976
1789031945736959500,3.75395947265625,0.7122013441383839,0.6151993520230055,-0.035606443171203137
1789031945746962400,3.76396240234375,0.6730757869303227,0.5400830285012722,-0.364183440759778
1789031945756965400,3.77396533203125,0.5788200247831642,0.4109294098436832,-0.11391425621062516
1789031945766968600,3.783968505859375,0.29608371800184247,0.2637888835966587,0.16333061354756354
1789031945776971500,3.793971435546875,0.24636340928226708,0.05006488437354564,0.16079758793860674
1789031945786974500,3.803974365234375,0.33690321964621545,-0.08247253150343895,-0.07558394103348255
1789031945796977400,3.813977294921875,0.18846417802125215,-0.20438976916670798,-0.13215952247530222
1789031945806980600,3.823980712890625,0.13092384320050476,-0.1095750579625368,-0.15393763904124497
1789031945816983600,3.833983642578125,0.33794366860985753,0.03669394614696502,-0.13187486031502485
1789031945826986500,3.843986572265625,0.4183294569671154,0.13142039454579352,-0.26933541180789466
1789031945836989400,3.853989501953125,0.37523616517186165,0.21997136918008325,-0.2654106395795941
1789031945846992400,3.863992431640625,0.4118330806851387,0.0049491468399763105,-0.0203343474984169
1789031945856995600,3.87399560546875,0.3829635445535183,-0.6691822866231203,0.08633212954103946
1789031945866998500,3.88399853515625,0.22203400079831478,-1.3782996932715177,0.7681058944508433
1789031945877001500,3.89400146484375,0.1471193373285234,-2.0450749187529085,1.1223916260525584
1789031945887004700,3.904004638671875,0.039848172394186254,-1.5789479378223419,0.958019979019463
1789031945897007400,3.91400732421875,-0.12462708114385604,0.5038391642093658,0.19109014261066912
1789031945907010600,3.924010498046875,-1.0254830113090574,4.779018236851692,-0.5097554025158286
1789031945917013500,3.934013427734375,-1.4224175058089197,5.257993593439459,-0.1914417325273156
1789031945927016400,3.944016357421875,-0.7033949373483658,2.0604221254885196,0.2944461799278855
1789031945937019600,3.95401953125,0.0937023660480976,0.3309212226271629,0.359496744248271
1789031945947022300,3.964022216796875,0.018192805425077677,0.04272036682963371,0.18716858525276184
1789031945957025500,3.974025634765625,-0.37652445141673085,0.15950842491090297,0.17308365353792904
1789031945967028700,3.98402880859375,-0.2884710510410368,0.12128653854429722,0.06682546503841877
1789031945977031400,3.994031494140625,-0.05077960851415991,0.08423252691328525,-0.14163783717751502
1789031945987034600,4.00403466796875,-0.1609843426823616,-0.15469079549610615,-0.13039514315128325
1789031945997037300,4.014037353515625,-0.24361359911747274,-0.5364934795767069,-0.0004772621229290962
1789031946007040500,4.02404052734375,-0.2693734057307243,-0.5085632701218128,0.1877577833175659
1789031946017043700,4.034043701171875,-0.3809668177783489,-0.2582090376377106,0.457183796018362
1789031946027046400,4.04404638671875,-0.4941852737445384,-0.11834288630783557,0.667731795553863
1789031946037049600,4.054049560546875,-0.6814484784781932,0.00736731389760971,0.7934367350623011
1789031946047052300,4.06405224609375,-0.8033691502075642,0.13336509887278078,0.9237254952296614
1789031946057055500,4.074055419921875,-0.6926958486795425,0.14515782799720764,0.9852443782925605
1789031946067058700,4.08405859375,-0.4648633176703006,0.1433469791829586,1.00122812936604
1789031946077061400,4.094061279296875,-0.366218161457777,0.29111352837383747,0.7985188606321811
1789031946087064600,4.104064697265625,-0.5699543620865791,0.436258496889472,0.7034197795286774
1789031946097067500,4.114067626953125,-0.7607575775146483,0.3027969519048929,0.7539505278483033
1789031946107070500,4.124070556640625,-0.7460814019083977,0.2654512638509273,0.6423237980529666
1789031946117073400,4.134073486328125,-0.7811152328234165,0.30846447614729405,0.5952274080961942
1789031946127076400,4.144076416015625,-0.8991196809571236,0.2396282558083534,0.6888020561113953
1789031946137080300,4.154080322265625,-0.695225659418106,0.41758360703587527,0.82408087965101
1789031946147083500,4.16408349609375,-0.3405261593837291,0.5788537809222937,0.8711305078566074
1789031946157086700,4.174086669921875,-0.1602337435107678,0.5634867004424333,0.6000327625513077
1789031946167089400,4.18408935546875,-0.1733843169849366,0.5195487745165824,0.44667350791990756
1789031946177092600,4.194092529296875,-0.27111754598431287,0.3718903618752956,0.4212465134575963
1789031946187095300,4.20409521484375,-0.31926936327815053,0.14709201093018054,0.37432021937072274
1789031946197098500,4.214098388671875,-0.3576302927892655,-0.05070961201786995,0.29931583179086446
1789031946207101700,4.224101806640625,-0.32910233663693067,-0.18033260175287721,0.13080080134272576
1789031946217104400,4.2341044921875,-0.3345370750367641,-0.13224340136647222,0.06522007566839456
1789031946227107600,4.244107666015625,-0.3052452949050814,0.01833236002624035,0.10159662642925978
1789031946237110500,4.254110595703125,-0.4145569526910782,0.026910218757390976,0.20385756198614835
1789031946247113500,4.264113525390625,-0.37158757953643795,0.102107206299901,0.30900077498108147
1789031946257116700,4.27411669921875,-0.3811947813153267,0.31123510990440845,0.4230202451318502
1789031946267119400,4.284119384765625,-0.31885084560513494,0.4464198254197836,0.5445312400817871
1789031946277122600,4.29412255859375,-0.1730490206159651,0.45603521050512785,0.6178808461919426
1789031946287125500,4.30412548828125,-0.1990074916064739,0.4313403297096491,0.6964987480938434
1789031946297128400,4.31412841796875,-0.23698154069185257,0.38899873306453225,0.6746466895088553
1789031946307131600,4.324131591796875,-0.48498482613563537,0.395163100913167,0.6772840522751211
1789031946317134600,4.334134521484375,-0.769569683393091,0.4303583329349756,0.8123124081850052
1789031946327137500,4.344137451171875,-0.7693216999813914,0.4661480237185955,0.9045818188205361
1789031946337140500,4.354140380859375,-0.5511034580789506,0.5707686741441488,0.8843085538595914
1789031946347143400,4.364143310546875,-0.5306453380703926,0.6607236703574657,0.8131865606710315
1789031946357146600,4.374146728515625,-0.6545287612400948,0.6752098763495683,0.7584452089190483
1789031946367149600,4.384149658203125,-0.727458534502983,0.5380179126650094,0.8282710248172283
1789031946377152500,4.394152587890625,-0.6532464663445949,0.43891222626864906,0.7805117870375513
1789031946387155500,4.404155517578125,-0.5771450773082674,0.36106267839074135,0.6552610210373997
1789031946397158400,4.414158447265625,-0.677400079870224,0.176677586376667,0.33343466675281525
1789031946407161600,4.42416162109375,-0.7957857824064791,0.26630057415664193,0.484054851809144
1789031946417164500,4.43416455078125,-0.8853519254326819,0.42072073601782317,0.6651791884616017
1789031946427167500,4.44416748046875,-0.7287094113469124,0.29582769741415976,0.5768336732715368
1789031946437170400,4.45417041015625,-0.4302852676987648,0.2154384019255638,0.5185919121831655
1789031946447173600,4.464173583984375,-0.4334004771098494,0.3063818246543407,0.5404278964161873
1789031946457176300,4.47417626953125,-0.3871360079325735,0.42237084131240843,0.312263576169312
1789031946467179500,4.484179443359375,-0.25623700691238044,0.4587924002587795,0.045918286088109016
1789031946477182500,4.494182373046875,-0.11607084972262381,0.4378910665273666,-0.10865209789872168
1789031946487185400,4.504185302734375,-0.1899437490545213,0.42215281464755533,0.13977116652280092
1789031946497188600,4.514188720703125,-0.43480946712493895,0.21074293758571147,0.48644642312079667
1789031946507191300,4.52419140625,-0.5602737297452985,-0.03658230246603489,0.7002905415922402
1789031946517194500,4.534194580078125,-0.7327820676133037,-0.21777122878730296,0.9951938176378607
1789031946527197700,4.54419775390625,-0.8873544974267482,-0.4296902244150638,1.01919779355973
1789031946537200400,4.554200439453125,-0.855897867411375,-0.5849959369391202,0.7803849457874894
1789031946547203600,4.56420361328125,-0.712168464782089,-0.5442582683593035,0.6825906342506408
1789031946557207000,4.57420703125,-0.6705623428046703,-0.364614233392477,0.7010910443201661
1789031946567210000,4.5842099609375,-0.8472891751505434,-0.1316781686991453,0.8472849373668432
1789031946577213000,4.594212890625,-0.7701730561137199,0.06221534089446067,0.7337845226541161
1789031946587216000,4.6042158203125,-0.5399798603877425,0.21766893745660781,0.4180974017769098
1789031946597219000,4.614218994140625,-0.53348494541049,0.43086569793522356,0.2853472199320793
1789031946607222000,4.624221923828125,-0.6576398789979517,0.5549766462504864,0.3794134508565068
1789031946617225000,4.634224853515625,-0.7297216571293771,0.5954974572092294,0.5029404618039727
1789031946627228000,4.644227783203125,-0.8455904084086417,0.5478244364082813,0.568726062400639
1789031946637231000,4.654231201171875,-0.9400606900893151,0.544732900133729,0.6322717751160264
1789031946647234000,4.664234130859375,-0.8783772641144693,0.4605161553114652,0.579254178416729
1789031946657237000,4.674237060546875,-0.7490589564144611,0.40855742001533507,0.39079526109248397
1789031946667240000,4.684239990234375,-0.7785515928804874,0.46887189572453497,0.16223083561211823
1789031946677243000,4.694242919921875,-0.8131175870880484,0.44616322031021116,0.14299334343969822
1789031946687246000,4.70424609375,-0.7815667029179633,0.4577765012145042,0.16302052468508482
1789031946697249000,4.7142490234375,-0.7105738890670239,0.433412459808588,0.0869034996882081
1789031946707252000,4.724251953125,-0.5961921614751219,0.2524386375427246,-0.033570261168479915
1789031946717255200,4.734255126953125,-0.49006899753212924,0.07515081031322479,0.028906945532560346
1789031946727257900,4.7442578125,-0.281621477407217,-0.11027005448937416,0.10755407352894544
1789031946737261000,4.754260986328125,-0.43140638068318365,-0.4786375029355287,0.2536667180329561
1789031946747264000,4.764263916015625,-0.21928923213481902,-0.7172223871707916,0.40281478471010923
1789031946757267000,4.774266845703125,-0.26375600424036383,-0.9146592684596776,0.3508931665539741
1789031946767270100,4.784270263671875,-0.25994258343204857,-0.8406699031412601,0.14648089329451322
1789031946777272800,4.79427294921875,-0.45595396196246146,-0.5245329926699399,0.1326078507646918
1789031946787276000,4.804276123046875,-0.5770120985783637,-0.17996376844048498,0.1816629735738039
1789031946797279200,4.814279296875,-0.5546691877365112,0.07914835551679134,0.0695887922719121
1789031946807283000,4.824282958984375,-0.4597907636463642,0.33432080193758007,-0.013420038065314293
1789031946817285000,4.83428515625,-0.2623145732603967,0.32522038063704967,-0.024725275933742522
1789031946827289000,4.8442890625,-0.07075520570278167,0.1558557476222515,-0.03495703935176134
1789031946837292000,4.8542919921875,0.2572797939635813,0.05464987407624721,0.11955050853192806
1789031946847295000,4.864294921875,0.3325007469035685,-0.08210369819104671,0.03836071031540632
1789031946857298000,4.8742978515625,0.5476256989657878,-0.149981887152791,-0.03884849383234978
1789031946867300900,4.88430078125,0.5327428948715329,-0.13680325662791729,0.0964081178754568
1789031946877304000,4.894303955078125,0.4217044863581657,-0.20075696562230586,0.23810090011060236
1789031946887307000,4.90430712890625,0.3138648738861084,-0.22979309049248695,0.22565701360106466
1789031946897310000,4.91431005859375,0.28718393383994695,-0.21953940750360487,0.06529167959988116
1789031946907313200,4.924313232421875,0.5714299145318568,-0.1910164928525686,-0.14448708912879227
1789031946917315800,4.93431591796875,0.6641571519374847,-0.10131050296425818,-0.4169941167101264
1789031946927319000,4.944319091796875,0.7535412163950502,-0.34625615440309043,-0.563062045289576
1789031946937322000,4.954322021484375,0.7583446711540222,-0.8736188175410031,-0.5488122784018516
1789031946947325000,4.964324951171875,0.6284605462647974,-1.308029056215286,-0.5549824914693832
1789031946957328100,4.974328125,0.5029964297749102,-1.2855027516305446,-0.5569365481466054
1789031946967330800,4.984330810546875,0.2499590956866741,-1.018830421552062,-0.2689870367616415
1789031946977334000,4.994333984375,-0.001404021579027176,-0.5415618688821793,-0.027775018893182277
1789031946987337200,5.004337158203125,0.06170213067531585,0.06261924552023411,-0.14289192889183758
1789031946997340000,5.01433984375,0.28850276135355235,0.6531506047546863,-0.0894715966105461
1789031947007343000,5.024343017578125,0.2821054615318775,0.9367173710107802,0.06768471221625805
1789031947017345800,5.034345703125,0.11480857470184563,0.8202432011842727,0.1940820179030299
1789031947027349000,5.044348876953125,-0.15760916716083884,0.4575502912431955,0.02980535567700863
1789031947037352200,5.054352294921875,-0.20986235535889863,0.058223056387901304,-0.29413989045768973
1789031947047355000,5.06435498046875,-0.13266761812791228,-0.3591805179059505,-0.5060407659068703
1789031947057358000,5.074358154296875,0.5281351088151336,-0.2774392232865095,-0.7139408812820911
1789031947067361000,5.084361083984375,0.8641875568509101,0.5266980617493391,-0.7053381803706288
1789031947077364000,5.094364013671875,-0.16536562650650738,0.827001443272829,-0.6172936939537524
1789031947087367200,5.1043671875,-0.2972735123082995,0.6662181761205196,-0.529572155880928
1789031947097369900,5.114369873046875,-0.43883565390110013,0.6326596053898335,0.0020288754791021346
1789031947107373000,5.124373046875,-0.6314005452394486,0.5982388648718595,0.33843875865042206
1789031947117376000,5.1343759765625,-0.5255692038498818,0.6981365784287452,0.47181671700477595
1789031947127379000,5.14437890625,-0.46094022594243284,0.7280950788408518,0.5381766103580594
1789031947137382100,5.154382080078125,-0.3914060864672065,0.4690706331670284,0.5370709872037172
1789031947147385000,5.164385009765625,-0.25070260753035545,0.004554010042548179,0.7920107939124107
1789031947157388000,5.174387939453125,-0.2233700717076659,-0.41258009966015813,1.0038760135263205
1789031947167391000,5.184390869140625,-0.3387147991128266,-0.7222276481121778,1.3199307986721396
1789031947177394000,5.194393798828125,-0.5644061533749103,-0.8571645263463258,1.5983724769994616
1789031947187397000,5.204397216796875,-0.6525878563053905,-0.842251619374752,1.5118348880141972
1789031947197400000,5.214400146484375,-0.6828782190203666,-0.6619938364237546,1.228576457054913
1789031947207403000,5.224403076171875,-0.741697049344331,-0.402774160438776,1.0443246360316871
1789031947217406000,5.234406005859375,-0.603032090497762,-0.3530857081621885,0.36208500717580316
1789031947227409000,5.244408935546875,-0.2728184316180646,-0.0652554392427206,0.08572948747277259
1789031947237412000,5.254412109375,-0.34080314969420433,-0.05241466237008571,-0.2444172436505556
1789031947247415000,5.2644150390625,-0.3966416490331292,-0.03802314892411232,-0.08932488161623478
1789031947257418000,5.27441796875,-0.4130900950089097,0.18421674970984458,-0.09647299980521201
1789031947267421000,5.2844208984375,-0.22310382198691367,0.5452759209692478,-0.43921325504183767
1789031947277424000,5.294424072265625,-0.5155236106537282,0.8819318878561258,-0.4795829670920968
1789031947287427000,5.304427001953125,-0.9665864395737648,0.9414397233575582,-0.20151567503511905
1789031947297430000,5.314429931640625,-0.862408564479649,0.8906739972382783,0.120718091006577
1789031947307433000,5.324432861328125,-0.998757355338335,0.7797744126737117,0.5041323019370436
1789031947317436000,5.334435791015625,-1.2333905793383717,0.3630804479539394,0.989978713338077
1789031947327439000,5.344439208984375,-0.9928019540652632,-0.004352934512495995,1.2847905117079614
1789031947337442000,5.354442138671875,-0.9509833583809435,-0.04754910216033458,1.3640695078670977
1789031947347445000,5.364445068359375,-1.217511165422201,-0.23298048835694787,1.4256056343257426
1789031947357448200,5.3744482421875,-1.3106347086690366,-0.5450485419541597,1.393407538293302
1789031947367451000,5.384450927734375,-1.225744594629854,-0.7867600337773561,1.331890408796072
1789031947377454000,5.3944541015625,-0.8697896146416664,-0.9040957888692617,1.1896680497288703
1789031947387456800,5.404456787109375,-0.7748689588449895,-1.083973048070073,1.103582003903389
1789031947397460000,5.4144599609375,-0.7634719510398804,-1.207844926932454,1.1008332897171378
1789031947407463200,5.424463134765625,-0.7503658012293278,-1.1525333740770816,0.9857301159828901
1789031947417465900,5.4344658203125,-0.9243965263590216,-1.105920675984025,0.8812436133310199
1789031947427469000,5.444468994140625,-0.719859603806585,-1.0414426508545875,0.5068421454176306
1789031947437472000,5.454471923828125,-0.5955737373158335,-1.0269424163371323,0.06991232513785361
1789031947447475000,5.464474853515625,-1.267925155494362,-0.7943406981647014,0.8147747066453099
1789031947457478100,5.47447802734375,-1.1014346166111528,-0.7919757225990295,1.1744608359858393
1789031947467480800,5.484480712890625,-0.1465827462337911,-0.8085819894850254,0.3514586914822459
1789031947477484000,5.494484130859375,0.2701788768947124,-0.5576099173635244,-0.3540922548562288
1789031947487487000,5.504487060546875,-0.30387422574758527,-0.09961305139660835,0.28877076463997364
1789031947497490000,5.514489990234375,-0.8878807132579386,0.23628888225257394,0.90995503629148
1789031947507493000,5.5244931640625,-0.39321130925826725,0.5270873533278704,0.4661304880619049
1789031947517497000,5.5344970703125,0.5423557226736099,1.0050672691375016,-0.04804214637428522
1789031947527500000,5.5445,1.0478548559844494,1.6492039618313312,-0.1932069886341691
1789031947537503000,5.5545029296875,0.9640459613107144,2.290184236320853,0.05220072735846042
1789031947547506200,5.564506103515625,0.6772130328655243,2.584159583866596,0.18364216469228267
1789031947557508400,5.57450830078125,0.5179425083637237,2.5363287421554324,0.139739310079813
1789031947567511600,5.584511474609375,0.34101956892386076,2.565677001714706,0.21545973697453735
1789031947577514500,5.594514404296875,0.19319390995688734,2.3946090719133615,0.13577946653813122
1789031947587517400,5.604517333984375,0.19105214868783948,2.2572674706250426,0.034303543879091736
1789031947597520400,5.614520263671875,0.041937034432217475,2.050935919740796,0.07676789012104272
1789031947607523300,5.6245234375,0.157445647162199,1.7666595439106225,0.16511691244244575
1789031947617526500,5.634526611328125,0.30052498838491737,1.582996336430311,0.23552140501141547
1789031947627529500,5.644529541015625,0.24584413464851676,1.4082453342020511,0.054875791786611075
1789031947637532400,5.654532470703125,0.1738321338176727,1.1642699891000985,-0.049666824966669076
1789031947647535600,5.66453564453125,-0.5903927544813603,1.0562357308387755,0.23154168772548436
1789031947657538300,5.674538330078125,-0.9322739086706191,0.795885589519143,0.39835868208408354
1789031947667541500,5.68454150390625,-0.3455074549276382,0.4178887274622917,0.1618734004765749
1789031947677544400,5.69454443359375,0.08825922514609992,0.2062239988565445,-0.019933950003981588
1789031947687547400,5.70454736328125,-0.29628698548898097,-0.04185059825778007,-0.00495090040564537
1789031947697550600,5.714550537109375,-0.8790108858428894,-0.6456582031726836,0.3072673753172159
1789031947707553300,5.72455322265625,-0.7204138036232441,-0.9774860192507505,0.5032552268415689
1789031947717556500,5.734556396484375,-0.302111453858763,-0.8177204047083855,0.5460448595151305
1789031947727559700,5.7445595703125,-0.16559490521773695,-1.118061780154705,0.594071516059339
1789031947737562400,5.754562255859375,-0.10510405002832413,-1.8344500545889137,0.7410466226115823
1789031947747565600,5.764565673828125,0.017160393637418746,-2.0159996309161183,1.1001441384091972
1789031947757568300,5.774568359375,0.06573080166950822,-1.7213386391937733,1.122138820335269
1789031947767571500,5.784571533203125,-0.04795183774232864,-1.6184376521676778,1.0407081991001963
1789031947777574700,5.79457470703125,-0.07732771596089005,-1.5325380688250063,1.031622390846908
1789031947787577300,5.804577392578125,0.050547261063009497,-1.2028484338194132,0.9929995224639773
1789031947797580500,5.81458056640625,0.07758373654857277,-0.7437205179959535,0.7386120889410376
1789031947807583500,5.82458349609375,0.19962606189623475,-0.2243348250865936,0.3007581395536661
1789031947817586400,5.83458642578125,0.06819836082682013,0.11648059956729412,0.018758768744766712
1789031947827589600,5.844589599609375,-0.4680767998240888,0.3159031017154455,0.2843886040329933
1789031947837592300,5.85459228515625,-0.629673721446842,0.41888066110908984,0.5123001185625792
1789031947847595500,5.864595458984375,-0.45437312251180406,0.6872767462402581,0.5999319325253367
1789031947857598500,5.874598388671875,-0.4851600365720689,0.899302124851942,0.4409206434816122
1789031947867601400,5.884601318359375,-0.680676909583807,0.961964624992013,0.16243600279539822
1789031947877604600,5.8946044921875,-0.941245223698765,1.0221136810064315,0.06712269441932439
1789031947887607600,5.904607666015625,-0.8812344071112572,1.1168851375907658,-0.021344401323795316
1789031947897610500,5.914610595703125,-0.5753120166622102,1.287939623388648,-0.20235300264209508
1789031947907613400,5.924613525390625,-0.5065443315148354,1.538232481074333,-0.3133195149630308
1789031947917616400,5.934616455078125,-0.49333764393925666,1.7545780609726904,-0.35690906584262844
1789031947927619600,5.94461962890625,-0.4790459376059472,1.7970161037296055,-0.4419768745362758
1789031947937622500,5.95462255859375,-0.4518985490918159,1.739608455377817,-0.41146746224313974
1789031947947625500,5.96462548828125,-0.42840296108350157,1.55054718824625,-0.25909488056153057
1789031947957628400,5.97462841796875,-0.6366787779033184,1.0454378579705954,0.08532908997833728
1789031947967631600,5.984631591796875,-0.9192528798602521,0.37196342711150643,0.5714873438075184
1789031947977634300,5.99463427734375,-0.9249728649422526,-0.22821955756545065,0.8450754446238279
1789031947987637500,6.004637451171875,-0.4197695727728307,-0.6660568480789661,0.7492693842947482
1789031947997640400,6.014640380859375,-0.2070565041579306,-0.8764747914940119,0.5659200650691986
1789031948007643400,6.024643310546875,-0.5093393690608442,-0.9863847804993391,0.5427607232779265
1789031948017646600,6.034646484375,-0.41149873416423793,-0.8962433218032121,0.6153618491083384
1789031948027649300,6.044649169921875,-0.14361454407796262,-0.5892758062154054,0.4758572245672345
1789031948037652500,6.054652587890625,-0.24912425229772925,-0.447782345944643,0.293227451787889
1789031948047655400,6.064655517578125,-0.5430921471893787,-0.3211123607963323,0.3383721231549978
1789031948057658400,6.074658447265625,-0.4810134382866323,-0.1967635120719671,0.31663170825093984
1789031948067661600,6.08466162109375,-0.3594436988867819,-0.013072832062840462,0.2871560229197144
1789031948077664300,6.094664306640625,-0.4719513031698763,0.11295242544114589,0.25036036996394395
1789031948087667500,6.10466748046875,-0.6028197629213333,0.23732523956298826,0.24921704514771698
1789031948097670700,6.114670654296875,-0.48705607945173973,0.2137561479270458,0.20813450865298508
1789031948107673300,6.12467333984375,-0.31596681460142134,0.1402963594406843,0.1995759391441941
1789031948117676500,6.134676513671875,-0.13525836527347565,0.04689969834089279,0.11879501398950815
1789031948127679200,6.14467919921875,-0.03161094379425049,0.031311668586730956,0.1266094871327281
1789031948137682400,6.154682373046875,-0.05341477932333946,-0.07643442038297653,0.18943916053324936
1789031948147685600,6.164685546875,0.0011257891595363616,-0.29421967769563195,0.40189357821196314
1789031948157688300,6.174688232421875,0.09168342744112014,-0.6016530572295189,0.5376391424804926
1789031948167691500,6.18469140625,0.1283249127484858,-0.6358984411805868,0.6437967932149767
1789031948177694500,6.194694580078125,0.16564970414489508,-0.6711176385998725,0.3311696444302797
1789031948187697400,6.204697509765625,0.21114567316770552,-0.6374971085488795,0.04079115233272314
1789031948197700600,6.21470068359375,0.2677130713030696,-0.5158019892036915,0.05302285739630461
1789031948207703300,6.224703369140625,0.36383068179935213,-0.5346294392704963,0.04555851286500692
1789031948217706500,6.23470654296875,0.2794178298830986,-0.5969780511558056,-0.11706629050076008
1789031948227709400,6.24470947265625,0.11665449482947587,-0.5037748668015003,-0.20648849501162767
1789031948237713700,6.254713623046875,0.1908557493329048,-0.3667833941251039,-0.36157325826138254
1789031948247716400,6.26471630859375,0.4122691340148449,-0.19944120684862135,-0.5560293701738119
1789031948257719600,6.274719482421875,0.5326537552833557,-0.13256898005902767,-0.45400691954791544
1789031948267722500,6.284722412109375,0.5077066532924771,-0.09064414752125739,-0.28183365885317324
1789031948277725400,6.294725341796875,0.3649440498687327,-0.26840017678439615,0.11807897467464208
1789031948287728600,6.304728759765625,0.2701977277256548,-0.5574152715742587,0.15020751260221005
1789031948297731300,6.3147314453125,0.32655981254726646,-0.5474380674391984,-0.06583207008689641
1789031948307734500,6.324734619140625,0.3509408050879836,-0.2853255926221609,-0.11751666461676359
1789031948317737500,6.334737548828125,0.3289432005524635,0.06447860965132712,-0.10287088414877653
1789031948327740400,6.344740478515625,0.17243892589360474,0.27248247766196726,-0.07737930001765489
1789031948337743600,6.35474365234375,-0.12810849351882933,0.35429333038628097,0.13573212026506662
1789031948347746300,6.364746337890625,-0.2875219336226582,0.15059621965885162,0.24220190568864344
1789031948357749500,6.37474951171875,-0.39720249778628347,-0.2721633287101984,0.5577814745381474
1789031948367752400,6.38475244140625,-0.22760727088600397,-0.6586901187032461,0.7533534387379884
1789031948377755400,6.39475537109375,0.09347294120639563,-0.6564747807413339,0.7494128844186663
1789031948387758600,6.404758544921875,0.09063859456330538,-0.5067752176612615,0.798571467602253
1789031948397761300,6.41476123046875,0.0795572285786271,-0.32419396019876,0.7711962616816163
1789031948407764500,6.424764404296875,0.059175534807145595,-0.028595979887247085,0.6997565808460116
1789031948417767400,6.434767333984375,-0.07406067698895931,0.11710077729225157,0.44328415774255986
1789031948427770400,6.444770263671875,-0.06677285806834697,0.32022154943645,0.17320991026610136
1789031948437773600,6.454773681640625,0.1396981012865901,0.5269564204245806,-0.10492664763480425
1789031948447776500,6.464776611328125,0.2155316331669688,0.518236522874236,-0.43467736517786976
1789031948457779500,6.474779541015625,0.26815496985167264,0.4059469452559948,-0.6746484430745243
1789031948467782400,6.484782470703125,0.2280260808199644,0.23944062428176402,-0.6848781606659293
1789031948477785300,6.494785400390625,0.04001666082888841,0.0071545479297637935,-0.6588634294435382
1789031948487788500,6.50478857421875,-0.17428747636973857,-0.29656419499516484,-0.2513248310819268
1789031948497791500,6.51479150390625,-0.04674363099634647,-0.655861032757163,0.30754093156158924
1789031948507794400,6.52479443359375,0.12501169654726982,-0.8045593098402023,0.4989534379944205
1789031948517797400,6.53479736328125,0.07783376578688621,-0.6775491329520941,0.3793950384169817
1789031948527800600,6.544800537109375,-0.02513882517069578,-0.5168284096419811,0.39000791010707614
1789031948537803500,6.554803466796875,-0.06872282309234141,-0.32541268833875653,0.38781273815035816
1789031948547806500,6.564806396484375,-0.11296207005232572,0.004078209224343299,0.14173516007214784
1789031948557809200,6.57480908203125,-0.1166296526491642,0.22005554033219812,-0.08060790667533874
1789031948567812000,6.58481201171875,-0.06796002202630043,0.3345259691208601,-0.29678982044458385
1789031948577815300,6.594815185546875,-0.1808078180491924,0.3301999226152897,-0.4824027006879449
1789031948587818200,6.604818359375,-0.3461675993368029,0.2340349658459425,-0.44239276186078785
1789031948597821200,6.6148212890625,-0.3671390756949782,0.018045359778404234,-0.28342092804461716
1789031948607824400,6.624824462890625,-0.3346101402729749,-0.23160277026295661,-0.0010065466940402984
1789031948617827000,6.6348271484375,-0.508163749410212,-0.4472860868602991,0.31942192349135873
1789031948627830300,6.644830322265625,-0.628128391700983,-0.5917483338087797,0.5244149192482233
1789031948637833200,6.654833251953125,-0.7126712997376918,-0.6052630644202232,0.6320593014091253
1789031948647836200,6.664836181640625,-0.9006827655553817,-0.4349719642102718,0.849284586751461
1789031948657839400,6.67483935546875,-0.9479565579056739,-0.09004384354054927,0.9426151968777179
1789031948667842000,6.684842041015625,-1.017974096983671,0.2236567796945572,1.0201385815411805
1789031948677845200,6.69484521484375,-0.9098574211359024,0.5286398434668779,1.03706428963989
1789031948687848400,6.704848388671875,-0.762996296352148,0.7672066075235605,1.042683590826392
1789031948697851100,6.71485107421875,-0.5331511834114789,0.9584323592126369,0.7137091183528304
1789031948707854300,6.724854248046875,-0.43498716177940366,1.139975505799055,0.3548094632148742
1789031948717857000,6.73485693359375,-0.216661513979733,1.355700907972455,0.1447694132015109
1789031948727860200,6.744860107421875,0.12099924603551626,1.5644272450387477,-0.04274696257561445
1789031948737863400,6.754863525390625,0.2821905094668269,1.7131676076978444,-0.04226297845095396
1789031948747866000,6.7648662109375,0.09891951617449521,1.4962415975630283,0.2210880982503295
1789031948757869300,6.774869384765625,0.10308101976811886,1.0777017127156256,0.44620968980044123
1789031948767872000,6.7848720703125,0.3702735743284225,0.7914233494132756,0.7017696742340922
1789031948777875200,6.794875244140625,0.6123246733695268,0.5893225679665803,0.8694976459577679
1789031948787878400,6.80487841796875,0.6510451569080352,0.3764367731332779,0.9822153858602046
1789031948797881000,6.814881103515625,0.4254162003576755,0.10868892277777194,1.0446855782985687
1789031948807884300,6.82488427734375,0.279894507484138,-0.10640694932043551,0.9523907409608363
1789031948817887200,6.83488720703125,0.109233404918015,-0.20727146208286285,0.9450050146237016
1789031948827890200,6.84489013671875,-0.141011229711771,-0.22999358150064944,1.074502332152426
1789031948837893000,6.85489306640625,-0.3006974954076111,-0.2877770774275064,1.160727494187653
1789031948847896000,6.86489599609375,-0.2882993477359414,-0.3519961593598127,1.0914546359971165
1789031948857899300,6.874899169921875,-0.14293635255545376,-0.34379823985695834,0.906704510062933
1789031948867902200,6.884902099609375,-0.16398527806401253,-0.36088907538950443,0.8704510011598467
1789031948877906400,6.894906494140625,-0.23624036693572997,-0.7146890693008899,1.0790285774052142
1789031948887909000,6.9049091796875,-0.23988515317887066,-1.027267995029688,1.4802967171952128
1789031948897912300,6.914912353515625,-0.280295489500463,-1.3070914831042288,1.5806851368784904
1789031948907915000,6.9249150390625,-0.1389759244918823,-1.3537819226086139,1.2848314282402395
1789031948917918200,6.934918212890625,0.2066238118290901,-1.0048457353413105,0.9298924934267997
1789031948927921400,6.94492138671875,0.5492933399170636,-0.5236567943572997,0.41263942863196135
1789031948937924000,6.954924072265625,0.3763236681476235,-0.1487228270024061,0.04547755658328533
1789031948947927300,6.96492724609375,0.02744797889590263,-0.08373685235083103,-0.04403174168914556
1789031948957930200,6.97493017578125,-0.12100099960118531,-0.17354221096038816,0.08485416594296694
1789031948967933200,6.98493310546875,0.2629761059090495,-0.37758711221218105,-0.07190875965207814
1789031948977936400,6.994936279296875,1.076477723878622,-0.48906420440375803,-0.32887130436003204
1789031948987939000,7.00493896484375,1.3462944894626736,-0.301597512987256,-0.573694498462975
1789031948997942300,7.0149423828125,1.1379562749311327,0.10793138240873813,-0.8946680353105068
1789031949007945200,7.0249453125,0.8517439626023173,0.6669722093582153,-0.9844599499166011
1789031949017948200,7.0349482421875,0.4471659676119685,1.0782155074566602,-0.7513315775215625
1789031949027951400,7.044951416015625,0.25385522634238006,1.0608312419354915,-0.4553025123164057
1789031949037954000,7.0549541015625,0.42722938725948334,0.7988502845436334,-0.39301761331707236
1789031949047957200,7.064957275390625,0.7330994629994034,0.7227689153820276,-0.5115148134037852
1789031949057960200,7.074960205078125,0.8007017576292157,0.7812111674785613,-0.6775488406911492
1789031949067963100,7.084963134765625,0.6507131484746933,0.8546545893520117,-0.6872679784119129
1789031949077966300,7.09496630859375,0.3354720177993178,0.8687409823715686,-0.5016042447641491
1789031949087969300,7.10496923828125,-0.25773236003667116,0.8411497956126928,-0.08476677992045879
1789031949097972200,7.11497216796875,-0.6919649040564895,0.8265624673336743,0.27756781810224057
1789031949107975200,7.12497509765625,-0.7197381693840026,0.7004623910278082,0.3691770112633705
1789031949117978000,7.13497802734375,-0.6889099004000425,0.531429766446352,0.4385714500069618
1789031949127981300,7.144981201171875,-0.7450126036331057,0.29204584078788753,0.6382242537796496
1789031949137984300,7.154984375,-0.46465983098745345,0.37765725483894347,0.6848205852597952
1789031949147987200,7.1649873046875,-0.3430991516768932,0.646157384866476,0.7107739416837692
1789031949157990100,7.174990234375,-0.35187750141620633,0.6515986991375684,0.6448813735812902
1789031949167993300,7.184993408203125,-0.3541793486177921,0.4282534696102142,0.5213605001136661
1789031949177996000,7.19499609375,-0.5570373781725764,0.2657762580215931,0.6304276085540652
1789031949187999200,7.204999267578125,-0.7594590621367097,0.05610650262534618,0.8361176466643809
1789031949198002200,7.215002197265625,-0.6405752008199691,-0.07729775921404361,0.8436065411150455
1789031949208005000,7.225005126953125,-0.4441369751796126,-0.09315934521257876,0.6541138968288898
1789031949218008300,7.23500830078125,-0.45333764198422427,-0.0731067372649908,0.44153819085806606
1789031949228011000,7.245010986328125,-0.8690227219223976,-0.18522037379443645,0.41358547731041906
1789031949238014200,7.25501416015625,-1.195237374293804,-0.37252106099426746,0.3690095457419753
1789031949248017400,7.265017333984375,-1.0303592390432954,-0.3861117794513702,0.31605536966770886
1789031949258020000,7.27502001953125,-0.6873083104223012,-0.3121960638910532,0.034905016903579236
1789031949268023300,7.285023193359375,-0.4022822852686047,-0.21142039845585822,-0.28080957650244237
1789031949278026000,7.29502587890625,-0.17401771951764822,-0.09314648573100566,-0.5121136560797691
1789031949288029200,7.305029296875,-0.09436638291478157,0.0873591345012188,-0.643798254519701
1789031949298032400,7.315032470703125,-0.514364942137897,0.18838205269575117,-0.5634773480921983
1789031949308035000,7.32503515625,-0.8385206161528825,0.18537644113898277,-0.2694789119318127
1789031949318038300,7.335038330078125,-0.7780065262183546,0.15079904875457287,0.11803513553291559
1789031949328041200,7.345041259765625,-0.712891079968214,0.020894903990626334,0.31278058578073975
1789031949338044200,7.355044189453125,-0.6460451566636563,-0.04216624007821083,0.47046384109109635
1789031949348047400,7.36504736328125,-0.4859209379419684,-0.07763502834439277,0.6803574683710932
1789031949358050000,7.375050048828125,-0.20612258430868385,-0.23796762911975383,0.7544865344211459
1789031949368053200,7.38505322265625,-0.07907149088829755,-0.37757191464304923,0.8570601891890167
1789031949378056200,7.39505615234375,0.06483195313364266,-0.3976560867726803,0.9475324872747063
1789031949388059100,7.40505908203125,0.31277766317129135,-0.6552122134596109,0.6957175345882773
1789031949398062300,7.415062255859375,0.4890037063881755,-0.8544365626871585,0.5590320591211319
1789031949408065300,7.425065185546875,0.5891346441790462,-0.9351876772254705,0.3177639271512627
1789031949418068200,7.435068115234375,0.6202946293354034,-0.891670607060194,0.0023468553870916366
1789031949428071200,7.4450712890625,0.39392888294309375,-0.7806307372421025,-0.17918050910830496
1789031949438074000,7.45507421875,0.1122355093434453,-0.539529486271739,-0.16222002195715904
1789031949448078000,7.465078125,-0.04104249674528837,-0.23950959786474704,-0.07863719112426042
1789031949458081300,7.475081298828125,-0.2034232622221112,0.09115209704339504,-0.1840218116596341
1789031949468084200,7.485084228515625,-0.3434405124604702,0.36414310874938965,-0.3201911542981863
1789031949478087200,7.495087158203125,-0.2572054135531187,0.5291232430696488,-0.3986199633687734
1789031949488090400,7.50509033203125,-0.26539398070573805,0.5895832647293806,-0.35977614571154115
1789031949498093000,7.515093017578125,-0.11096212840676307,0.564514874446392,-0.2388175239473581
1789031949508096300,7.52509619140625,-0.018367723600566387,0.6424713898301124,-0.12214753928780556
1789031949518099200,7.53509912109375,0.10797785189896822,0.7893231622636318,-0.010421733032166957
1789031949528102100,7.54510205078125,0.27913609033226966,0.8948843084096908,-0.363845879368484
1789031949538105300,7.555105224609375,0.3243266466677189,1.0631418569654225,-0.5857146066024899
1789031949548108000,7.56510791015625,0.25540947004705666,1.1384323680102824,-0.3953390420019626
1789031949558111200,7.575111328125,0.19615502478480337,0.8332078966975212,-0.030183249078691004
1789031949568114200,7.5851142578125,0.19358312847018241,0.3120475953310728,0.32312750001102686
1789031949578117000,7.5951171875,0.1852525224983692,-0.3104822457104921,0.388855525201559
1789031949588120300,7.605120361328125,0.20243746605515478,-0.8087257818698883,0.2864440752580762
1789031949598123300,7.615123291015625,0.45027387049943207,-0.9902145679205655,0.02613572725355625
1789031949608126200,7.625126220703125,0.4993351307883858,-1.0949047764509916,0.08783055140525102
1789031949618129200,7.635129150390625,0.2479492171689868,-1.193228957080841,0.45109103210121393
1789031949628132000,7.645132080078125,0.05502426034659147,-1.1012556067824364,0.5923974453672767
1789031949638135300,7.65513525390625,0.0004068272352218628,-0.8266478075295687,0.48523938541859385
1789031949648138200,7.66513818359375,0.0825531955242157,-0.3862023803442716,0.12416267850250005
1789031949658141200,7.67514111328125,0.1377133572101593,0.06405424675941467,-0.269422505569458
1789031949668144000,7.68514404296875,0.14345862286388872,0.2809077761799097,-0.5184934202447533
1789031949678147300,7.695147216796875,0.10464812295436858,0.19007658165395258,-0.7661284568980335
1789031949688150300,7.705150390625,0.0777802820339799,-0.007891630032658576,-0.9590218495383858
1789031949698153200,7.7151533203125,0.07599515218287706,-0.1372510003954172,-1.0546130980730055
1789031949708156200,7.72515625,0.1315112876996398,-0.23783143551945685,-1.118093636597693
1789031949718159000,7.7351591796875,0.23510902481824159,-0.3367816390931606,-1.0217717357009648
1789031949728162300,7.745162353515625,0.06958850001096725,-0.47957682961225506,-0.6028378830999136
1789031949738165200,7.755165283203125,-0.14337503623366354,-0.6867553527146577,-0.18821312586963176
1789031949748168200,7.765168212890625,-0.21227496945858002,-0.8057809605896472,0.012177636788785457
1789031949758171400,7.77517138671875,0.028536358654499053,-0.6716928081393242,-0.05616963098943233
1789031949768174000,7.785174072265625,0.19276099843233824,-0.21819559167921543,-0.17878683361560105
1789031949778177300,7.79517724609375,0.013651800994575023,0.28762510173618794,-0.09666004680991172
1789031949788180200,7.80518017578125,-0.1329687930315733,0.6545955428659915,0.2662961902424693
1789031949798183200,7.81518310546875,-0.51669981482625,0.6706511901319027,0.682181761188805
1789031949808186400,7.825186279296875,-0.8345543428704142,0.33537294133901596,0.7972168381229042
1789031949818189000,7.83518896484375,-0.735427613686025,-0.09131400960683822,0.6374979853317141
1789031949828192300,7.845192138671875,-0.5852344218701124,-0.13912205496430397,0.5260840215042233
1789031949838195200,7.8551953125,-0.40527620638757944,0.07826455841958523,0.38092940837740896
1789031949848198100,7.8651982421875,-0.40513007591515776,0.4056307189136743,0.4439128110349178
1789031949858201300,7.875201416015625,-0.42695963040739293,0.7179945405870676,0.4556856664150953
1789031949868204000,7.8852041015625,-0.5652063638418913,0.7967635413974523,0.4725675353720784
1789031949878207200,7.895207275390625,-0.531617982494831,0.5980623392611741,0.49461570105105634
1789031949888210200,7.905210205078125,-0.5629162070780992,0.2610550747185945,0.3925459041520953
1789031949898213000,7.915213134765625,-0.6396537020608782,-0.05093114581406116,0.4386608818560838
1789031949908216300,7.92521630859375,-0.5002855633810163,-0.2796826182991266,0.3489049153462052
1789031949918219300,7.93521923828125,-0.18326134868115185,-0.2135609176158905,0.22776801440566777
1789031949928222200,7.94522216796875,-0.0046992637321352955,0.062410571205615994,0.16788287002444266
1789031949938225200,7.95522509765625,-0.17905688272863626,0.2731260362625122,0.10292115303128957
1789031949948228000,7.96522802734375,-0.3662482643350959,0.29675065747797486,0.26228929268866774
1789031949958231300,7.975231201171875,-0.38863808305859565,0.15435644897520542,0.32749475530982014
1789031949968234200,7.985234130859375,-0.32535657423734665,0.046585810086131094,0.3132885353028774
1789031949978238200,7.99523828125,0.12020926470160484,0.1292868896484375,0.10807780514210462
1789031949988241200,8.0052412109375,-0.019231062431633472,0.3067752078860998,0.1500149126395583
1789031949998244400,8.015244384765625,-0.3871569045901298,0.24118542212247848,0.31278584647774693
1789031950008247000,8.0252470703125,-0.6829062760710716,0.06184124688506126,0.7207412089467048
1789031950018250200,8.035250244140625,-0.8599626326322555,-0.24713819304704665,0.9925652226999402
1789031950028253400,8.04525341796875,-0.5409115882799029,-0.24990064349770544,0.8420236558377743
1789031950038256000,8.055256103515624,0.025114275251328942,0.026709143227338788,0.419561044588685
1789031950048259300,8.06525927734375,0.229779938749969,0.33929917487204075,0.14873831683248281
1789031950058262000,8.075261962890625,-0.0021498715102672575,0.47258887042105197,0.326467458088696
1789031950068265200,8.08526513671875,-0.19304536833167074,0.4752934532046318,0.5808630749180913
1789031950078268400,8.095268310546874,-0.1937877111315727,0.3590121756017208,0.9726169519096612
1789031950088271000,8.10527099609375,0.1078325982093811,0.1845896746754646,1.0719491405382753
1789031950098274300,8.1152744140625,0.14287497775703667,-0.04173661648929119,1.1247945955410599
1789031950108277200,8.12527734375,0.19247224461883305,-0.2949211039632559,0.8948115354344248
1789031950118280200,8.1352802734375,-0.1376230485782027,-0.42171676131784913,0.8526859196275473
1789031950128283100,8.145283203125,-0.11752718601077794,-0.31786534169912334,0.839967015568912
1789031950138286000,8.1552861328125,-0.03665098378807306,-0.20581658709943293,0.785762547172606
1789031950148289300,8.165289306640625,-0.04725830252021551,-0.39706045896708964,0.6004454350054264
1789031950158292200,8.175292236328126,0.14082710531651974,-0.4201274462997913,0.5680974091082811
1789031950168295200,8.185295166015624,0.3396878819286823,-0.17084990313649176,0.3911883520632982
1789031950178298000,8.195298095703125,0.3626563773229718,0.20667875688672063,0.08583996210992335
1789031950188301300,8.20530126953125,0.13043226029127836,0.33633389532566066,-0.1285024612724781
1789031950198304300,8.21530419921875,-0.03900163856744766,0.11872048744857311,-0.3032458647161722
1789031950208307200,8.22530712890625,-0.14437339962124823,-0.27899171342551704,-0.4083341326534748
1789031950218310100,8.23531005859375,0.1299830552190542,-0.3631961832880974,-0.5027934545487165
1789031950228313000,8.24531298828125,0.19593086064010856,-0.2978378681927919,-0.7258779873132706
1789031950238316300,8.25531640625,0.2013674987360835,-0.2844061396896839,-0.8968912643179296
1789031950248319200,8.2653193359375,0.05833206972032785,-0.14046177913546562,-0.9281409735843539
1789031950258322200,8.275322265625,-0.4919295307070017,0.23732173243165014,-0.6450429938837885
1789031950268325400,8.285325439453125,-0.6453481143102049,0.6945271557599305,-0.16662702474445104
1789031950278328000,8.295328125,0.1956219408214092,0.8222820135354996,-0.09312661198675631
1789031950288331300,8.305331298828126,0.7144239886239171,0.9260545226991176,-0.1046036992907524
1789031950298334200,8.315334228515624,0.45068362034410236,0.8796645274460315,0.09770575647056103
1789031950308337200,8.325337158203125,0.15874796193242072,0.6046417176514863,0.26543431271612644
1789031950318340400,8.33534033203125,0.19121113864183426,0.33696927061975,0.639779082006216
1789031950328343000,8.345343017578125,0.2129363559767604,-0.07701660418510436,0.7637287022799253
1789031950338346200,8.35534619140625,0.39736031869649885,-0.2919780362486839,0.3987041345208883
1789031950348349200,8.36534912109375,0.29116408951729533,-0.32996611385941504,0.33539135377854107
1789031950358352100,8.37535205078125,0.0892474324658513,-0.33236323812901974,0.27358897759914397
1789031950368355300,8.385355224609375,0.33388153373748064,-0.15339724855422973,0.014845686954259871
1789031950378358000,8.39535791015625,0.050014615491032595,-0.24587328767776487,0.0742699358254671
1789031950388361200,8.405361328125,-0.27703327283412216,-0.31888591691851614,0.2504112233683467
1789031950398364400,8.415364501953125,-0.4050304149329662,0.07329729140102863,0.45428252161890265
1789031950408367000,8.4253671875,-0.4363774470940232,0.22158698768317697,0.5166971844777465
1789031950418370300,8.435370361328125,-0.410747039014101,0.2594868024885654,0.4300505821600556
1789031950428373000,8.445373046875,-0.48664136117100715,0.39456455049812794,0.3138146050035953
1789031950438376200,8.455376220703124,-0.6798255534514784,0.5715373204290867,0.24754677384793758
1789031950448379400,8.46537939453125,-0.8137117535889148,0.8768927246451378,0.09657704470157623
1789031950458382000,8.475382080078125,-0.8999465602353215,0.9796721311181783,-0.11759703637659549
1789031950468386000,8.485385986328126,-0.7835796501755714,1.0656430261313914,-0.13492168066501617
1789031950478389200,8.49538916015625,-0.5593175980642437,1.00354108248353,-0.09524871870726347
1789031950488392200,8.50539208984375,-0.3234396347001195,0.8391179975241422,-0.13448533507436514
1789031950498395100,8.51539501953125,-0.15676380237787962,0.7767313917160034,-0.12405278838723897
1789031950508398300,8.5253984375,-0.025411212371289727,0.7818032881528139,-0.1482069864347577
1789031950518401000,8.535401123046874,-0.12130085933059453,0.7466846284985542,-0.19854718061834573
1789031950528404200,8.545404296875,-0.31468145096600053,0.6059773501694202,-0.18034546123445033
1789031950538407400,8.555407470703125,-0.6300859555095434,0.45081659907400606,0.02244622508585453
1789031950548410000,8.56541015625,-0.7323650112450122,0.14076689956188201,0.047015725935995574
1789031950558413800,8.575413818359374,-0.46740328447669743,-0.19189912090599537,0.057225569783151145
1789031950568416800,8.585416748046875,-0.29501433520466086,-0.4438461755394935,0.1435036310493946
1789031950578420000,8.595419921875,-0.25109394493550063,-0.6597504414111376,0.15189327373206615
1789031950588422700,8.605422607421875,-0.2605295895397663,-0.729549369302392,0.22973493056446312
1789031950598425900,8.61542578125,-0.4708677457168698,-0.7961620683729648,0.2833732895106077
1789031950608428800,8.6254287109375,-0.5833659976497292,-0.9022083676874637,0.33723113642632957
1789031950618431700,8.635431640625,-0.5362509029924869,-0.9094932639986276,0.5521174574270844
1789031950628435000,8.64543505859375,-0.48438130728453394,-0.7764975829601287,0.5751128408282995
1789031950638437600,8.655437744140626,-0.5578714909091591,-0.4719371285140514,0.4174047433376312
1789031950648440800,8.66544091796875,-0.7394780581206083,-0.10632394721210002,0.1908727004677057
1789031950658444000,8.675444091796875,-0.6168237383544445,0.17637480403780936,0.09899082784503697
1789031950668446700,8.68544677734375,-0.5437184623941779,0.20929156973361968,0.00011690437793731689
1789031950678450000,8.695449951171875,-0.5447019204735756,-0.022446809607744214,0.2795058004274964
1789031950688452600,8.70545263671875,-0.33996962147951126,-0.47436640148758885,0.5603589238107204
1789031950698455800,8.715455810546874,-0.0652183221027255,-0.8947837706446647,0.44791707824021576
1789031950708459000,8.725458984375,0.15863631825149058,-1.0824117901027202,0.10496464155763387
1789031950718461700,8.735461669921875,0.25032851352095603,-1.1077823782026768,-0.07477905439138412
1789031950728465000,8.74546484375,0.08658405847549439,-1.1547335144698618,0.10242752429544925
1789031950738467800,8.7554677734375,0.1982858993336558,-0.9751625447392464,0.3149275346815586
1789031950748470800,8.765470703125,0.3074924162447452,-0.6868143894255161,0.22829905254244803
1789031950758474000,8.775473876953125,0.4935816818282008,-0.269814135235548,-0.2627054722741246
1789031950768476700,8.7854765625,0.41304917847663164,0.20075287396907804,-0.6622811289325357
1789031950778479900,8.79547998046875,0.25443390301316976,0.4529448432743549,-0.5985828560039401
1789031950788482800,8.80548291015625,0.24216771115809677,0.34096330869197844,-0.32360008595883843
1789031950798485800,8.81548583984375,0.31116555179953576,0.15931202555596827,-0.013459493292868137
1789031950808489000,8.825489013671875,0.25875907273590565,-0.15809271289408205,0.43304362649619577
1789031950818492000,8.835491943359376,0.44653176136165856,-0.4288865068167448,0.3740966397479176
1789031950828494800,8.845494873046874,0.641771132606268,-0.5818243211656808,0.24615385818481444
1789031950838497800,8.855497802734375,0.7141065932378172,-0.45077743610739707,0.057439504794776435
1789031950848500700,8.865500732421875,0.7733119386613369,-0.1800333265453577,-0.2023930423915386
1789031950858504000,8.87550390625,0.8202738885834813,-0.02829202850461006,-0.3970215882614255
1789031950868507000,8.8855068359375,0.6282791983485222,-0.06896598419845104,-0.4657531791821122
1789031950878509800,8.895509765625,0.19728899725079535,-0.25049217965006826,-0.42844753087759013
1789031950888512800,8.9055126953125,0.14969927081912754,-0.4118880257427692,-0.5511772539675236
1789031950898516000,8.915515869140625,0.25723171703815456,-0.4545961176127195,-0.6431944434076547
1789031950908519000,8.925518798828126,0.2981321749642491,-0.515877392527461,-0.5261012648999691
1789031950918521900,8.93552197265625,0.3558522502660751,-0.6462929939448833,-0.5247764460369945
1789031950928524800,8.94552490234375,0.3521659629687667,-0.6928676981151104,-0.4910319973453879
1789031950938527700,8.95552783203125,0.3409092404171824,-0.5791594858705997,-0.3495271388977766
1789031950948532000,8.965531982421876,0.64248512609452,-0.32828853603601454,-0.44152503911554813
1789031950958534700,8.97553466796875,0.6087573362767696,0.16605331650972366,-0.4494301131516695
1789031950968537900,8.985537841796875,0.4720309442773461,0.4952823482662439,-0.34514702411741016
1789031950978540800,8.995540771484375,0.21699469145685432,0.5993120470613241,-0.06244914965033531
1789031950988543700,9.005543701171876,-0.10621142674833535,0.3501543308854103,0.13934125067293643
1789031950998547000,9.015546875,-0.09853606981486082,-0.10982698689699172,0.22351152600497007
1789031951008550000,9.0255498046875,0.029435353320837018,-0.14117548036277294,0.0830500391304493
1789031951018552800,9.035552734375,0.06409282520413398,0.07729483660459519,-0.08467208737432956
1789031951028555800,9.0455556640625,0.07892682172060013,0.2979734772711992,-0.04913578682988882
1789031951038558700,9.055558837890626,-0.04919190093129873,0.5110702845066786,0.001590191800892353
1789031951048562000,9.06556201171875,-0.2502288525387645,0.5469201810449361,0.034139293228089805
1789031951058564900,9.07556494140625,-0.05345657263845205,0.47304596653878683,-0.05927285770177841
1789031951068567800,9.08556787109375,-0.21147855838388202,0.4979530287802219,-0.10886515612751245
1789031951078570800,9.09557080078125,-0.2780608623161912,0.577073911768198,-0.03632686640024185
1789031951088574000,9.105573974609374,-0.17951427110731602,0.5976426525443792,-0.18643004184514284
1789031951098577000,9.115576904296875,-0.503312802247703,0.4427940361380577,-0.13103110296726225
1789031951108579800,9.125579833984375,-0.5631146522596479,0.06801262899637221,0.32882045095562934
1789031951118582800,9.135582763671875,-0.7345654438987373,-0.3582528816670179,0.6057455872401595
1789031951128585700,9.145585693359376,-0.8854851964235305,-0.8449316522389649,0.622621026456356
1789031951138589000,9.1555888671875,-0.3680497607991099,-1.1075737038880586,0.3861284383252263
1789031951148591900,9.165591796875,-0.1736456713348627,-0.9369470881134271,0.4283122140601277
1789031951158594800,9.1755947265625,-0.03525660682022572,-0.6822329068541526,0.5733247883677483
1789031951168598000,9.185597900390626,-0.10312105951756238,-0.317491247689724,0.5772738182544708
1789031951178600700,9.1956005859375,-0.6020245208904147,0.031895021432638164,0.7832830053165555
1789031951188604000,9.20560400390625,-0.6213803787454962,0.2663122645944357,0.6237070681273937
1789031951198606800,9.21560693359375,-0.8057681011080742,0.3966296663343906,0.6698752373233438
1789031951208609800,9.22560986328125,-0.9366124493315815,0.23939152444303036,0.7484048764199018
1789031951218613000,9.235613037109376,-0.5574196554884314,0.09643617492616176,0.6478717875689268
1789031951228615700,9.24561572265625,-0.5735597661674022,0.042081484404206275,0.8974141191482543
1789031951238619000,9.255618896484375,-0.6235898714885115,-0.04894494043290615,0.8861565198138356
1789031951248621800,9.265621826171875,-0.635512072211504,0.006223404559493065,1.0926859313577413
1789031951258624800,9.275624755859376,-0.5189090153083205,0.07024316452741622,1.1197200687557458
1789031951268628000,9.2856279296875,0.008747954601049423,0.2572702954828739,0.5536734546974301
1789031951278630700,9.295630615234375,0.15239917742758988,0.4959539639174938,0.17130612247139215
1789031951288633900,9.3056337890625,-0.11038637434542178,0.4397691353589296,0.09537234508693218
1789031951298636800,9.31563671875,-0.19541502007246017,0.0742874714821577,0.06321458106487989
1789031951308639700,9.3256396484375,-0.32375264617204663,-0.37056758883893487,0.41215953616052864
1789031951318643000,9.335642822265624,-0.005455927318334579,-0.8260475035488605,0.4626254025503993
1789031951328646000,9.34564599609375,0.5272621253728866,-1.0011907199651002,0.22536533717811105
1789031951338648800,9.35564892578125,0.8544730953052639,-0.8489642687559127,0.08204173887073993
1789031951348651800,9.36565185546875,0.891665054102242,-0.5461731620699167,0.02215425640195608
1789031951358654700,9.37565478515625,0.7628498736187815,-0.3386456793993711,-0.0021174305453896523
1789031951368658000,9.385657958984375,0.710406861937046,-0.10329203217029571,-0.056364276778697965
1789031951378660900,9.395660888671875,0.4552469827368855,0.17769699255228041,0.060442486003041265
1789031951388663800,9.405663818359375,0.36698125478476284,0.19026187509298323,-0.04670242220312357
1789031951398666800,9.415666748046876,0.43834903942793607,0.2120136881738901,-0.26453385674506424
1789031951408670000,9.425669921875,0.293208747087419,0.14091478359997273,-0.32585780175775286
1789031951418673000,9.4356728515625,0.1699582149937749,0.04613923536241054,-0.239449976631999
1789031951428676900,9.4456767578125,0.23147855936139822,-0.08397592180371284,-0.06791384479701519
1789031951438679800,9.4556796875,0.35703181543946266,-0.27682839791178704,0.036837154009938235
1789031951448682800,9.465682861328125,0.4296913934588432,-0.21245091054737567,-0.10358400085419416
1789031951458686000,9.47568603515625,0.5620139975413679,-0.10547697499394416,-0.2078092222213745
1789031951468688600,9.485688720703125,0.17404957596063614,0.05867021563351154,-0.24118045368641614
1789031951478691800,9.49569189453125,-0.03864508021473884,0.4625397700935602,-0.3047334729254246
1789031951488694800,9.50569482421875,-0.36517215953618287,0.572457942405343,-0.10161007043272256
1789031951498697700,9.51569775390625,-0.32341099312752486,0.30919980468451974,-0.08526917648464441
1789031951508701000,9.525700927734375,0.10989742178469895,0.4138151944130659,-0.16298077719658613
1789031951518703900,9.535703857421876,0.13268325408846138,0.7843775225549936,-0.06186433549970388
1789031951528706800,9.545706787109374,0.2211591176599264,1.000865141272545,-0.1497609378784895
1789031951538709800,9.555709716796875,0.030556758566200732,1.2076344990521668,-0.14955810878276823
1789031951548712700,9.565712646484375,-0.24614772070497273,1.1756447850733995,-0.1142716913461685
1789031951558716000,9.5757158203125,-0.21743775904923676,1.1244663865000009,-0.24453444028943774
1789031951568718600,9.585718505859376,-0.47803339956253765,0.945776291257143,-0.22186346653699873
1789031951578721800,9.5957216796875,-0.5073223301500082,0.6486579695105552,-0.04577040205001831
1789031951588724700,9.605724853515625,-0.38615883346349,0.5203098220169544,0.052984571212530134
1789031951598727700,9.615727783203125,-0.5476622315838933,0.4128752832144499,0.27913462902754543
1789031951608731000,9.62573095703125,-0.5019686941623688,0.23267595245242118,0.3753811266005039
1789031951618733600,9.635733642578124,-0.39842502531856294,0.24070611417293547,0.46405251274406906
1789031951628736800,9.64573681640625,-0.32090251743793485,0.14506547353863716,0.5989388298347592
1789031951638739700,9.65573974609375,-0.12123334705233574,0.039974867513775825,0.4888859252274036
1789031951648742700,9.66574267578125,-0.24836598127633333,-0.0106704470962286,0.31587767501324415
1789031951658745900,9.675745849609376,-0.3997700101867318,-0.09225976602435111,0.22921382929980755
1789031951668748500,9.68574853515625,-0.662832625335455,-0.31473814958930013,0.16520663655251264
1789031951678751700,9.695751708984375,-0.36500820114612575,-0.4946902275919914,0.3638239597976208
1789031951688754700,9.705754638671875,0.05195201329439878,-0.5531260499477386,0.36394670939445495
1789031951698757600,9.715757568359376,-0.02681201907992363,-0.5536807612210511,0.19717647678703068
1789031951708760800,9.7257607421875,-0.2201969946295023,-0.6261445244073868,0.15743103411495685
1789031951718763800,9.735763671875,-0.5160021879509091,-0.6808943517267704,0.26782705307155846
1789031951728766700,9.7457666015625,-0.5629366653442383,-0.6341290934205055,0.5374848287016153
1789031951738769700,9.755769775390625,-0.23572364958524702,-0.4454559488236904,0.4483461173072457
1789031951748772600,9.765772705078126,-0.021430618302524088,-0.0869406168282032,0.3329325624495745
1789031951758775800,9.77577587890625,-0.09774696526378393,0.14292787698805332,-0.020983166795969007
1789031951768778800,9.78577880859375,-0.2977747398287058,0.1811959405839443,-0.07414864753335713
1789031951778781700,9.79578173828125,-0.2093099821731448,0.0317541516572237,0.01787526390850544
1789031951788784600,9.80578466796875,-0.4075321686208248,-0.1702595360279083,0.06052198098003864
1789031951798787600,9.81578759765625,-0.5045031810760497,-0.5614315214782953,0.21828210091888903
1789031951808790800,9.825790771484375,-0.2524292851924896,-0.9745359372735023,0.37142946636527774
1789031951818793700,9.835793701171875,-0.2794111078813672,-1.0362807380467653,0.6108703829079866
1789031951828796700,9.845796630859375,0.03464987309873104,-0.7052320896476507,0.4603565808355808
1789031951838799600,9.855799560546876,0.4222632892847061,0.008668459624052048,-0.09435264665037393
1789031951848802800,9.865802734375,0.01194791968613863,0.7871043171703815,-0.4423506762847304
1789031951858805800,9.8758056640625,-0.49551849510967727,0.9851403333961963,-0.06156359898746013
1789031951868808700,9.88580859375,-0.5604208831310272,0.5026818108677864,0.3994473541036248
1789031951878812700,9.895812744140626,-0.4567924586132168,-0.154099843865633,0.5465189067676663
1789031951888815600,9.905815673828124,-0.21561843466758726,-0.8728717985659837,0.45480479192733764
1789031951898818800,9.91581884765625,0.30790362739413973,-1.3903274001955985,-0.13383388542830943
1789031951908821800,9.92582177734375,0.5983680442094802,-1.3731319352447986,-0.7066048393055796
1789031951918824700,9.93582470703125,0.46535395073145625,-0.9381570484250783,-0.4985340435385704
1789031951928827600,9.94582763671875,0.357756622582674,-0.46040626519620415,-0.38967122549861666
1789031951938830600,9.95583056640625,0.4268602616861462,0.0951928968667984,-0.4997136087119579
1789031951948833800,9.965833740234375,0.4054474713012576,0.45483109541237354,-0.6069429803311824
1789031951958836700,9.975836669921875,0.1614379316687584,0.3826519943863153,-0.7754729160875081
1789031951968839700,9.985839599609376,0.25321605165600775,0.00419277551472187,-0.800139739832282
1789031951978842600,9.995842529296874,0.2823249495014548,-0.3615601065188646,-0.6006839199364185
1789031951988845800,10.005845703125,0.3799839442208409,-0.5284732547283172,-0.5427347120538354
1789031951998848800,10.015848876953125,0.5726604792401194,-0.4763251343399286,-0.7066089309588074
1789031952008851700,10.025851806640626,0.8025216665327548,-0.17491174574792384,-0.7515721082791685
1789031952018854700,10.035854736328124,0.7375766084134578,0.146527947306633,-0.730754068917036
1789031952028857600,10.045857666015625,0.5452236062601208,0.2908680291801691,-0.6227315010935067
1789031952038860800,10.05586083984375,0.48162090266048907,0.2242138290554285,-0.28999826060831546
1789031952048863700,10.06586376953125,0.42530163406729693,0.025196400576829907,-0.15600041678994894
1789031952058866700,10.07586669921875,0.175899880002439,-0.23917232873439787,-0.15377338839024304
1789031952068870000,10.085869873046875,-0.06562076542377472,-0.5241805259704589,0.04614332701563835
1789031952078872600,10.09587255859375,-0.29120909770280123,-0.8576070094168186,0.126660048276186
1789031952088875800,10.105875732421875,-0.18292846346497535,-0.9499737429469823,0.28146511780172584
1789031952098878700,10.115878662109376,-0.094085812407732,-0.704009854376316,0.20760814669132233
1789031952108881700,10.125881591796874,-0.06441752711385489,-0.18801321938335894,-0.10081512066274881
1789031952118884900,10.135884765625,-0.0874652252241969,0.5059545489281415,-0.06574497632533312
1789031952128887600,10.145887451171875,-0.3194999571636319,1.0302204150944947,0.04790244564265012
1789031952138890800,10.155890869140626,-0.5559647805050015,1.1039765561789274,0.21823855403810738
1789031952148893700,10.165893798828124,-0.5615241681978106,0.7296990069061517,0.4306885878026485
1789031952158896600,10.175896728515625,-0.27830226985663176,0.26872633999884127,0.33129882376790043
1789031952168899800,10.18589990234375,-0.09428338080644608,0.19016367541551588,0.1968321933940053
1789031952178902500,10.195902587890625,-0.21774287947565316,0.18672201052904128,0.14019582167565822
1789031952188905700,10.20590576171875,-0.23380641778707503,0.01604746395945549,-0.03842559224516153
1789031952198909000,10.215908935546874,-0.1124663954898715,-0.09438801022469998,0.16157061813771723
1789031952208911600,10.22591162109375,0.29248130959570406,-0.044537645384669304,0.2588727622434497
1789031952218914800,10.235914794921875,0.21927841847985982,-0.10298808078765868,0.14420388827323913
1789031952228917500,10.24591748046875,0.0144043729275465,-0.23784955569803715,0.22524843280017376
1789031952238920700,10.255920654296874,0.08618453776389359,-0.12344108622968196,0.3271250452145934
1789031952248924000,10.265923828125,0.08558657187074423,0.025657003825902937,0.3419169561550021
1789031952258926600,10.275926513671875,-0.10064473253190517,0.07077215683758259,0.45520255907326934
1789031952268929800,10.2859296875,-0.0028977672681212425,-0.03067103259563446,0.4578282314017415
1789031952278932700,10.2959326171875,-0.35012831966131924,-0.2954986115902662,0.7322887311384081
1789031952288935700,10.305935791015624,-0.47046617917865513,-0.6285936711251735,0.8432081894472241
1789031952298938600,10.315938720703125,-0.16342033765763042,-0.7930150025188922,0.8092486367002129
1789031952308941600,10.325941650390625,-0.05628975023776293,-0.882399505367875,0.9297264892101287
1789031952318945500,10.335945556640626,0.22673487196564673,-0.8979840279906988,0.7191583236694336
1789031952328948700,10.34594873046875,0.26866818007081744,-0.6175526371508836,0.733217828682065
1789031952338952000,10.355951904296875,-0.055017538344860076,-0.47477147515714163,0.978507178992033
1789031952348954600,10.36595458984375,0.16387275760024786,-0.1344756904631853,0.8547177177160978
1789031952358957800,10.375957763671876,0.32404929103106256,0.2465823127299547,0.5298831215262413
1789031952368960500,10.38596044921875,0.2856672456666827,0.529271711629629,0.09534253447055815
1789031952378963700,10.395963623046875,-0.06704349170327187,0.762625124952197,0.06664221742600202
1789031952388967000,10.405966796875,-0.16220570117086172,0.7123246782571077,-0.03155950586795807
1789031952398969600,10.415969482421875,-0.07689297780543565,0.5342535916954279,0.07018178972899913
1789031952408972800,10.425972900390626,0.003550678218901157,0.3805471310615539,0.1781850683301687
1789031952418975500,10.4359755859375,0.11033347511440515,0.5460585957795381,-0.008693009543418884
1789031952428978700,10.445978759765625,0.04031652055829763,0.6339408773720264,-0.16397212632149458
1789031952438982000,10.45598193359375,0.13049655769914387,0.6060790569782257,-0.3314294644102454
1789031952448984600,10.465984619140626,0.03347936801463365,0.5003875624507665,-0.3740761814817786
1789031952458987800,10.47598779296875,-0.3103782008141279,0.20801731201410292,-0.19234715693444013
1789031952468990700,10.48599072265625,-0.027506284954398868,0.026806173861026763,-0.24333120197951794
1789031952478993700,10.49599365234375,0.20052724851965903,0.05717851577103138,-0.3766948395475745
1789031952488996900,10.505996826171875,0.15170651898831128,-0.043076925182342525,-0.3294257233723998
1789031952498999600,10.51599951171875,0.16243278792500496,-0.4836673137962818,-0.20913141073584554
1789031952509002800,10.526002685546874,0.13607172748297452,-0.6783283006310462,-0.21345511915385723
1789031952519005700,10.536005615234375,0.23725758115425705,-0.3598322598129511,-0.18258710268139838
1789031952529008600,10.546008544921875,0.0657373775407672,-0.03234451876580715,-0.1969692637771368
1789031952539011800,10.55601171875,-0.36449615997076035,0.07753507510125636,-0.2026312350615859
1789031952549014800,10.566014892578124,-0.6798679312884807,-0.14791151061952112,0.015625439155101777
1789031952559017500,10.576017578125,-0.7999297503434121,-0.5231617043167353,0.14032675457894803
1789031952569020200,10.586020263671875,-0.45411388705372807,-0.4673240817606449,0.3334340822309255
1789031952579023400,10.5960234375,-0.047076223951578136,-0.008691255977749824,0.27833471082150935
1789031952589026600,10.606026611328126,0.3609516192317009,0.7025158164262771,0.05364303512126207
1789031952599029200,10.616029296875,0.42748745367377994,1.0991472363263368,0.051500762395560735
1789031952609032400,10.626032470703125,0.38594226810336113,1.2099030285060406,0.12053192078471182
1789031952619035100,10.63603515625,0.17098945773765445,1.3661106583058833,0.35021541342288254
1789031952629038300,10.646038330078126,-0.10029431165903806,1.290688629835844,0.5487967885717749
1789031952639041500,10.65604150390625,-0.32153146299123764,0.958025531977415,0.7856184625267982
1789031952649044200,10.666044189453125,-0.30629093150049447,0.6813526168882846,1.0076417958006263
1789031952659047400,10.67604736328125,-0.07311316700577736,0.34243279672265053,0.9143044636726378
1789031952669050000,10.686050048828125,0.09220993553325534,0.28552374554276466,0.6558481732755899
1789031952679053300,10.69605322265625,0.00890840585976839,0.3690384795755148,0.31487726579904557
1789031952689056500,10.706056396484374,0.004208995997160673,0.4581985260188579,0.0016565350353717804
1789031952699059200,10.71605908203125,-0.05475128862410784,0.5588631322950124,-0.22960019826889036
1789031952709062400,10.7260625,0.08322890282869339,0.6594581804662942,-0.3654436699539423
1789031952719065300,10.7360654296875,0.23709376889467237,0.8360399052530527,-0.46927404678463935
1789031952729068300,10.746068359375,-0.017968202888965605,0.8586381060302257,-0.26654607335031033
1789031952739071500,10.756071533203125,-0.34223552058488127,0.5171867215603589,-0.042996553422510624
1789031952749075500,10.766075439453125,-0.36953576157316564,0.07450374458134174,0.016893851655721662
1789031952759078100,10.776078125,-0.1701554911315441,-0.28522797746658324,0.2384779167294502
1789031952769081300,10.786081298828124,-0.04860065703988075,-0.587297784140706,0.32553163854330774
1789031952779084500,10.79608447265625,-0.3414674588218331,-0.8024690595626831,0.40653088262379167
1789031952789087200,10.806087158203125,-0.6187503225028514,-1.0075877275258303,0.5735130044162273
1789031952799090400,10.81609033203125,-0.20338760638684034,-1.1237585304915905,0.44558191329091784
1789031952809093000,10.826093017578126,-0.010007891534268856,-0.9773696993947029,0.5059858208492398
1789031952819096300,10.836096435546875,0.039162966609001156,-0.7344517543911934,0.5705085619032383
1789031952829099500,10.846099609375,-0.01773760900348425,-0.24174480957090852,0.5354810876637697
1789031952839102200,10.856102294921875,-0.32059330535829067,0.1789747574031353,0.7137181784421205
1789031952849105400,10.86610546875,-0.23414748630970716,0.3090671182155609,0.6905956615298986
1789031952859108400,10.8761083984375,-0.3554679271236062,0.23058628669679163,0.6853349645227194
1789031952869111300,10.886111328125,-0.3466518757224083,0.032414076870679855,1.023933005388081
1789031952879114500,10.896114501953125,-0.0006543722555041313,-0.20763094304502008,1.1604893015176057
1789031952889117200,10.9061171875,0.19520137732177972,-0.356083720934391,0.8344675413697957
1789031952899120400,10.916120361328124,0.08136281669586896,-0.4118149605065584,0.3713984867051244
1789031952909123300,10.926123291015625,0.07322071903347968,-0.32773440928459163,-0.17728402783721683
1789031952919126300,10.936126220703125,-0.13243307871967552,-0.40617549331486225,-0.4429872206225991
1789031952929129500,10.94612939453125,-0.3683411449611187,-0.6474860031217337,0.010663725094497202
1789031952939132400,10.95613232421875,-0.21898966466635464,-1.2392214774489403,0.8350880113556981
1789031952949135400,10.96613525390625,0.2803615404739976,-1.7027192789196968,1.1003615805521607
1789031952959138300,10.97613818359375,0.8233192476287484,-1.469566941127181,0.6444888671323656
1789031952969141200,10.986141357421875,0.995609120440483,-0.8079740867197513,-0.016580547922849655
1789031952979144400,10.99614453125,0.7952955146715045,0.1302192020624876,-0.4794759995862841
1789031952989147400,11.0061474609375,0.3048161827728152,0.5274807365596295,-0.22227000151127577
1789031952999150300,11.016150390625,0.27981793511658903,0.11348434036076069,-0.16962182264626025
1789031953009153300,11.0261533203125,0.34511925932765003,-0.4959153854727745,-0.25005261918902394
1789031953019156200,11.03615625,0.4342912884697318,-1.1449100395917893,-0.32992256697863337
1789031953029159400,11.046159423828126,0.7363701552331448,-1.3973217891275882,-0.48765199951827526
1789031953039162400,11.056162353515624,0.8018547270566224,-0.7989794638812542,-0.40409459538757797
1789031953049165300,11.066165283203125,0.7458841257706285,0.03361760744154453,-0.45187458369433875
1789031953059168300,11.076168212890625,0.5970999239698052,0.5840758994847536,-0.2742477337688207
1789031953069171500,11.08617138671875,0.6001204408347607,0.8832271883636712,0.2845695135578513
1789031953079174400,11.09617431640625,0.5721294411033392,1.0066665210276842,0.5024135153204202
1789031953089177300,11.10617724609375,0.3560208848312497,0.6370259839057922,0.27242490225583316
1789031953099180300,11.11618017578125,0.5183958050891757,0.15379296987354754,0.39534517948180437
1789031953109183200,11.126183349609375,0.4401496591091156,-0.21202070243656634,0.4233522535651922
1789031953119186400,11.1361865234375,0.3428825863167643,-0.4638146123349666,0.3567527062371373
1789031953129189400,11.146189453125,0.22699469194561242,-0.40543198147118087,0.43948242737203835
1789031953139192300,11.1561923828125,0.014606325240433215,-0.2846650828868151,0.3276122442096472
1789031953149195500,11.166195556640625,0.1578703023150563,-0.0414788423359394,0.27422289158850904
1789031953159198200,11.1761982421875,0.020250468607246875,0.2371323473393917,0.21681933488994837
1789031953169202400,11.186202392578124,-0.10422376006245612,0.3508569261968136,0.25801117697805165
1789031953179205400,11.196205322265625,0.03548895427137613,0.3462713519722223,0.11492138742655515
1789031953189208300,11.206208251953125,-0.13480623759180307,0.38177930320501324,-0.17002163561880587
1789031953199211300,11.216211181640626,-0.16397475666999817,0.4278308602839708,-0.1897749683588743
1789031953209214500,11.22621435546875,-0.077587974332273,0.4369453101098537,-0.27577012103050946
1789031953219217400,11.236217529296875,-0.058819268715381616,0.30238954014778135,-0.10881985568106174
1789031953229220400,11.246220458984375,0.032416707219183445,0.13916121793091296,0.36399025627523657
1789031953239223300,11.256223388671875,-0.22540566918849944,0.008967150309681891,0.772045279726386
1789031953249226200,11.266226318359376,-0.2491907416626811,-0.01393032567501068,0.9054229458197951
1789031953259229400,11.2762294921875,-0.1143310203179717,0.08738777607381343,0.7541989496514201
1789031953269232400,11.286232421875,0.02393880173116922,0.22842004857361314,0.6491720565125346
1789031953279235300,11.2962353515625,0.3142638100758195,0.3811871825307607,0.3693605511367321
1789031953289238500,11.306238525390626,-0.012264146028459072,0.4199374766856432,0.6326479149520396
1789031953299241200,11.3162412109375,-0.15133008689135313,0.15433131453394888,0.701451109804213
1789031953309244400,11.326244384765625,-0.26918811229169365,-0.12192132931649684,0.9884124869346618
1789031953319247400,11.336247314453125,-0.09161883777230978,-0.35564182238578795,1.0949828101232648
1789031953329250300,11.346250244140625,0.2219327323809266,-0.3748439509838819,0.7996040255203842
1789031953339253500,11.35625341796875,0.3234261906966567,-0.35662498820424077,0.5808329720407724
1789031953349256200,11.366256103515624,0.4326435212627053,-0.2856155154794454,0.872699656869471
1789031953359259400,11.37625927734375,0.1714253649368882,-0.3017477351129055,1.420433492384851
1789031953369262300,11.386262451171875,0.06782090581655502,-0.4093991315364837,1.3435320390120147
1789031953379265300,11.396265380859376,0.157880239187181,-0.3815566003650427,0.8962973900780081
1789031953389268500,11.4062685546875,0.2741059872105717,-0.32199148171842096,0.6398252592355013
1789031953399271200,11.416271240234375,0.31248101831227537,-0.3411100236862898,0.6862006414413452
1789031953409274400,11.4262744140625,0.6855050603926182,-0.19193360769748688,0.6573842968016862
1789031953419277300,11.43627734375,0.8273658926710485,0.17134440865516662,0.6156187464788556
1789031953429280300,11.4462802734375,0.5331204960122704,0.5195511126041412,0.40692514263838525
1789031953439283500,11.456283447265625,0.0871864082828164,0.764658092084527,0.31154139937460423
1789031953449286100,11.4662861328125,-0.3063689651727676,0.5443003539353609,0.46022535567134615
1789031953459289300,11.476289306640625,0.35416795044094324,0.1832522885918617,0.5236287373065949
1789031953469292300,11.486292236328126,1.5250892141237855,0.13010755838155746,0.22503215970098972
1789031953479295200,11.496295166015624,2.009357416422665,0.30006080493927,-0.4011880602911114
1789031953489298400,11.50629833984375,1.3339277598425745,0.332957696890831,-0.41042321388721464
1789031953499301400,11.51630126953125,0.0801154469832778,-0.10273965898454189,0.20744214247465131
1789031953509304300,11.52630419921875,-0.24566402884125707,-0.8506623048454522,1.0043892237454652
1789031953519307300,11.536307373046874,0.12852584214806556,-1.3458324249088764,1.3094406765788793
1789031953529310200,11.546310302734375,0.47628363328576084,-1.0026759900867939,0.46872868786156174
1789031953539313400,11.5563134765625,0.45404169860035176,0.15924363649487494,-0.7348059746563435
1789031953549316400,11.56631640625,-0.032953006052970885,0.8658750715464353,-1.6568907169416547
1789031953559319800,11.57631982421875,-1.0363771841585636,0.9352700948119163,-2.1160399678140878
1789031953569322800,11.58632275390625,-1.478048938268423,0.7422861012786627,-1.8727426681041717
1789031953579326000,11.596325927734375,-0.9946876216813921,0.267456758454442,-1.2677286100089549
1789031953589329700,11.60632958984375,-0.42689474847763775,-0.15373159507513046,-0.8338996783539653
1789031953599332900,11.616332763671876,-0.018490765458345413,-0.08190905240178108,-0.649518093471229
1789031953609335800,11.626335693359374,0.09765519532710314,0.4851736267060041,-0.5994947101518512
1789031953619338800,11.6363388671875,-0.011012392401695251,0.983954923003912,-0.3320148630827665
1789031953629342000,11.646342041015625,-0.12992869468331336,0.9673726215153932,-0.03288374020904302
1789031953639345000,11.656344970703126,-0.1225461832165718,0.7869681235700845,0.27270167337059975
1789031953649347800,11.666347900390624,0.17601210820525884,0.8064905701637267,0.3192220170050859
1789031953659350800,11.676350830078125,0.45077188314944505,0.8031038503348827,0.14119973802119493
1789031953669353700,11.686353759765625,0.6120414725139737,0.82856620837152,-0.03920154505372047
1789031953679357000,11.69635693359375,0.08202507999688387,0.8393453765392302,-0.0651379503428936
1789031953689360000,11.70635986328125,-0.8821712495699524,0.4957786073505878,0.23834172312915325
1789031953699362800,11.71636279296875,-1.3693348810493946,-0.024168226572871206,0.8864607634574174
1789031953709365800,11.72636572265625,-0.7406564542502164,-0.3601058160573244,0.9547697450518607
1789031953719369000,11.736368896484375,-0.22392916689515113,-0.4780056347727775,0.5463134473234414
1789031953729372000,11.746371826171876,-0.32245997601300475,-0.5139040466278791,0.222888717931509
1789031953739374800,11.756374755859374,-0.4489376534596085,-0.47094168773591516,0.09486994852274656
1789031953749377800,11.766377685546875,-0.48556671767681836,-0.23840368244946,0.137689684073627
1789031953759380700,11.776380615234375,-0.44336569854617114,-0.034544074636697765,-0.050690030534565444
1789031953769384000,11.786384033203126,-0.24724077663868665,0.10100830514729023,-0.5201078697040676
1789031953779387000,11.796386962890624,-0.4522708895355463,0.20606033272743224,-0.6718512135714292
1789031953789389800,11.806389892578125,-0.5361819294095039,0.1409510239571333,-0.7177209843426943
1789031953799393000,11.81639306640625,-0.6298878025889396,-0.011762918508052824,-0.40731648004353044
1789031953809395700,11.826395751953125,-0.4418906575575471,-0.24432839632332323,0.10717150395214557
1789031953819399000,11.83639892578125,-0.06755319479107856,-0.6102572194457053,0.09940642290860414
1789031953829401900,11.84640185546875,0.03454261333197355,-1.0164800590336323,-0.05748071358799934
1789031953839404800,11.85640478515625,0.291060336881876,-1.1902800441473722,-0.08315671437531709
1789031953849408000,11.866407958984375,0.1730921291053295,-1.1226000081062317,-0.07375234169214963
1789031953859410700,11.87641064453125,0.02894347815066576,-0.8201870870828628,0.1083005079820752
1789031953869414000,11.886413818359374,0.18871289208531378,-0.4677852695316076,-0.14495382985770702
1789031953879416800,11.896416748046875,0.025048808799684047,-0.021832477101683616,-0.4059545440405607
1789031953889419800,11.906419677734375,-0.009142214615643024,0.3008662761032581,-0.3261962399318814
1789031953899423000,11.916423095703125,-0.015887304961681364,0.28748773909211156,-0.1052881744235754
1789031953909425700,11.92642578125,-0.5052744577094912,0.011621464210748672,0.4297489688649773
1789031953919428900,11.936428955078124,-0.7403636087834835,-0.5803554176568985,0.9922343833103775
1789031953929431800,11.946431884765625,-0.13811229339987038,-1.2492080339342355,1.1376900252103805
1789031953939434800,11.956434814453125,0.48705257232040167,-1.5428157172113657,0.7699073909148574
1789031953949438000,11.96643798828125,0.5803437272191048,-1.3113888880372047,0.23510785577446222
1789031953959441000,11.97644091796875,0.5003714880988002,-0.776896226888895,-0.07525748555809258
1789031953969443800,11.98644384765625,0.16838322076201437,-0.29182839864492416,-0.07781593786925077
1789031953979446800,11.99644677734375,0.19941548788547514,-0.04288227939307689,-0.11094780762046574
1789031953989451000,12.006450927734376,0.2586705176696181,-0.07281622988581657,-0.31500352252721786
1789031953999453700,12.01645361328125,0.2658008079409599,-0.2623947988897562,-0.44907355479896066
1789031954009457000,12.026456787109375,0.4581988182798028,-0.5302823499768972,-0.7383803260117768
1789031954019459800,12.0364599609375,0.4185267331048846,-0.6723866356223821,-0.6641089288815856
1789031954029462800,12.046462890625,0.2568935711249709,-0.754945091843605,-0.45041766288429497
1789031954039466000,12.056466064453126,0.183647133128345,-0.7714806315809488,-0.46434594273269175
1789031954049468700,12.06646875,0.27064123370945453,-0.6533645397663116,-0.7181371639281511
1789031954059472000,12.076471923828125,0.07339607560038566,-0.5464584087520837,-0.5483385234102607
1789031954069474800,12.086474853515625,-0.13385463595539332,-0.694824677401781,-0.42155484875440596
1789031954079477800,12.096477783203126,0.09484715216904878,-0.8923433917552233,-0.5579714441522956
1789031954089481000,12.10648095703125,0.43860622905939817,-0.858952578806877,-0.49883565683364867
1789031954099483600,12.116483642578125,0.4019476464867592,-0.3244564105272293,-0.23173311864435672
1789031954109486800,12.12648681640625,0.41271541647762056,0.16628770978748797,-0.638840924373269
1789031954119489800,12.13648974609375,0.2811766562491655,0.4343979637145996,-0.4489157338887453
1789031954129492700,12.14649267578125,0.14628127906918525,0.4606967725753784,-0.032139936104416844
1789031954139496000,12.156495849609374,-0.07788520371317863,0.2836252184450626,0.18325111954808235
1789031954149499000,12.166498779296875,-0.11757219419628381,-0.04447919319570064,0.309667422196269
1789031954159501800,12.176501708984375,-0.012053718148171902,-0.2713742241591215,0.2635074363067746
1789031954169504800,12.1865048828125,-0.24904110405892133,-0.5659878696084022,0.19222703768610952
1789031954179507700,12.1965078125,-0.183701201403141,-0.6413672279804945,0.15927227806746957
1789031954189511000,12.206510986328125,0.0627656682536006,-0.4296130675256252,0.009776128605008125
1789031954199513900,12.216513916015625,0.0838926274344325,-0.04414017049968243,-0.018481997630000115
1789031954209516800,12.226516845703125,0.009841887317597865,0.20423428634405136,-0.05724895065873861
1789031954219519700,12.236519775390626,-0.37859482795000077,0.22712065641283988,0.03518529514968395
1789031954229523000,12.24652294921875,-0.7209326398655772,0.06712123311460018,0.1777645048305392
1789031954239526000,12.25652587890625,-0.67424629201442,-0.1901104839235544,0.02012479640096426
1789031954249528800,12.26652880859375,-0.42406829288005826,-0.2717927418321371,-0.07675678420513868
1789031954259531800,12.27653173828125,-0.29727380456924435,-0.23753625196516512,-0.03417933297753334
1789031954269534700,12.28653466796875,-0.3451964162170887,-0.1881768855124712,-0.035433424691855904
1789031954279538000,12.296537841796875,-0.6781774939835071,-0.15520517475903034,0.3668903616309166
1789031954289540900,12.306540771484375,-0.40984687530398367,-0.10357201815545558,0.4355632081016898
1789031954299543800,12.316543701171875,-0.008771043215692043,0.16669336797893047,0.24566695145070552
1789031954309547000,12.326547119140624,0.43452392818182706,0.5432756870627403,-0.14255290619581937
1789031954319549700,12.3365498046875,0.6613388796463608,0.9355775533258914,-0.21906915964335202
1789031954329553000,12.346552978515625,0.008525544022023678,0.935712577882409,0.18273352541476487
1789031954339555800,12.356555908203125,-0.06602379326671362,0.6473498095214366,0.2931614008143544
1789031954349558800,12.366558837890626,-0.3868202199816704,0.3507914597451687,0.8085758520051837
1789031954359562000,12.37656201171875,-0.4732441194593906,-0.08444996905624866,1.0078428713306784
1789031954369565700,12.386565673828125,-0.09420768522173166,-0.2787240024000406,0.9308297742769122
1789031954379569000,12.39656884765625,0.14117811071127653,-0.19483926601111887,0.7218439094915986
1789031954389571800,12.40657177734375,0.21186609639674425,-0.01593406671285629,0.500228280235827
1789031954399574800,12.41657470703125,-0.04597966088652611,0.2865343838900328,0.6095838502287865
1789031954409577700,12.42657763671875,-0.17932400923222303,0.5367004003256559,0.5399427432477474
1789031954419581000,12.436580810546875,-0.5309527965843677,0.38972237116396424,0.4389867528095841
1789031954429584000,12.446583984375,-0.5136471492573619,0.16729484100341796,0.5911331245198845
