time,seconds_elapsed,z,y,x
1790097184813778176,0.1247783203125,0.1884463727474212,-0.2341835647821426,0.1624090075492859
1790097184823778304,0.1347783203125,0.334693191147399,-0.15586571709204372,0.14796571588527355
1790097184833778176,0.14477832031250001,0.35376612479290526,-0.08349538913582662,0.19822680229134676
1790097184843778304,0.15477832031250002,0.2599155008792877,-0.1859266310930252,0.3328354060649872
1790097184853778176,0.16477832031250003,0.21697352902560146,-0.21246715546474193,0.3830834775491466
1790097184863778304,0.17477832031250004,0.06293064574668172,-0.28067900153920816,0.5483826359447583
1790097184873778176,0.18477832031250005,0.0149657577276229,-0.2488439083099365,0.5704549551010132
1790097184883778304,0.19477832031250006,0.0037451656602574684,-0.2699803689672485,0.5767176214270908
1790097184893778176,0.20477832031250007,-0.013388188041021895,-0.20915586960765614,0.5332256878106298
1790097184903778304,0.21477832031250008,0.0011982357853371258,0.025900454435587292,0.4422587404176238
1790097184913778176,0.22477832031250009,0.0149657577276229,0.1420983374118805,0.4122455418109894
1790097184923778304,0.2347783203125001,0.06704252142024511,0.37300960134617256,0.38272171720076853
1790097184933778176,0.2447783203125001,0.15337997490009286,0.70750907662866,0.38123706168442156
1790097184943778304,0.25477832031250014,0.20130347860704723,0.9318987827419882,0.4455874508716131
1790097184953778176,0.26477832031250015,0.16206715060722368,1.015188239297323,0.4887735060275401
1790097184963778304,0.27477832031250016,-0.011833955354701137,0.6338355553951756,0.23403428621769562
1790097184973778176,0.28477832031250017,-0.05760075872607951,0.5889202713611257,0.15041185633928583
1790097184983778304,0.2947783203125002,-0.0766613334417343,0.6229115128517151,0.1685174852609634
1790097184993778176,0.3047783203125002,-0.08087147034144303,0.6085970457787989,0.17008125058377935
1790097185003778304,0.3147783203125002,-0.13091676570120128,0.439911706004267,0.17650810866751176
1790097185013778176,0.3247783203125002,-0.19096180020260525,0.14858545757788327,0.1140416547562048
1790097185023778304,0.3347783203125002,-0.13299165723948433,-0.41174249222607345,0.022525592573085125
1790097185033778176,0.3447783203125002,0.0100789796561002,-1.0020185708999634,-0.0226777046918869
1790097185043778304,0.35477832031250023,0.13112928406159496,-0.6775741690949786,0.0803753052786468
1790097185053778176,0.36477832031250024,0.3100049793720245,-0.1981435865163803,0.2326564490795135
1790097185063778304,0.37477832031250025,0.5039426353098654,0.24146715329049134,0.3280198277154667
1790097185073778176,0.38477832031250025,0.6879157378410775,0.7223971711077763,0.21088824779577872
1790097185083778304,0.39477832031250026,0.4117459921125074,0.20524513351617346,-0.066391878603772
1790097185093778176,0.4047783203125003,0.2580829560756683,-0.1083490327000618,-0.1393495351076126
1790097185103778304,0.4147783203125003,-0.08327971702027337,-0.8902858983791737,-0.24984571546405387
1790097185113778176,0.4247783203125003,-0.3264695994657137,-1.5113897905388418,-0.2697043514272702
1790097185123778304,0.4347783203125003,-0.2914716005711294,-1.4224806425176364,-0.21308607907307262
1790097185133778176,0.4447783203125003,-0.07071454340332498,-0.8451180999828007,-0.1524136744770772
1790097185143778304,0.4547783203125003,0.42711161203821063,0.4340673571284034,-0.2527331917949255
1790097185153778176,0.4647783203125003,0.6319214701652527,0.9491039514541626,-0.4099548757076263
1790097185163778304,0.47477832031250033,0.6482743776044722,0.99600440027826,-0.43660097441461804
1790097185173778176,0.48477832031250034,0.749852681830052,1.3532932926932038,-0.6328607278743494
1790097185183778304,0.49477832031250035,0.7620989748982894,1.6366981790511983,-0.7211435468051578
1790097185193778176,0.5047783203125004,0.8255600929260254,1.7590874433517456,-0.660402238368988
1790097185203778304,0.5147783203125004,0.962048733794877,1.7695329972861154,-0.5364482667513641
1790097185213778176,0.5247783203125004,1.184738278388977,1.7865755558013916,-0.3342097997665405
1790097185223778304,0.5347783203125004,1.3310215958331404,1.8249097193396686,-0.2725683930983718
1790097185233778176,0.5447783203125004,1.5909899211890293,2.09234261466439,-0.13713744064502278
1790097185243778304,0.5547783203125004,1.6801353693008425,2.270366668701172,-0.07948649674654
1790097185253778176,0.5647783203125004,1.2126678008193574,2.4946840843934037,-0.48585266475389494
1790097185263778304,0.5747783203125004,0.7790456785771176,1.6447494016534518,-1.2013213581748179
1790097185273778176,0.5847783203125004,0.7046123147010803,1.320499062538147,-1.381201982498169
1790097185283778304,0.5947783203125004,1.1686457929563911,0.7535827545717324,-2.0256118161832144
1790097185293778176,0.6047783203125005,1.4354939458438483,1.640940503661708,-2.0837256593255087
1790097185303778304,0.6147783203125005,1.4504568576812744,1.7151063680648804,-2.0806984901428223
1790097185313778176,0.6247783203125005,1.572630099587053,2.7306607259011,-2.0095562366250572
1790097185323778304,0.6347783203125005,1.3692141771316528,3.912400245666504,-2.11734938621521
1790097185333778176,0.6447783203125005,1.3345941084991464,4.056703452103048,-2.1821428818647934
1790097185343778304,0.6547783203125005,1.0021380122652963,5.188303426342053,-2.7328058725910376
1790097185353778176,0.6647783203125005,0.3590455899444085,6.877888658790642,-3.738253615078852
1790097185363778304,0.6747783203125005,0.1291942000389099,7.452947616577148,-4.253482341766357
1790097185373778176,0.6847783203125005,-0.07096398071440851,7.133204409056068,-4.502883094565888
1790097185383778304,0.6947783203125005,-1.0058763659328451,4.383057475228726,-4.260875791577532
1790097185393778176,0.7047783203125005,-1.7205276489257812,1.871483325958252,-3.617590188980103
1790097185403778304,0.7147783203125005,-1.9417097027123384,0.4210996828140503,-3.0805910507417464
1790097185413778176,0.7247783203125006,-2.2286775335594364,-2.109713341136625,-2.7321993842209555
1790097185423778304,0.7347783203125006,-2.3002216815948486,-2.9109926223754883,-2.736748456954956
1790097185433778176,0.7447783203125006,-2.155196726036529,-1.147659134776655,-3.6992737684237094
1790097185443778304,0.7547783203125006,-2.043939806564938,-0.1064711079106122,-4.328360689475691
1790097185453778176,0.7647783203125006,-2.0308380126953125,-0.0045049986802041,-4.395198822021484
1790097185463778304,0.7747783203125006,-2.466591289818216,0.7596129122553765,-4.497346986993708
1790097185473778176,0.7847783203125006,-2.806003332138061,0.8971819281578064,-4.602352142333984
1790097185483778304,0.7947783203125006,-2.8272348984954516,0.9340663562768011,-4.625912715344692
1790097185493778176,0.8047783203125006,-3.0508496670905303,1.4449162372233066,-4.907110649641918
1790097185503778304,0.8147783203125006,-3.1356959283298047,3.1777630109089965,-5.080252284778845
1790097185513778176,0.8247783203125006,-3.338738441467285,6.865312576293945,-4.898002624511719
1790097185523778304,0.8347783203125007,-3.4513487268909975,8.062584199185272,-3.9594904905820654
1790097185533778176,0.8447783203125007,-3.7921265695243793,10.071196406536924,-1.907551494192482
1790097185543778304,0.8547783203125007,-3.969132661819458,9.46759796142578,-1.64569890499115
1790097185553778176,0.8647783203125007,-4.2347550362815225,8.737175878397796,-1.6775231718856498
1790097185563778304,0.8747783203125007,-4.572520005723056,7.017041050629564,-1.7140893694249302
1790097185573778176,0.8847783203125007,-3.717031072451054,3.965025608310314,-1.9302319006257542
1790097185583778304,0.8947783203125007,-3.194502115249634,2.663141250610352,-2.050156116485596
1790097185593778176,0.9047783203125007,-2.3770466518314786,1.728707472843478,-2.271579380242932
1790097185603778304,0.9147783203125007,-1.182043295211129,0.6792862308035771,-2.4172531779523214
1790097185613778176,0.9247783203125007,0.17523740916940833,0.5374186889647592,-1.8701768940832597
1790097185623778304,0.9347783203125007,0.3295520842075348,0.5404471158981323,-1.7947455644607544
1790097185633778176,0.9447783203125008,0.24658969173606382,0.928626169412407,-1.8619659516249567
1790097185643778304,0.9547783203125008,0.2745758295059204,1.758476495742798,-1.7171679735183716
1790097185653778176,0.9647783203125008,0.27919563497302624,1.810834296045406,-1.6993817311100936
1790097185663778304,0.9747783203125008,0.3260822602124994,2.2145341372122656,-1.5714913558657324
1790097185673778176,0.9847783203125008,0.4432215131553091,2.3550959917723406,-1.550567568216209
1790097185683778304,0.9947783203125008,0.7045614367722975,2.0612261936000476,-1.3196403898316444
1790097185693778176,1.0047783203125007,0.9324583411216736,1.6497457027435305,-0.8106706738471985
1790097185703778304,1.0147783203125007,1.0011966122504943,1.1087940392802325,-0.4754070490343345
1790097185713778176,1.0247783203125007,1.1451022794650965,-0.09771643966355248,0.13439279210209554
1790097185723778304,1.0347783203125007,1.2000094652175903,-0.6061895489692688,0.3071798086166382
1790097185733778176,1.0447783203125007,1.2607926139929448,-1.2785567411141066,0.48877897813228344
1790097185743778304,1.0547783203125007,1.404972542142838,-2.2758685019053724,0.7645713149150486
1790097185753778176,1.0647783203125007,1.6547435112548659,-2.9356114907396567,0.9718861104404377
1790097185763778304,1.0747783203125008,1.887642605377487,-3.2160536344712827,1.0966940388576072
1790097185773778176,1.0847783203125008,1.9743638982459144,-3.1690933376747448,1.1811171556411582
1790097185783778304,1.0947783203125008,1.9189977849496922,-2.958780946218694,1.2771221544567015
1790097185793778176,1.1047783203125008,1.9314441303996268,-2.5151627031327615,1.3211408384722363
1790097185803778304,1.1147783203125008,1.9350642465258094,-2.507748968507848,1.320761546253254
1790097185813778176,1.1247783203125008,2.01410638806487,-2.5521137486312098,1.2823613743108155
1790097185823778304,1.1347783203125008,2.001791344727992,-2.7628255585613557,1.149346446363472
1790097185833778176,1.1447783203125008,1.700102086722319,-3.017259210765004,0.9997416229621434
1790097185843778304,1.1547783203125008,1.5121547981118466,-2.9150496882611567,0.8151659403976051
1790097185853778176,1.1647783203125008,1.7882228914338447,-2.920149211697803,0.6343815443803137
1790097185863778304,1.1747783203125008,1.8885741024742426,-3.2858070096116405,0.44663022127486196
1790097185873778176,1.1847783203125009,1.918976664543152,-3.4790806770324707,0.2479276359081268
1790097185883778304,1.1947783203125009,1.9141246275009578,-3.4008006579059997,0.08328104416482679
1790097185893778176,1.2047783203125009,1.4498592849870842,-3.524977604432882,0.03873753350293725
1790097185903778304,1.2147783203125009,1.1309837102890017,-3.65928053855896,0.1092653051018714
1790097185913778176,1.224778320312501,0.8193072794033232,-3.791177126054719,0.3630465135559949
1790097185923778304,1.234778320312501,0.4025139544173745,-3.4417375275853805,0.6033796690486621
1790097185933778176,1.244778320312501,-0.004887759329855634,-2.7523876022222176,0.6422271361290239
1790097185943778304,1.254778320312501,-0.3554071043720957,-1.1514992012072596,0.6900699695502103
1790097185953778176,1.264778320312501,-0.3888042867183685,-0.9781955480575562,0.6956786513328552
1790097185963778304,1.274778320312501,-0.27181295994466703,-0.37555899857357056,0.8251061281891539
1790097185973778176,1.284778320312501,-0.5250232219696045,0.2190650999546051,1.2571237087249756
1790097185983778304,1.294778320312501,-0.5186206688968324,0.2731986660265596,1.2657458108640771
1790097185993778176,1.304778320312501,-0.5212919379096065,0.6282492630717439,1.3385649800439654
1790097186003778304,1.314778320312501,-0.8192944098490337,0.6204618287696279,1.4400329890306593
1790097186013778176,1.324778320312501,-1.5063054995036949,0.4633089230725136,1.3777260146753914
1790097186023778304,1.334778320312501,-2.1756088733673096,0.6937697529792786,1.1117420196533203
1790097186033778176,1.344778320312501,-2.07397977877014,0.65246594869315,1.058481848177508
1790097186043778304,1.354778320312501,-1.8838054383701046,0.3651096017488161,0.9379396191966057
1790097186053778176,1.364778320312501,-1.8219282627105715,0.1347681730985641,0.8851176500320435
1790097186063778304,1.374778320312501,-1.8618185094768818,0.2720825346010397,0.8655561119049319
1790097186073778176,1.384778320312501,-1.8404277611884212,0.5710725706733477,0.8821600067694297
1790097186083778304,1.394778320312501,-1.6620499298783769,0.8841865650669826,0.993383577266232
1790097186093778176,1.404778320312501,-1.3393692886961188,1.0836322252604935,1.163940111610799
1790097186103778304,1.414778320312501,-1.053261394556903,1.0670813315798713,1.297242445612875
1790097186113778176,1.424778320312501,-0.9503955900261397,0.9360338385926886,1.3405963385145927
1790097186123778304,1.434778320312501,-0.5226808331926533,-0.16712271641963627,1.1191956242537717
1790097186133778176,1.444778320312501,-0.47965220047271817,-0.20962093976944696,1.1032573918600042
1790097186143778304,1.454778320312501,0.24226676174559716,-0.8168062836823325,0.8772751992083471
1790097186153778176,1.464778320312501,0.4252710069612838,-0.7455327057144253,1.1191539283170204
1790097186163778304,1.4747783203125011,0.08686748907574576,-0.9098491781352357,1.3700719154655518
1790097186173778176,1.4847783203125011,-1.0334807422338221,-1.7778863658932256,1.3036338205581894
1790097186183778304,1.4947783203125011,-2.0689026739094936,-2.807369319951231,1.2946002115432667
1790097186193778176,1.5047783203125011,-2.6250638636387325,-3.549214828182754,1.988599491218344
1790097186203778304,1.5147783203125011,-2.962380170822144,-3.9671475887298575,2.6749000549316406
1790097186213778176,1.5247783203125012,-2.9554119680029345,-3.9014477607512275,2.884608458094218
1790097186223778304,1.5347783203125012,-2.8502677986217444,-3.2202273635445477,3.0266304377523783
1790097186233778176,1.5447783203125012,-2.4926543669519234,-1.7905917025551719,2.7253830606684155
1790097186243778304,1.5547783203125012,-1.8796011712646448,-0.07252574768374265,2.245276433367115
1790097186253778176,1.5647783203125012,-1.1769588021906352,1.546387717384672,1.8483686320167703
1790097186263778304,1.5747783203125012,0.09930807091764038,2.434730019894092,1.3539301222956817
1790097186273778176,1.5847783203125012,0.6042292842661945,1.9024263826123988,1.2951668534249867
1790097186283778304,1.5947783203125012,0.634364902973175,1.8391083478927608,1.2968287467956543
1790097186293778176,1.6047783203125012,0.5946406442256591,1.4012104270032228,1.3784255970853845
1790097186303778304,1.6147783203125012,0.6020050834292828,1.2725904915582567,1.4703978912507554
1790097186313778176,1.6247783203125012,0.6938595289783189,1.2632744174808301,1.5388730142032914
1790097186323778304,1.6347783203125013,0.7996191929248706,1.1234329616848786,1.6437225534298208
1790097186333778176,1.6447783203125013,1.0635757391446865,0.9876751907979635,1.9250835594755271
1790097186343778304,1.6547783203125013,1.5004560228240948,0.8121261630144383,2.308361109475527
1790097186353778176,1.6647783203125013,1.567739486694336,0.4781406819820404,2.172172784805298
1790097186363778304,1.6747783203125013,1.5697000024108965,0.25544643977865866,2.1315620318309794
1790097186373778176,1.6847783203125013,1.5555134128650305,-0.27286070038378113,1.9693553853414487
1790097186383778304,1.6947783203125013,1.490604775129298,-0.5363130980394125,1.7512809274517755
1790097186393778176,1.7047783203125013,1.3704745749057974,-0.5576106254955181,1.655948088911698
1790097186403778304,1.7147783203125013,1.233704620679243,-0.4974042568339748,1.677678487152967
1790097186413778176,1.7247783203125013,0.9881665192574194,-0.3127794165185951,1.5204292008103506
1790097186423778304,1.7347783203125013,0.4171876976283868,0.27994022644273975,0.9465399677163514
1790097186433778176,1.7447783203125014,0.47330835697851337,0.6915874706502372,0.651641263849113
1790097186443778304,1.7547783203125014,0.4944808483123779,0.7298097610473633,0.6278746128082275
1790097186453778176,1.7647783203125014,0.6684462733496486,0.761480631357842,0.57717030556626
1790097186463778304,1.7747783203125014,0.6466683254898327,0.2704522747736957,0.64892655206982
1790097186473778176,1.7847783203125014,0.5679729508897787,0.23267434953287913,0.5211119833276033
1790097186483778304,1.7947783203125014,0.48424219772943294,0.25441201558330556,0.25953753462899204
1790097186493778176,1.8047783203125014,0.1965774404810677,0.29435140099833623,0.021135988190942992
1790097186503778304,1.8147783203125014,-0.12841312150196516,0.38120866868981373,-0.13837300110178932
1790097186513778176,1.8247783203125014,-0.2971771955490112,0.4274403750896454,-0.1845522224903106
1790097186523778304,1.8347783203125014,-0.3625121441179185,0.4226597615118038,-0.1463073786560744
1790097186533778176,1.8447783203125014,-0.3305415766122835,0.6457103040599226,0.014862347629335151
1790097186543778304,1.8547783203125014,-0.2116585820913314,0.8788564801216125,0.1282015740871429
1790097186553778176,1.8647783203125015,-0.31091752082223856,0.3862887280789896,-0.057861757736273334
1790097186563778304,1.8747783203125015,-0.3723114132881164,0.0816244632005691,-0.1729461252689361
1790097186573778176,1.8847783203125015,-0.709072607438449,0.3288990373841104,-0.44321379489414103
1790097186583778304,1.8947783203125015,-0.8822611388140019,0.5748293935913251,-0.5900896512941859
1790097186593778176,1.9047783203125015,-0.8958838582038879,0.6143596172332764,-0.6029825806617737
1790097186603778304,1.9147783203125015,-0.7972262313430313,0.8449366653109511,-0.7213717879046162
1790097186613778176,1.9247783203125015,-0.7889856100082397,0.8641961812973022,-0.7312605381011963
1790097186623778304,1.9347783203125015,-0.7859313488006592,0.2453315258026123,-1.2364312410354614
1790097186633778176,1.9447783203125015,-0.8201106988313337,0.17231201734132928,-1.2836220358341774
1790097186643778304,1.9547783203125015,-1.2066952841561707,-0.5690756325710016,-1.7185648000143423
1790097186653778176,1.9647783203125015,-1.696704626083374,-1.194435477256775,-1.9022547006607056
1790097186663778304,1.9747783203125016,-1.7706822953611487,-1.097152169408944,-1.8775366268161764
1790097186673778176,1.9847783203125016,-1.8914936108966232,-0.6679756655622379,-1.5537225498371896
1790097186683778304,1.9947783203125016,-1.7779473066329956,-0.3154262602329254,-1.0653939247131348
1790097186693778176,2.004778320312502,-1.4843822340475499,-0.16316460680373804,-0.8938112294807505
1790097186703778304,2.0147783203125016,-1.1561048030853271,0.0071010994724929,-0.7019398808479309
1790097186713778176,2.024778320312502,-0.9590360144977296,-0.040442197104749195,-0.7817835646050922
1790097186723778304,2.0347783203125016,-0.6426759176805888,-0.33504797000956205,-1.1816950304245768
1790097186733778176,2.044778320312502,-0.46258200274813105,-0.3260348972058962,-1.5747854855132528
1790097186743778304,2.0547783203125016,-0.4291202127933502,-0.2677801549434662,-1.6585266590118408
1790097186753778176,2.064778320312502,-0.4076154989523625,-0.14694421164125865,-1.8034274207636651
1790097186763778304,2.0747783203125016,-0.30734062046293437,0.022488247547331003,-1.4869979643509244
1790097186773778176,2.084778320312502,-0.16694031849398708,0.45773025558281205,-1.2636341512889921
1790097186783778304,2.0947783203125017,-0.16064786411216575,0.48392256476481266,-1.2587161128255138
1790097186793778176,2.104778320312502,-0.12463144228421827,0.8956465642017891,-1.4066270054259604
1790097186803778304,2.1147783203125017,-0.21642931990977024,0.9207548027707877,-1.676319935620511
1790097186813778176,2.124778320312502,-0.34999933103746445,0.7153060527591409,-1.8320136934120406
1790097186823778304,2.1347783203125017,-0.32939630323501123,0.2414500628011646,-1.6936093787858342
1790097186833778176,2.144778320312502,-0.1243074163794517,-0.5255576968193054,-1.3695958852767944
1790097186843778304,2.154778320312502,0.0858032792817141,-0.6426802229364462,-1.160431648269561
1790097186853778176,2.164778320312502,0.4181249439716339,-0.8279271125793457,-0.8296069502830505
1790097186863778304,2.1747783203125017,0.37363025733205263,-0.520198072031768,-0.740617546642637
1790097186873778176,2.184778320312502,0.1893141966241686,-0.1307703170743144,-0.5995054121169181
1790097186883778304,2.194778320312502,0.23781952591787464,-0.4618266311623064,-0.6194912555714905
1790097186893778176,2.204778320312502,0.5605441281004684,-1.3934712421184696,-0.6859697178693345
1790097186903778304,2.2147783203125018,0.7653994566510434,-2.163112455661384,-0.6658986506352702
1790097186913778176,2.224778320312502,0.7449506643942089,-2.20157992544597,-0.6688351689249936
1790097186923778304,2.2347783203125022,0.004867468257485963,-0.9845636762709378,-0.9549101389732012
1790097186933778176,2.244778320312502,-0.0986518338322639,-0.81509929895401,-0.9951465129852296
1790097186943778304,2.254778320312502,-0.40027711610699573,-0.593298080740751,-1.101781756355925
1790097186953778176,2.264778320312502,-0.5403170704980693,-0.5455690617157212,-1.1180283002417424
1790097186963778304,2.2747783203125023,-0.5938450055115471,-0.41251513318888533,-1.140474908664707
1790097186973778176,2.284778320312502,-0.5512896776199341,-0.2457896620035171,-1.1490800380706787
1790097186983778304,2.294778320312502,-0.5298921341504192,-0.25508651918849273,-1.149965454754886
1790097186993778176,2.304778320312502,-0.42833573784005646,-0.3360294649228011,-1.1568117230007398
1790097187003778304,2.3147783203125023,-0.3490992188453674,-0.4553102850914001,-1.1661838293075562
1790097187013778176,2.324778320312502,-0.2979987336641039,-0.4812495992978921,-1.136612943785371
1790097187023778304,2.334778320312502,-0.16913405820201666,-0.376372456659005,-0.8853267322257468
1790097187033778176,2.344778320312502,-0.1059819981455802,-0.2280751019716262,-0.6616239547729492
1790097187043778304,2.3547783203125023,-0.009843279375644692,-0.32384263344451886,-0.7547931231005793
1790097187053778176,2.364778320312502,0.0522274412214756,-0.3856737017631531,-0.8149465918540955
1790097187063778304,2.374778320312502,0.1962033041675399,-0.6170157145038959,-0.89473508926036
1790097187073778176,2.384778320312502,0.2669195726515845,-0.9437269463670784,-0.7547506529622624
1790097187083778304,2.3947783203125024,0.2715215981006622,-1.0075161457061768,-0.7098808884620667
1790097187093778176,2.404778320312502,0.24252797914227178,-0.7281737002253806,-0.6201121462060085
1790097187103778304,2.414778320312502,0.23916270771285666,-0.4683066562000944,-0.5258783010416638
1790097187113778176,2.424778320312502,-0.0150407275123213,-0.5391887661553053,-0.16977363682119198
1790097187123778304,2.4347783203125024,-0.1188097894191742,-0.7479060888290405,0.0707819238305091
1790097187133778176,2.444778320312502,-0.12953882746661802,-0.7614131842502407,0.09626338744055318
1790097187143778304,2.454778320312502,-0.18230103990555901,-0.7850652672576672,0.24870358756048364
1790097187153778176,2.464778320312502,-0.13362161859891766,-0.4785937127124368,0.2814704778403982
1790097187163778304,2.4747783203125024,-0.12195987952268086,-0.10709139314957915,0.22578941459610408
1790097187173778176,2.4847783203125022,-0.2927383116914004,-0.051071641636096565,0.25812530998613425
1790097187183778304,2.494778320312502,-0.3490992188453674,-0.0649788752198219,0.2980171144008636
1790097187193778176,2.5047783203125022,-0.4615347236167661,-0.02824568201776082,0.3136686492407892
1790097187203778304,2.5147783203125025,-0.564117431640625,0.0052685574628412,0.3279486298561096
1790097187213778176,2.5247783203125023,-0.6894496222343736,-0.005762643705245703,0.3464652751980213
1790097187223778304,2.534778320312502,-0.8727219182366717,-0.11490159355625335,0.36140207286218384
1790097187233778176,2.5447783203125023,-1.0571243084165487,-0.31618592665515705,0.3169947196558037
1790097187243778304,2.5547783203125025,-1.4259178980839347,-0.9256979975337167,0.1531961499036233
1790097187253778176,2.5647783203125023,-1.4939032793045044,-1.0423344373703003,0.1220930963754654
1790097187263778304,2.574778320312502,-1.6865708627962892,-1.2785263274318341,-0.004997834462757422
1790097187273778176,2.5847783203125023,-2.8771306666893657,-3.8256610618973634,-1.4454964990939463
1790097187283778304,2.5947783203125026,-3.44877892776932,-3.8296795372325776,-2.1120241241245403
1790097187293778176,2.6047783203125023,-3.468607585187161,-1.2842995372441728,-1.1941507979373371
1790097187303778304,2.614778320312502,-3.579737962212479,0.15341835000174417,0.13963641129211438
1790097187313778176,2.6247783203125024,-3.3971949265511734,0.13520095181444386,1.4504563434432072
1790097187323778304,2.6347783203125026,-2.9935333728790283,-0.2256316989660263,1.51734459400177
1790097187333778176,2.6447783203125024,-2.73229018920007,-0.4096998590566143,1.4496148647285514
1790097187343778304,2.654778320312502,-1.9389748999280496,-0.7988101592831364,1.255855727204963
1790097187353778176,2.6647783203125024,-0.9910377951700959,-0.727136832099616,1.0916837909156194
1790097187363778304,2.6747783203125026,-0.3511562874230374,-0.05435587780126955,1.005642386718561
1790097187373778176,2.6847783203125024,-0.2299840003252029,0.3314609825611114,0.9846857786178588
1790097187383778304,2.694778320312502,-0.27040638175948073,0.3890212122059694,1.0180238511522686
1790097187393778176,2.7047783203125024,-0.18799556838367776,0.3272487316079087,1.04444938022815
1790097187403778304,2.7147783203125027,-0.1250155928842423,0.25439460265435876,0.9912280661533721
1790097187413778176,2.7247783203125024,-0.1181989461183548,0.2441098392009735,0.9773555994033812
1790097187423778304,2.7347783203125022,-0.14422570411760677,0.2486362306963002,0.9303942841888048
1790097187433778176,2.7447783203125025,-0.15112253861354685,0.3195567356173582,0.9115783382161178
1790097187443778304,2.7547783203125027,-0.108425386250019,0.4433223903179168,1.0054545402526855
1790097187453778176,2.7647783203125025,-0.11076244499678232,0.4459265421677032,1.0101954401844162
1790097187463778304,2.7747783203125023,-0.12668395475307265,0.4577821772026765,1.0585001470387825
1790097187473778176,2.7847783203125025,-0.1114796251058578,0.4121691882610321,1.1056334972381592
1790097187483778304,2.7947783203125027,-0.11451553781353577,0.40538303070012843,1.1440288642196512
1790097187493778176,2.8047783203125025,-0.1337361895137634,0.35417695573734936,1.2991326311218419
1790097187503778304,2.8147783203125023,-0.15824495377804462,0.23864449281259198,1.513884861666031
1790097187513778176,2.8247783203125025,-0.15869534191358173,0.06890310141650827,1.6473254806960447
1790097187523778304,2.8347783203125028,-0.1548497825860977,-0.037490751594305,1.637070655822754
1790097187533778176,2.8447783203125026,-0.12820948956222533,-0.07799859084439717,1.5597042953976348
1790097187543778304,2.8547783203125023,0.044989201711145094,0.038690888240003884,1.2932012613489705
1790097187553778176,2.8647783203125026,0.1255291104316711,0.1133885234594345,1.1819894313812256
1790097187563778304,2.874778320312503,0.31574496497786353,0.33083764614960764,1.4427615696247642
1790097187573778176,2.8847783203125026,0.3692571818828583,0.3920112252235412,1.5161229372024536
1790097187583778304,2.8947783203125024,0.4177704995258685,0.24199200803630738,1.6533935847103447
1790097187593778176,2.9047783203125026,0.48598686089528087,0.021556652183337244,1.7447357508018912
1790097187603778304,2.914778320312503,0.3692571818828583,-0.2977116703987121,1.739082098007202
1790097187613778176,2.9247783203125026,0.3590166559059694,-0.2995925836713861,1.7376191702767194
1790097187623778304,2.9347783203125024,0.23556742733767708,-0.28908949859175215,1.7384484041665373
1790097187633778176,2.9447783203125026,0.15284442562248327,-0.08416989195116897,1.8564329871241103
1790097187643778304,2.954778320312503,0.1475196182727813,0.0174855031073093,1.9406617879867556
1790097187653778176,2.9647783203125027,0.12436765996302417,0.03701367468439072,1.9563648405007028
1790097187663778304,2.9747783203125024,0.05651439921237877,0.04953783973867509,1.9930797290592053
1790097187673778176,2.9847783203125027,0.0241284668445587,0.0071010994724929,2.0005247592926025
1790097187683778304,2.994778320312503,0.0022094201413002112,-0.018575497337146155,1.99081774715289
1790097187693778176,3.0047783203125027,-0.0186308417469263,-0.0429883748292923,1.9815884828567505
1790097187703778304,3.0147783203125025,-0.06321332256024255,-0.08834620404987703,1.9695705890457835
1790097187713778176,3.0247783203125027,-0.11394924885102575,-0.10553393764893322,1.965626719553398
1790097187723778304,3.034778320312503,-0.1249182671308517,-0.1016297116875648,1.9669281244277956
1790097187733778176,3.0447783203125027,-0.12242085484913375,0.023240795784044074,2.007885654168295
1790097187743778304,3.0547783203125025,-0.14279720633682258,0.07147853087739145,2.0368772982686463
1790097187753778176,3.0647783203125027,-0.1485571996915375,-0.022716124261948592,2.016083950743669
1790097187763778304,3.074778320312503,-0.11326875157064599,-0.10772356149129371,1.9655633643444501
1790097187773778176,3.0847783203125028,-0.0534491352736949,-0.0875802263617515,1.7684028148651123
1790097187783778304,3.0947783203125026,-0.046325537519123446,-0.0698087245806426,1.7577549176981075
1790097187793778176,3.104778320312503,0.025235065137944553,0.10242668856461415,1.6584271299732103
1790097187803778304,3.114778320312503,0.1278916000814371,0.2952883861593156,1.5152975536970201
1790097187813778176,3.124778320312503,0.1615691035985946,0.2703762650489807,1.3921209573745728
1790097187823778304,3.1347783203125026,0.18509536325229306,0.27396121744343516,1.320869971144244
1790097187833778176,3.144778320312503,0.25210268284247794,0.3138617553020717,1.1223462997886082
1790097187843778304,3.154778320312503,0.26351595757815405,0.3544701773983507,0.8654322143987107
1790097187853778176,3.164778320312503,0.238535851240158,0.3497864007949829,0.7023980021476746
1790097187863778304,3.1747783203125026,0.20941853086500312,0.36663152910908636,0.6445366489352207
1790097187873778176,3.184778320312503,0.1522996588736116,0.3937722165362432,0.4077870166761587
1790097187883778304,3.194778320312503,0.133470132946968,0.4017847776412964,0.3102340400218963
1790097187893778176,3.204778320312503,0.17615630268828403,0.3867476172528049,-0.10983670730632755
1790097187903778304,3.2147783203125027,0.20132804965231596,0.38075913155128843,-0.4167291289225952
1790097187913778176,3.224778320312503,0.2037175595760345,0.3804051280021667,-0.4502707719802856
1790097187923778304,3.234778320312503,0.24490199217297565,0.4478521194846319,-0.5953116232448434
1790097187933778176,3.244778320312503,0.22992476222811223,0.5115479415020852,-0.6745235707056242
1790097187943778304,3.2547783203125027,0.12760793987435282,0.36133613897763794,-0.903179464201593
1790097187953778176,3.264778320312503,0.1908897757530212,0.2990860939025879,-1.0055309534072876
1790097187963778304,3.274778320312503,0.21237268670364162,0.34531151387630965,-1.1292941642108982
1790097187973778176,3.284778320312503,0.2880144715309143,0.5080721974372864,-1.5650670528411863
1790097187983778304,3.2947783203125027,0.428692881677602,0.34409588697225946,-1.5340381083965597
1790097187993778176,3.304778320312503,0.6075209634528125,0.00018929273057520166,-1.571700423712821
1790097188003778304,3.314778320312503,0.38537185399430207,0.005807123241461376,-1.7718465245087915
1790097188013778176,3.324778320312503,0.2731624372827409,0.23403462595034646,-1.9085877937536675
1790097188023778304,3.3347783203125028,0.31943484974518577,0.18788150791394395,-1.8068034308234697
1790097188033778176,3.344778320312503,0.3582619130611419,0.0474170185625553,-1.6902906894683838
1790097188043778304,3.3547783203125032,0.4002886922128684,0.17436384731288812,-1.7175864269628256
1790097188053778176,3.364778320312503,0.40857383702384187,0.30403453198926494,-1.7960614690032635
1790097188063778304,3.374778320312503,0.30891672049971947,0.33277095159615583,-1.9649764549422433
1790097188073778176,3.384778320312503,0.18785297201170673,0.37430777671718013,-2.238281503030717
1790097188083778304,3.3947783203125033,0.1756185889244079,0.3791834414005279,-2.267617702484131
1790097188093778176,3.404778320312503,0.20245526327072322,0.008990856976718652,-2.3761524536035226
1790097188103778304,3.414778320312503,0.11437468399131381,0.3678106463044293,-2.439645507140786
1790097188113778176,3.424778320312503,0.0974301397800445,0.603975236415863,-2.354357957839966
1790097188123778304,3.4347783203125033,0.10466441963717958,0.7293694166845417,-2.3637625604787047
1790097188133778176,3.444778320312503,0.19658343916799248,1.1224588438907506,-2.3803809034964587
1790097188143778304,3.454778320312503,0.40855863600518616,0.9107294564000827,-2.39460331070012
1790097188153778176,3.464778320312503,0.5490970824907605,1.2226960795208477,-2.6814841545255463
1790097188163778304,3.4747783203125033,0.7749239239416681,1.0958923350797711,-2.921174165221012
1790097188173778176,3.484778320312503,0.8987873957671124,0.4625540340913,-2.870968785215232
1790097188183778304,3.494778320312503,0.5456037571477507,-0.6516570050272847,-2.2204447705636836
1790097188193778176,3.504778320312503,0.419914518574898,-1.3673369386872827,-1.4187899159388817
1790097188203778304,3.5147783203125034,0.5018110275268555,-1.4503804445266724,-1.1948935985565186
1790097188213778176,3.524778320312503,0.905359938268065,-1.027680072875645,-1.1141838164082767
1790097188223778304,3.534778320312503,1.57710836551245,-0.434268805157956,-1.2076231983922403
1790097188233778176,3.544778320312503,2.760362187306413,-0.546135424785718,-1.4783464876203165
1790097188243778304,3.5547783203125034,3.1876616532810242,-1.106222961685257,-1.6932642155084092
1790097188253778176,3.564778320312503,3.2079408168792725,-1.1461784839630127,-1.706783652305603
1790097188263778304,3.574778320312503,2.677725315093994,-1.6324129104614258,-1.7868045568466189
1790097188273778176,3.584778320312503,2.6376435005390277,-1.4109660284628915,-1.7322162919486814
1790097188283778304,3.5947783203125034,2.321601390838623,0.3351260721683502,-1.3017919063568115
1790097188293778176,3.6047783203125032,2.3261867425244493,0.3507629388116319,-1.2772887759868516
1790097188303778304,3.614778320312503,2.2817453375011456,0.37937322494478115,-1.251142819961354
1790097188313778176,3.6247783203125032,2.015992081173836,0.09702911147707749,-1.4375288109621338
1790097188323778304,3.6347783203125035,1.7151357411071535,-0.6088902302250071,-1.5396595898200718
1790097188333778176,3.6447783203125033,1.614194988281122,-1.4341976156726963,-1.3965821672142595
1790097188343778304,3.654778320312503,1.4814482675711025,-2.054163590365501,-1.0719255140784965
1790097188353778176,3.6647783203125033,1.3624948263168335,-2.1956140995025635,-0.924288272857666
1790097188363778304,3.6747783203125035,1.317632241715953,-2.081234866364415,-0.7242255352132393
1790097188373778176,3.6847783203125033,1.5666188855281655,-1.9415190607855544,-0.3495493147232607
1790097188383778304,3.694778320312503,1.5785817641511204,-1.6776956793835178,-0.12582748883271577
1790097188393778176,3.7047783203125033,0.6542550718042602,-1.774976074326647,-0.4432704663582281
1790097188403778304,3.7147783203125035,-0.07089128402652406,-2.046989081326284,-0.6692352281829766
1790097188413778176,3.7247783203125033,-0.377800651909909,-1.851961165357704,-0.8868326466944663
1790097188423778304,3.734778320312503,-0.38120929893351596,-1.8318368792347126,-0.8918648930029381
1790097188433778176,3.7447783203125034,-0.17540836032288726,-1.3630303563773771,-0.799332009474872
1790097188443778304,3.7547783203125036,0.09130913280606771,-1.0048040986454843,-0.4748838426143369
1790097188453778176,3.7647783203125034,0.1328592747449875,-0.6807129383087158,-0.1845522224903106
1790097188463778304,3.774778320312503,0.16473194415649373,-0.6153075591789638,-0.1576596598256654
1790097188473778176,3.7847783203125034,0.24932883598963101,-0.41523916043155984,-0.05205407135552462
1790097188483778304,3.7947783203125036,0.1998308246257362,-0.3849995875965552,-0.0026052362149790367
1790097188493778176,3.8047783203125034,0.09558066290406851,-0.37887883333789674,-0.08362553861142477
1790097188503778304,3.814778320312503,0.023342317259022513,-0.2379083095393969,-0.17436841172524387
1790097188513778176,3.8247783203125034,-0.0900616932414767,0.07610924720600365,-0.17631002015058492
1790097188523778304,3.8347783203125037,-0.17367634157022102,0.4488819063428978,-0.2000269214387097
1790097188533778176,3.8447783203125034,-0.1878355294466018,0.5679352283477783,-0.2230356037616729
1790097188543778304,3.8547783203125032,-0.2258969935981571,0.7689183123797477,-0.2434588306377147
1790097188553778176,3.8647783203125035,0.19830879351379618,1.9280307623651038,-0.41136954232361816
1790097188563778304,3.8747783203125037,0.2935121059417724,2.167133331298828,-0.4466057121753692
1790097188573778176,3.8847783203125035,0.6667229125076686,3.0915931568664217,-0.29052525183317446
1790097188583778304,3.8947783203125033,0.6894503095652577,3.1494233554886852,-0.28039201225339083
1790097188593778176,3.9047783203125035,0.6757664707269537,3.5818076031704,-0.08379461527913502
1790097188603778304,3.9147783203125037,0.0754396393895149,3.148841381072998,0.2589228749275207
1790097188613778176,3.9247783203125035,0.07327024170658242,2.8485367484692468,0.2832429673801599
1790097188623778304,3.9347783203125033,0.0638335421681404,1.542236566543579,0.3890333473682403
1790097188633778176,3.9447783203125035,0.043452851029347046,1.3854184968829595,0.3548768163854069
1790097188643778304,3.9547783203125038,-0.01727890789603609,0.88276115044319,0.24954400598080986
1790097188653778176,3.9647783203125035,0.20307159830992422,0.5262051423577697,0.2123909244793294
1790097188663778304,3.9747783203125033,0.5280774831771851,0.3968980014324188,0.2283805161714553
1790097188673778176,3.9847783203125036,0.644614887895357,0.5208667949906309,0.2739821125464407
1790097188683778304,3.994778320312504,0.6941873282703372,0.6634610024555274,0.38773271481763016
1790097188693778176,4.004778320312504,0.8005456088791592,0.10455716247877145,0.6608351194609131
1790097188703778304,4.014778320312503,0.8490798794031811,-0.4687096159495418,0.7892882971473554
1790097188713778176,4.024778320312503,0.8432746529579163,-0.5732038021087646,0.7965448498725891
1790097188723778304,4.034778320312504,0.836985186404349,-0.6397672038022404,0.8075513651991415
1790097188733778176,4.044778320312504,0.4480177202529537,-0.6799741749204186,0.8750562946245909
1790097188743778304,4.054778320312503,0.06782149179662728,-0.947753422441953,1.0843873609766677
1790097188753778176,4.064778320312503,-0.37067801010795776,-1.335969730929172,1.3951828543565845
1790097188763778304,4.074778320312504,-0.750671093869413,-1.435443226269541,1.6228214227053304
1790097188773778176,4.084778320312504,-1.1421715043150287,-0.6911694347827972,1.5644922241923933
1790097188783778304,4.094778320312503,-1.07059658377185,0.15253765700968613,1.2772131135435256
1790097188793778176,4.104778320312503,-1.244066834449768,0.3938437700271606,1.1923738718032837
1790097188803778304,4.114778320312504,-1.2679580956168937,0.45050622228983084,1.2065394590809295
1790097188813778176,4.124778320312504,-1.2116269531281127,0.6450897997517443,1.259910424900365
1790097188823778304,4.1347783203125035,-1.037559114498645,0.7442596810883753,1.365860330877914
1790097188833778176,4.144778320312503,-1.0112242518242085,0.6736324142952443,1.4509372670235836
1790097188843778304,4.154778320312504,-1.0118647872901367,0.5889358891623734,1.438155400501026
1790097188853778176,4.164778320312504,-1.0101122856140137,0.5538857579231262,1.4238849878311155
1790097188863778304,4.1747783203125035,-1.0771063416694828,0.3846060613711062,1.4247550140457044
1790097188873778176,4.184778320312504,-1.2080881670712404,0.284073602781415,1.3769323220216652
1790097188883778304,4.194778320312504,-1.336405524937685,0.35879398564067044,1.3836923234899168
1790097188893778176,4.204778320312504,-1.4646704827885861,0.6084667938143583,1.4332316841954003
1790097188903778304,4.2147783203125035,-1.5253071046508178,0.8284941750597069,1.4712551664458884
1790097188913778176,4.224778320312503,-1.2691115140914917,0.905122935771942,1.485580563545227
1790097188923778304,4.234778320312504,-1.2387191582473094,0.9121475819231923,1.4847681863284938
1790097188933778176,4.244778320312504,-0.8134878913378503,0.9760336254115943,1.4782583707108863
1790097188943778304,4.254778320312504,-0.2979125705511132,0.7888559225789809,1.519448000666383
1790097188953778176,4.264778320312504,0.16862250401417664,0.19528976786003777,1.708102568026202
1790097188963778304,4.274778320312504,0.3509317636489868,-0.6874322295188904,1.9901403188705444
1790097188973778176,4.284778320312504,0.32986066571701045,-0.9360712011077466,2.0465640751220047
1790097188983778304,4.294778320312504,0.2680016910785625,-1.5258580237099881,2.1699221100712984
1790097188993778176,4.304778320312503,0.2077281564304107,-1.790913575882294,2.206026297025674
1790097189003778304,4.314778320312504,0.12345006404689483,-1.4040411138574784,2.0430609722022672
1790097189013778176,4.324778320312504,0.07864939881535289,-0.9501290064387669,1.9144449816607285
1790097189023778304,4.334778320312504,0.0791047215461731,-0.8688538670539856,1.9101194143295288
1790097189033778176,4.344778320312504,0.08047790223646548,-0.9301894014895838,2.0373677112266173
1790097189043778304,4.354778320312504,0.13043637691526153,-1.0299059841488476,2.2150675079764954
1790097189053778176,4.364778320312504,0.12392533556226132,-1.02715281892078,2.137584131978431
1790097189063778304,4.374778320312504,0.1212531775236129,-1.024009108543396,2.1214725971221924
1790097189073778176,4.3847783203125035,-0.3981646796982871,-0.06345010681837904,1.4430740180956256
1790097189083778304,4.394778320312504,-0.5341859459877014,0.179360032081604,1.4196090698242188
1790097189093778176,4.404778320312504,-0.508245071831582,0.16145518919155272,1.4546433390307518
1790097189103778304,4.414778320312504,-0.25627108588353587,-0.013940338487165777,1.7536946650445135
1790097189113778176,4.424778320312504,0.10675273649442686,-0.16883224854017775,1.7442361572183647
1790097189123778304,4.434778320312504,0.4619375103890191,-0.0033412973280856073,1.0917079144073762
1790097189133778176,4.444778320312504,0.4285093545913696,0.2105132341384887,0.704230546951294
1790097189143778304,4.454778320312504,0.326807345754187,0.3872397451185563,0.534727192624312
1790097189153778176,4.4647783203125035,0.04368782834726606,0.6890816176884542,0.35518324514885236
1790097189163778304,4.474778320312504,-0.23020959880651873,0.6812209525020421,0.5801404045585206
1790097189173778176,4.484778320312504,-0.22780267045991243,0.3477597397878495,0.40407960274011395
1790097189183778304,4.494778320312504,-0.1597365587949752,0.1677539348602295,0.1960056126117706
1790097189193778176,4.5047783203125045,0.15269582461592526,0.23245623395886972,0.02361384883433898
1790097189203778304,4.514778320312504,0.46307939675832954,0.29969513568832,-0.12953111981907317
1790097189213778176,4.524778320312504,0.5136965826090444,0.2481442725943909,-0.25227872916084076
1790097189223778304,4.534778320312504,0.20819681694486686,-0.02071528353498231,-0.3854996053583419
1790097189233778176,4.544778320312504,0.1774511337280273,-0.0466534607112407,-0.3971270620822906
1790097189243778304,4.554778320312504,0.061846992113824856,-0.05645995645029778,-0.3519616990475588
1790097189253778176,4.564778320312504,0.03605769346645435,-0.11718860920258839,-0.3646064253576437
1790097189263778304,4.574778320312504,-0.006693196111918504,-0.09024139821504618,-0.5216981391629992
1790097189273778176,4.5847783203125045,-0.160958245396614,0.142709195613861,-0.762413740158081
1790097189283778304,4.594778320312504,-0.1782321793746762,0.1549518832300914,-0.7817001620439828
1790097189293778176,4.604778320312504,-0.23207436978486062,0.19795954601859575,-0.8580776031177267
1790097189303778304,4.614778320312504,-0.24637147865061382,0.23093489505627424,-0.971388838094466
1790097189313778176,4.624778320312504,-0.17773867045245356,0.2361393311389755,-1.1781905059221822
1790097189323778304,4.634778320312504,-0.0998735278844833,0.2208976447582245,-1.3097329139709473
1790097189333778176,4.644778320312504,-0.08429536938746436,0.27471308882172996,-1.3911641561952264
1790097189343778304,4.654778320312504,-0.13873610852962343,0.45779693753133166,-1.4490538475791728
1790097189353778176,4.664778320312505,-0.1756185889244079,0.5386145710945129,-1.4483952522277832
1790097189363778304,4.674778320312504,-0.26785832214667915,0.6704522000083992,-1.4181144643436199
1790097189373778176,4.684778320312504,-0.375051688643592,0.783429259561465,-1.425292840468635
1790097189383778304,4.694778320312504,-0.37564695045951796,1.0133686096709318,-1.6277100159497635
1790097189393778176,4.704778320312504,-0.3475394820792321,0.774474196516842,-1.8355951527330177
1790097189403778304,4.714778320312504,-0.34580096071224203,0.7586627573117299,-1.8466591868990467
1790097189413778176,4.724778320312504,-0.3091874270295735,0.6968211422345354,-1.9410037771288335
1790097189423778304,4.734778320312504,-0.3045322087058421,0.8242425211179798,-1.9960652868490094
1790097189433778176,4.744778320312505,-0.29310149916100564,0.977481642288492,-1.9848638529797618
1790097189443778304,4.7547783203125045,-0.2965663373470306,1.1091458797454834,-2.123457670211792
1790097189453778176,4.764778320312504,-0.31617786510183693,1.0836318585769997,-2.1485909338986464
1790097189463778304,4.774778320312504,-0.3979600631077386,0.9787983761029908,-2.211147414102085
1790097189473778176,4.784778320312504,-0.5258036057054619,0.8497591801253578,-2.2317685786151884
1790097189483778304,4.7947783203125045,-0.7610858824256662,0.7863292852204813,-2.151618514203914
1790097189493778176,4.804778320312504,-0.9172635078430176,0.7847860455513,-2.0580971240997314
1790097189503778304,4.814778320312504,-0.9496631209927235,0.7263913447869356,-1.9638650923265748
1790097189513778176,4.824778320312505,-0.9168045968056225,0.6573987971860406,-1.8444512318293413
1790097189523778304,4.8347783203125045,-0.7972929170589071,0.6562883467865683,-1.7699363672872581
1790097189533778176,4.844778320312504,-0.6989673494964965,0.33939731798516953,-1.7670089578416175
1790097189543778304,4.854778320312504,-0.6826981902122498,0.2587701678276062,-1.770311713218689
1790097189553778176,4.864778320312504,-0.6646796986931532,0.0008811981857865248,-1.7545456224223475
1790097189563778304,4.874778320312505,-0.6205279616310644,-0.21310195554407244,-1.7093842465019036
1790097189573778176,4.884778320312504,-0.5587703037523889,-0.2914876076180534,-1.538036297511616
1790097189583778304,4.894778320312504,-0.3753656446933746,-0.3423035442829132,-1.2413179874420166
1790097189593778176,4.904778320312505,-0.3453858520785008,-0.33025085432370377,-1.244660324720574
1790097189603778304,4.914778320312505,-0.16559868091593902,-0.26587195114572276,-1.2642468415614747
1790097189613778176,4.924778320312504,-0.060734283558568976,-0.28089843942535636,-1.2861756670723496
1790097189623778304,4.934778320312504,-0.06063740037006319,-0.40993773765544683,-1.3703351855263273
1790097189633778176,4.944778320312504,-0.11316238515059102,-0.5645625680890013,-1.5238507896087141
1790097189643778304,4.954778320312505,-0.1599226704916603,-0.6961666848666089,-1.4906985079155648
1790097189653778176,4.964778320312504,-0.15400739510299177,-0.7925738639140608,-1.2194108313003522
1790097189663778304,4.974778320312504,-0.1371352076530456,-0.8071582913398743,-1.090438723564148
1790097189673778176,4.984778320312505,-0.09839144949329473,-0.6669617985461286,-0.9354636714380307
1790097189683778304,4.994778320312505,-0.0005900645506175528,-0.271351929961156,-0.7577963210358897
1790097189693778176,5.0047783203125045,0.27858495212574214,0.029349229050575132,-0.8049648285020753
1790097189703778304,5.014778320312504,0.4586973731798725,-0.07367064765807134,-0.9359385921785505
1790097189713778176,5.024778320312504,0.4798205196857452,-0.1034622564911842,-0.956663191318512
1790097189723778304,5.034778320312505,0.5653403242547903,-0.35240683680406404,-1.0263676380836675
1790097189733778176,5.0447783203125045,0.6331383791368985,-0.5919843295527871,-0.9454758508527062
1790097189743778304,5.054778320312504,0.5391293136447387,-0.544974482589004,-0.5921290511294303
1790097189753778176,5.064778320312505,0.4981459379196167,-0.4394282400608063,-0.4411080777645111
1790097189763778304,5.074778320312505,0.4846328508242153,-0.40384791392508707,-0.4104866807308065
1790097189773778176,5.0847783203125045,0.40076742094188805,-0.2304166729292797,-0.263463557831799
1790097189783778304,5.094778320312504,0.3075472726605339,-0.2277578425646386,-0.21046462196513652
1790097189793778176,5.104778320312504,0.2878109257875195,-0.45633859486028905,-0.2712066274335744
1790097189803778304,5.114778320312505,0.2806843221187591,-0.5182275176048279,-0.2963372766971588
1790097189813778176,5.124778320312505,0.2834770568416733,-0.45771804323170107,-0.2867178150423509
1790097189823778304,5.134778320312504,0.29348087127060185,-0.2628655837538584,-0.22908902637325382
1790097189833778176,5.144778320312505,0.24859682508749265,0.18750581413349754,-0.020858440454327
1790097189843778304,5.154778320312505,0.2189887464046478,0.3914003670215606,0.0799446329474449
1790097189853778176,5.164778320312505,0.1785652554964407,0.47270669242741886,0.1520638008193611
1790097189863778304,5.174778320312504,0.13344961368900618,0.3957238690449376,0.22849083282600635
1790097189873778176,5.184778320312504,0.05299755802905816,0.27355149063776046,0.2913166366713487
1790097189883778304,5.194778320312505,-0.023800922247983212,0.24624428475424864,0.32889954824978485
1790097189893778176,5.204778320312505,-0.021711880364906528,0.21369417292807172,0.40827099385521387
1790097189903778304,5.214778320312504,-0.024402843915380643,0.21614586028081906,0.41049682678535465
1790097189913778176,5.224778320312505,-0.08007695310474197,0.28517488661834667,0.44967747619907567
1790097189923778304,5.234778320312505,-0.1603474020957946,0.4824166297912597,0.5057051777839661
1790097189933778176,5.244778320312505,-0.14612294979005075,0.43268603199476824,0.5381134692538654
1790097189943778304,5.2547783203125045,-0.1010952219367027,0.2752630412578583,0.6407024264335632
1790097189953778176,5.264778320312504,-0.09556587223209427,0.2597808631640296,0.6791867044781225
1790097189963778304,5.274778320312505,-0.08840841361875611,0.20614314771014797,0.7945745899970924
1790097189973778176,5.284778320312505,-0.1197283461450937,0.13826167853694007,0.9256989734637656
1790097189983778304,5.2947783203125045,-0.1493521481752395,0.1042258143424987,0.9962918758392334
1790097189993778176,5.304778320312505,-0.10899571045185669,0.10348532945380796,1.0136932458860417
1790097190003778304,5.314778320312505,-0.039574192239962315,0.07325619788727931,1.0209266336605534
1790097190013778176,5.324778320312505,0.07538148735654589,0.1700492806327149,1.039352589851075
1790097190023778304,5.3347783203125045,0.1189345063278647,0.26186627120674266,1.0976055943523102
1790097190033778176,5.344778320312504,0.1212531775236129,0.2752630412578583,1.111131191253662
1790097190043778304,5.354778320312505,0.014393675546600954,0.1494804994008288,1.1818142913261889
1790097190053778176,5.364778320312505,0.0039705070666968,0.1372115612030029,1.188708782196045
1790097190063778304,5.374778320312505,-0.1206423342227935,-0.0484860017895698,1.1306782960891724
1790097190073778176,5.384778320312505,-0.11851416327156117,-0.050499136530050844,1.1318861731450596
1790097190083778304,5.394778320312505,-0.08116779545995645,-0.061997823563929404,1.1589573441667356
1790097190093778176,5.404778320312505,0.040004133795076335,-0.006224783341025639,1.2742371274707787
1790097190103778304,5.414778320312505,0.17863758153254655,0.06914306031607369,1.4635963654794932
1790097190113778176,5.424778320312504,0.2629697322845459,0.1433200389146804,1.6627262830734253
1790097190123778304,5.434778320312505,0.2661397705600338,0.10162196370860281,1.6880864941013483
1790097190133778176,5.444778320312505,0.2689429808451906,-0.047717206879993736,1.7147287960389561
1790097190143778304,5.454778320312505,0.27905144259545056,-0.17792952395703077,1.652179911395661
1790097190153778176,5.464778320312505,0.4252446424165655,-0.09827194210576441,1.5488144832576454
1790097190163778304,5.474778320312505,0.6111575249702437,-0.033220800848317904,1.567466977071571
1790097190173778176,5.484778320312505,0.6606312990188599,-0.0393232926726341,1.601030707359314
1790097190183778304,5.494778320312505,0.6924166441495065,-0.24686276127618778,1.8847614559234658
1790097190193778176,5.5047783203125045,0.7021689414978027,-0.3105394840240478,1.97181499004364
1790097190203778304,5.514778320312505,0.6262951115403328,-0.7858345743686963,2.133317762234524
1790097190213778176,5.524778320312505,0.5604648117993618,-0.971945879018108,2.1300989961564736
1790097190223778304,5.534778320312505,0.557177224937613,-0.9788516926399864,2.128440249085389
1790097190233778176,5.544778320312505,0.5321160531510167,-0.9808609899670231,2.0813836360498925
1790097190243778304,5.554778320312505,0.5043878996337907,-0.9443393523929968,1.9641487440409848
1790097190253778176,5.564778320312505,0.4486673176288605,-0.9507073760032654,1.9174495935440063
1790097190263778304,5.574778320312505,0.4308748170904847,-0.9168242739620647,1.8985740519360061
1790097190273778176,5.5847783203125045,0.3486636597902949,-0.741101483651555,1.8765218853796657
1790097190283778304,5.594778320312505,0.3101004508779167,-0.6192016076108466,2.008737571766867
1790097190293778176,5.604778320312505,0.353985995054245,-0.6917081475257874,2.1068122386932373
1790097190303778304,5.614778320312505,0.35915007594876375,-0.747298083302634,2.084333232072557
1790097190313778176,5.6247783203125055,0.37630686512153105,-0.8089498739754106,1.9159844808534512
1790097190323778304,5.634778320312505,0.4670850962535493,-0.5537512269711511,1.4973791170097734
1790097190333778176,5.644778320312505,0.5170822143554688,-0.394225537776947,1.3108782768249512
1790097190343778304,5.654778320312505,0.4663655918247682,0.12878958374301375,1.1324643946795652
1790097190353778176,5.664778320312505,0.4486673176288605,0.3113030195236206,1.0702043771743774
1790097190363778304,5.674778320312505,0.37641829603026694,0.39469264435458307,1.1018463332732602
1790097190373778176,5.684778320312505,0.30738916764708846,0.3988591941515205,1.0887871761362682
1790097190383778304,5.694778320312505,0.251514051714277,0.3179928977707381,0.9470673888276422
1790097190393778176,5.7047783203125055,0.2793687442936209,0.25842751628441063,0.8302332552119868
1790097190403778304,5.714778320312505,0.32962111400024235,0.1942273787796423,0.6593560005464556
1790097190413778176,5.724778320312505,0.3363847589989651,0.2758201069419824,0.31084023268361083
1790097190423778304,5.734778320312505,0.2695436741376104,0.49918332259484854,-0.05687303102208555
1790097190433778176,5.744778320312505,0.1126880250506505,0.8507452046312807,-0.2886360115720114
1790097190443778304,5.754778320312505,-0.16721577609775218,1.1442772133332242,-0.26465533156486337
1790097190453778176,5.764778320312505,-0.3118375241756439,0.9283351302146912,-0.1283542811870575
1790097190463778304,5.774778320312505,-0.2915959442168034,0.7302567636759207,-0.08816027782950513
1790097190473778176,5.784778320312506,-0.1548281848379176,0.3597067514626495,-0.12048368053484419
1790097190483778304,5.794778320312505,0.27785143072319735,0.15792057936720372,-0.6585752276658833
1790097190493778176,5.804778320312505,0.5042544007301331,0.1097234413027763,-0.9786536693572998
1790097190503778304,5.814778320312505,0.5182777420527896,0.14960233689707514,-1.1977684523557857
1790097190513778176,5.824778320312505,-0.009217073830798062,0.45351382168353627,-1.21941138489381
1790097190523778304,5.834778320312505,-0.53635139344001,0.7796267607935916,-0.9748817274813253
1790097190533778176,5.844778320312505,-0.8677784591555793,1.083727269805228,-0.7396657026549387
1790097190543778304,5.854778320312505,-0.8964946866035461,1.112200140953064,-0.7184327244758606
1790097190553778176,5.864778320312506,-0.9622716115759755,1.2314019972984798,-0.8052238978820763
1790097190563778304,5.8747783203125055,-0.6875849366188049,1.1286929845809937,-1.7391585111618042
1790097190573778176,5.884778320312505,-0.6652519470467015,1.100812598189309,-1.7936069080273243
1790097190583778304,5.894778320312505,-0.5265641247912567,0.9485910074233498,-2.1675795445741897
1790097190593778176,5.904778320312505,-0.5018110275268555,0.9985825419425964,-2.366575002670288
1790097190603778304,5.9147783203125055,-0.5450400519921421,1.050187342742269,-2.317170358670598
1790097190613778176,5.924778320312505,-0.698847284330449,1.2729267948046754,-2.1392889309886876
1790097190623778304,5.934778320312505,-0.8415619483026926,1.5917984162293568,-1.9250711964885399
1790097190633778176,5.944778320312506,-0.8782129742092085,1.755695785158825,-1.7626219056797972
1790097190643778304,5.9547783203125055,-0.8711885537660039,1.6058414060238333,-1.7772097951569075
1790097190653778176,5.964778320312505,-0.9527694727358332,1.3470085203624593,-1.9304572955683534
1790097190663778304,5.974778320312505,-1.149970916188839,1.1489905960669418,-2.0564649427861514
1790097190673778176,5.984778320312505,-1.504769147501729,0.9122612366188851,-1.8524909352060352
1790097190683778304,5.994778320312506,-1.4678496723763315,0.6655680631064518,-1.5199989703076193
1790097190693778176,6.004778320312505,-1.4383162260055542,0.6235223412513733,-1.4618338346481323
1790097190703778304,6.014778320312505,-1.0855538121652322,0.5851537077078676,-1.3913959263149116
1790097190713778176,6.024778320312506,-0.8083036045213778,0.7301984977451371,-1.6660473442993442
1790097190723778304,6.034778320312506,-0.840296745300293,0.2667111754417419,-1.6285951137542725
1790097190733778176,6.044778320312505,-0.8570059072630966,0.19773988195839792,-1.6050403587496749
1790097190743778304,6.054778320312505,-0.9940376620236886,-0.3584276945832388,-1.4201520514509471
1790097190753778176,6.064778320312505,-1.0149274155351835,-0.5270888132776463,-1.3435824152101614
1790097190763778304,6.074778320312506,-0.8077158517716558,-0.2719766559910116,-1.3166098554121657
1790097190773778176,6.084778320312505,-0.6130638856495376,-0.1398416125793769,-1.4408122265962002
1790097190783778304,6.094778320312505,-0.5140279531478882,-0.0637571811676025,-1.5394114255905151
1790097190793778176,6.104778320312506,-0.49203547018612476,0.009055808367266951,-1.5575403944233228
1790097190803778304,6.114778320312506,-0.4845448698940923,0.07686998823131809,-1.5325244748243536
1790097190813778176,6.1247783203125055,-0.5384243400816557,-0.22164949669319484,-1.3306257847841862
1790097190823778304,6.134778320312505,-0.5275113760567831,-0.44364895191996334,-1.1166532512155565
1790097190833778176,6.144778320312505,-0.509141206741333,-0.4608078896999359,-1.0635614395141602
1790097190843778304,6.154778320312506,-0.2635196474636253,-0.1552314875335481,-0.9857168126827
1790097190853778176,6.1647783203125055,-0.1988307833671569,-0.0747524350881576,-0.965215027332306
1790097190863778304,6.174778320312505,0.028846039045081623,-0.3342370535211742,-1.0533839381897143
1790097190873778176,6.184778320312506,0.0503949001431465,-0.3587964177131653,-1.061728835105896
1790097190883778304,6.194778320312506,0.1171076019638477,-0.4907649004215873,-1.0202692478620594
1790097190893778176,6.2047783203125055,0.12406364791661689,-0.30138956400216815,-0.9340735559002472
1790097190903778304,6.214778320312505,0.1874486017694036,-0.0288379070064477,-0.8538759686377976
1790097190913778176,6.224778320312505,0.3552076816558838,0.2068481594324112,-0.6994964480400085
1790097190923778304,6.234778320312506,0.36716212064335313,0.2184610451627502,-0.6556065753771043
1790097190933778176,6.244778320312506,0.39609461970131943,0.20552934092710362,-0.5009005326832454
1790097190943778304,6.254778320312505,0.3284450003467922,-0.050388161353695934,-0.3626927998603641
1790097190953778176,6.264778320312506,0.2330382317304611,-0.3080960810184479,-0.2767901718616485
1790097190963778304,6.274778320312506,0.1882619661218027,-0.3842157411353944,-0.2633572851572286
1790097190973778176,6.284778320312506,0.10859539574806239,-0.34991788643024124,-0.24399251883084294
1790097190983778304,6.294778320312505,0.011923830875685396,-0.057855224934803606,-0.22708675982848847
1790097190993778176,6.304778320312505,-0.027687533451904615,0.13243324154382038,-0.16620668715842155
1790097191003778304,6.314778320312506,-0.011055582401616297,0.2582361618191702,0.025173820367373423
1790097191013778176,6.324778320312506,-0.03313495361834026,0.2707771622907528,0.14056014801200414
1790097191023778304,6.334778320312505,-0.0387887991964817,0.2673220336437225,0.1538571566343307
1790097191033778176,6.344778320312506,-0.08814605444799464,0.0344719335112188,0.13934031247995887
1790097191043778304,6.354778320312506,-0.1491816439128532,-0.002052224721914282,0.06265645300499788
1790097191053778176,6.364778320312506,-0.13336126269561002,0.5781059314497824,0.16118125334851358
1790097191063778304,6.3747783203125055,-0.1163664013147354,0.6846070885658264,0.2937411665916443
1790097191073778176,6.384778320312505,-0.12278651481809041,0.6739068916595492,0.3216805554456669
1790097191083778304,6.394778320312506,-0.1609069162339437,0.6073020017958044,0.46961239891571055
1790097191093778176,6.404778320312506,-0.21234907458602476,0.4675971135809822,0.6283364305008117
1790097191103778304,6.4147783203125055,-0.2507528066635132,0.306416243314743,0.7677586674690247
1790097191113778176,6.424778320312506,-0.24432207858942812,0.23835775082990845,0.7793138577721799
1790097191123778304,6.434778320312506,-0.28217798139706446,0.15767029404451105,0.740958101930424
1790097191133778176,6.444778320312506,-0.328330397605896,0.1640888452529907,0.6877376437187195
1790097191143778304,6.4547783203125055,-0.26339716067525887,0.12877427755571932,0.6752066837717877
1790097191153778176,6.464778320312505,-0.2238755226135254,0.1072800531983375,0.667579710483551
1790097191163778304,6.474778320312506,-0.12802608018741685,0.20721786170145018,0.7653029843604073
1790097191173778176,6.484778320312506,-0.036495162087453244,0.3842704147078404,1.0206663924292945
1790097191183778304,6.494778320312506,-0.03868838914464589,0.31941005453554816,1.3325293719716331
1790097191193778176,6.504778320312506,-0.05425105565984339,-0.19017800720817168,1.525403932605517
1790097191203778304,6.514778320312506,-0.055281676352024,-0.229296788573265,1.5375025272369385
1790097191213778176,6.524778320312506,-0.027912473472997777,-0.4010800265548814,1.3717931801187622
1790097191223778304,6.534778320312506,-0.0302369389683008,-0.3917821645736694,1.0341644287109375
1790097191233778176,6.544778320312505,-0.03232209524132006,-0.359045212072792,1.0478222068612422
1790097191243778304,6.554778320312506,-0.04995449736799447,-0.14902856070705298,1.1649914665214949
1790097191253778176,6.564778320312506,-0.08215894039942391,0.02851053173969873,1.4182232242811372
1790097191263778304,6.574778320312506,-0.12471832825735209,-0.19012471702989406,1.7612878885727627
1790097191273778176,6.584778320312506,-0.16252192186018485,-0.7010265781082424,2.008897393839967
1790097191283778304,6.594778320312506,-0.10094646095762999,-0.7056318378901758,1.9459577252356115
1790097191293778176,6.604778320312506,-0.0448972731828689,-0.5964159965515137,1.8844637870788572
1790097191303778304,6.614778320312506,0.05221935403957137,-0.37370493121113596,1.8012209675623414
1790097191313778176,6.6247783203125055,0.236687629031677,-0.11475871390354539,1.6751793702298725
1790097191323778304,6.634778320312506,0.35115406103528674,-0.13739232894066006,1.6090086054298336
1790097191333778176,6.644778320312506,0.31399839024248616,-0.5335000639321482,1.7504431622663115
1790097191343778304,6.654778320312506,0.2977880239486694,-0.6361210346221924,1.793447494506836
1790097191353778176,6.664778320312506,0.2652544867751283,-0.7447500299457197,1.9566666600959015
1790097191363778304,6.674778320312506,0.31531647930635076,-0.8712474768634205,2.1997166529892906
1790097191373778176,6.684778320312506,0.3209880902805995,-0.8726448336178222,2.207775106184498
1790097191383778304,6.694778320312506,0.4651601910591125,-0.7570688128471375,2.190498352050781
1790097191393778176,6.7047783203125055,0.4713440775778885,-0.7612810255301443,2.175173055142076
1790097191403778304,6.714778320312506,0.5079430782737846,-0.8252397810452192,2.063204122129974
1790097191413778176,6.724778320312506,0.4959178543371468,-1.056512884562146,1.973300383897223
1790097191423778304,6.734778320312506,0.3941725093048188,-1.4313715081733487,2.0150509135826473
1790097191433778176,6.7447783203125065,0.2672456800937652,-1.7466413974761963,2.1153640747070312
1790097191443778304,6.754778320312506,0.23854818252323703,-1.7433301425786065,2.121986584502211
1790097191453778176,6.764778320312506,0.20152521082241576,-1.4849989156438868,1.9922196979947924
1790097191463778304,6.774778320312506,0.1994416266679763,-1.243303298950195,1.8612515926361084
1790097191473778176,6.784778320312506,0.23394844014169333,-1.0176519918629885,1.7534662742956617
1790097191483778304,6.794778320312506,0.2950306121700754,-0.8006681345426281,1.6264133059092214
1790097191493778176,6.804778320312506,0.364830251366126,-0.8480811288263289,1.624324204859618
1790097191503778304,6.814778320312506,0.40594964383058324,-0.9310177946890912,1.61930824415838
1790097191513778176,6.8247783203125065,0.37490473095752963,-0.8676915613202555,1.3978332510642344
1790097191523778304,6.834778320312506,0.31131716236133944,-0.1672660324885611,0.84130325395717
1790097191533778176,6.844778320312506,0.2867927849292755,0.0315349884331226,0.8423583507537842
1790097191543778304,6.854778320312506,0.2832106932729087,0.03198746325338349,0.8408123952137069
1790097191553778176,6.864778320312506,0.22441407342505237,0.03339238911681125,0.8029101181934334
1790097191563778304,6.874778320312506,0.21443289050312128,-0.016949953588548738,0.6905270857400548
1790097191573778176,6.884778320312506,0.3563100873637879,-0.09641158574014008,0.5815198261259518
1790097191583778304,6.894778320312506,0.5269022707305874,-0.14854080735459532,0.3297387777469638
1790097191593778176,6.904778320312507,0.5588002538306415,0.0034661598966265056,0.17887383438567778
1790097191603778304,6.914778320312506,0.5274665951728821,0.1121668294072151,0.0933832749724388
1790097191613778176,6.924778320312506,0.4101370321855172,0.16650266338727188,0.013073719496289354
1790097191623778304,6.934778320312506,0.13125118999979538,0.25927288324135067,-0.14582064959302943
1790097191633778176,6.944778320312506,-0.022008775454179563,0.04471701804478262,-0.2534136640120027
1790097191643778304,6.954778320312506,-0.038177952170372,-0.1107924208045005,-0.2828986346721649
1790097191653778176,6.964778320312506,-0.005503060214848331,-0.19538906521465202,-0.4467206883896734
1790097191663778304,6.974778320312506,0.12471775925297887,0.2159423869671781,-1.1712007289935005
1790097191673778176,6.984778320312507,0.1554606258869171,0.3308501541614532,-1.3439403772354126
1790097191683778304,6.9947783203125065,0.22985767519202033,0.6497645983587151,-1.5402814162796028
1790097191693778176,7.004778320312506,0.0010312247853380696,0.8825630854517902,-1.4885410923395987
1790097191703778304,7.014778320312506,-0.014731868090423952,0.8977665134783023,-1.4861173414599675
1790097191713778176,7.024778320312506,-0.2973604356259022,1.1950342577306516,-1.4694348586005674
1790097191723778304,7.0347783203125065,-0.5183254152671569,1.4936224468815429,-1.5082602890859127
1790097191733778176,7.044778320312506,-0.528347162214714,1.4175190173872625,-1.6184436869736654
1790097191743778304,7.054778320312506,-0.5292991399765015,1.2575818300247192,-1.7464886903762815
1790097191753778176,7.064778320312507,-0.5192493812204847,1.305108835848274,-1.8748586843060016
1790097191763778304,7.0747783203125065,-0.5221754628425639,1.3878586082318787,-2.111888919687522
1790097191773778176,7.084778320312506,-0.5927474646873157,1.3229558239116814,-2.0836507713696313
1790097191783778304,7.094778320312506,-0.6362738013267517,1.2624685764312744,-2.0666489601135254
1790097191793778176,7.104778320312506,-0.664589202490514,1.2011782816940726,-2.0329572780501564
1790097191803778304,7.114778320312507,-0.697192681671021,1.1295243407697382,-2.01002076915039
1790097191813778176,7.124778320312506,-0.7356831251193384,1.0205156969661906,-2.069332206429938
1790097191823778304,7.134778320312506,-0.8304845120449562,0.8532548361164224,-2.126440277119648
1790097191833778176,7.144778320312507,-0.9452872576584451,0.63557959493469,-2.057119843972335
1790097191843778304,7.154778320312507,-1.0399493274001073,0.4040770318703323,-1.8306616151454178
1790097191853778176,7.164778320312506,-1.0288370431140996,0.16441553590768176,-1.6101646642797254
1790097191863778304,7.174778320312506,-0.8635617675900195,0.033598444793364754,-1.6015941217231389
1790097191873778176,7.184778320312506,-0.6827393435671443,0.08178579753252058,-1.7214670719653686
1790097191883778304,7.194778320312507,-0.5622848868370056,-0.0674222633242607,-1.6915124654769895
1790097191893778176,7.204778320312506,-0.5601214466294374,-0.11790272785642862,-1.6704789323581215
1790097191903778304,7.214778320312506,-0.5237350846676339,-0.366333455194068,-1.601461819394466
1790097191913778176,7.224778320312507,-0.4044741974563398,-0.4633721346543322,-1.6774300419625636
1790097191923778304,7.234778320312507,-0.2848344917240252,-0.3514163571515603,-1.722417378190892
1790097191933778176,7.2447783203125065,-0.21314653545493772,-0.3535656185480267,-1.6731405575052822
1790097191943778304,7.254778320312506,-0.19333316385746,-0.4779116213321686,-1.6389795541763306
1790097191953778176,7.264778320312506,-0.18302004284853524,-0.5267270451204926,-1.6706064876752649
1790097191963778304,7.274778320312507,-0.17805593652360704,-0.35318359541427546,-1.6102091477693565
1790097191973778176,7.2847783203125065,-0.1798945218324661,-0.2256316989660263,-1.5589585304260254
1790097191983778304,7.294778320312506,-0.18262780592982863,-0.13224427190300556,-1.2587521251095066
1790097191993778176,7.304778320312507,-0.10914564836922858,-0.009238609514744839,-1.0346867443287846
1790097192003778304,7.314778320312507,0.1116954571762187,0.1901724411053257,-0.9519938005404478
1790097192013778176,7.3247783203125065,0.1426328420639038,0.2172325551509857,-0.9438353776931764
1790097192023778304,7.334778320312506,0.45641876083805144,0.40231487221363105,-1.0018766839306068
1790097192033778176,7.344778320312506,0.9929322004318236,0.0993390381336212,-1.3463836908340454
1790097192043778304,7.354778320312507,1.0005108737495207,0.047312510826140484,-1.3506850971334108
1790097192053778176,7.364778320312507,1.0150388817596812,-0.3822736886075334,-1.3329429947783713
1790097192063778304,7.374778320312506,0.7962393760681152,-0.4595862030982971,-1.0843302011489868
1790097192073778176,7.384778320312507,0.7483431058170068,-0.39440405764031616,-0.9744929007676157
1790097192083778304,7.394778320312507,0.6068071825981448,-0.2260726457871815,-0.661079450768879
1790097192093778176,7.404778320312507,0.5580089688301086,-0.2036412060260772,-0.5693860054016113
1790097192103778304,7.414778320312506,0.49934755587457996,-0.18262816247306085,-0.5101408863104795
1790097192113778176,7.424778320312506,0.39836916421885377,-0.18138098329204017,-0.38055076226015006
1790097192123778304,7.434778320312507,0.3177207381763934,-0.2479700574594766,-0.2664285493566404
1790097192133778176,7.444778320312507,0.2583207224949321,-0.2630446784199066,-0.18735225530053
1790097192143778304,7.454778320312506,0.2993135612167298,0.053393340116326626,-0.13950304094849308
1790097192153778176,7.464778320312507,0.3203893899917602,0.1720298528671264,-0.1289651244878769
1790097192163778304,7.474778320312507,0.3379136125607086,0.18130739207729238,-0.12329552417791587
1790097192173778176,7.484778320312507,0.2195713236361242,0.23773920492815484,0.011499742083440803
1790097192183778304,7.4947783203125065,0.15898752986740805,0.1803765587760108,0.14002550852853074
1790097192193778176,7.504778320312506,0.15649225745478945,0.17614422002058208,0.14692766299805488
1790097192203778304,7.514778320312507,0.12478845390748262,0.09739639458738679,0.2539627704151604
1790097192213778176,7.524778320312507,0.09267956259206822,0.01803549360189691,0.2861181159106299
1790097192223778304,7.5347783203125065,0.05239089265927607,-0.05582165689367068,0.24007825365164123
1790097192233778176,7.544778320312507,0.035042326240112984,0.10535922993877833,0.1614208900310976
1790097192243778304,7.554778320312507,0.08582404255867,0.4341596961021423,0.1159846261143684
1790097192253778176,7.564778320312507,0.11581457688118507,0.522451822405232,0.161090388962865
1790097192263778304,7.5747783203125065,0.15913096317934217,0.7171593372522397,0.3253423860749103
1790097192273778176,7.584778320312506,0.09854792170513704,0.5526217160205278,0.6337972797497354
1790097192283778304,7.594778320312507,0.0448972731828689,0.3314609825611114,0.8173136115074158
1790097192293778176,7.604778320312507,0.010668687142268436,0.11714336586692062,0.8643779444441844
1790097192303778304,7.614778320312507,-0.006299938933033145,-0.11721285582483132,0.9108324713633678
1790097192313778176,7.624778320312507,0.11855577403204233,-0.04711892672734544,1.003677686014418
1790097192323778304,7.634778320312507,0.1579040139913559,-0.0093917762860655,1.0304993391036987
1790097192333778176,7.644778320312507,0.21331802372898961,0.20849822709797836,1.2268693706802214
1790097192343778304,7.654778320312507,0.20183766462643749,0.4290600338871767,1.3374467596923734
1790097192353778176,7.664778320312506,0.1902789175510406,0.472032219171524,1.3945642709732056
1790097192363778304,7.674778320312507,0.19218699835757375,0.463304696110296,1.395771424873197
1790097192373778176,7.684778320312507,0.23049765612525167,0.3345164593044925,1.4071758134818133
1790097192383778304,7.694778320312507,0.3026748299598694,0.3302392959594726,1.3628002405166626
1790097192393778176,7.704778320312507,0.3319156835693138,0.3567859305593002,1.3463711051355425
1790097192403778304,7.714778320312507,0.4162917685406702,0.35734697922767755,1.305052837672736
1790097192413778176,7.724778320312507,0.4052971601486206,0.1763057857751846,1.3249276876449585
1790097192423778304,7.734778320312507,0.3724830688436612,0.05948761739955227,1.3485538221138385
1790097192433778176,7.7447783203125065,0.29716596514920285,-0.137188841623952,1.4269673259220919
1790097192443778304,7.754778320312507,0.2648655045003175,-0.14807412296571695,1.5118691758809835
1790097192453778176,7.764778320312507,0.29311084083414185,-0.011745450228491314,1.5415418985640046
1790097192463778304,7.774778320312507,0.36206039325085715,0.10060329500649712,1.523258414035027
1790097192473778176,7.784778320312507,0.48301664939911304,-0.08332692364335338,1.5784699129656332
1790097192483778304,7.794778320312507,0.5011667766196933,-0.3137304001385003,1.6502482538720287
1790097192493778176,7.804778320312507,0.4969242513179779,-0.3539096415042877,1.6627262830734253
1790097192503778304,7.814778320312507,0.5384081663345829,-0.6000101144768635,1.7955868607003147
1790097192513778176,7.8247783203125065,0.5421269536018372,-0.6220715641975403,1.8074970245361328
1790097192523778304,7.834778320312507,0.647192656993866,-0.7845569252967834,2.0206828117370605
1790097192533778176,7.844778320312507,0.6478695350780763,-0.7891719834931967,2.024990184976698
1790097192543778304,7.854778320312507,0.6550974063020459,-0.9203618466989332,2.0468464514547953
1790097192553778176,7.8647783203125075,0.6612421870231628,-1.3868523836135864,1.960819721221924
1790097192563778304,7.874778320312507,0.6595090787207811,-1.4591224113196364,1.9760709525235864
1790097192573778176,7.884778320312507,0.6530279419533576,-1.6369430754780898,2.058162787312415
1790097192583778304,7.894778320312507,0.6534861378062625,-1.520579078268553,2.1377978036917784
1790097192593778176,7.904778320312507,0.6300867459035889,-1.2789298127095001,2.026457485811591
1790097192603778304,7.914778320312507,0.5069139271459941,-1.0783891514503816,1.7692362865777855
1790097192613778176,7.924778320312507,0.34997162140096255,-0.8892587117788796,1.5833361736835831
1790097192623778304,7.934778320312507,0.2959555089473724,-0.8224294781684875,1.538113355636597
1790097192633778176,7.9447783203125075,0.3280815476697486,-0.6843742472011313,1.6001948206216365
1790097192643778304,7.954778320312507,0.32607341657305844,-0.5635983688443746,1.6806182042318725
1790097192653778176,7.964778320312507,0.2682029330185859,-0.4895598798849237,1.3973393301630475
1790097192663778304,7.974778320312507,0.2640230274265342,-0.4102837784420036,1.1198725766303719
1790097192673778176,7.984778320312507,0.2648022770881653,-0.4021665751934051,1.094027400016785
1790097192683778304,7.994778320312507,0.23263266826748794,-0.17756307204081362,0.8624789788813553
1790097192693778176,8.004778320312507,0.1454270593910164,0.13035920897153888,0.6160285199995587
1790097192703778304,8.014778320312507,-0.13864899536417347,0.28767485015904154,0.44157072403410674
1790097192713778176,8.024778320312507,-0.1481304615736007,0.2697654068470001,0.4262950420379638
1790097192723778304,8.034778320312506,-0.12655577863846493,0.22629876827642123,0.41265222304859034
1790097192733778176,8.044778320312506,-0.040569128813320074,0.07614416404713659,0.29364362382961867
1790097192743778304,8.054778320312506,0.012466434732162402,0.09001904700371377,-0.029255243722710045
1790097192753778176,8.064778320312506,-0.0024108332846821193,0.36079892982821016,-0.42369564405831184
1790097192763778304,8.074778320312507,-0.10197357800965132,0.7378277377254786,-0.6374057375143244
1790097192773778176,8.084778320312507,-0.26275570631162404,0.8092412942709013,-0.6734092392169326
1790097192783778304,8.094778320312507,-0.3271087110042572,0.7291989326477051,-0.6787276864051819
1790097192793778176,8.104778320312507,-0.3849931000475014,0.6209802646800011,-0.752551235465361
1790097192803778304,8.114778320312507,-0.40181460748788145,0.46746922917436784,-0.9168573697697517
1790097192813778176,8.124778320312506,-0.2558217433026292,0.4249176532639891,-1.2711495956410475
1790097192823778304,8.134778320312506,-0.19229432701591562,0.5501274317893696,-1.4279536853042838
1790097192833778176,8.144778320312506,-0.1878355294466018,0.5691569447517395,-1.4404542446136477
1790097192843778304,8.154778320312506,-0.2350842194022211,0.6509335331828837,-1.496183398189536
1790097192853778176,8.164778320312505,-0.37399611540557476,0.7373110662563556,-1.5160394464077602
1790097192863778304,8.174778320312507,-0.6830315861133618,1.0952771187663364,-1.555363042681043
1790097192873778176,8.184778320312507,-0.7999808192253113,1.2062705755233765,-1.627373456954956
1790097192883778304,8.194778320312507,-0.8175432135736593,1.1885642456599,-1.6489665654511183
1790097192893778176,8.204778320312506,-0.8848328985307844,1.1354853469246955,-1.7440068873944672
1790097192903778304,8.214778320312506,-0.9274553622225229,1.1761638677116104,-1.8129100832107428
1790097192913778176,8.224778320312506,-0.9927564228033899,1.2424681797529245,-1.814575097314134
1790097192923778304,8.234778320312506,-1.0637011147716622,1.2274538665640538,-1.7149785242320377
1790097192933778176,8.244778320312507,-1.0599819762520097,1.1901404388240187,-1.5878264595785065
1790097192943778304,8.254778320312507,-1.0333244800567627,1.187334418296814,-1.551628351211548
1790097192953778176,8.264778320312507,-0.9624918611090388,0.9970981514199252,-1.4977955529122653
1790097192963778304,8.274778320312507,-0.9264262318611144,0.9002361297607422,-1.4703856706619265
1790097192973778176,8.284778320312506,-0.9288226163804797,0.7104403339013993,-1.5082490230906327
1790097192983778304,8.294778320312506,-1.0064452533323511,0.38605835402707384,-1.501596796050947
1790097192993778176,8.304778320312506,-1.0204967260360718,0.336347758769989,-1.49848473072052
1790097193003778304,8.314778320312506,-1.0423657108710773,0.14780180253678243,-1.5114878454258114
1790097193013778176,8.324778320312506,-1.0375207032074352,0.14321840720760085,-1.5108043393625068
1790097193023778304,8.334778320312507,-0.8352115890410716,0.19615979902233535,-1.479561108468928
1790097193033778176,8.344778320312507,-0.7028561234474182,0.1372115612030029,-1.547963261604309
1790097193043778304,8.354778320312507,-0.6826899090387142,0.1267406414553773,-1.5548146207400897
1790097193053778176,8.364778320312507,-0.5932223093909208,0.05226389356696654,-1.5728447829823038
1790097193063778304,8.374778320312506,-0.5488413398141476,-0.13305930066818616,-1.4982372634472765
1790097193073778176,8.384778320312506,-0.536629319190979,-0.33903085667382793,-1.3385263026956438
1790097193083778304,8.394778320312506,-0.536629319190979,-0.3771218359470367,-1.2608650922775269
1790097193093778176,8.404778320312507,-0.513909117254653,-0.4490691010237624,-1.2031179264686787
1790097193103778304,8.414778320312507,-0.46160002750920737,-0.5601448592891963,-1.136378444795872
1790097193113778176,8.424778320312507,-0.3991061540798009,-0.48564972604694945,-1.1961326928656537
1790097193123778304,8.434778320312507,-0.38128798412715187,-0.4142681261925142,-1.2099969047845762
1790097193133778176,8.444778320312507,-0.3768024849735968,-0.3830154864601153,-1.1285528815088957
1790097193143778304,8.454778320312506,-0.374754786491394,-0.3746784329414367,-1.1063207387924194
1790097193153778176,8.464778320312506,-0.33647715391354555,-0.31699241846583226,-1.0459390945314306
1790097193163778304,8.474778320312506,-0.20919423249564278,-0.30297769854993184,-1.015427408567665
1790097193173778176,8.484778320312506,0.1606648667720071,-0.21933289417174257,-0.9000948150342875
1790097193183778304,8.494778320312507,0.2299840003252029,-0.311150312423706,-0.8192225098609924
1790097193193778176,8.504778320312507,0.2298293810032655,-0.3346523173451553,-0.8134243239493002
1790097193203778304,8.514778320312507,0.21467159201154387,-0.48745409322744787,-0.753246694614025
1790097193213778176,8.524778320312507,0.1536280810832977,-0.4467584192752838,-0.6658998727798462
1790097193223778304,8.534778320312506,0.13415171146283122,-0.3909765762517143,-0.5422343684153166
1790097193233778176,8.544778320312506,0.0907108187675476,-0.2665584683418274,-0.2664057612419128
1790097193243778304,8.554778320312506,0.14474973839072341,-0.27051254237544203,-0.1580643115673242
1790097193253778176,8.564778320312508,0.21804051197010893,-0.28595038029896286,-0.015648396620029204
1790097193263778304,8.574778320312507,0.2202104330062866,-0.2964899837970733,-0.0159583855420351
1790097193273778176,8.584778320312507,0.20369349651392693,-0.3452900371694465,-0.02346608623696246
1790097193283778304,8.594778320312507,0.171462797362411,-0.3404123785928897,-0.011669399815761178
1790097193293778176,8.604778320312507,0.1578089563584273,-0.00033922720263984685,0.14562528319134369
1790097193303778304,8.614778320312507,0.17470719308538835,0.1278871966242561,0.23657107798492316
1790097193313778176,8.624778320312506,0.1792836636304855,0.1311030983924865,0.2460950911045074
1790097193323778304,8.634778320312506,0.172543444156472,0.1631191511704675,0.2545203551706077
1790097193333778176,8.644778320312506,0.13661555611564924,0.2401909871436686,0.2941894538167169
1790097193343778304,8.654778320312507,0.007566998138500003,0.2491153862797995,0.5100879952368365
1790097193353778176,8.664778320312507,-0.03346535001539431,0.13800457575191308,0.6327566123454574
1790097193363778304,8.674778320312507,-0.0082464376464486,0.0058794049546122,0.6969003677368164
1790097193373778176,8.684778320312507,0.002998879951860345,0.004645162771060466,0.6981346119393568
1790097193383778304,8.694778320312507,0.05562037530721799,0.02601809317640797,0.7036187752987944
1790097193393778176,8.704778320312506,0.10660855512600897,0.07006971376409987,0.7259339440426688
1790097193403778304,8.714778320312506,0.13376356758122968,-0.047503859316837455,0.8847535393286163
1790097193413778176,8.724778320312508,0.15487145566988017,-0.1753439687182025,1.116672126188715
1790097193423778304,8.734778320312508,0.185392141342163,-0.1889808773994445,1.1777135133743286
1790097193433778176,8.744778320312507,0.22615034238226753,-0.19186641204322336,1.1982729543103605
1790097193443778304,8.754778320312507,0.3483337766766113,-0.09557432732165208,1.203378957473701
1790097193453778176,8.764778320312507,0.427301082846776,-0.006866726947483762,1.1775926972666777
1790097193463778304,8.774778320312507,0.4662963839388734,-0.00787920804116582,1.1658544727039342
1790097193473778176,8.784778320312506,0.4834976661333829,-0.03130525214572175,1.1857837884159392
1790097193483778304,8.794778320312506,0.44921814289181133,-0.03832918048125222,1.216731984299451
1790097193493778176,8.804778320312506,0.4450022280216217,-0.0387124456465244,1.2198619842529297
1790097193503778304,8.814778320312508,0.42074550635428354,-0.08443108411300644,1.2723436186404895
1790097193513778176,8.824778320312507,0.4698075430045209,0.03646999457189155,1.446007288775138
1790097193523778304,8.834778320312507,0.5320767386653873,0.18211458894877133,1.5050360336187973
1790097193533778176,8.844778320312507,0.5793886184692383,0.1915769726037979,1.5497194528579712
1790097193543778304,8.854778320312507,0.5902472608186391,0.15756389527496392,1.5602587334558182
1790097193553778176,8.864778320312507,0.6179720211902868,0.03192415555476198,1.59102019152946
1790097193563778304,8.874778320312506,0.6590731733452442,-0.019855514576063736,1.59496333649361
1790097193573778176,8.884778320312508,0.7682727364073361,-0.03151509669493548,1.6481964470331103
1790097193583778304,8.894778320312508,0.8133826009728145,-0.15078182848605506,1.809463188175078
1790097193593778176,8.904778320312507,0.8170081973075867,-0.2329618781805038,1.905843496322632
1790097193603778304,8.914778320312507,0.8131757124550106,-0.3973757419999179,2.0062548014001345
1790097193613778176,8.924778320312507,0.8138432354283096,-0.6644774136063867,2.0995256013588515
1790097193623778304,8.934778320312507,0.8632404055717511,-0.816717130249214,1.8780914897543473
1790097193633778176,8.944778320312507,0.8803046391796828,-0.7697051307891757,1.6603424140394676
1790097193643778304,8.954778320312506,0.8805363178253174,-0.7527928948402405,1.6279079914093018
1790097193653778176,8.964778320312506,0.8919269886466761,-0.6098397704103684,1.6056960554886828
1790097193663778304,8.974778320312508,0.9236999195623737,-0.5569944475323881,1.7418276808513564
1790097193673778176,8.984778320312508,0.9070671995778934,-0.6632950636200704,1.9406772302339506
1790097193683778304,8.994778320312507,0.8451584674443123,-0.8808995657335441,2.0207113532045637
1790097193693778176,9.004778320312507,0.7424848675727844,-1.0435562133789062,1.8991241455078125
1790097193703778304,9.014778320312507,0.7256668962613768,-1.0510952956737358,1.847945327432063
1790097193713778176,9.024778320312507,0.6716265678405762,-1.0753202438354492,1.683495044708252
1790097193723778304,9.034778320312506,0.6448467154780343,-1.0698325689954298,1.6635199322796674
1790097193733778176,9.044778320312508,0.5087777589571755,-0.8967497247760561,1.5508799747269777
1790097193743778304,9.054778320312508,0.33022674545771225,-0.5754071331554274,1.3737960126814668
1790097193753778176,9.064778320312508,0.26278408550023197,-0.3376385967302621,1.2295291476229484
1790097193763778304,9.074778320312507,0.2574721276760101,-0.2244100123643875,1.1722159385681152
1790097193773778176,9.084778320312507,0.2627473460688082,-0.17490407860561094,1.0650883169424419
1790097193783778304,9.094778320312507,0.2654131352901459,-0.1498866528272628,1.0109522342681885
1790097193793778176,9.104778320312507,0.342262860115714,-0.1513275759407445,0.8779061213616921
1790097193803778304,9.114778320312507,0.4226693164544656,-0.1108311097530659,0.633619448076542
1790097193813778176,9.124778320312506,0.45947332672700625,0.015272180407681316,0.307042160447423
1790097193823778304,9.134778320312508,0.31526970704459056,0.28185416115002143,-0.20587156174456822
1790097193833778176,9.144778320312508,0.1273616552352905,0.3571165800094604,-0.3684172630310058
1790097193843778304,9.154778320312507,0.1046120487311516,0.3700038409818557,-0.3889365134226108
1790097193853778176,9.164778320312507,-0.13330396838842656,0.4860216381094938,-0.6093923582158928
1790097193863778304,9.174778320312507,-0.1969982385635376,0.4176668226718902,-0.6994964480400085
1790097193873778176,9.184778320312507,-0.20571000828304808,0.4319072077804564,-0.7593060932866811
1790097193883778304,9.194778320312507,-0.2668535950974752,0.5979933494138429,-1.0545747092938529
1790097193893778176,9.204778320312508,-0.34092762803046045,0.90705010719437,-1.340264334198196
1790097193903778304,9.214778320312508,-0.3387148082256317,0.9900307059288024,-1.3616548776626587
1790097193913778176,9.224778320312508,-0.3830335825436962,0.9504603496524995,-1.4287662068495472
1790097193923778304,9.234778320312508,-0.4242334067821502,0.913674771785736,-1.4911545515060425
1790097193933778176,9.244778320312507,-0.5044063031296255,1.019268294185387,-1.5341741106785316
1790097193943778304,9.254778320312507,-0.6326095250385326,1.183547971344779,-1.5279352495883352
1790097193953778176,9.264778320312507,-0.722978120880811,1.2869261899575781,-1.4456037613342312
1790097193963778304,9.274778320312507,-0.7974432803022161,1.3102564689579206,-1.5979492146648155
1790097193973778176,9.284778320312506,-0.8594440250905214,1.2719087280127808,-1.782222863130708
1790097193983778304,9.294778320312508,-0.927153114022897,1.230947795001909,-1.8314879098962158
1790097193993778176,9.304778320312508,-0.9309819954508323,1.2282744331010602,-1.8328129591247628
1790097194003778304,9.314778320312508,-0.9753301956789082,1.132563300287768,-1.759632790568743
1790097194013778176,9.324778320312507,-0.9794904302669583,1.1549888529359038,-1.6431015492014995
1790097194023778304,9.334778320312507,-1.0635365878805454,1.2333509163955116,-1.4387056226788835
1790097194033778176,9.344778320312507,-1.0708922893638821,0.9287444414937169,-1.3645537616366232
1790097194043778304,9.354778320312507,-1.0846649183947072,0.6631626166660429,-1.3734412707455568
1790097194053778176,9.364778320312508,-1.1240732913714877,0.4979226528763546,-1.4486984846274908
1790097194063778304,9.374778320312508,-1.1552065109067262,0.3699711561271442,-1.5327804434903738
1790097194073778176,9.384778320312508,-1.1628241539001465,0.2923667728900909,-1.5760623216629028
1790097194083778304,9.394778320312508,-1.0749946770219436,0.13773263688287388,-1.6683002240497415
1790097194093778176,9.404778320312507,-1.0046147108078003,0.013820419088006,-1.7422127723693848
1790097194103778304,9.414778320312507,-0.9297477823883307,0.08413739819760825,-1.6962998872716162
1790097194113778176,9.424778320312507,-0.7592379420628457,0.09692393727716218,-1.5301268788214581
1790097194123778304,9.434778320312507,-0.667475397923988,-0.027099940059865324,-1.4706392192791102
1790097194133778176,9.444778320312507,-0.6348907676998713,-0.17569040718295206,-1.4470121673349796
1790097194143778304,9.454778320312508,-0.6313869953155518,-0.1950893402099609,-1.4435083866119385
1790097194153778176,9.464778320312508,-0.5965920130014204,-0.32527063476511187,-1.3979149372881272
1790097194163778304,9.474778320312508,-0.524301805758329,-0.32146632736335895,-1.4418496680343977
1790097194173778176,9.484778320312508,-0.47612476542337956,-0.07548633605342818,-1.537390047732627
1790097194183778304,9.494778320312507,-0.5462302430616798,-0.003435393757812523,-1.484673249596352
1790097194193778176,9.504778320312507,-0.4804702993253392,-0.23910243329138464,-1.343468178586384
1790097194203778304,9.514778320312507,-0.20987403134017213,-0.19761016712469384,-1.2974656679827798
1790097194213778176,9.524778320312508,0.0418430380523204,-0.1462215632200241,-1.3170630931854248
1790097194223778304,9.534778320312508,0.11055742244672608,-0.20194268586445263,-1.1973751204892045
1790097194233778176,9.544778320312508,0.2098260372877121,-0.2824405133724212,-1.0244672298431396
1790097194243778304,9.554778320312508,0.06514964767437634,-0.2428653528384227,-0.8359986545227263
1790097194253778176,9.564778320312508,-0.0626118406653404,-0.2079171389341354,-0.669564962387085
1790097194263778304,9.574778320312507,-0.024715024573069844,-0.2430215565146799,-0.6145148342004938
1790097194273778176,9.584778320312507,0.10838557552766814,0.013112736426816596,-0.39291891957405256
1790097194283778304,9.594778320312507,0.2052313441201546,0.1487270024905825,-0.23682250644679845
1790097194293778176,9.604778320312507,0.24421213549426918,-0.15383152320098872,-0.20314873977533482
1790097194303778304,9.614778320312508,0.17275729921865993,-0.46339894426185446,-0.22570218534657938
1790097194313778176,9.624778320312508,0.048146254822892476,-0.48552410740780877,-0.23789616265625332
1790097194323778304,9.634778320312508,0.04225174590010735,-0.48293059688736684,-0.23837647495330608
1790097194333778176,9.644778320312508,0.005583896031430872,-0.34809215075456457,-0.2491564535771441
1790097194343778304,9.654778320312507,0.0662769302725792,-0.1688229143619537,-0.3317664265632629
1790097194353778176,9.664778320312507,0.06010769824438689,-0.18461614666859572,-0.33941627205091346
1790097194363778304,9.674778320312507,0.036377104566809794,-0.2486177127992211,-0.36803260033974067
1790097194373778176,9.684778320312509,0.037782155576377506,-0.17336678441575842,-0.3469070153916122
1790097194383778304,9.694778320312508,0.04589216676381051,0.08640833244902206,-0.29528810474860046
1790097194393778176,9.704778320312508,0.05008932505292338,0.2963392113593837,-0.28076911497545026
1790097194403778304,9.714778320312508,0.05088266332162272,0.3882654657087742,-0.3065561933061675
1790097194413778176,9.724778320312508,0.06799657422537801,0.36914594909356446,-0.311985290455019
1790097194423778304,9.734778320312508,0.05080255150865189,0.3001972465173626,-0.2766678886778065
1790097194433778176,9.744778320312507,0.0387887991964817,0.2752630412578583,-0.2578538954257965
1790097194443778304,9.754778320312507,0.0387887991964817,0.28351981740451876,-0.21198299889223404
1790097194453778176,9.764778320312507,0.04870798880967582,0.2798108195905544,-0.16353989785135217
1790097194463778304,9.774778320312508,0.0659358928928546,0.08102603599741107,-0.14251191443249075
1790097194473778176,9.784778320312508,0.0897872497952196,-0.10628630407757714,-0.052148686245636525
1790097194483778304,9.794778320312508,0.091321662068367,-0.1175117418169975,-0.0458898991346359
1790097194493778176,9.804778320312508,0.13846309984904143,0.06661464143713851,0.08225872483771815
1790097194503778304,9.814778320312508,0.1505738496780395,0.225784420967102,0.1935622245073318
1790097194513778176,9.824778320312507,0.13753539482516694,0.18808155610387906,0.18649972901220174
1790097194523778304,9.834778320312507,0.0772721767425537,0.013820419088006,0.1538571566343307
1790097194533778176,9.844778320312509,0.04741489897562887,0.12960895504763628,0.2243789469867201
1790097194543778304,9.854778320312509,-0.0222959257662296,0.399952232837677,0.3890333473682403
1790097194553778176,9.864778320312508,-0.049869131657061555,0.41567154275588514,0.43464510085802227
1790097194563778304,9.874778320312508,-0.09355556263877012,0.35901555236924726,0.5177997569088605
1790097194573778176,9.884778320312508,-0.08492434426238199,0.17427300538074425,0.5259600469769691
1790097194583778304,9.894778320312508,-0.07312431562768651,0.04264435233362811,0.4939368554719565
1790097194593778176,9.904778320312507,-0.07808095619204675,-0.03193730074979427,0.48147386250880775
1790097194603778304,9.914778320312507,-0.09186954058938297,-0.07085434637350915,0.5276106508429959
1790097194613778176,9.924778320312507,-0.12267582879146192,0.2375254412605406,0.5967716977396312
1790097194623778304,9.934778320312509,-0.1298050433397293,0.3222982883453369,0.6107708811759949
1790097194633778176,9.944778320312508,-0.01143303040487366,0.1205657031255124,0.7285871519865181
1790097194643778304,9.954778320312508,-0.015705546237524556,-0.015667055885174724,0.8589444405566373
1790097194653778176,9.964778320312508,-0.023517619818449,0.0406976975500583,0.9382613897323608
1790097194663778304,9.974778320312508,-0.02142053312325115,0.03814718685197604,0.938431424066945
1790097194673778176,9.984778320312508,-0.0014799035296904181,-0.006705447440649628,0.937369711800915
1790097194683778304,9.994778320312507,-0.017700211045127947,-0.11825787631778328,0.9155575620264782
1790097194693778176,10.004778320312509,-0.07678360709919474,-0.07912972496421998,0.881856027637184
1790097194703778304,10.014778320312509,-0.08911467080511723,0.03286238073365947,0.8672849182838246
1790097194713778176,10.024778320312508,-0.021635726653989988,-0.03064053054539359,0.9329731089708081
1790097194723778304,10.034778320312508,0.053494339969678936,-0.05369150233642925,1.1008771814534102
1790097194733778176,10.044778320312508,0.09077891932975675,0.08394943113531304,1.3081393521094156
1790097194743778304,10.054778320312508,0.08958644672029388,0.1422929900751076,1.4586315354535795
1790097194753778176,10.064778320312508,0.059031934012119106,0.007883072023544907,1.43134324098856
1790097194763778304,10.074778320312507,0.025515664817158643,-0.07217670198285922,1.2481454341254068
1790097194773778176,10.084778320312507,0.029860130079721974,0.0728708755460212,1.0573352353063172
1790097194783778304,10.094778320312509,0.0339020229876041,0.1194969937205314,1.01706063747406
1790097194793778176,10.104778320312509,0.1042346675558077,0.26665452422984814,0.9656637628991028
1790097194803778304,10.114778320312508,0.22838760886489412,0.002874139507516249,1.0538661992270257
1790097194813778176,10.124778320312508,0.234777104242779,-0.015070812961666052,1.0593824020801437
1790097194823778304,10.134778320312508,0.2229893866634867,-0.2863754012181809,1.0819363158267827
1790097194833778176,10.144778320312508,0.2329258019829414,-0.4383206272385125,1.0809504677788768
1790097194843778304,10.154778320312507,0.2769973242187469,-0.49528347286379926,1.0629906517099712
1790097194853778176,10.164778320312509,0.31030840646653557,-0.5254080188306516,1.0707097211316938
1790097194863778304,10.174778320312509,0.296599296434347,-0.5328903835188378,1.0960142665940233
1790097194873778176,10.184778320312509,0.263446412114018,-0.6558746018202701,1.1402431991455309
1790097194883778304,10.194778320312508,0.2531703811314939,-0.8533380771236302,1.2611094311349897
1790097194893778176,10.204778320312508,0.27315510948686894,-0.9318440190154519,1.4019565509959089
1790097194903778304,10.214778320312508,0.3466138640250299,-0.9965266076969785,1.5028904685145896
1790097194913778176,10.224778320312508,0.3869717419147491,-0.9989643096923828,1.5332266092300415
1790097194923778304,10.234778320312508,0.4474894096044608,-0.9376176583428324,1.5609984516492619
1790097194933778176,10.244778320312507,0.46757193877510395,-0.8796461171165432,1.5836404121720429
1790097194943778304,10.254778320312509,0.4645493328571319,-0.8694646954536438,1.586981177330017
1790097194953778176,10.264778320312509,0.49349448855792194,-1.3541643795133618,1.8322255734442423
1790097194963778304,10.274778320312508,0.4637702027644971,-1.681138120990399,2.0615477862716145
1790097194973778176,10.284778320312508,0.4608842432498932,-1.7020494937896729,2.077491521835327
1790097194983778304,10.294778320312508,0.42165403503501203,-1.731398421957362,2.1084530071709775
1790097194993778176,10.304778320312508,0.4184779489461858,-1.5569433757636235,1.8984233603081524
1790097195003778304,10.314778320312508,0.40835796878651737,-1.2316480793894957,1.558100352202275
1790097195013778176,10.32477832031251,0.36280943435592383,-0.8292277743661045,1.3674154527013755
1790097195023778304,10.334778320312509,0.3438719081880235,-0.49004879107406546,1.4418674589826384
1790097195033778176,10.344778320312509,0.3150882878279728,-0.41750735794070226,1.598373152768434
1790097195043778304,10.354778320312509,0.2178540602628479,-0.629836520489957,1.5807298198817676
1790097195053778176,10.364778320312508,0.1992626421898044,-0.7680455270513925,1.4073297050104645
1790097195063778304,10.374778320312508,0.3238406440066098,-0.6910414926205909,1.242851716961545
1790097195073778176,10.384778320312508,0.4372135218067951,-0.5935520305918325,1.0784824330267013
1790097195083778304,10.394778320312508,0.44458302952755985,-0.46294305782684475,0.8370774801094073
1790097195093778176,10.404778320312507,0.38750783215757995,-0.25181775982924315,0.6146537244990109
1790097195103778304,10.414778320312509,0.2777206573549545,-0.01173581662198142,0.5712521913965353
1790097195113778176,10.424778320312509,0.22936733196146908,0.06147230971921243,0.5429159943650421
1790097195123778304,10.434778320312509,0.22015809521540927,0.07781583772314374,0.4111852327083686
1790097195133778176,10.444778320312508,0.18326433496009645,0.202838173865798,0.2422564693186611
1790097195143778304,10.454778320312508,0.182736991331494,0.20942888103016158,0.235349102665112
1790097195153778176,10.464778320312508,0.23195142535569124,0.2553624448518086,0.22286827802632678
1790097195163778304,10.474778320312508,0.24332561021654622,0.0235532165149659,0.2642037888975375
1790097195173778176,10.48477832031251,0.2611372172832489,-0.0613137930631637,0.1819561272859573
1790097195183778304,10.49477832031251,0.29860453467009623,0.0005395916517035235,0.10007710374814714
1790097195193778176,10.504778320312509,0.4028537571430206,0.172640711069107,-0.1277434378862381
1790097195203778304,10.514778320312509,0.31246197448283397,0.30695982502141694,-0.23630797927026828
1790097195213778176,10.524778320312508,0.12353872512703798,0.5282135773173348,-0.4081866502737127
1790097195223778304,10.534778320312508,0.0674986243247985,0.5380037426948547,-0.4075114727020263
1790097195233778176,10.544778320312508,-0.04587495948271632,0.516789644114368,-0.34873805128021584
1790097195243778304,10.554778320312508,-0.1316375881433487,0.5007420182228088,-0.3042782843112945
1790097195253778176,10.564778320312508,-0.1299484751555629,0.5281901326025326,-0.42631674660935287
1790097195263778304,10.57477832031251,-0.1291942000389099,0.5404471158981323,-0.4808131456375122
1790097195273778176,10.584778320312509,-0.16993267893672198,0.6740892246805128,-0.5682518675235324
1790097195283778304,10.594778320312509,-0.1798177333836708,0.8238604662256265,-0.685521205109448
1790097195293778176,10.604778320312509,-0.19246359442920086,0.8444119208125562,-0.7274912234477566
1790097195303778304,10.614778320312508,-0.1890731801370567,1.0302625319653533,-0.7915019951373442
1790097195313778176,10.624778320312508,-0.26054247743398995,0.8609259480530208,-0.7726204492980404
1790097195323778304,10.634778320312508,-0.24446740420185378,0.6799374908256206,-0.7583276960311053
1790097195333778176,10.64477832031251,-0.18928744551959267,0.6442742895901707,-0.85404765135037
1790097195343778304,10.65477832031251,-0.1523587293809089,0.7212768092042895,-1.036483695450054
1790097195353778176,10.664778320312509,-0.16784783850650659,0.8138814873175059,-1.2051116336675942
1790097195363778304,10.674778320312509,-0.22791265478872144,0.9253257900416983,-1.287396218988784
1790097195373778176,10.684778320312509,-0.32072931699941076,1.0094695038290227,-1.2681638855773711
1790097195383778304,10.694778320312508,-0.3973369301940755,1.069987469543374,-1.2197903685118079
1790097195393778176,10.704778320312508,-0.44821358081692675,1.1143554510900386,-1.2542891948265733
1790097195403778304,10.714778320312508,-0.4729362769813139,1.0818689351932766,-1.3364152608611914
1790097195413778176,10.724778320312508,-0.4490524429383858,0.9785747154461603,-1.4276758884387712
1790097195423778304,10.73477832031251,-0.4768738721863058,0.841302168417016,-1.6837360029689301
1790097195433778176,10.74477832031251,-0.5679085914109978,0.8865063216553493,-1.7446010817593354
1790097195443778304,10.754778320312509,-0.5880168676376343,0.9087880253791808,-1.738547682762146
1790097195453778176,10.764778320312509,-0.6503531697763262,0.9933872654129777,-1.5921685891266666
1790097195463778304,10.774778320312508,-0.6736525665050764,0.9220645995557541,-1.358180676205225
1790097195473778176,10.784778320312508,-0.6420659011110131,0.7280049428450782,-1.1294467271327822
1790097195483778304,10.794778320312508,-0.5974094761358231,0.6972403619685311,-1.0621162373049644
1790097195493778176,10.80477832031251,-0.6076765516635196,0.7304652215779106,-1.1342157531381245
1790097195503778304,10.81477832031251,-0.7118725640856665,0.6621887277599016,-1.1629763565265825
1790097195513778176,10.82477832031251,-0.9484743124524364,0.524860159769619,-1.0509711420406933
1790097195523778304,10.834778320312509,-0.9566355454502464,0.5164459983635921,-0.9827666089818065
1790097195533778176,10.844778320312509,-0.8233297602311642,0.6146933648952458,-1.0683835254759808
1790097195543778304,10.854778320312509,-0.707128513880131,0.7370205801882995,-1.293607468392925
1790097195553778176,10.864778320312508,-0.6751011356435421,0.6513718498320851,-1.420768736758522
1790097195563778304,10.874778320312508,-0.6994446821355728,0.3727054368712469,-1.3555968141727839
1790097195573778176,10.884778320312508,-0.7096172476308173,0.1632804689662583,-1.2428276243403213
1790097195583778304,10.89477832031251,-0.651293548384552,0.13210548231709104,-1.1363324837244535
1790097195593778176,10.90477832031251,-0.5703285581143582,0.15198510066035398,-1.0292154825740043
1790097195603778304,10.914778320312509,-0.5131553674512617,0.05170306091607156,-1.0030081122885868
1790097195613778176,10.924778320312509,-0.46910558099190663,-0.18539741720050354,-1.1048794087367804
1790097195623778304,10.934778320312509,-0.4541260000662203,-0.3853681607370636,-1.2262138438957664
1790097195633778176,10.944778320312508,-0.4542898128350053,-0.39328260095242823,-1.2324902392858195
1790097195643778304,10.954778320312508,-0.5375445008895717,-0.21679533281178132,-1.263690045046288
1790097195653778176,10.96477832031251,-0.5639499992229293,-0.14621412983870122,-1.1703636214835866
1790097195663778304,10.97477832031251,-0.535084740583747,-0.12509373610665897,-1.0380577439084997
1790097195673778176,10.98477832031251,-0.4694361090660095,-0.0875802263617515,-0.9615499377250672
1790097195683778304,10.99477832031251,-0.40327549639328597,-0.006078020480174959,-0.9897401222342213
1790097195693778176,11.004778320312509,-0.2586938142776489,0.1720298528671264,-1.0513445138931274
1790097195703778304,11.014778320312509,-0.2328647963714839,0.08415794409737845,-1.0305747550731341
1790097195713778176,11.024778320312508,-0.22129598589566157,-0.09632695042283164,-0.9469377537492621
1790097195723778304,11.034778320312508,-0.24887521958429878,-0.18881359600514966,-0.8158599374880078
1790097195733778176,11.044778320312508,-0.21576989304749292,-0.15635800429327562,-0.6667965329150476
1790097195743778304,11.05477832031251,-0.1927223056554794,-0.1242310628294944,-0.6109235882759094
1790097195753778176,11.06477832031251,-0.013056790615845193,-0.012449240701006309,-0.49552133406255866
1790097195763778304,11.07477832031251,0.06447856241708426,-0.11294964554287672,-0.44242232126392006
1790097195773778176,11.084778320312509,-0.0040986543510491275,-0.2549648460499502,-0.43084247062373815
1790097195783778304,11.094778320312509,-0.10586902623496376,-0.28390697466171805,-0.4532037518939003
1790097195793778176,11.104778320312509,-0.12774996958789675,-0.3269941429752441,-0.48343159135549135
1790097195803778304,11.114778320312508,-0.10135531960444681,-0.3532477436249829,-0.46549417054056696
1790097195813778176,11.12477832031251,-0.05080283634608253,-0.364252357583444,-0.40624641610044426
1790097195823778304,11.13477832031251,0.00046618571021791837,-0.3445487157294967,-0.33711160538785145
1790097195833778176,11.14477832031251,0.05415765570297853,-0.2593535004668446,-0.30042165004916377
1790097195843778304,11.15477832031251,0.09550753260309965,-0.22576057062439894,-0.3204211673323691
1790097195853778176,11.164778320312509,0.10811523550693569,-0.27228929259826085,-0.3856866642820182
1790097195863778304,11.174778320312509,0.08805201761676645,-0.1781305760362722,-0.4166383042782826
1790097195873778176,11.184778320312509,0.0650552362203598,-0.0203870274126529,-0.4087331593036651
1790097195883778304,11.194778320312508,0.07614061215694928,0.06960014347548048,-0.3487417186728371
1790097195893778176,11.204778320312508,0.08582404255867,0.148206815123558,-0.2963372766971588
1790097195903778304,11.21477832031251,0.0738075694044656,0.08852500073759845,-0.253077971387804
1790097195913778176,11.22477832031251,0.029847234974211663,0.14168729607610725,-0.15287396405061654
1790097195923778304,11.23477832031251,-0.025415193023727203,0.21403984330690043,-0.009179144476313572
1790097195933778176,11.24477832031251,-0.09279913158125726,0.2794794762891772,0.1752948625514988
1790097195943778304,11.254778320312509,-0.1035386100411415,0.2899233698844909,0.2045574784278869
1790097195953778176,11.264778320312509,-0.15635317404798343,0.1308928387976264,0.23331207732974524
1790097195963778304,11.274778320312508,-0.1692998567098363,0.12166563993522492,0.2308355060426555
1790097195973778176,11.28477832031251,-0.12664390584619487,0.28394890773140385,0.26477985807603704
1790097195983778304,11.29477832031251,-0.0644443854689598,0.3871244490146637,0.329781174659729
1790097195993778176,11.30477832031251,-0.05631845243524076,0.36248099269946193,0.3510336115002513
1790097196003778304,11.31477832031251,-0.03415068171091234,0.20797126383539014,0.42778365128922097
1790097196013778176,11.32477832031251,-0.07114222054209166,-0.012077660716528119,0.39726903495472854
1790097196023778304,11.334778320312509,-0.0937650576233863,-0.1309503763914108,0.3676536977291107
1790097196033778176,11.344778320312509,-0.09486118357740547,-0.17452140478925782,0.34929357295849994
1790097196043778304,11.354778320312509,-0.08282314480089847,-0.24021525535927096,0.3114738969114914
1790097196053778176,11.364778320312508,-0.05460584532670335,-0.2268025954798204,0.29330991117420446
1790097196063778304,11.37477832031251,-0.03573448632540657,-0.17821034647348719,0.3095912542390309
1790097196073778176,11.38477832031251,-0.028497216197467094,-0.1270371112902028,0.37688539921975656
1790097196083778304,11.39477832031251,-0.05710292061107866,-0.07472891985457034,0.4759712131266655
1790097196093778176,11.40477832031251,-0.10669340366064983,-0.0202420093200665,0.5818090841416338
1790097196103778304,11.414778320312509,-0.1323349647417533,-0.02719288125907618,0.6715175122546911
1790097196113778176,11.424778320312509,-0.11810147665702661,-0.07646036883677707,0.7119494807904247
1790097196123778304,11.434778320312509,-0.09625955404544091,-0.11254379356670996,0.7115667388701943
1790097196133778176,11.44477832031251,-0.0751926225482878,-0.10312399080965313,0.7074634708976586
1790097196143778304,11.45477832031251,-0.058980969789603974,-0.03009779966998925,0.7131132175315799
1790097196153778176,11.46477832031251,-0.03219130323550031,0.03160345728326389,0.7439289326449725
1790097196163778304,11.47477832031251,0.022133898476585562,0.02344645737521809,0.8150926268622074
1790097196173778176,11.48477832031251,0.08009385590843227,0.06585123139509956,0.9272010005003877
1790097196183778304,11.49477832031251,0.15533293560128317,0.2431034892621987,1.0459774948590888
1790097196193778176,11.504778320312509,0.2675848503840428,0.42707641670327506,1.1342472130077226
1790097196203778304,11.514778320312509,0.35418259848698913,0.4749376075307016,1.1873394241204847
1790097196213778176,11.524778320312508,0.36094913104927073,0.16214318120671706,1.176331851023247
1790097196223778304,11.53477832031251,0.3454341292381286,-0.0839151442050933,1.1538904905319214
1790097196233778176,11.54477832031251,0.32910204872340737,-0.2235544774269744,1.1232678171563117
1790097196243778304,11.55477832031251,0.3259012832761411,-0.17119014109555813,1.0581754661251719
1790097196253778176,11.56477832031251,0.3277195692062378,-0.1260636001825332,1.0396620035171509
1790097196263778304,11.57477832031251,0.30691726433884364,-0.15154640207820191,1.0713855273204107
1790097196273778176,11.584778320312509,0.29826978789664865,-0.22677450776377384,1.0997737139066082
1790097196283778304,11.594778320312509,0.3132467507298765,-0.3358380443909347,1.1102924199973443
1790097196293778176,11.60477832031251,0.3344388604164123,-0.4449258744716644,1.094027400016785
1790097196303778304,11.61477832031251,0.33636087932388353,-0.4448676304411635,1.0893097273186223
1790097196313778176,11.62477832031251,0.3539283824444012,-0.4381080460685333,1.0438804094878749
1790097196323778304,11.63477832031251,0.3443470797853163,-0.40235316952552197,1.055937530030718
1790097196333778176,11.64477832031251,0.3063425328211788,-0.4112257845105086,1.1572334914671847
1790097196343778304,11.65477832031251,0.25529017959206074,-0.5058817758741714,1.341183362464723
1790097196353778176,11.664778320312509,0.2506388006155291,-0.6764883182763914,1.531924859941198
1790097196363778304,11.674778320312509,0.2678565084934234,-0.7845569252967834,1.6205778121948242
1790097196373778176,11.684778320312509,0.3329388597886743,-0.7574392815179368,1.581975062248625
1790097196383778304,11.69477832031251,0.41740943957778226,-0.7265780414158891,1.466144501444853
1790097196393778176,11.70477832031251,0.44900256167922475,-0.7340567311907055,1.3653243899079155
1790097196403778304,11.71477832031251,0.4566083252429962,-0.7405759692192078,1.3414205312728882
1790097196413778176,11.72477832031251,0.4790746352002588,-0.7087486625266896,1.3671632152064028
1790097196423778304,11.73477832031251,0.5273642485862668,-0.6904481130009955,1.4558663816438182
1790097196433778176,11.74477832031251,0.5750835596658599,-0.7808909699825436,1.5763838295646744
1790097196443778304,11.754778320312509,0.5881169471263169,-0.9803593623891832,1.678136915689583
1790097196453778176,11.76477832031251,0.5800119153003117,-1.1008698909398547,1.6937671578906024
1790097196463778304,11.77477832031251,0.5807428673980785,-1.083329998027853,1.6140661134787502
1790097196473778176,11.78477832031251,0.5637628084458016,-0.9733191573715737,1.469463169823137
1790097196483778304,11.79477832031251,0.47461438051323174,-0.8736018132917687,1.3152790182223228
1790097196493778176,11.80477832031251,0.3770278659597552,-0.8661026301076002,1.2139087427065425
1790097196503778304,11.81477832031251,0.3149324042781006,-0.8327286033820263,1.2428564011622418
1790097196513778176,11.82477832031251,0.3622500041933293,-0.7976209292267651,1.2879972570406302
1790097196523778304,11.834778320312509,0.49978764704707135,-0.7515018006137331,1.1990318225772225
1790097196533778176,11.844778320312509,0.5765624129543412,-0.6964593019002028,1.0503121052899762
1790097196543778304,11.85477832031251,0.5971031785011292,-0.6513922214508057,0.9797990322113036
1790097196553778176,11.86477832031251,0.5319524820158026,-0.49040937477408614,0.8570732543475683
1790097196563778304,11.87477832031251,0.4920374751091003,-0.3917821645736694,0.781884491443634
1790097196573778176,11.88477832031251,0.4412690036836305,-0.26032809427899517,0.7419383139537772
1790097196583778304,11.89477832031251,0.32306086278648505,-0.262709849982206,0.7359022855573478
1790097196593778176,11.90477832031251,0.2466750277735162,-0.2164421036297658,0.6808253319183863
1790097196603778304,11.914778320312509,0.19163624778020386,-0.041179979790164245,0.5430229888200652
1790097196613778176,11.92477832031251,0.1878355294466018,-0.0277171935886144,0.5325824618339539
1790097196623778304,11.93477832031251,0.15368781239367293,0.2953183519426431,0.3220876946980774
1790097196633778176,11.94477832031251,0.1013463598464345,0.44212845341650775,0.2352636682448472
1790097196643778304,11.95477832031251,0.06449644188930534,0.6423647732487838,0.07350265899914216
1790097196653778176,11.96477832031251,0.05614256751749003,0.6125147037062719,-0.015280085218568655
1790097196663778304,11.97477832031251,0.08978945957558992,0.6451841347422976,-0.06269969379466361
1790097196673778176,11.98477832031251,0.0949867516756057,0.6949914693832397,-0.1289651244878769
1790097196683778304,11.99477832031251,0.11718560267417719,0.7651196660166244,-0.16856989869059344
1790097196693778176,12.004778320312509,0.14005589683334194,0.8604642986139541,-0.22371009463064634
1790097196703778304,12.01477832031251,0.12878204767817156,0.7863694052648256,-0.24856622371522866
1790097196713778176,12.02477832031251,0.1444707856533991,0.5772587937757183,-0.29022179455004393
1790097196723778304,12.03477832031251,0.15286117177979655,0.37152198816779036,-0.37127545189024214
1790097196733778176,12.04477832031251,0.12048695311204793,0.33785054676030246,-0.5213593389250486
1790097196743778304,12.05477832031251,0.07892591745746522,0.45704170910219943,-0.6743378706384736
1790097196753778176,12.06477832031251,-0.11157438281013916,0.5429067711105474,-0.7521932496164055
1790097196763778304,12.07477832031251,-0.1462979167699813,0.553274929523468,-0.7611920237541199
1790097196773778176,12.08477832031251,-0.3237353625849676,0.5750139124355379,-0.7723553053926582
1790097196783778304,12.09477832031251,-0.3326878261889195,0.575373280743709,-0.7783446043904765
1790097196793778176,12.10477832031251,-0.4171224239538005,0.5555754631931646,-1.0251354777772521
1790097196803778304,12.11477832031251,-0.4525935003940469,0.5966026368066968,-1.143203167849963
1790097196813778176,12.12477832031251,-0.4988800520379331,0.799084987880593,-1.2066432268565352
1790097196823778304,12.13477832031251,-0.5419894045706739,1.1004487696962524,-1.1986344858025126
1790097196833778176,12.14477832031251,-0.5844885159087666,1.161815834747496,-1.174834431366438
1790097196843778304,12.15477832031251,-0.6384739123035397,1.0638839761019068,-1.2248489707481522
1790097196853778176,12.164778320312509,-0.6717029213905334,1.0138537883758545,-1.2834664583206177
1790097196863778304,12.17477832031251,-0.699471435444787,0.9932613695389325,-1.3184111284813904
1790097196873778176,12.18477832031251,-0.7515643876847847,0.9441998752437302,-1.3267345314676326
1790097196883778304,12.19477832031251,-0.8008083011217374,0.8978762545746012,-1.23562215153654
1790097196893778176,12.20477832031251,-0.8568695118615917,0.937562300266268,-1.139005327440803
1790097196903778304,12.21477832031251,-0.8522252901451853,0.9682362345252211,-1.0881332526464458
1790097196913778176,12.22477832031251,-0.840699002542355,0.8987309180288866,-1.0684812892457396
1790097196923778304,12.23477832031251,-0.8284394415745494,0.725606705473432,-1.1227726212068398
1790097196933778176,12.244778320312511,-0.8600793256748223,0.4245999304479817,-1.2991516916929524
1790097196943778304,12.25477832031251,-0.8622872829437256,0.4060607254505157,-1.3103437423706057
1790097196953778176,12.26477832031251,-0.9087116718292236,0.1982962936162948,-1.2376528978347778
1790097196963778304,12.27477832031251,-0.9087853851328741,0.21156509647302665,-1.2341145441724302
1790097196973778176,12.28477832031251,-0.9093225002288818,0.3082487881183624,-1.2083321809768677
1790097196983778304,12.29477832031251,-0.8942034411774339,0.2277620137294175,-1.2188562568417858
1790097196993778176,12.30477832031251,-0.832734701624514,-0.06814013999459209,-1.2687658783451716
1790097197003778304,12.31477832031251,-0.7841673775157905,-0.16776003544000312,-1.3185911115441125
1790097197013778176,12.32477832031251,-0.7446515485007177,-0.1359363830546525,-1.3432005598916628
1790097197023778304,12.33477832031251,-0.7219725150685744,-0.08344923427234995,-1.3438396120824685
1790097197033778176,12.34477832031251,-0.7227663367651805,-0.0682075110504484,-1.3068987464728803
1790097197043778304,12.35477832031251,-0.7291225790977478,-0.06986565887928,-1.2828556299209597
1790097197053778176,12.36477832031251,-0.7499820304633661,-0.10299538426427807,-1.2464538391135183
1790097197063778304,12.37477832031251,-0.7531356145382835,-0.17378807884266392,-1.2021608009848348
1790097197073778176,12.38477832031251,-0.7006997002419552,-0.20402155642050013,-1.1832632956827702
1790097197083778304,12.39477832031251,-0.5912426613416257,-0.1415992896934136,-1.2141732847864557
1790097197093778176,12.404778320312511,-0.4629024510577556,-0.055005477127195876,-1.262348559841218
1790097197103778304,12.41477832031251,-0.40530424095571904,-0.02049166521522563,-1.22885930520572
1790097197113778176,12.42477832031251,-0.47586311285959315,-0.008575388565771927,-1.0704235257422132
1790097197123778304,12.43477832031251,-0.477074097838288,-0.04804565290159675,-0.9031004416876165
1790097197133778176,12.44477832031251,-0.06248014839449186,-0.013705334080110196,-0.8709362059628403
