time,seconds_elapsed,z,y,x
1789030855555948300,0.0009482421875,-3.0078654731750487,-9.348310019683836,1.8429367279052733
1789030855565953300,0.010953369140625,-2.9792846908569333,-9.319878874969483,1.8155530464172362
1789030855575957200,0.020957275390625,-2.9577368759155274,-9.314491921234131,1.7761983566284179
1789030855585961200,0.030961181640625,-2.9556419494628905,-9.2963857711792,1.7170915031433105
1789030855595966500,0.040966552734375,-2.9091046546936035,-9.305364027404785,1.69180274810791
1789030855605970400,0.050970458984375,-2.93693724899292,-9.312396994781494,1.6338929954528807
1789030855615975400,0.060975341796875,-2.9097032051086424,-9.278578896331787,1.6086042404174803
1789030855625979400,0.0709794921875,-2.9049148017883297,-9.209446323394776,1.6696563827514648
1789030855635984400,0.080984375,-2.9109003059387204,-9.157372437286377,1.7015291923522948
1789030855645988400,0.09098828125,-2.9288568183898924,-9.135226071929932,1.694496224975586
1789030855655993300,0.100993408203125,-2.925265515899658,-9.215731102752684,1.702726293182373
1789030855665997300,0.110997314453125,-2.9014731369018554,-9.343222341156006,1.767070462799072
1789030855676002300,0.121002197265625,-2.9309517448425293,-9.407267235565184,1.763329522705078
1789030855686006300,0.13100634765625,-2.9849709197998044,-9.374197325134277,1.826626229095459
1789030855696011300,0.14101123046875,-3.0916625312805173,-9.2963857711792,1.8860323577880858
1789030855706015200,0.15101513671875,-3.1706711860656736,-9.15512787322998,1.8465280303955076
1789030855716019500,0.16101953125,-3.1495722839355467,-9.11652137145996,1.8544588233947752
1789030855726024400,0.1710244140625,-3.174262488555908,-9.125050714874266,1.877652651977539
1789030855736028400,0.1810283203125,-3.201945445251465,-9.219920955657958,1.8969559028625487
1789030855746033400,0.191033447265625,-3.1727661125183104,-9.39709187850952,1.9648913749694823
1789030855756037000,0.201037109375,-3.173813575744629,-9.589974749755859,1.956212393951416
1789030855766042000,0.2110419921875,-2.9632734672546386,-9.680804775238036,1.9493290641784666
1789030855776046300,0.22104638671875,-2.722955475616455,-9.728838446044922,1.8040309509277344
1789030855786051300,0.23105126953125,-2.740313437652588,-9.621997196960448,1.7004817291259764
1789030855796055300,0.24105517578125,-2.5649381660461423,-9.682001876068115,1.419761584472656
1789030855806060300,0.251060302734375,-2.0452467681884765,-9.530269345855713,1.4429554130554199
1789030855816064300,0.261064208984375,-2.4980501571655274,-9.339481401062011,1.1495160720825195
1789030855826069200,0.2710693359375,-2.411858897399902,-9.317185398101806,0.7528267845153808
1789030855836073500,0.281073486328125,-2.5336639068603515,-9.195230751037597,0.7721300354003906
1789030855846077400,0.291077392578125,-2.722805838012695,-9.052027564239502,0.7562684494018554
1789030855856082400,0.30108251953125,-3.2439936119079587,-8.855852665710449,0.9068038787841797
1789030855866086100,0.311086181640625,-3.831171569061279,-8.97601166152954,0.9005190994262695
1789030855876091100,0.321091064453125,-4.046500080871581,-9.3331966217041,0.9735422500610351
1789030855886095400,0.331095458984375,-4.23893403930664,-9.721805478668212,0.898274535369873
1789030855896100400,0.341100341796875,-3.870226983642578,-9.889698870086669,0.8661024505615234
1789030855906104300,0.351104248046875,-3.5883097381591793,-9.848548529052733,0.7336731712341308
1789030855916109300,0.361109375,-3.5467104843139645,-9.841216286468505,0.6696282768249512
1789030855926113300,0.37111328125,-3.8284780921936035,-9.920973129272461,0.91293902053833
1789030855936118300,0.3811181640625,-4.074033399963379,-9.924115518951416,1.2026374214172362
1789030855946122500,0.39112255859375,-4.228609044647216,-9.692326870727538,1.2337620429992675
1789030855956126500,0.40112646484375,-4.439598065948486,-9.4113074508667,1.0766425590515136
1789030855966131500,0.41113134765625,-4.294449590301514,-9.192986186981202,0.9338882850646972
1789030855976135200,0.42113525390625,-4.158429008483886,-9.198522778320312,0.7363666481018066
1789030855986140200,0.43114013671875,-3.8884827713012693,-9.364171605682373,0.5258265396118164
1789030855996144400,0.441144287109375,-3.470544944000244,-9.731831198120117,0.3176806327819824
1789030856006149400,0.4511494140625,-3.2231939849853513,-9.944017320251465,0.2647089210510254
1789030856016153300,0.4611533203125,-3.154510324859619,-9.560047229003906,0.5000888717651367
1789030856026158300,0.471158447265625,-3.456479009246826,-9.125499627685546,0.7550713485717773
1789030856036162300,0.481162353515625,-3.832069394683838,-9.057414517974854,0.9488520454406738
1789030856046167300,0.491167236328125,-3.838803086853027,-8.97601166152954,0.910395181274414
1789030856056171500,0.501171630859375,-3.6357448585510252,-8.889970039367675,0.6860884132385253
1789030856066176500,0.511176513671875,-3.6317046432495115,-8.909123652648926,0.4010287780761719
1789030856076180200,0.52118017578125,-3.7015854042053222,-8.778041111755371,0.4447229583740234
1789030856086184200,0.53118408203125,-3.6736031723022458,-8.99486599960327,0.5837362922668456
1789030856096189200,0.541189208984375,-3.28155265045166,-9.809343476867674,0.8316858016967773
1789030856106193400,0.551193359375,-3.2638954132080076,-10.675595565032959,1.1004349380493164
1789030856116198400,0.561198486328125,-3.1043817276000976,-11.149048943328857,1.3465887962341307
1789030856126202400,0.571202392578125,-2.890848867034912,-10.563367362213134,1.0395324333190918
1789030856136207400,0.581207275390625,-2.9409774642944333,-9.247753549957276,0.5454290657043457
1789030856146211300,0.59121142578125,-3.196558491516113,-8.376862696075438,0.2214636535644531
1789030856156216300,0.60121630859375,-3.5404257049560544,-8.320299681854248,0.32142157287597656
1789030856166220500,0.611220458984375,-3.5591304054260253,-9.105148913574219,0.870142665863037
1789030856176224300,0.621224365234375,-3.7657799362182613,-9.203161544036865,0.9335890098571776
1789030856186229200,0.631229248046875,-3.8111201301574704,-9.667487028503418,1.2502221794128416
1789030856196233200,0.641233154296875,-3.614197043609619,-9.5630399810791,1.3623007446289062
1789030856206238200,0.65123828125,-3.2679356285095214,-9.113528619384764,1.0031704956054688
1789030856216242400,0.661242431640625,-2.9785365028381348,-10.570101054382324,1.3280337333679197
1789030856226247400,0.671247314453125,-1.8936638755798338,-18.01726531829834,3.611653204345703
1789030856236251400,0.68125146484375,0.6619967590332031,-14.137760803222655,0.7920318367004394
1789030856246256400,0.69125634765625,-5.3478983207702635,2.1435586738586423,-2.371007831573486
1789030856256260400,0.70126025390625,-5.701043065643311,-0.9358335739135741,-0.29284079055786133
1789030856266265300,0.711265380859375,-3.3328783485412594,-6.932111631774902,0.5322609565734863
1789030856276269300,0.721269287109375,-3.15391177444458,-8.864082733917236,0.8336310905456542
1789030856286273300,0.731273193359375,-2.923320227050781,-8.456619538879394,0.8330325401306152
1789030856296278300,0.7412783203125,-2.8287492614746093,-7.80120683441162,0.9317933586120605
1789030856306282200,0.7512822265625,-3.0379426315307616,-7.786392711639404,1.1400889030456542
1789030856316287200,0.761287353515625,-3.8425440269470212,-8.322993158721923,1.4565724349975586
1789030856326291200,0.771291259765625,-4.395754248046875,-8.871265338897704,1.6487071182250976
1789030856336296200,0.781296142578125,-3.7371991539001463,-8.603414028167725,1.553238327026367
1789030856346300400,0.791300537109375,-3.725377783203125,-9.105298551177977,1.6385317611694334
1789030856356304400,0.801304443359375,-3.6381390602111816,-9.177124600982665,1.4673463424682616
1789030856366309400,0.811309326171875,-2.8296470870971677,-8.453477149200438,0.6585550941467285
1789030856376313300,0.821313232421875,-1.8397943382263182,-7.652167781066894,-0.17836802368164062
1789030856386318300,0.831318359375,-2.4371476524353026,-8.747215765380858,0.45295302658081055
1789030856396322300,0.841322265625,-2.8526912780761715,-9.800963771057129,0.6456862602233886
1789030856406327300,0.851327392578125,-3.4524387939453125,-10.130914687347412,1.0339958419799804
1789030856416331300,0.861331298828125,-2.734477571105957,-10.3422029838562,0.8283937744140625
1789030856426336300,0.871336181640625,-1.6060604011535644,-9.577105915832519,0.38531682968139647
1789030856436340200,0.88134033203125,-2.492214290618896,-9.656713121032714,0.8057984962463378
1789030856446344400,0.891344482421875,-2.6273370468139645,-10.513538040161132,0.8505401397705078
1789030856456349400,0.901349365234375,-1.7969979835510252,-10.238953037261963,0.5104138664245605
1789030856466353400,0.911353515625,-2.11961665725708,-10.11894367904663,0.7582137382507323
1789030856476358400,0.9213583984375,-2.9327473960876462,-10.491391674804687,1.0271125122070313
1789030856486362400,0.9313623046875,-2.849997801208496,-10.498125366973877,0.7888894470214843
1789030856496367400,0.941367431640625,-2.9746459251403805,-10.492588775634765,1.178545767211914
1789030856506371300,0.951371337890625,-3.4165257690429685,-10.78932014389038,1.393724641418457
1789030856516375300,0.961375244140625,-3.2855928657531734,-9.872340908050537,0.8780734588623046
1789030856526380300,0.97138037109375,-2.9507039085388183,-8.557624921417236,0.28057050704956055
1789030856536384300,0.98138427734375,-2.5145102935791015,-7.851036156463622,-0.10609306106567382
1789030856546389200,0.99138916015625,-2.4724621269226073,-7.789984014129638,0.12000935821533203
1789030856556393500,1.0013935546875,-3.1540614120483395,-7.8158713195800775,0.6811503723144531
1789030856566398500,1.0113984375,-3.8979099403381343,-8.003816149902343,0.902763663482666
1789030856576402400,1.02140234375,-3.2881367050170898,-7.551611311340332,1.177947216796875
1789030856586406400,1.031406494140625,-3.445705101776123,-7.699153988647461,1.2847884658813475
1789030856596411400,1.041411376953125,-3.799149121856689,-8.958055149078369,1.5587749183654784
1789030856606415600,1.05141552734375,-3.603872048950195,-10.13824692993164,1.5988777961730956
1789030856616420600,1.061420654296875,-3.3487399345397946,-11.017966402435302,2.0082862800598145
1789030856626424300,1.07142431640625,-2.854337291717529,-11.163713428497314,1.829768618774414
1789030856636429300,1.08142919921875,-2.186055753326416,-10.301202280426025,0.9075520668029785
1789030856646433300,1.091433349609375,-2.2801778060913085,-9.300276348876952,0.4216787673950195
1789030856656438300,1.101438232421875,-2.890250316619873,-9.572916062927245,0.31393969268798827
1789030856666442500,1.1114423828125,-3.0883705039978024,-10.154856703948974,0.37319618377685543
1789030856676446500,1.121446533203125,-2.863914098358154,-10.32334864578247,0.4604349067687988
1789030856686451500,1.131451416015625,-2.9290064559936524,-9.953594126892089,0.3938461730957031
1789030856696455400,1.141455322265625,-3.056647332000732,-9.374496600341796,0.2410661796569824
1789030856706460400,1.15146044921875,-2.7871500076293945,-9.007585195922852,0.46193128280639645
1789030856716464600,1.161464599609375,-2.860622071075439,-9.313294820404051,0.9304466201782225
1789030856726469600,1.1714697265625,-2.812139487457275,-9.692326870727538,1.0172364303588866
1789030856736473300,1.181473388671875,-2.718466347503662,-9.683198976898193,0.8934861320495605
1789030856746477300,1.191477294921875,-2.765602192687988,-9.522338552856445,0.7944260383605957
1789030856756482300,1.201482421875,-2.701108385467529,-9.375693701171874,0.6814496475219726
1789030856766486500,1.211486572265625,-2.703652224731445,-9.16111337738037,0.6733692169189452
1789030856776491500,1.221491455078125,-2.896385458374023,-8.980201514434814,0.898274535369873
1789030856786495500,1.23149560546875,-2.963572742462158,-9.029282648468017,0.9979331794738769
1789030856796499500,1.24149951171875,-2.868253588867187,-9.076268856048584,0.9063549659729003
1789030856806504400,1.25150439453125,-2.6804583961486816,-8.898499382781981,0.8111854499816894
1789030856816508400,1.26150830078125,-2.571073307800293,-8.844629845428466,0.8022071937561035
1789030856826513400,1.271513427734375,-2.583343591308594,-9.03990691833496,0.8646060745239257
1789030856836517400,1.281517333984375,-2.4753052413940426,-9.237278917694091,0.872087954711914
1789030856846522400,1.2915224609375,-2.366069790649414,-9.415497303771971,0.8604162216186523
1789030856856526300,1.3015263671875,-2.390161444854736,-9.528623332214355,0.6887818901062012
1789030856866530300,1.3115302734375,-2.4724621269226073,-9.516502686309813,0.6408978569030761
1789030856876535300,1.321535400390625,-2.473958502960205,-9.478943647766112,0.736067372894287
1789030856886539500,1.33153955078125,-2.514211018371582,-9.573364975738524,0.8506897773742675
1789030856896544500,1.34154443359375,-2.4766519798278805,-9.665541739654541,0.9639654434204101
1789030856906548500,1.351548583984375,-2.46438169631958,-9.67137760620117,1.0654197387695312
1789030856916553500,1.361553466796875,-2.5188497840881348,-9.770288062286376,1.1671733093261718
1789030856926557400,1.371557373046875,-2.4787469062805174,-9.904812268066406,1.17480482711792
1789030856936561400,1.3815615234375,-2.4438813446044922,-9.878176774597167,1.2578536972045897
1789030856946566400,1.39156640625,-2.450914311981201,-9.82565397567749,1.4232032493591307
1789030856956570400,1.4015703125,-2.4136545486450194,-9.776423204040526,1.4407108489990235
1789030856966575400,1.411575439453125,-2.427271570587158,-9.720159465026855,1.4630068519592285
1789030856976579300,1.421579345703125,-2.4542063392639157,-9.630526540374754,1.4636054023742675
1789030856986583600,1.43158349609375,-2.396296586608887,-9.501838201141357,1.4435539634704588
1789030856996588500,1.441588623046875,-2.4335563499450683,-9.453056342315673,1.444152513885498
1789030857006592500,1.451592529296875,-2.601150466156006,-9.468768290710448,1.5197195037841795
1789030857016597500,1.461597412109375,-2.8112416618347167,-9.509320081329346,1.6358382843017578
1789030857026601200,1.471601318359375,-2.8739398178100584,-9.41654476699829,1.610100616455078
1789030857036606200,1.481606201171875,-2.9198785621643064,-9.28905352859497,1.5572785423278808
1789030857046610400,1.4916103515625,-3.0488661766052245,-9.283217662048338,1.4157213691711426
1789030857056614400,1.501614501953125,-3.0105589500427246,-9.341875602722167,1.3224971420288085
1789030857066619400,1.511619384765625,-2.879775684356689,-9.330802420043945,1.1303624588012695
1789030857076623400,1.521623291015625,-2.8335376647949215,-9.431209252166747,0.9712976860046386
1789030857086628400,1.53162841796875,-2.597110250854492,-9.443629173278808,0.9320926338195801
1789030857096632600,1.541632568359375,-2.122310134124756,-9.305064752197264,0.8429086219787597
1789030857106636500,1.551636474609375,-1.705868682861328,-9.312546632385253,0.5485714553833008
1789030857116641500,1.5616416015625,-1.4833575660705565,-9.688585930633545,0.27518355331420896
1789030857126645200,1.571645263671875,-1.3673884231567381,-9.931597399139404,0.20649989318847656
1789030857136650200,1.581650146484375,-1.3804068946838377,-9.788094937133788,0.20679916839599607
1789030857146654500,1.591654541015625,-1.5637129592895507,-9.663746088409424,0.20380641632080077
1789030857156658400,1.601658447265625,-1.5286977600097655,-9.5630399810791,0.19961656341552733
1789030857166663400,1.611663330078125,-1.5267524711608886,-9.555258825683593,0.033518823242187495
1789030857176667400,1.62166748046875,-1.507299582672119,-9.58967547454834,-0.001496376037597656
1789030857186672400,1.63167236328125,-1.3130699729919433,-9.676764559936522,-0.006584054565429687
1789030857196676600,1.641676513671875,-1.2229881355285643,-9.7423058303833,-0.05252279891967773
1789030857206681600,1.651681640625,-1.1034276901245117,-9.501838201141357,0.09053075027465819
1789030857216685600,1.661685546875,-0.8161234909057616,-9.074323567199707,0.3251625129699707
1789030857226689300,1.671689208984375,-0.723946726989746,-8.750208517456054,0.5671265182495117
1789030857236694300,1.6816943359375,-0.8822633117675781,-8.62526111831665,0.7740753242492675
1789030857246698500,1.691698486328125,-0.8333318153381347,-8.512733640289307,1.2313678413391111
1789030857256703500,1.701703369140625,-0.6426935081481934,-8.142679846191406,1.778742195892334
1789030857266707500,1.71170751953125,-0.46148236999511716,-7.719953615570068,2.146850701141357
1789030857276711400,1.72171142578125,-0.49021278991699213,-7.560290292358398,2.334645893859863
1789030857286716400,1.73171630859375,-0.8029553817749023,-7.818864071655273,2.367266891479492
1789030857296720400,1.741720458984375,-1.1968015548706055,-8.44569599380493,2.2719477378845214
1789030857306725400,1.751725341796875,-1.5780781692504882,-9.440636421203612,2.461089669036865
1789030857316729300,1.761729248046875,-1.5236100814819336,-10.382156224060058,2.653373989868164
1789030857326733300,1.7717333984375,-1.4426561378479004,-10.944195063781738,2.5549124465942383
1789030857336738300,1.78173828125,-1.7338509147644041,-11.387870558929443,2.1161749923706052
1789030857346742300,1.7917421875,-2.0587141525268553,-11.781118181610108,1.810615005493164
1789030857356747300,1.801747314453125,-1.9837457130432128,-12.039991236114501,1.735197653198242
1789030857366751500,1.81175146484375,-1.8824410552978514,-12.14204408187866,1.6927005737304686
1789030857376756500,1.821756591796875,-2.037914525604248,-11.955745265197754,1.6946458625793457
1789030857386760400,1.831760498046875,-2.099714855957031,-11.474061818695068,1.8228852890014646
1789030857396764400,1.841764404296875,-2.1574749710083005,-11.021707342529297,2.224362979888916
1789030857406769400,1.851769287109375,-2.599654090118408,-10.755053132629394,2.4693197372436524
1789030857416773400,1.8617734375,-3.056647332000732,-10.755651683044434,2.6198551666259764
1789030857426778400,1.8717783203125,-3.176806327819824,-10.7382937210083,2.5185505088806153
1789030857436782300,1.8817822265625,-3.276614609527588,-10.467748933410643,2.129792014312744
1789030857446786300,1.891786376953125,-3.365200070953369,-9.996390481567381,1.804180588531494
1789030857456791300,1.901791259765625,-3.1030349891662596,-9.567080196380614,1.8197428993225098
1789030857466795500,1.91179541015625,-2.7638065414428707,-9.237877468109131,1.7146973014831541
1789030857476800500,1.921800537109375,-2.1218612213134764,-8.831012823486327,1.7018284675598143
1789030857486804500,1.931804443359375,-1.9445406608581541,-8.493729664611816,1.7685668388366698
1789030857496808400,1.941808349609375,-2.3611317497253417,-8.304587733459472,2.154033306121826
1789030857506813400,1.9518134765625,-2.6372131286621094,-8.294262738800048,2.5993548149108885
1789030857516817400,1.9618173828125,-2.5252842010498044,-8.273163836669921,2.7837083427429197
1789030857526822400,1.971822509765625,-2.3171382942199705,-8.065466842651366,2.927061167144775
1789030857536826400,1.981826416015625,-2.04285256652832,-7.869291944122314,3.171868286895752
1789030857546830300,1.991830322265625,-1.7922095802307128,-7.800159371185302,3.425204750061035
1789030857556835000,2.0018349609375,-1.5575778175354003,-8.058134600067138,3.2914287322998046
1789030857566839300,2.01183935546875,-1.706467233276367,-8.467842359161377,3.183839295196533
1789030857576844300,2.02184423828125,-1.881393592071533,-8.636932851409911,3.1233857032775876
1789030857586848300,2.03184814453125,-2.0714333488464356,-8.452130410766602,3.0033763450622555
1789030857596852200,2.041852294921875,-2.7596166885375975,-7.932738288116455,2.747196767425537
1789030857606857200,2.051857177734375,-3.0527567543029783,-7.498190686798095,2.655169641113281
1789030857616861200,2.061861083984375,-2.9459155052185055,-7.255029580688476,2.6458921096801755
1789030857626866200,2.0718662109375,-2.905962265014648,-7.286453477478027,2.6062381446838376
1789030857636870100,2.0818701171875,-2.6563667419433594,-7.491756269836426,2.64963304977417
1789030857646874000,2.0918740234375,-2.7808652282714843,-7.886799543762207,2.897133646392822
1789030857656879000,2.101879150390625,-2.9773394020080564,-8.478167353820801,3.1907226249694824
1789030857666883300,2.11188330078125,-2.915090158843994,-9.120262311553955,3.4687492927551267
1789030857676888300,2.121888427734375,-2.6403555183410643,-9.558101940155028,3.4338837310791015
1789030857686892300,2.131892333984375,-2.609230896759033,-9.702352590179443,3.1118636077880857
1789030857696896300,2.141896240234375,-2.6077345207214355,-9.772831901550292,2.9478607940673824
1789030857706901200,2.1519013671875,-2.906710453033447,-9.981277083587646,3.020435031890869
1789030857716905200,2.1619052734375,-3.277961347961426,-10.484508345031738,2.9421745651245117
1789030857726910200,2.17191015625,-3.236062818908691,-10.975469322967529,2.8080992721557614
1789030857736914200,2.1819140625,-3.1706711860656736,-11.439196257019042,2.3521534934997557
1789030857746918100,2.191918212890625,-3.090764705657959,-11.628637463378906,1.8721160606384277
1789030857756923100,2.201923095703125,-3.266888165283203,-11.537358525085448,1.7687164764404295
1789030857766927400,2.21192724609375,-3.458274660491943,-11.137377210235595,2.0274398933410644
1789030857776932400,2.221932373046875,-3.4018612838745117,-10.599579662322997,2.231096672058105
1789030857786936300,2.231936279296875,-3.312228359222412,-10.09949079055786,2.2758383155822752
1789030857796941300,2.24194140625,-3.31342546005249,-9.604788872528076,2.2905028007507324
1789030857806945300,2.2519453125,-3.4076971504211424,-9.19358473739624,2.366668341064453
1789030857816949200,2.26194921875,-3.1407436653137206,-8.960150075531006,2.7424083641052244
1789030857826954200,2.271954345703125,-2.733729383087158,-8.718634983062744,2.8707974281311035
1789030857836958200,2.281958251953125,-2.3970447746276853,-8.408735505676269,2.701856573486328
1789030857846962200,2.291962158203125,-2.2020669769287107,-8.243535591125488,2.58558815536499
1789030857856967200,2.30196728515625,-1.9829975250244138,-8.008454915618897,2.6541221778869626
1789030857866971100,2.31197119140625,-2.2417209419250486,-8.061276989746093,2.9315502952575683
1789030857876976000,2.32197607421875,-2.316689381408691,-8.348880464172362,2.755426835632324
1789030857886980400,2.33198046875,-2.0605098037719727,-8.738536784362793,2.412756723022461
1789030857896985300,2.3419853515625,-1.9463363121032713,-9.272144479370116,2.2158336364746094
1789030857906989000,2.351989013671875,-2.071582986450195,-9.861417362976074,2.2960393920898436
1789030857916993000,2.361992919921875,-2.4347534507751463,-10.306888509368896,2.366668341064453
1789030857926998000,2.371998046875,-2.682702960205078,-10.402806213378906,2.4230817176818844
1789030857937002200,2.382002197265625,-2.5311200675964356,-10.110563973236083,2.324470536804199
1789030857947006200,2.392006103515625,-2.4144027366638183,-9.720608377838134,2.2691046234130856
1789030857957011200,2.40201123046875,-2.4717139389038083,-9.459790034484863,2.158522434234619
1789030857967015200,2.41201513671875,-2.311751340484619,-9.328707493591308,2.1065981857299803
1789030857977020200,2.422020263671875,-2.1001637687683106,-9.263016585540772,2.085798558807373
1789030857987024400,2.4320244140625,-1.66636435546875,-9.020005117034911,2.3485621910095213
1789030857997029400,2.442029296875,-1.4772224243164063,-8.810811746978759,2.446425183868408
1789030858007033000,2.452033203125,-1.1381436141967773,-8.532036891174316,2.305765836334228
1789030858017037000,2.462037109375,-1.0298059890747069,-8.329726850891113,2.5368062965393063
1789030858027042000,2.4720419921875,-1.1137526847839354,-7.704840217590331,3.2213983337402343
1789030858037046300,2.48204638671875,-1.1569979522705078,-7.5165961120605465,3.5461119338989255
1789030858047050200,2.49205029296875,-1.3703811752319335,-7.259967621612549,2.8663083000183103
1789030858057055200,2.50205517578125,-1.8040309509277344,-7.7221981796264645,1.1985972061157226
1789030858067059200,2.51205908203125,-1.8625392539978027,-8.370877191925048,-0.3054103492736816
1789030858077064200,2.522064208984375,-1.4950292991638183,-9.03422068939209,-0.7586626510620117
1789030858087068400,2.532068359375,-0.6636427726745605,-8.857947592163086,0.6048351943969726
1789030858097073400,2.542073486328125,-1.9321207397460936,-8.264335218048096,2.8284499862670898
1789030858107077000,2.5520771484375,-4.16306777420044,-9.553463174438477,3.564367721557617
1789030858117081000,2.5620810546875,-3.989637791442871,-12.64632280654907,2.7488427810668945
1789030858127086000,2.572086181640625,-2.404975567626953,-13.714286384582518,2.9774890396118163
1789030858137090300,2.58209033203125,-2.1253028861999512,-12.202946586608887,3.720140467071533
1789030858147094300,2.59209423828125,-2.3958476737976073,-10.692803889465331,3.624522038269043
1789030858157099300,2.602099365234375,-2.5369559341430663,-10.204237113189697,3.725826696014404
1789030858167103200,2.612103271484375,-2.8574796813964842,-10.216806671905516,4.08600440826416
1789030858177108200,2.622108154296875,-2.9358897857666015,-10.126275921630858,4.355202457427978
1789030858187112400,2.632112548828125,-2.9008745864868164,-9.975740492248535,4.0267479171752925
1789030858197117400,2.642117431640625,-2.6186580657958984,-9.609726913452148,3.178153066253662
1789030858207121200,2.65212109375,-2.523638187408447,-9.037662354278565,3.2631472251892086
1789030858217125000,2.662125,-3.0289643753051756,-8.869320050048827,3.97123236618042
1789030858227130000,2.672130126953125,-3.3234511795043944,-9.147197080230713,3.984849388122558
1789030858237134300,2.68213427734375,-3.1191958503723143,-9.22635537261963,3.1567548889160153
1789030858247138300,2.69213818359375,-2.5667338172912597,-8.911368216705322,2.684049698638916
1789030858257143300,2.702143310546875,-2.3695114555358887,-8.481609018707275,3.250278391265869
1789030858267147300,2.712147216796875,-2.0976199295043942,-8.102876243591307,3.7511154510498046
1789030858277152300,2.72215234375,-1.8281226051330566,-7.735216651153564,3.801244048309326
1789030858287156200,2.73215625,-1.7540519912719725,-7.460631648254394,3.4352304695129394
1789030858297160200,2.74216015625,-1.6147393821716307,-7.661744587707519,3.0309096641540525
1789030858307165200,2.752165283203125,-1.7877204521179197,-8.30593447189331,3.3351229125976563
1789030858317169200,2.762169189453125,-2.070984436035156,-9.08434928665161,3.7952585441589353
1789030858327174100,2.772174072265625,-1.9719243423461912,-9.560795417022705,3.8199487487792965
1789030858337178000,2.78217822265625,-2.0533271987915036,-9.906757556915283,3.19865341796875
1789030858347182300,2.792182373046875,-1.9979612854003905,-10.415525409698486,2.5053823997497555
1789030858357187300,2.802187255859375,-2.0790648666381837,-10.965892516326903,2.597110250854492
1789030858367191300,2.81219140625,-2.05572140045166,-11.081412746429443,2.956689412689209
1789030858377196300,2.8221962890625,-1.9270330612182616,-10.566809027099609,3.0003835929870606
1789030858387200000,2.832199951171875,-2.1513398292541503,-9.738864165496826,2.858227869415283
1789030858397204200,2.842204345703125,-2.4344541755676268,-9.16111337738037,2.4033295539855954
1789030858407209200,2.852209228515625,-2.2297499336242677,-9.080309071350097,2.406322306060791
1789030858417213200,2.862213134765625,-0.9579799392700195,-8.587402804565428,2.955193036651611
1789030858427218200,2.87221826171875,-0.18659809188842771,-7.691971383666992,3.3174656753540037
1789030858437222100,2.88222216796875,-1.431433317565918,-7.5719620254516595,2.792985874176025
1789030858447226400,2.892226318359375,-1.912069300842285,-7.940968356323242,2.4494179359436035
1789030858457231400,2.9022314453125,-2.111386589050293,-8.411578620147704,2.7482442306518555
1789030858467235300,2.9122353515625,-2.4551041648864746,-8.993519261169434,2.8666075752258298
1789030858477240300,2.922240234375,-2.3219266975402832,-9.314491921234131,2.6617536956787107
1789030858487244000,2.932244140625,-2.4589947425842285,-9.593266777038574,2.3485621910095213
1789030858497248300,2.942248291015625,-2.30471837310791,-10.01000750350952,2.0424036537170407
1789030858507253200,2.952253173828125,-2.286013672637939,-10.077494062805176,2.238279277038574
1789030858517257200,2.96225732421875,-2.5221418113708496,-9.821164847564697,2.7488427810668945
1789030858527262200,2.97226220703125,-3.0487165390014646,-9.725696056365965,3.471891682434082
1789030858537266200,2.98226611328125,-3.0808886238098143,-10.007463664245606,3.7790976829528806
1789030858547270400,2.9922705078125,-2.990806786346435,-10.279504827880858,4.046051168060303
1789030858557275400,3.002275390625,-2.9544448486328125,-10.513538040161132,4.086602958679199
1789030858567279400,3.012279296875,-3.021183219909668,-10.639981815338134,3.963451210784912
1789030858577284400,3.022284423828125,-3.0240263343811034,-10.7382937210083,3.9318776763916015
1789030858587288300,3.032288330078125,-2.7980735527038574,-10.950928755950928,3.4076971504211424
1789030858597292300,3.042292236328125,-2.5611972259521485,-10.969483818817139,2.8303952751159667
1789030858607297300,3.05229736328125,-2.4166473007202147,-10.780940438079833,2.556259185028076
1789030858617301200,3.06230126953125,-2.378788986968994,-10.44470474243164,2.685396437072754
1789030858627306200,3.07230615234375,-2.574963885498047,-10.218901598358153,2.644994284057617
1789030858637310200,3.082310302734375,-2.433257074737549,-10.239850862884522,2.3362919075012205
1789030858647314400,3.092314453125,-2.26641114654541,-10.49632971572876,2.2717981002807615
1789030858657319400,3.1023193359375,-2.1089923873901366,-10.64970825958252,2.1996727752685548
1789030858667323400,3.112323486328125,-1.4290391159057616,-10.430189894866944,1.999607299041748
1789030858677328400,3.122328369140625,-1.0378864196777342,-9.969006800079345,1.6497545814514158
1789030858687332400,3.132332275390625,-1.204732347869873,-9.481038574218749,1.4894927078247069
1789030858697336300,3.14233642578125,-1.7545009040832518,-9.5247327545166,1.498470964050293
1789030858707341300,3.15234130859375,-1.7106570861816406,-9.423727371978758,1.829020430755615
1789030858717345300,3.16234521484375,-1.4299369415283203,-8.966434854888915,2.1238065101623533
1789030858727349200,3.172349365234375,-1.3013982398986816,-8.465897070312499,2.2744915771484373
1789030858737354200,3.182354248046875,-1.1876736610412597,-8.153304116058349,2.365471240234375
1789030858747358200,3.192358154296875,-1.211166764831543,-8.113350875854492,2.2665607841491697
1789030858757363200,3.20236328125,-1.2559084083557128,-7.803750673675537,1.9840449882507323
1789030858767367400,3.212367431640625,-0.9852139831542969,-7.359626265716552,1.8670283821105955
1789030858777371400,3.222371337890625,-0.37708676147460934,-7.254730305480956,1.9211971946716306
1789030858787376400,3.23237646484375,0.044891281127929686,-7.5056725669860835,1.9327192901611328
1789030858797380000,3.242380126953125,0.323666136932373,-7.641244235992431,2.093579714202881
1789030858807385000,3.252385009765625,0.35883097381591794,-7.850886518859863,2.1402666465759275
1789030858817389300,3.262389404296875,0.7838017684936524,-8.21031604309082,1.924189946746826
1789030858827393300,3.272393310546875,1.1474211456298828,-8.38195037460327,1.7805378471374511
1789030858837398300,3.282398193359375,1.1043255157470702,-8.200439961242676,1.5741875915527344
1789030858847402200,3.29240234375,0.8783727340698242,-7.846995941162109,1.2898761444091795
1789030858857407200,3.3024072265625,0.4601356315612793,-7.7316253486633295,1.0914566818237303
1789030858867411500,3.312411376953125,0.41045594711303707,-8.315062365722655,0.7947253135681152
1789030858877415200,3.322415283203125,0.9018658378601073,-8.86153889465332,0.6908768165588378
1789030858887420400,3.33242041015625,0.7101800674438477,-9.170989459228515,0.6432920585632323
1789030858897424100,3.342424072265625,-0.10818798751831055,-9.496151972198486,0.596305850982666
1789030858907428400,3.352428466796875,-0.8649053497314453,-9.870844532012939,0.852335791015625
1789030858917433300,3.362433349609375,-1.4694412689208984,-10.193762480926512,1.4052467369079589
1789030858927437300,3.372437255859375,-1.8375497741699218,-10.608109005737305,1.8978537284851074
1789030858937442300,3.3824423828125,-2.161066273498535,-10.500818843841552,2.191592344665527
1789030858947446300,3.3924462890625,-2.6613047828674317,-9.941174205780028,2.073677912902832
1789030858957450500,3.402450439453125,-2.601000828552246,-9.205106832885741,1.7488146751403808
1789030858967455500,3.41245556640625,-2.583193953704834,-8.717437882232666,1.7618331466674804
1789030858977459200,3.422459228515625,-2.697367445373535,-8.65758284072876,2.0970213790893553
1789030858987464200,3.432464111328125,-2.858227869415283,-9.065195673370361,2.5273791275024413
1789030858997468200,3.44246826171875,-2.890250316619873,-9.747094233703613,3.4925416717529294
1789030859007472400,3.452472412109375,-2.7793688522338864,-10.218303047943115,4.295347415924072
1789030859017477400,3.462477294921875,-2.7817630538940428,-10.4310877204895,4.388272367858886
1789030859027481300,3.4724814453125,-2.3816321014404296,-10.580725324249267,3.874566474151611
1789030859037486300,3.482486328125,-1.6193781478881835,-10.271574034881592,3.1555577880859373
1789030859047490300,3.492490234375,-0.9856628959655761,-10.199598347473144,2.8344354904174804
1789030859057494500,3.50249462890625,-0.5761047744750977,-10.168773001098632,2.3122002532958983
1789030859067499500,3.51249951171875,-0.36361937713623044,-9.766247846984863,1.9256863227844236
1789030859077503200,3.522503173828125,-1.025915411376953,-9.574861351776123,2.1625626495361328
1789030859087507200,3.532507080078125,-1.9011457557678222,-10.142287145233153,2.356642621612549
1789030859097512200,3.54251220703125,-1.9779098464965819,-10.682478894805907,2.1900959686279298
1789030859107516400,3.552516357421875,-2.152237654876709,-10.40011273651123,2.3696610931396482
1789030859117521400,3.562521484375,-2.9213749382019043,-9.777470667266845,2.6096798095703124
1789030859127525400,3.572525390625,-3.191620450592041,-9.13597425994873,2.643797183227539
1789030859137529300,3.582529296875,-2.880673509979248,-8.448688745880126,2.5954642372131347
1789030859147534300,3.592534423828125,-2.7436054649353028,-7.8824600532531734,2.562543964385986
1789030859157538300,3.602538330078125,-2.768295669555664,-7.503577640533447,2.3502082046508788
1789030859167543300,3.612543212890625,-2.6952725189208984,-7.274632106781006,2.1431097610473633
1789030859177547300,3.62254736328125,-2.674472891998291,-7.083095973968505,2.150890916442871
1789030859187551200,3.63255126953125,-2.8857611885070797,-7.024138758087158,2.187851404571533
1789030859197556200,3.64255615234375,-2.850446714019775,-6.87599753036499,2.4046762924194334
1789030859207560200,3.652560302734375,-2.280327443695068,-6.8387377670288085,2.6114754608154294
1789030859217564400,3.662564453125,-1.7516577896118164,-6.960542776489257,2.727893516540527
1789030859227569400,3.6725693359375,-1.8655320060729979,-7.411700151824951,2.8172271659851074
1789030859237573400,3.682573486328125,-2.214786173248291,-8.170512440490722,2.903119150543213
1789030859247578400,3.692578369140625,-2.2598270919799806,-8.889521126556396,2.8275521606445313
1789030859257582000,3.70258203125,-2.4597429306030274,-9.491513206481933,2.835482953643799
1789030859267586300,3.71258642578125,-2.6075848831176756,-10.13211178817749,2.7467478546142576
1789030859277591300,3.72259130859375,-2.6765678184509274,-10.69938794403076,3.0175919174194332
1789030859287595300,3.73259521484375,-2.7067946144104003,-11.15383734664917,3.791816879272461
1789030859297600300,3.742600341796875,-2.5383026725769042,-11.425130322265625,4.5133694046020505
1789030859307604200,3.752604248046875,-2.469469374847412,-11.51685817337036,4.873547116851807
1789030859317608400,3.7626083984375,-2.438045478057861,-11.438298431396484,4.782717091369628
1789030859327613400,3.772613525390625,-2.2111948707580567,-11.1719434967041,4.318840519714355
1789030859337617400,3.782617431640625,-2.1422119354248044,-10.964096865081787,4.09872360458374
1789030859347622400,3.792622314453125,-2.03043264541626,-10.89167226486206,3.8627451034545897
1789030859357626000,3.802626220703125,-1.905036333465576,-10.91711065750122,3.6207810981750486
1789030859367630300,3.81263037109375,-2.037315975189209,-10.89092407684326,3.444208725738525
1789030859377635300,3.82263525390625,-2.1351789680480957,-10.809371582794189,3.415029393005371
1789030859387639300,3.832639404296875,-1.7929577682495117,-10.652252098846436,3.043479222869873
1789030859397643300,3.842643310546875,-1.1831845329284667,-10.294468588256835,2.2315455848693846
1789030859407648300,3.852648193359375,-0.8846575134277344,-9.529970070648194,1.5128361740112304
1789030859417652500,3.862652587890625,-1.3181576515197753,-8.509291975402832,1.2728174575805664
1789030859427657500,3.872657470703125,-1.6398784996032714,-7.991994779205322,1.4459481651306152
1789030859437661400,3.882661376953125,-1.818845073699951,-8.187720764923096,1.7969979835510252
1789030859447665200,3.8926650390625,-1.964442462158203,-8.65099878616333,2.1121347770690915
1789030859457670100,3.902670166015625,-1.8655320060729979,-9.374646237945557,2.1365257064819336
1789030859467674400,3.91267431640625,-1.5286977600097655,-9.748141696929931,1.9029414070129393
1789030859477679400,3.922679443359375,-1.3910311645507811,-9.696217448425292,1.8293197059631348
1789030859487683300,3.932683349609375,-1.3341688751220702,-9.35908392715454,2.071732624053955
1789030859497687300,3.942687255859375,-1.3492822731018066,-8.929324729156493,2.371157469177246
1789030859507692300,3.9526923828125,-1.3944728294372557,-8.61209300918579,2.717718159484863
1789030859517696300,3.9626962890625,-1.407042388153076,-8.639327053070067,2.505232762145996
1789030859527701500,3.972701416015625,-1.1764508407592773,-8.757391122436523,2.280477081298828
1789030859537705200,3.982705322265625,-1.0283096130371092,-8.718036432647704,2.3458687141418455
1789030859547709200,3.992709228515625,-0.9407716148376464,-8.711153102874755,2.2836194709777833
1789030859557713400,4.00271337890625,-1.041328084564209,-8.855852665710449,2.179022785949707
1789030859567717600,4.012717529296875,-1.375917766571045,-9.155726423645019,2.263867307281494
1789030859577721600,4.0227216796875,-1.5298948608398437,-9.408464336395262,2.4549545272827147
1789030859587726600,4.0327265625,-1.5403694931030272,-9.469366841125488,2.6234464691162107
1789030859597730600,4.04273046875,-1.6979378898620605,-9.464578437805175,2.7967268142700195
1789030859607735600,4.052735595703125,-1.9587562332153319,-9.792733702850342,2.652027251434326
1789030859617739800,4.06273974609375,-2.3898621696472166,-10.331129801177978,2.402282090759277
1789030859627743500,4.072743408203125,-2.6322750877380368,-10.663026006317137,2.3335984306335447
1789030859637748500,4.08274853515625,-2.292747364807129,-10.383353324890136,1.9771616584777831
1789030859647752400,4.09275244140625,-2.2342390617370604,-9.60793126220703,2.1486463523864745
1789030859657757400,4.10275732421875,-2.047640969848633,-9.115174633026122,2.4660277099609376
1789030859667761700,4.11276171875,-2.3478140029907224,-8.713696942138672,3.086125939941406
1789030859677765600,4.122765625,-3.1248820793151855,-9.113678256988525,3.347991746520996
1789030859687770600,4.1327705078125,-3.100191874694824,-9.694870709991454,3.826532803344726
1789030859697774600,4.142774658203125,-3.2225954345703123,-9.931597399139404,4.234594548797607
1789030859707779600,4.152779541015625,-2.81558115234375,-9.621548284149169,3.579032206726074
1789030859717783800,4.16278369140625,-2.6530747146606446,-8.83505303878784,3.3559225395202636
1789030859727787500,4.17278759765625,-2.411409984588623,-8.519317694854736,3.483264140319824
1789030859737792500,4.18279248046875,-2.057068138885498,-8.470535836029052,3.4816181266784665
1789030859747796500,4.19279638671875,-2.1754314834594726,-8.487594522857666,3.4920927589416504
1789030859757800700,4.20280078125,-2.268356435394287,-8.870966063690185,3.164835319519043
1789030859767805700,4.2128056640625,-2.1082441993713377,-9.173383660888671,2.952798834991455
1789030859777809700,4.2228095703125,-1.9768623832702636,-9.101108698272705,3.125181354522705
1789030859787814700,4.232814697265625,-2.2924480895996093,-8.847323322296143,3.4949358734130858
1789030859797818600,4.242818603515625,-2.1930887207031247,-8.752453081512451,3.4299931533813472
1789030859807822600,4.252822509765625,-2.399738251495361,-8.690054200744628,3.3463457328796387
1789030859817827600,4.26282763671875,-2.941276739501953,-8.804526967620848,3.0960020217895505
1789030859827831600,4.27283154296875,-3.423259461212158,-9.05891089401245,3.0232781463623044
1789030859837836500,4.28283642578125,-3.6041713241577145,-9.203909732055664,3.01983648147583
1789030859847840500,4.292840576171875,-3.7045781562805176,-9.255833980560302,2.9789854156494138
1789030859857844500,4.302844482421875,-3.706074532318115,-9.333346259307861,2.9755437507629394
1789030859867849500,4.312849365234375,-3.509600358581543,-9.451859241485595,3.035698067474365
1789030859877853700,4.322853759765625,-3.2767642471313474,-9.467271914672851,2.958485063934326
1789030859887858700,4.332858642578125,-3.3545758010864257,-9.37240167388916,2.9001263984680175
1789030859897862700,4.342862548828125,-3.445705101776123,-9.392153837585449,3.034500966644287
1789030859907866400,4.352866455078125,-3.222296159362793,-9.39095673675537,3.1528643112182615
1789030859917871400,4.362871337890625,-3.111564332580566,-9.27543650665283,3.185186033630371
1789030859927875600,4.37287548828125,-3.0822353622436522,-9.108740216064453,3.214515003967285
1789030859937879600,4.382879638671875,-2.9574376007080074,-9.062651834106445,3.086125939941406
1789030859947884500,4.392884521484375,-2.7397148872375485,-9.019406566619873,3.0445266860961913
1789030859957888500,4.402888427734375,-2.6134207496643067,-9.030479749298095,3.1012393379211423
1789030859967893500,4.4128935546875,-2.45809691696167,-9.095422469329833,3.0903157928466793
1789030859977897700,4.422897705078125,-2.390909632873535,-9.000701866149901,3.172466837310791
1789030859987901700,4.432901611328125,-2.365321602630615,-8.793603422546386,3.293822933959961
1789030859997906700,4.44290673828125,-2.2836194709777833,-8.551938692474364,3.2734722198486326
1789030860007910400,4.452910400390625,-2.198326036834717,-8.363694586944579,3.075202394866943
1789030860017915400,4.462915283203125,-2.155380044555664,-8.39496884613037,2.905962265014648
1789030860027919600,4.472919677734375,-2.258031440734863,-8.755745108795166,2.9022213249206543
1789030860037923600,4.482923583984375,-2.2909517135620114,-9.07836378250122,2.967612957763672
1789030860047928600,4.492928466796875,-2.076969940185547,-9.279177446746825,2.625242120361328
1789030860057932500,4.5029326171875,-1.8576012130737303,-9.336488648986816,2.381931376647949
1789030860067937500,4.5129375,-1.8965069900512694,-9.447070838165283,2.0843021827697754
1789030860077941800,4.522941650390625,-2.0165163482666015,-9.909600671386718,1.854758098602295
1789030860087945700,4.53294580078125,-1.8198925369262695,-9.97888288192749,1.8145055831909178
1789030860097950700,4.54295068359375,-1.3435960441589354,-10.13884548034668,1.7057190452575683
1789030860107954400,4.552954345703125,-1.673247685241699,-9.520542901611327,1.7429788085937499
1789030860117959400,4.56295947265625,-1.8487725944519042,-8.771307419586181,1.7251719337463378
1789030860127963600,4.572963623046875,-1.7319056259155272,-8.836848690032959,1.67908355178833
1789030860137967600,4.582967529296875,-1.5689502754211424,-9.188646696472167,1.7331027267456054
1789030860147972600,4.59297265625,-1.4553753341674804,-9.414449840545654,1.9758149200439452
1789030860157976600,4.6029765625,-1.3013982398986816,-9.81278514175415,2.0254946044921875
1789030860167980500,4.61298046875,-1.0009259315490722,-10.186280600738526,2.1083938369750976
1789030860177985800,4.62298583984375,-0.9220669143676757,-10.345345373535155,2.1689970664978024
1789030860187989500,4.632989501953125,-0.9386766883850097,-9.909750308990478,2.3885154312133787
1789030860197994500,4.642994384765625,-1.2825439018249511,-9.053523940277099,2.524984925842285
1789030860207998500,4.65299853515625,-1.8136077575683593,-8.576628897094727,2.7902923973083493
1789030860218002400,4.66300244140625,-2.2939444656372068,-8.669104936218261,2.9746459251403805
1789030860228007700,4.673007568359375,-2.7033529495239255,-8.904634524536132,3.134159610748291
1789030860238011600,4.68301171875,-2.535309920501709,-8.588001354980468,3.1358056243896484
1789030860248016600,4.6930166015625,-2.2662615089416502,-8.215254084014893,2.7020062110900875
1789030860258020600,4.7030205078125,-2.2851158470153807,-8.045714678955077,2.662801158905029
1789030860268024600,4.713024658203125,-2.5043349365234375,-8.20373198852539,2.817376803588867
1789030860278029600,4.723029541015625,-2.7768250129699705,-8.369829728698729,2.8718448913574215
1789030860288033500,4.733033447265625,-2.9970915657043453,-8.48445213317871,3.127874831390381
1789030860298038500,4.74303857421875,-2.7157728706359863,-8.524854286193847,3.2281320259094235
1789030860308042500,4.75304248046875,-2.497002693939209,-8.539967684173584,2.994996639251709
1789030860318046500,4.76304638671875,-2.3931541969299315,-8.518120594024658,2.761412339782715
1789030860328051500,4.773051513671875,-2.14490541229248,-8.469039459991455,2.4096143333435056
1789030860338055700,4.7830556640625,-2.2936451904296873,-8.558822022247314,2.389562894439697
1789030860348060700,4.793060791015625,-2.5932196731567383,-8.90657981338501,2.3873183303833008
1789030860358064600,4.803064697265625,-2.7052982383728024,-9.211690887451171,2.36217921295166
1789030860368068600,4.813068603515625,-2.88561155090332,-9.528174419403076,2.5182512336730953
1789030860378073600,4.823073486328125,-2.985419832611084,-9.516203411102294,2.8293478118896482
1789030860388077600,4.83307763671875,-2.874987281036377,-9.185205031585692,3.014599165344238
1789030860398082600,4.84308251953125,-2.7608137893676754,-8.782081327056884,3.003825257873535
1789030860408086500,4.85308642578125,-2.6598084068298338,-8.463053955841064,2.9026702377319333
1789030860418090500,4.863090576171875,-2.7142764945983884,-8.30593447189331,2.703801862335205
1789030860428095500,4.873095458984375,-2.7913398605346678,-8.283488831329345,2.6039935806274412
1789030860438099700,4.883099609375,-2.7705402336120604,-8.346186987304687,2.695422156524658
1789030860448104700,4.893104736328125,-2.8016648551940917,-8.60042127609253,3.122487877655029
1789030860458108700,4.903108642578125,-2.871545616149902,-8.85450592727661,3.5271079582214355
1789030860468112600,4.913112548828125,-2.8483517875671387,-9.160814102172852,3.6236242126464844
1789030860478117600,4.92311767578125,-2.457348728942871,-9.527575868988036,3.3393127655029295
1789030860488121600,4.93312158203125,-2.2384289146423337,-9.87638112335205,3.103184626770019
1789030860498125600,4.94312548828125,-2.280477081298828,-10.114903463745117,3.24294614868164
1789030860508130600,4.953130615234375,-2.2563854270935058,-10.164583148193358,3.4974797126770016
1789030860518134500,4.963134521484375,-2.2007202384948727,-10.046519078826904,3.7222353935241697
1789030860528139500,4.973139404296875,-2.1417630226135254,-10.025869089508056,3.6993408401489254
1789030860538143700,4.983143798828125,-2.0446482177734375,-10.044274514770507,3.525312306976318
1789030860548147700,4.993147705078125,-2.1062989105224608,-9.941772756195068,3.24982947845459
1789030860558152700,5.003152587890625,-2.1505916412353514,-10.041431400299071,2.9683611457824703
1789030860568156700,5.01315673828125,-2.2164321868896484,-9.97170027694702,3.1009400627136228
1789030860578161700,5.02316162109375,-2.5005939964294432,-9.98456911087036,3.4543840827941894
1789030860588166000,5.033165771484375,-2.568230193328857,-10.121637155914305,3.5996821960449217
1789030860598169600,5.043169677734375,-2.549824768066406,-10.311676912689208,3.545812658691406
1789030860608174600,5.053174560546875,-2.583193953704834,-10.416572872924805,3.2980127868652342
1789030860618178600,5.063178466796875,-2.5450363647460934,-10.276512075805664,3.2510265792846678
1789030860628183600,5.07318359375,-2.51555775680542,-10.060884288787841,3.550301786804199
1789030860638187500,5.0831875,-2.3971944122314452,-9.850044905090332,3.911078049468994
1789030860648191700,5.093191650390625,-2.099565218353271,-9.629030164337157,3.6917093223571773
1789030860658196700,5.10319677734375,-1.8751088127136228,-9.08464856185913,3.2582091842651364
1789030860668200700,5.11320068359375,-1.7292121490478514,-8.602665840148925,2.762010890197754
1789030860678205700,5.123205810546875,-1.8677765701293945,-8.396315584564208,2.418143676757812
1789030860688209700,5.133209716796875,-2.0144214218139647,-8.50360574645996,2.420837153625488
1789030860698213600,5.143213623046875,-1.802384937286377,-8.810662109374999,2.409913608551025
1789030860708218600,5.153218505859375,-1.6525976959228514,-9.011775048828124,2.3689129051208493
1789030860718222600,5.16322265625,-1.6578350120544432,-9.15497823562622,2.101660144805908
1789030860728227600,5.1732275390625,-1.5623662208557128,-8.743325187683105,1.8186954360961913
1789030860738231600,5.1832314453125,-1.7892168281555174,-8.005162888336182,1.7277157730102537
1789030860748235800,5.19323583984375,-1.912667851257324,-7.609221788787841,1.7576432937622068
1789030860758240800,5.20324072265625,-2.0150199722290036,-7.622090622711181,2.0801123298645017
1789030860768244700,5.21324462890625,-2.417545126342773,-7.963264359283447,2.6795605705261227
1789030860778249700,5.223249755859375,-2.720411636352539,-8.841188180541991,2.850446714019775
1789030860788253700,5.233253662109375,-2.5995044525146485,-9.816825357055663,2.7932851493835447
1789030860798257700,5.243257568359375,-2.4001871643066406,-10.147674098968505,2.714725407409668
1789030860808262700,5.2532626953125,-2.498199794769287,-9.76220763168335,2.841618095397949
1789030860818266600,5.2632666015625,-2.495057405090332,-9.170989459228515,3.1144074470520016
1789030860828271600,5.273271728515625,-2.5475802040100097,-8.729558528137206,3.4199674339294432
1789030860838275600,5.283275634765625,-2.8070518089294434,-8.594884684753417,3.661332888793945
1789030860848279800,5.29327978515625,-3.0291140129089356,-8.814851962280272,3.714903150939941
1789030860858284800,5.303284912109375,-3.141641490936279,-9.128941292572021,3.6342484825134274
1789030860868288800,5.313288818359375,-3.333327261352539,-9.407716148376464,3.577236555480957
1789030860878293800,5.323293701171875,-3.3084874191284177,-9.61481459197998,3.609558277893066
1789030860888297500,5.33329736328125,-3.253271143341064,-9.522937103271484,3.5702035881042478
1789030860898301700,5.3433017578125,-3.2248399986267087,-9.296535408782958,3.584868073272705
1789030860908306700,5.353306640625,-3.066822689056396,-9.24371333465576,3.5775358306884764
1789030860918310700,5.363310546875,-3.043479222869873,-9.145401428985595,3.5321956367492673
1789030860928315600,5.373315673828125,-3.2350153556823726,-9.151686208343506,3.7919665168762204
1789030860938319600,5.383319580078125,-3.060537909698486,-9.217826029205321,3.903296894073486
1789030860948323800,5.39332373046875,-2.972401361083984,-9.075071755218506,3.8524201087951657
1789030860958328800,5.403328857421875,-2.8133365882873536,-8.932766394042968,3.7448306716918944
1789030860968332800,5.413332763671875,-2.6952725189208984,-8.772354882812499,3.4974797126770016
1789030860978337800,5.423337890625,-2.9677625953674314,-8.655787189483641,3.7132571372985836
1789030860988341500,5.433341552734375,-2.8562825805664063,-8.805125518035888,3.736151690673828
1789030860998345700,5.443345703125,-3.0348002418518063,-8.92543415145874,3.8138136070251463
1789030861008350700,5.453350830078125,-3.2330700668334957,-9.077914869689941,3.752761464691162
1789030861018354700,5.463354736328125,-3.008763298797607,-9.131485131835937,3.264942876434326
1789030861028359700,5.473359619140625,-3.0398879203796385,-9.105597826385498,3.1305683082580567
1789030861038363600,5.48336376953125,-2.895188357543945,-8.952069644927978,3.2077813117980956
1789030861048367600,5.49336767578125,-2.4869769744873045,-8.684966522216797,3.5003228271484375
1789030861058372600,5.50337255859375,-2.240224565887451,-8.571840493774413,3.686771281433105
1789030861068376800,5.513376953125,-2.3216274223327638,-8.591742295074463,3.821894037628174
1789030861078381800,5.5233818359375,-2.2655133209228513,-8.764573727416991,3.7385458923339843
1789030861088385500,5.533385498046875,-2.1719898185729978,-8.909123652648926,3.593098141479492
1789030861098389500,5.543389404296875,-2.253093399810791,-8.822333842468261,3.5568858413696285
1789030861108394500,5.55339453125,-2.389562894439697,-8.679429930877685,3.390788101196289
1789030861118398700,5.563398681640625,-2.586934893798828,-8.57393542022705,3.388992449951172
1789030861128403700,5.57340380859375,-2.6038439430236813,-8.555829270172119,3.42191272277832
1789030861138407700,5.58340771484375,-2.461987494659424,-8.647108208465575,3.1612440170288085
1789030861148411600,5.59341162109375,-2.536656658935547,-8.864531646728516,3.0496143646240235
1789030861158416600,5.603416748046875,-2.684049698638916,-9.16859525756836,3.113060708618164
1789030861168420600,5.613420654296875,-2.784606168365478,-9.46173532333374,3.070413991546631
1789030861178425900,5.62342578125,-2.7862521820068356,-9.732729023742674,3.1485248207092282
1789030861188429600,5.6334296875,-3.0684687026977535,-9.928006096649169,3.030460751342773
1789030861198433500,5.64343359375,-2.9804817916870117,-10.083030654144286,2.730437355804443
1789030861208438500,5.6534384765625,-2.296189029693603,-10.322899732971191,2.737470323181152
1789030861218442800,5.66344287109375,-2.3945009353637694,-10.198101971435547,3.026719811248779
1789030861228447700,5.67344775390625,-2.3849241287231444,-9.635314943695068,2.7647043670654297
1789030861238451700,5.68345166015625,-1.905784521484375,-9.344120166778564,2.016665985870361
1789030861248456700,5.693456787109375,-2.068590234375,-9.317335035705566,1.8085200790405271
1789030861258460700,5.703460693359375,-2.020706201171875,-9.454552718353272,1.7610849586486816
1789030861268464600,5.713464599609375,-1.6593313880920408,-9.584438158416747,1.6223708999633788
1789030861278469600,5.7234697265625,-1.5322890624999999,-9.348609294891357,1.6154875701904297
1789030861288473600,5.7334736328125,-1.6910545600891111,-8.798990376281738,1.7649755363464354
1789030861298477600,5.7434775390625,-1.9119196632385254,-8.278850065612792,1.8638859924316404
1789030861308482600,5.753482666015625,-2.1365257064819336,-7.900266928100585,2.1212626708984375
1789030861318486800,5.76348681640625,-2.3427263244628906,-7.749731498718261,2.545485277557373
1789030861328491800,5.77349169921875,-2.609979084777832,-7.577797891998291,2.9679122329711913
1789030861338495700,5.783495849609375,-2.3433248748779296,-7.244255673217773,3.1004911499023438
1789030861348500700,5.793500732421875,-2.055272487640381,-7.01665687789917,3.210175513458252
1789030861358504700,5.803504638671875,-2.4316110610961914,-7.2726868179321285,3.5308488983154294
1789030861368508700,5.8135087890625,-2.5248352882385254,-7.74374599456787,3.745129946899414
1789030861378513700,5.823513671875,-2.5655367164611813,-8.142380570983887,4.031685958099365
1789030861388517600,5.833517578125,-2.442235330963135,-8.378658347320556,4.061164566040039
1789030861398522600,5.843522705078125,-2.1909937942504882,-8.482506844329833,3.7161002517700195
1789030861408526600,5.853526611328125,-2.350058567047119,-8.565705352020263,3.3247979179382323
1789030861418530800,5.86353076171875,-2.4161983879089353,-8.75320126953125,2.8643630111694334
1789030861428535800,5.873535888671875,-2.5213936233520506,-8.844480207824706,2.80256268081665
1789030861438539800,5.883539794921875,-2.8624177223205565,-9.087042763519287,2.806453258514404
1789030861448544800,5.893544677734375,-2.6722283279418946,-9.333346259307861,2.6396073303222654
1789030861458548700,5.903548828125,-2.7525837211608883,-9.457695108032226,2.653373989868164
1789030861468552700,5.913552734375,-3.130119395446777,-9.715969612121581,2.6062381446838376
1789030861478557700,5.9235576171875,-2.686593537902832,-9.802011234283446,2.4589947425842285
1789030861488561700,5.933561767578125,-2.607884158325195,-9.609876551055908,2.6499323249816893
1789030861498566700,5.943566650390625,-2.4729110397338867,-9.444676636505127,2.6562171043395995
1789030861508570600,5.953570556640625,-2.2195745765686032,-9.248801013183593,2.778471026611328
1789030861518574600,5.96357470703125,-2.393004559326172,-8.96344210281372,3.0820857246398923
1789030861528579600,5.97357958984375,-2.2691046234130856,-8.744073375701904,3.0603882720947264
1789030861538583800,5.983583740234375,-2.5225907241821286,-8.757391122436523,3.227234200286865
1789030861548588800,5.9935888671875,-2.6295816108703614,-8.805275155639649,3.296217135620117
1789030861558592500,6.003592529296875,-2.466925535583496,-8.95610986022949,3.1389480140686032
1789030861568598000,6.013597900390625,-2.482637483978271,-9.12280615081787,3.1006407875061033
1789030861578602000,6.02360205078125,-2.805106520080566,-9.32810894317627,3.297563874053955
1789030861588606200,6.033606201171875,-3.0460230621337887,-9.605237785339355,3.371634487915039
1789030861598611200,6.043611083984375,-3.1612440170288085,-9.918578927612304,3.3559225395202636
1789030861608615200,6.053615234375,-3.12847338180542,-10.248679481506347,3.2172084808349606
1789030861618620200,6.0636201171875,-3.1591490905761717,-10.420164175415039,3.273023307037353
1789030861628624100,6.0736240234375,-3.1670798835754392,-10.34310080947876,3.3252468307495113
1789030861638628000,6.083628173828125,-3.088071228790283,-9.899126039123535,3.545663021087646
1789030861648633000,6.093633056640625,-2.9263129791259765,-9.298331060028076,3.790320503234863
1789030861658637000,6.103636962890625,-2.6876410011291503,-8.775497272491455,3.6447231147766113
1789030861668642000,6.11364208984375,-2.4808418327331543,-8.28648158340454,3.456479009246826
1789030861678646000,6.12364599609375,-2.3675661666870114,-7.851485069274902,3.4385224967956542
1789030861688650200,6.133650146484375,-2.29214881439209,-7.646331914520263,3.4075475128173824
1789030861698655200,6.1436552734375,-2.1273978126525876,-7.77606771697998,3.2920272827148436
1789030861708659200,6.1536591796875,-1.9820996994018554,-8.212111694335936,3.0807389862060544
1789030861718664200,6.163664306640625,-1.8613421531677246,-8.755146558380126,2.9979893913269042
1789030861728668000,6.17366796875,-2.0192098251342774,-9.422230995941161,3.3170167625427243
1789030861738672000,6.183672119140625,-2.0868460220336913,-10.103381368255615,3.4949358734130858
1789030861748677000,6.193677001953125,-1.8727146110534667,-10.455478649902343,3.07729732131958
1789030861758681000,6.20368115234375,-1.8623896163940428,-10.390685567474364,2.5008932716369627
1789030861768686000,6.21368603515625,-1.889025109863281,-10.001927072906494,2.1625626495361328
1789030861778690000,6.22368994140625,-1.9728221679687499,-9.457096557617186,2.0874445724487303
1789030861788695000,6.233695068359375,-2.242169854736328,-8.9255837890625,2.1817162628173827
1789030861798699300,6.24369921875,-2.3992893386840817,-8.578424548339843,2.3325509674072262
1789030861808703200,6.253703125,-2.4307132354736325,-8.555829270172119,2.5941174987792968
1789030861818708200,6.263708251953125,-2.2713491874694824,-8.837596878051757,2.7410616256713864
1789030861828712000,6.2737119140625,-2.123357597351074,-9.166949243927002,2.73896669921875
1789030861838717000,6.283717041015625,-2.204610816192627,-9.361328491210937,3.088819416809082
1789030861848721200,6.29372119140625,-2.206406467437744,-9.361478128814698,3.343652256011963
1789030861858725000,6.30372509765625,-2.1812673500061033,-9.251943402862548,3.405901499176025
1789030861868730000,6.313730224609375,-1.97910694732666,-9.144204328155517,3.3891420875549314
1789030861878734000,6.323734130859375,-1.9481319633483885,-8.794650885772704,3.311629808807373
1789030861888739000,6.333739013671875,-2.470067925262451,-8.56106658630371,3.266139977264404
1789030861898743000,6.343742919921875,-2.8315923759460446,-8.724470849609375,3.3623569564819333
1789030861908748000,6.353748046875,-2.93065246963501,-8.897751194763183,3.440467785644531
1789030861918752300,6.363752197265625,-3.0564976943969726,-9.088539139556884,3.366397171783447
1789030861928756000,6.373755859375,-3.0576947952270506,-9.242516233825683,3.296815686035156
1789030861938761000,6.383760986328125,-3.100191874694824,-9.241917683410644,3.3078888687133787
1789030861948765000,6.393764892578125,-3.312078721618652,-9.210643424224854,3.4829648651123044
1789030861958770000,6.40377001953125,-3.3653497085571287,-9.079560883331299,3.462763788604736
1789030861968774100,6.413774169921875,-3.5467104843139645,-8.843283106994628,3.5281554214477535
1789030861978778000,6.423778076171875,-3.5954923431396484,-8.709507089233398,3.5609260566711423
1789030861988783000,6.433783203125,-3.688267657470703,-8.582165488433837,3.4433109001159665
1789030861998787000,6.443787109375,-3.8428433021545407,-8.72671541366577,3.4856583419799803
1789030862008792000,6.4537919921875,-3.8392519996643064,-9.020753305053711,3.305195391845703
1789030862018796300,6.46379638671875,-3.781491884613037,-9.36536870651245,3.0889690544128414
1789030862028801300,6.47380126953125,-3.4096424392700193,-9.635763856506347,3.1440356925964354
1789030862038805000,6.483804931640625,-2.9646202056884765,-9.677512747955321,3.303100465393066
1789030862048809000,6.49380908203125,-2.7961282638549805,-9.47355669403076,3.4006641830444333
1789030862058814000,6.50381396484375,-2.7807155906677243,-9.201665167999266,3.469647118377685
1789030862068818200,6.513818115234375,-2.703801862335205,-8.986785569000244,3.2984616996765133
1789030862078823200,6.5238232421875,-2.8143840515136715,-8.807370082092284,3.336320013427734
1789030862088827100,6.5338271484375,-2.865260836791992,-8.888623300933837,3.4394203224182127
1789030862098831000,6.5438310546875,-2.6708815895080567,-8.952069644927978,3.4584242980957027
1789030862108836000,6.553836181640625,-2.5386019477844237,-8.923937775421143,3.3268928443908687
1789030862118840000,6.563840087890625,-2.5417443374633786,-8.928426903533936,3.172466837310791
1789030862128845000,6.573844970703125,-2.4064719436645507,-8.801384577941894,3.254767519378662
1789030862138849000,6.58384912109375,-2.4446295326232907,-8.730605991363525,3.367145359802246
1789030862148853000,6.59385302734375,-2.522889999389648,-8.65728356552124,3.573345977783203
1789030862158858000,6.60385791015625,-2.824260133361816,-8.712350203704833,3.633500294494629
1789030862168862200,6.6138623046875,-2.823811220550537,-8.98873085784912,3.455880458831787
1789030862178867200,6.6238671875,-2.760065601348877,-9.40427448348999,3.399018169403076
1789030862188871200,6.63387109375,-2.6409540687561033,-9.795277542114258,3.2058360229492187
1789030862198876200,6.643876220703125,-2.4639327835083007,-9.8702459815979,3.0629321113586423
1789030862208880000,6.653880126953125,-2.599803727722168,-9.605537060546874,3.0069676475524902
1789030862218884000,6.663884033203125,-2.567631642913818,-9.411457088470458,2.57286895904541
1789030862228889000,6.67388916015625,-2.5573066482543942,-9.245957898712158,2.4028806411743164
1789030862238893000,6.68389306640625,-2.7436054649353028,-9.22515827178955,2.5445874519348144
1789030862248898000,6.69389794921875,-2.609979084777832,-9.258826732635498,2.356343346405029
1789030862258902000,6.703902099609375,-2.3856723167419434,-8.776395098114014,1.901893943786621
1789030862268906200,6.71390625,-2.3288100273132324,-8.314912728118896,1.5071499450683592
1789030862278911200,6.7239111328125,-2.430563597869873,-8.24129102706909,1.6306009681701659
1789030862288915200,6.733915283203125,-2.568828743743896,-8.734047656249999,2.2093992195129393
1789030862298920200,6.743920166015625,-2.3159411933898926,-9.323769452667236,2.6026468421936033
1789030862308924200,6.753924072265625,-1.914014589691162,-9.55720411453247,2.7027543991088865
1789030862318929200,6.76392919921875,-1.8070237030029295,-9.408015423583985,2.4820389335632322
1789030862328933000,6.77393310546875,-1.8272247795104979,-9.031826487731934,2.1830630012512207
1789030862338937000,6.78393701171875,-1.9479823257446287,-8.460061203765868,2.2575825279235837
1789030862348942000,6.793942138671875,-2.206406467437744,-8.24952109527588,2.536058108520508
1789030862358946000,6.803946044921875,-2.479644731903076,-8.693346228027343,2.9049148017883297
1789030862368951000,6.813950927734375,-2.722805838012695,-9.323470177459717,3.1208418640136717
1789030862378955000,6.823955078125,-2.814084776306152,-9.704896429443359,3.0889690544128414
1789030862388959200,6.833959228515625,-2.8042086944580076,-9.616460605621338,2.921674213409424
1789030862398964200,6.843964111328125,-2.781164503479004,-8.95745659866333,2.620752992248535
1789030862408968000,6.853968017578125,-2.9085061042785645,-8.402001813507079,2.4363994644165037
1789030862418973200,6.86397314453125,-2.8890532157897946,-8.27451057510376,2.3980922378540037
1789030862428977000,6.873976806640625,-2.5369559341430663,-8.021473387145996,2.1657050392150876
1789030862438982000,6.88398193359375,-2.673874341583252,-7.879916213989257,2.10046304397583
1789030862448986000,6.893986083984375,-2.9034184257507323,-8.154351579284668,2.27913034286499
1789030862458990000,6.903989990234375,-3.030460751342773,-8.491784375762938,2.7117326553344725
1789030862468995000,6.9139951171875,-2.947561518859863,-8.846575134277343,3.133261785125732
1789030862478999000,6.9239990234375,-2.77083950881958,-9.363124142456055,3.199102330780029
1789030862489004000,6.934004150390625,-2.723554026031494,-9.709535195159912,3.21765739364624
1789030862499008300,6.94400830078125,-2.652625801849365,-9.72240402908325,2.9822774429321286
1789030862509012000,6.954011962890625,-2.693476867675781,-9.67182651901245,2.7965771766662595
1789030862519017000,6.964016845703125,-2.7747300865173337,-9.830442378997802,2.8754361938476563
1789030862529021000,6.97402099609375,-2.679859845733642,-9.856479322052001,2.842815196228027
1789030862539026000,6.98402587890625,-2.6445453712463376,-9.673921445465087,2.7455507537841797
1789030862549030100,6.994030029296875,-2.6511294258117672,-9.475801258087158,2.5356091957092284
1789030862559035100,7.00403515625,-2.6312276245117188,-9.267505713653565,2.410661796569824
1789030862569039000,7.0140390625,-2.778321389007568,-9.159018450927734,2.389562894439697
1789030862579043000,7.02404296875,-3.006518734741211,-9.30760859146118,2.4097639709472656
1789030862589048000,7.034048095703125,-2.996343377685547,-9.364620518493652,2.526182026672363
1789030862599052000,7.044052001953125,-2.871096703338623,-9.177723151397705,2.603544667816162
1789030862609057000,7.05405712890625,-2.828898899078369,-8.811859210205078,2.598905902099609
1789030862619061000,7.06406103515625,-2.823811220550537,-8.464251056671142,2.555810272216797
1789030862629066000,7.07406591796875,-2.805854708099365,-8.419509413146972,2.472611764526367
1789030862639070000,7.084070068359375,-2.7665000183105466,-8.587552442169189,2.449567573547363
1789030862649074200,7.09407421875,-2.779069577026367,-8.78507407913208,2.590077283477783
1789030862659079200,7.1040791015625,-2.6788123825073242,-8.982446078491211,2.816927890777588
1789030862669083100,7.114083251953125,-2.5909751091003415,-9.150638745117186,2.9231705894470212
1789030862679088000,7.124088134765625,-2.265812596130371,-8.942792113494873,2.840271356964111
1789030862689092000,7.134092041015625,-2.2767361412048337,-8.648754222106932,2.559551212310791
1789030862699096000,7.144095947265625,-2.3322516921997067,-8.915109156799316,2.5986066268920895
1789030862709101000,7.15410107421875,-2.2628198440551754,-9.146299254608154,2.6321254501342772
1789030862719105000,7.16410498046875,-2.287510048675537,-9.280673822784424,2.673874341583252
1789030862729110000,7.174110107421875,-2.3696610931396482,-9.290849179840087,2.7346272087097168
1789030862739114000,7.184114013671875,-2.4301146850585935,-9.206603208923338,2.794482250213623
1789030862749119000,7.194118896484375,-2.624643569946289,-9.060407270050048,2.8865093765258787
1789030862759123200,7.204123291015625,-2.8746880058288573,-9.351153134155274,2.9508535461425778
1789030862769127200,7.214127197265625,-2.935291235351562,-9.42297918395996,3.020435031890869
1789030862779132200,7.224132080078125,-2.805256157684326,-9.381978480529785,2.9875147590637203
1789030862789136000,7.234135986328125,-3.036745530700683,-9.495703059387207,2.9290064559936524
1789030862799140900,7.244140869140625,-3.1100679565429687,-9.609128363037108,2.9117981315612793
1789030862809145000,7.25414501953125,-3.0909143432617188,-9.57007294845581,3.06442848739624
1789030862819150000,7.264150146484375,-2.9715035354614256,-9.35264951019287,3.044676323699951
1789030862829154000,7.274154052734375,-2.925714428710937,-9.111134417724609,2.9926024375915525
1789030862839158000,7.284157958984375,-2.8290485366821287,-8.993668898773192,2.7705402336120604
1789030862849163000,7.2941630859375,-2.8848633628845213,-9.042600395202637,2.6358663902282715
1789030862859167000,7.3041669921875,-3.0728081932067868,-9.400832818603515,2.690184840393066
1789030862869172200,7.314172119140625,-2.982576718139648,-9.71058265838623,2.8865093765258787
1789030862879176200,7.32417626953125,-2.874388730621338,-9.583241057586669,3.0181904678344726
1789030862889180000,7.334179931640625,-2.6358663902282715,-9.181763366699219,2.8522423652648925
1789030862899185000,7.344184814453125,-2.382679564666748,-8.794052335357666,2.618807703399658
1789030862909188900,7.35418896484375,-2.3695114555358887,-8.756642934417725,2.5493758552551267
1789030862919193900,7.36419384765625,-2.264016944885254,-8.94997471847534,2.3454198013305665
1789030862929198000,7.374197998046875,-2.176329309082031,-8.9248356010437,2.1877017669677734
1789030862939203000,7.384203125,-2.114528978729248,-8.678981018066406,2.177825685119629
1789030862949207000,7.39420703125,-2.1812673500061033,-8.507496324157714,2.2099977699279783
1789030862959211000,7.4042109375,-2.296937217712402,-8.263736667633056,2.291400626373291
1789030862969216000,7.414216064453125,-2.420238603210449,-8.560318398284911,2.443282794189453
1789030862979220200,7.42422021484375,-2.3599346488952637,-8.585008602905273,2.6602573196411132
1789030862989225200,7.43422509765625,-2.5067291381835934,-8.544606449890136,2.7359739471435547
1789030862999229000,7.44422900390625,-2.8000188415527343,-8.757540760040282,2.8597242454528806
1789030863009234000,7.45423388671875,-2.813635863494873,-9.185653944396972,2.836530416870117
1789030863019238000,7.46423779296875,-2.6604069572448727,-9.321674526214599,3.0828339126586912
1789030863029242000,7.4742421875,-2.6077345207214355,-9.169941996002196,2.9732991867065426
1789030863039247000,7.4842470703125,-2.673724703979492,-9.14300722732544,2.8561329429626463
1789030863049251000,7.4942509765625,-2.701108385467529,-9.083152185821532,2.8000188415527343
1789030863059256000,7.504256103515625,-2.4769512550354,-8.902389960479736,2.5719711334228514
1789030863069260000,7.514260009765625,-2.363376313781738,-8.788366106414795,2.5007436340332028
1789030863079264300,7.52426416015625,-2.3988404258728027,-8.954164571380614,2.6116250984191893
1789030863089269200,7.534269287109375,-2.517503045654297,-9.130886581420897,2.699911284637451
1789030863099273000,7.54427294921875,-2.734477571105957,-9.386617246246338,3.0719103675842283
1789030863109278000,7.55427783203125,-2.6683377502441403,-9.609427638244629,3.2857425033569334
1789030863119282000,7.564281982421875,-2.571671858215332,-9.44198315963745,3.205536747741699
1789030863129287000,7.574286865234375,-2.593518948364258,-9.217826029205321,3.055300593566894
1789030863139291100,7.584291015625,-2.5047838493347165,-8.93156929321289,2.8576293190002438
1789030863149295000,7.594295166015625,-2.4953566802978515,-8.620472714996337,2.587383806610107
1789030863159300000,7.604300048828125,-2.6924294044494625,-8.393771745300292,2.5124153671264646
1789030863169304000,7.614303955078125,-2.6409540687561033,-8.37521668243408,2.472611764526367
1789030863179309000,7.62430908203125,-2.673874341583252,-8.505551035308837,2.5356091957092284
1789030863189313000,7.63431298828125,-2.7430069145202634,-8.725667950439453,2.644246096038818
1789030863199318000,7.644318115234375,-2.6259903083801266,-8.812906673431396,2.647687760925293
1789030863209322000,7.654322021484375,-2.6301801612854003,-8.852111725616455,2.6898855651855467
1789030863219326000,7.664325927734375,-2.6554689163208005,-8.98319426651001,2.759317413330078
1789030863229331000,7.6743310546875,-2.6500819625854493,-9.078962332916259,2.747795317840576
1789030863239335200,7.684335205078125,-2.654421453094482,-9.14809490585327,2.7385177864074706
1789030863249340200,7.694340087890625,-2.603544667816162,-9.178770614624023,2.6602573196411132
1789030863259344100,7.70434423828125,-2.532466806030273,-9.088688777160645,2.4350527259826658
1789030863269348000,7.71434814453125,-2.447771922302246,-8.854057014465331,2.360832474517822
1789030863279353000,7.72435302734375,-2.2671593345642087,-8.619874164581299,2.5321675308227536
1789030863289357000,7.734357177734375,-2.447023734283447,-8.523657185363769,2.8630162727355954
1789030863299362000,7.744362060546875,-2.7377695983886716,-8.546551738739014,3.1872809600830077
1789030863309366000,7.754365966796875,-2.7793688522338864,-8.642170167541503,3.3699884742736814
1789030863319371000,7.76437109375,-2.645742472076416,-8.781033863830565,3.4262522132873534
1789030863329375000,7.774375,-2.495057405090332,-8.99441708679199,3.427299676513672
1789030863339379200,7.784379150390625,-2.424129180908203,-9.255085792541504,3.359513842010498
1789030863349384200,7.79438427734375,-2.535309920501709,-9.455001631164551,3.414879755401611
1789030863359388200,7.80438818359375,-3.03884045715332,-9.79378116607666,3.3809120193481443
1789030863369393200,7.81439306640625,-2.9601310775756833,-10.377966371154784,2.356642621612549
1789030863379397000,7.824397216796875,-1.9768623832702636,-10.526107598876953,1.8508675209045409
1789030863389400800,7.83440087890625,-1.7254712089538573,-10.389787741851807,1.823932752227783
1789030863399406000,7.844406005859375,-2.193537633514404,-10.238653762054442,1.9143138648986815
1789030863409410000,7.85441015625,-2.4133552734375,-9.70369932861328,2.383278115081787
1789030863419415000,7.8644150390625,-4.09228918762207,-9.163657216644287,3.1625907554626465
1789030863429419000,7.8744189453125,-4.271704674530029,-8.851213899993896,3.785382462310791
1789030863439424000,7.884424072265625,-3.953874404144287,-9.093626818084717,3.797952021026611
1789030863449428000,7.894427978515625,-3.684975630187988,-9.381828842926025,3.771316527557373
1789030863459432200,7.90443212890625,-3.406649687194824,-9.475352345275878,3.778199857330322
1789030863469437200,7.914437255859375,-3.3623569564819333,-9.240870220184325,4.041562039947509
1789030863479441200,7.924441162109375,-3.6535517333984373,-9.003844255828858,4.234893824005127
1789030863489446100,7.934446044921875,-3.3559225395202636,-8.960150075531006,3.744980309295654
1789030863499449900,7.944449951171875,-2.6152164009094236,-8.897601557159422,3.0686183403015135
1789030863509454800,7.954454833984375,-2.0938789894104004,-8.77789147415161,2.6421511695861817
1789030863519459000,7.964458984375,-1.7717092285156248,-8.70771143798828,2.1824644508361817
1789030863529463000,7.974463134765625,-1.5601216567993164,-8.507496324157714,1.7962497955322265
1789030863539468000,7.984468017578125,-1.708412522125244,-8.288277234649657,1.5056535690307615
1789030863549472000,7.994471923828125,-1.874959175109863,-8.231414945220946,1.268627604675293
1789030863559477000,8.00447705078125,-2.012326495361328,-8.359953646850585,1.0672153900146484
1789030863569480400,8.01448046875,-2.486677699279785,-8.671648775482177,1.3811550827026366
1789030863579485400,8.0244853515625,-2.718915260314941,-9.22530790939331,1.9547160179138183
1789030863589489400,8.034489501953125,-2.7724855224609373,-9.740959091949462,2.643797183227539
1789030863599493400,8.044493408203126,-2.8886043029785156,-10.156502717590332,3.3693899238586424
1789030863609498600,8.05449853515625,-2.8227637573242186,-10.190620091247558,3.6625299896240233
1789030863619502300,8.06450244140625,-2.6690859382629393,-9.892093071746826,3.793612530517578
1789030863629507300,8.07450732421875,-2.8088474601745603,-9.481487487030028,4.045901530456542
1789030863639511300,8.08451123046875,-3.027467999267578,-9.212289437866211,4.273350688171386
1789030863649515300,8.094515380859375,-3.2257378242492676,-9.099612322235107,4.465335733795166
1789030863659520500,8.1045205078125,-3.206733848571777,-9.18131445388794,4.407575618743897
1789030863669524500,8.1145244140625,-3.047818713378906,-9.128642017364502,4.141220684051514
1789030863679529500,8.124529541015624,-2.8574796813964842,-9.059060531616211,3.8084266532897946
1789030863689533400,8.134533447265625,-2.546832015991211,-8.868422224426268,3.4178725074768064
1789030863699538400,8.144538330078126,-2.574215697479248,-8.70157629623413,3.3710359375
1789030863709542400,8.15454248046875,-2.6330232757568357,-8.795847986602782,3.2787095359802243
1789030863719546400,8.16454638671875,-2.5662849044799803,-8.961347176361084,2.8905495918273925
1789030863729551400,8.17455126953125,-2.4488193855285645,-8.911218579101561,2.7844565307617186
1789030863739555300,8.184555419921875,-2.4848820480346676,-8.66326906967163,2.9722517234802246
1789030863749560300,8.194560302734375,-2.6351182022094726,-8.478167353820801,3.1185972999572753
1789030863759564300,8.204564208984374,-2.8464064987182613,-8.378807984924316,3.2671874404907224
1789030863769568500,8.214568603515625,-2.9128455947875973,-8.333467790985107,3.2218472465515133
1789030863779573500,8.224573486328126,-3.001879969024658,-8.187271852111817,3.2172084808349606
1789030863789577500,8.234577392578124,-3.0909143432617188,-8.12756644821167,3.1612440170288085
1789030863799582500,8.24458251953125,-3.0723592803955078,-8.199542135620117,3.0080151107788082
1789030863809586400,8.25458642578125,-3.0425813972473144,-8.34409206085205,3.012055326080322
1789030863819591400,8.26459130859375,-3.0021792442321775,-8.548197752380371,2.9940988136291504
1789030863829595400,8.274595458984376,-2.8983307472229,-8.521711896514892,3.005022358703613
1789030863839599400,8.284599365234374,-3.0831331878662107,-8.419509413146972,3.010259674835205
1789030863849604400,8.294604248046875,-3.0557495063781737,-8.456170626068115,2.7973253646850584
1789030863859608300,8.3046083984375,-2.888903578186035,-8.423549628448486,2.7994202911376953
1789030863869613300,8.31461328125,-3.1206922264099117,-8.438064476013183,3.0822353622436522
1789030863879617500,8.324617431640625,-3.149123371124267,-8.495974228668212,3.169025172424316
1789030863889622500,8.33462255859375,-3.208828775024414,-8.54191297302246,3.2600048355102538
1789030863899626500,8.34462646484375,-3.340809141540527,-8.765321915435791,3.4825159523010254
1789030863909630500,8.35463037109375,-3.5673604736328124,-9.260472746276855,3.793612530517578
1789030863919635500,8.364635498046875,-3.4503438674926756,-9.687089554595946,3.9707834533691404
1789030863929639400,8.374639404296875,-3.3839047714233397,-9.821015209960937,4.146009087371826
1789030863939644400,8.38464453125,-3.3467946456909177,-9.695169985198975,4.203021014404297
1789030863949648400,8.3946484375,-3.6745009979248047,-9.586533084869384,4.176984071350097
1789030863959652400,8.40465234375,-3.9647979492187497,-9.728389533233642,4.06700043258667
1789030863969657300,8.4146572265625,-3.7015854042053222,-9.870844532012939,3.8584056129455564
1789030863979661600,8.42466162109375,-3.0603882720947264,-9.641898998260498,3.5619735198974607
1789030863989666600,8.43466650390625,-2.738218511199951,-9.113229344177245,3.125779904937744
1789030863999670500,8.44467041015625,-2.6925790420532225,-8.64381618118286,2.942324202728271
1789030864009675500,8.454675537109376,-2.721758374786377,-8.380902911376953,2.8284499862670898
1789030864019679200,8.46467919921875,-2.8000188415527343,-8.21630154724121,2.7473464050292966
1789030864029683500,8.474683349609375,-3.03255567779541,-8.192060255432128,2.8297967247009277
1789030864039688400,8.4846884765625,-3.1592987281799316,-8.383895663452147,3.044676323699951
1789030864049692400,8.4946923828125,-2.9697078842163083,-8.569446292114257,3.1639374938964844
1789030864059697400,8.504697509765625,-2.9587843391418454,-8.582315126037598,3.1956606658935547
1789030864069701400,8.514701416015624,-2.961028903198242,-8.590694831848143,3.1844378456115723
1789030864079706400,8.524706298828125,-2.8751369186401368,-8.644714006805419,3.231723328399658
1789030864089710600,8.534710693359376,-2.9755437507629394,-8.852560638427734,3.3454479072570797
1789030864099714600,8.544714599609375,-2.9638720176696776,-9.100360510253905,3.3399113159179685
1789030864109719600,8.554719482421875,-2.929754644012451,-9.337536112213135,3.5124434730529783
1789030864119723300,8.56472314453125,-2.91748436050415,-9.509619356536865,3.783287535858154
1789030864129728300,8.574728271484375,-2.925714428710937,-9.531616084289551,3.8543653976440426
1789030864139732500,8.584732421875,-2.8459575859069823,-9.372850586700439,3.6318542808532714
1789030864149736400,8.594736328125,-2.8407202697753906,-9.139266287231445,3.3432033432006834
1789030864159741400,8.604741455078125,-2.7748797241210936,-8.985438830566405,3.207332398986816
1789030864169745400,8.614745361328126,-2.6506805130004882,-8.896554093933105,3.2421979606628417
1789030864179750400,8.62475048828125,-2.6554689163208005,-8.975712386322021,3.234267167663574
1789030864189754400,8.63475439453125,-2.3988404258728027,-9.137320998382569,3.0761002204895016
1789030864199759400,8.64475927734375,-2.1281460006713866,-9.300425986480713,2.7729344352722167
1789030864209763600,8.654763671875,-1.9457377616882323,-9.420435344696044,2.5288755035400388
1789030864219767300,8.664767333984376,-1.8168997848510742,-9.371054935455321,2.4295161346435545
1789030864229772300,8.674772216796875,-1.6654665298461913,-9.230245950317382,2.346167989349365
1789030864239776300,8.6847763671875,-1.5655086105346678,-9.232191239166259,2.3876176055908203
1789030864249781200,8.69478125,-1.5631144088745117,-9.264363323974608,2.318933945465088
1789030864259785500,8.704785400390625,-1.4712369201660156,-9.04050546875,2.226158631134033
1789030864269789400,8.71478955078125,-1.3970166687011718,-8.834304850769042,2.1823148132324217
1789030864279794400,8.72479443359375,-1.4932336479187012,-8.749909242248535,2.1226094093322754
1789030864289798400,8.73479833984375,-1.8210896377563475,-8.664915083312987,2.015319247436523
1789030864299803400,8.744803466796874,-2.060809078979492,-8.507645961761474,2.0823568939208985
1789030864309807600,8.7548076171875,-2.2827216453552244,-8.745120838928223,1.912069300842285
1789030864319812600,8.7648125,-2.1158757171630858,-9.112930068969726,1.636885747528076
1789030864329816300,8.77481640625,-1.706467233276367,-9.127594554138183,1.5192705909729003
1789030864339820300,8.7848203125,-1.5747861419677733,-8.84867006072998,1.628655679321289
1789030864349825300,8.7948251953125,-2.029534819793701,-8.488791623687744,1.9164087913513181
1789030864359829500,8.80482958984375,-2.5520693321228025,-8.343792785644531,2.3222259727478027
1789030864369834500,8.81483447265625,-2.7033529495239255,-8.50375538406372,2.520495797729492
1789030864379838500,8.82483837890625,-2.580650114440918,-8.754847283172607,2.5459341903686523
1789030864389842400,8.834842529296875,-2.5369559341430663,-8.96329246520996,2.657713480377197
1789030864399847400,8.844847412109376,-2.1754314834594726,-8.841936368560791,2.658461668395996
1789030864409851400,8.854851318359374,-1.9524714538574217,-8.585307878112792,2.774430811309814
1789030864419856400,8.8648564453125,-2.316689381408691,-8.766219741058348,3.3399113159179685
1789030864429860400,8.8748603515625,-2.392256371307373,-9.253290141296386,3.547159397125244
1789030864439865300,8.884865234375,-2.6569652923583984,-9.621997196960448,3.782240072631836
1789030864449869300,8.894869384765625,-3.040187195587158,-9.878625687408446,3.937114992523193
1789030864459873500,8.90487353515625,-2.9481600692749024,-9.758017778778076,3.5275568710327145
1789030864469878500,8.91487841796875,-3.334673999786377,-9.554211362457275,3.287538154602051
1789030864479882500,8.924882568359376,-3.4956840614318847,-9.569324760437011,3.191470812988281
1789030864489887500,8.934887451171875,-2.888305027770996,-9.399486080169677,2.830544912719726
1789030864499891500,8.944891357421875,-2.669834126281738,-9.335141910552977,2.5776573623657226
1789030864509895400,8.9548955078125,-2.905962265014648,-9.405920497131348,2.657264567565918
1789030864519900400,8.964900390625,-3.1178491119384764,-9.478943647766112,2.8853122756958007
1789030864529904400,8.974904296875,-3.0603882720947264,-9.606734161376952,3.142389678955078
1789030864539909400,8.984909423828125,-2.858676782226562,-9.591471125793456,3.3261446563720702
1789030864549913300,8.994913330078125,-2.7486931434631345,-9.402927745056152,3.379864556121826
1789030864559918300,9.00491845703125,-2.3234230735778807,-9.140463388061523,2.981978167724609
1789030864569923300,9.01492333984375,-2.602347566986084,-8.807220444488525,2.986766571044922
1789030864579927600,9.024927490234376,-2.985868745422363,-8.660425955200195,2.9378350746154784
1789030864589932500,9.0349326171875,-2.7563246612548826,-8.466944533538818,2.779219214630127
1789030864599936500,9.0449365234375,-2.59845698928833,-8.289324697875976,2.6693852134704588
1789030864609941500,9.05494140625,-2.7615619773864744,-8.384793489074706,2.6874913635253903
1789030864619945500,9.064945556640625,-2.816778253173828,-8.557475283813476,2.7124808433532714
1789030864629949400,9.074949462890626,-2.9044658889770507,-8.620921627807617,2.9287071807861325
1789030864639954400,9.084954345703125,-3.0276176368713377,-8.614337573242187,3.3865982482910155
1789030864649958400,9.09495849609375,-2.8854619132995603,-8.707112887573242,3.3897406379699704
1789030864659963400,9.10496337890625,-2.8348844032287595,-8.749609967041016,3.0508114654541014
1789030864669967400,9.11496728515625,-2.918831098937988,-8.739284972381592,2.8892028533935545
1789030864679972400,9.124972412109376,-2.8124387626647946,-8.698882819366455,2.8453590354919434
1789030864689976600,9.1349765625,-2.567781280517578,-8.677484642028809,2.880074959564209
1789030864699980500,9.14498046875,-2.6077345207214355,-8.771905970001221,2.905513352203369
1789030864709985500,9.154985595703126,-2.656666017150879,-8.942492838287354,2.779069577026367
1789030864719989500,9.164989501953125,-2.7486931434631345,-9.099612322235107,2.7370214103698727
1789030864729994500,9.174994384765625,-2.776376100158691,-9.315539384460449,3.0207343070983885
1789030864739998500,9.18499853515625,-2.824409770965576,-9.51231283340454,3.263446500396728
1789030864750002400,9.19500244140625,-2.921524575805664,-9.553762449645996,3.3271921195983887
1789030864760007400,9.20500732421875,-3.036745530700683,-9.43629693069458,3.2959178604125974
1789030864770011400,9.215011474609375,-3.2103251510620114,-9.242815509033203,3.1766566902160642
1789030864780016400,9.225016357421875,-3.301903364562988,-9.157073162078857,2.9970915657043453
1789030864790020400,9.235020263671874,-3.062632836151123,-9.093177905273437,2.886958289337158
1789030864800025300,9.245025390625,-2.842216645812988,-8.996362375640869,2.786850732421875
1789030864810029600,9.255029541015626,-2.7082909904479977,-8.930671467590331,2.6595091316223143
1789030864820033300,9.265033203125,-2.789394571685791,-8.967781593322753,2.9185318237304685
1789030864830038300,9.275038330078125,-2.7729344352722167,-9.18101517868042,3.2932243835449215
1789030864840042200,9.285042236328126,-2.362927400970459,-9.49405704574585,3.3132758224487304
1789030864850047200,9.295047119140625,-1.9200000938415527,-9.603891046905517,2.748393868255615
1789030864860051500,9.305051513671875,-1.8655320060729979,-9.413402377319336,2.5311200675964356
1789030864870055400,9.315055419921874,-2.0943279022216794,-9.226205735015869,2.7316344566345214
1789030864880060400,9.325060302734375,-2.0642507438659665,-9.229497762298584,3.0353987922668457
1789030864890064400,9.335064453125,-1.9469348625183105,-9.283217662048338,3.554042726898193
1789030864900069400,9.3450693359375,-1.970128691101074,-9.434202004241943,4.040065663909912
1789030864910073600,9.355073486328125,-1.7618331466674804,-9.377489352416992,3.7669770370483397
1789030864920078600,9.36507861328125,-1.6594810256958006,-8.888174388122557,3.143586779785156
1789030864930082300,9.375082275390625,-1.7105074485778808,-8.439261576843261,2.65576819152832
1789030864940086300,9.385086181640625,-1.9292776252746582,-8.511835814666748,2.4787469062805174
1789030864950091300,9.39509130859375,-2.2002713256835937,-8.923189587402343,2.449118660736084
1789030864960095500,9.405095458984375,-2.38118318862915,-9.42926396331787,2.4756045166015626
1789030864970100500,9.4151005859375,-2.340481760406494,-9.861417362976074,2.498947982788086
1789030864980104400,9.4251044921875,-2.411260346984863,-10.168623363494872,2.6240450195312497
1789030864990108400,9.4351083984375,-2.3705589187622067,-10.3552214553833,2.544737089538574
1789030865000113400,9.445113525390624,-2.3814824638366696,-10.279953740692138,2.3216274223327638
1789030865010117600,9.45511767578125,-2.38776724319458,-10.015544094848632,2.330904953765869
1789030865020122600,9.46512255859375,-2.3205799591064453,-9.656413845825195,2.5842414169311523
1789030865030126300,9.475126220703125,-2.4429835189819333,-9.232789789581298,2.826355059814453
1789030865040130300,9.48513037109375,-2.724900764465332,-9.046191697692871,2.755875748443603
1789030865050135300,9.49513525390625,-2.7320833694458004,-8.874557366180419,2.8420670082092285
1789030865060139500,9.505139404296875,-2.583044316101074,-8.51632494277954,3.286191416168213
1789030865070144500,9.51514453125,-2.920926025390625,-8.537124569702147,3.510198908996582
1789030865080148500,9.5251484375,-3.1432875045776365,-8.994716361999512,3.6803368644714354
1789030865090153500,9.535153564453125,-3.1358056243896484,-9.27633433227539,3.8654385803222655
1789030865100157400,9.545157470703124,-3.0397382827758785,-9.367613270568848,3.8416462013244628
1789030865110161400,9.555161376953125,-2.8829180740356444,-9.08584566268921,3.6828807037353513
1789030865120166700,9.565166748046876,-2.9875147590637203,-8.634538649749755,3.8804023406982417
1789030865130170400,9.57517041015625,-3.017741555023193,-8.360552197265624,4.160224659729003
1789030865140175400,9.58517529296875,-2.9349919601440426,-8.268525070953368,4.037671462249755
1789030865150179300,9.595179443359376,-2.935291235351562,-8.260295002746581,3.857956700134277
1789030865160183600,9.60518359375,-2.6699837638854977,-8.502259008026122,3.5353380264282226
1789030865170188500,9.6151884765625,-2.637512403869629,-8.717138607025145,3.319111688995361
1789030865180192500,9.625192626953124,-2.611774736022949,-8.81694688873291,3.273322582244873
1789030865190197500,9.635197509765625,-2.5215432609558106,-8.760683149719238,3.1241338912963865
1789030865200201500,9.645201416015626,-2.3943512977600094,-8.627356044769286,2.9071593658447266
1789030865210205400,9.655205322265624,-2.3178864822387695,-8.493729664611816,2.66863702545166
1789030865220210400,9.66521044921875,-2.3395839347839353,-8.379556172943115,2.669834126281738
1789030865230214400,9.67521435546875,-2.5758617111206052,-8.488492348480223,2.853289828491211
1789030865240219400,9.685219482421875,-2.5227403617858886,-8.751555255889892,2.8399720817565917
1789030865250223400,9.695223388671875,-2.4281693962097166,-8.897451919555664,2.808548184967041
1789030865260228400,9.705228271484375,-2.6364649406433105,-9.037662354278565,2.9146412460327147
1789030865270232300,9.715232421875,-2.644246096038818,-9.237428555297852,3.0157962661743163
1789030865280236500,9.725236572265626,-2.8470050491333008,-9.457844745635986,3.193416101837158
1789030865290241500,9.735241455078125,-2.6617536956787107,-9.547926583099365,3.4274493141174314
1789030865300245500,9.74524560546875,-2.533214994049072,-9.47445451965332,3.6727053466796873
1789030865310250500,9.75525048828125,-2.656666017150879,-9.39709187850952,3.712209674072265
1789030865320254200,9.765254150390625,-2.9014731369018554,-9.450063590240479,3.393182302856445
1789030865330258400,9.775258544921876,-3.030760026550293,-9.631873278808593,3.1953613906860348
1789030865340263400,9.785263427734375,-2.775029361724853,-9.594613515472412,3.16019655380249
1789030865350267400,9.795267333984375,-2.6822540473937986,-9.354145886230468,3.387496073913574
1789030865360272400,9.8052724609375,-3.0078654731750487,-9.193884012603759,3.6911107719421383
1789030865370276400,9.8152763671875,-3.293673296356201,-9.245658623504639,3.5327941871643063
1789030865380280600,9.825280517578125,-3.1572038017272948,-9.229946675109863,3.1956606658935547
1789030865390285600,9.83528564453125,-2.996343377685547,-9.16156229019165,3.0819360870361328
1789030865400289500,9.84528955078125,-3.042880672454834,-9.168295982360839,3.150619747161865
1789030865410294500,9.85529443359375,-2.9364883361816405,-9.198073865509032,3.2131682655334473
1789030865420298200,9.86529833984375,-2.677764919281006,-9.03407105178833,3.118746937561035
1789030865430302500,9.875302490234375,-2.3995886138916016,-8.730605991363525,2.7506384323120114
1789030865440307500,9.885307373046874,-2.615515676116943,-8.357559445190429,2.549076580047607
1789030865450311400,9.8953115234375,-2.910750668334961,-8.196250108337402,2.7021558486938475
1789030865460316400,9.90531640625,-2.8926445182800293,-8.330923951721191,3.0262708984374997
1789030865470320400,9.9153203125,-2.721608737182617,-8.545653913116455,3.1612440170288085
1789030865480324600,9.92532470703125,-2.4961048683166505,-8.677035729217529,3.2609026611328122
1789030865490329600,9.93532958984375,-2.463633508300781,-8.788964656829833,3.2345664428710936
1789030865500333300,9.945333251953125,-2.276586503601074,-8.839991079711913,3.011456775665283
1789030865510338300,9.95533837890625,-1.9152116905212402,-8.766219741058348,2.8405706321716306
1789030865520342300,9.96534228515625,-1.6271593032836913,-8.883086709594727,2.5576059234619137
1789030865530346500,9.975346435546875,-1.4493898300170898,-9.016713089752196,2.3406313980102538
1789030865540351500,9.9853515625,-1.6436194396972654,-9.051728289031981,2.3300071281433103
1789030865550355500,9.99535546875,-2.135478243255615,-9.068338063049316,2.5010429092407227
1789030865560360400,10.0053603515625,-2.514809568786621,-9.233837252807616,2.5954642372131347
1789030865570364700,10.01536474609375,-2.4998458084106443,-9.516502686309813,2.523787825012207
1789030865580369700,10.02536962890625,-2.4334067123413083,-9.769090961456298,2.5662849044799803
1789030865590373600,10.03537353515625,-2.498798345184326,-9.851541281127929,2.7925369613647457
1789030865600377600,10.045377685546875,-2.504035661315918,-9.681253688049315,3.0008325057983396
1789030865610382600,10.055382568359375,-2.512864279937744,-9.255684342956542,3.0850784767150876
1789030865620386600,10.065386474609374,-2.6809073089599607,-8.845677308654786,3.0846295639038086
1789030865630391600,10.0753916015625,-3.044676323699951,-8.585607153320312,3.169773360443115
1789030865640395500,10.0853955078125,-2.9987375793457027,-8.47786807861328,3.0916625312805173
1789030865650399700,10.095399658203124,-2.4446295326232907,-8.39556739654541,2.736722135162353
1789030865660404700,10.10540478515625,-2.4185925895690916,-8.431181146240235,2.5924714851379393
1789030865670408700,10.11540869140625,-2.5585037490844726,-8.42788911895752,2.5796026512145995
1789030865680413700,10.12541357421875,-2.7539304595947263,-8.343792785644531,2.668038475036621
1789030865690417700,10.135417724609376,-2.840121719360351,-8.355015605926512,2.9505542709350583
1789030865700421600,10.145421630859374,-2.4001871643066406,-8.12711753540039,2.9103017555236814
1789030865710426600,10.155426513671875,-2.214636535644531,-7.7787611938476555,2.765751830291748
1789030865720430600,10.1654306640625,-2.717119609069824,-7.650970680236816,2.9707553474426267
1789030865730435600,10.175435546875,-3.097648035430908,-7.9183730781555175,3.178153066253662
1789030865740439600,10.185439453125,-3.3016040893554686,-8.205228364562988,3.5232173805236813
1789030865750443800,10.19544384765625,-3.236062818908691,-8.42773948135376,3.8227918632507323
1789030865760448800,10.20544873046875,-3.190273712158203,-8.635586112976073,3.7907694160461425
1789030865770452700,10.21545263671875,-3.1043817276000976,-8.82981572265625,3.6897640335083004
1789030865780457700,10.225457763671875,-3.225288911437988,-9.011475773620605,3.7765538436889647
1789030865790461700,10.235461669921875,-3.3268928443908687,-9.179369165039063,3.736151690673828
1789030865800465700,10.245465576171876,-3.19221900100708,-9.16246011581421,3.538779691314697
1789030865810470700,10.255470703125,-3.282749751281738,-8.974814560699462,3.494786235809326
1789030865820474600,10.265474609375,-3.282151200866699,-8.858995055389403,3.437923946380615
1789030865830479600,10.275479736328125,-3.036895168304443,-8.89984612121582,3.183839295196533
1789030865840483600,10.285483642578125,-2.703203311920166,-8.9769094871521,3.0029274322509765
1789030865850487800,10.29548779296875,-2.805854708099365,-9.07851342010498,3.097199122619629
1789030865860492800,10.305492919921875,-2.9372365242004395,-9.23712928009033,3.1262288177490234
1789030865870496800,10.315496826171875,-2.8688521392822266,-9.383923769378661,3.2618004867553707
1789030865880501800,10.325501708984374,-2.5344120948791504,-9.466523726654053,3.1675287963867187
1789030865890505700,10.335505615234375,-2.0971710166931152,-9.336189373779296,2.95579158706665
1789030865900509700,10.345509765625,-2.0726304496765136,-8.968080868530272,2.8426655586242675
1789030865910514700,10.3555146484375,-2.4729110397338867,-8.6566850151062,3.0219314079284665
1789030865920518700,10.3655185546875,-2.679859845733642,-8.735394394683837,3.19206936340332
1789030865930523600,10.375523681640624,-2.7430069145202634,-9.00204860458374,3.4798224754333495
1789030865940527600,10.385527587890625,-2.5918729347229004,-9.37195276107788,3.645920215606689
1789030865950531800,10.39553173828125,-2.573617147064209,-9.561094692230224,3.5230677429199218
1789030865960536800,10.405536865234374,-2.737619960784912,-9.579051204681395,3.5634698959350586
1789030865970540800,10.415540771484375,-2.989759323120117,-9.644442837524414,3.743633570861816
1789030865980545800,10.4255458984375,-3.1630396682739255,-9.703250415802001,4.14391416091919
1789030865990549500,10.435549560546875,-3.24294614868164,-9.815179343414306,4.302679658508301
1789030866000553700,10.4455537109375,-3.19865341796875,-9.759813430023193,4.133888441467285
1789030866010558700,10.455558837890624,-3.215113554382324,-9.386317971038817,3.739892630767822
1789030866020562700,10.465562744140625,-3.174412126159668,-9.016413814544677,3.467252916717529
1789030866030567700,10.475567626953126,-3.118746937561035,-8.928426903533936,3.500622102355957
1789030866040571600,10.485571533203125,-2.976291938781738,-9.12355433883667,3.5769372802734374
1789030866050575600,10.49557568359375,-2.487874800109863,-9.175328949737548,3.653252458190918
1789030866060580600,10.50558056640625,-2.192190895080566,-9.058162705993652,3.5015199279785154
1789030866070584800,10.515584716796875,-2.0036475143432617,-8.895207355499267,3.2207997833251953
1789030866080589800,10.52558984375,-1.9870377403259276,-8.733598743438721,3.216310655212402
1789030866090593500,10.535593505859374,-1.7672201004028318,-8.636184663391113,3.118298024749756
1789030866100597500,10.545597412109375,-1.6493056686401366,-8.636783213806153,3.1884780609130856
1789030866110602500,10.5556025390625,-1.6671125434875487,-8.75290199432373,3.121290776824951
1789030866120606700,10.565606689453125,-1.6473603797912597,-8.933813857269287,3.0506618278503415
1789030866130611700,10.57561181640625,-1.552041226196289,-9.11053586730957,2.691681216430664
1789030866140615700,10.58561572265625,-1.5707459266662598,-9.0657942237854,2.3900118072509766
1789030866150619600,10.59561962890625,-1.8748095375061034,-8.978705138397217,2.6574142051696774
1789030866160624600,10.605624755859376,-2.2821230949401854,-9.21199016265869,3.1612440170288085
1789030866170628900,10.61562890625,-2.446874096679687,-9.5645363571167,3.320458427429199
1789030866180633900,10.6256337890625,-2.5986066268920895,-9.60838017501831,3.4554315460205074
1789030866190637600,10.635637451171876,-2.8254572341918944,-9.504531678009032,3.706822720336914
1789030866200641500,10.6456416015625,-2.9117981315612793,-9.3331966217041,3.732261112976074
1789030866210646500,10.655646484375,-2.8202199180603027,-8.967631955718993,3.508253620147705
1789030866220650800,10.665650634765624,-2.552368607330322,-8.421903614807128,3.2392052085876464
1789030866230655700,10.67565576171875,-2.4058733932495118,-7.8709379577636716,3.121141139221191
1789030866240659700,10.68565966796875,-2.6363153030395505,-7.756165915679931,3.236062818908691
1789030866250663700,10.69566357421875,-3.079990798187256,-8.428637306976318,3.4329859054565426
1789030866260668700,10.705668701171875,-3.0228292335510254,-9.130736943817139,3.5453637458801266
1789030866270672600,10.715672607421874,-3.183390382385254,-9.221566969299316,3.4932898597717283
1789030866280677600,10.725677734375,-3.1917700881958004,-9.196727127075194,3.4112884529113767
1789030866290681600,10.735681640625,-3.2870892417907713,-9.1163717338562,3.6186861717224117
1789030866300685600,10.745685546875,-3.156006700897217,-9.033472501373291,3.7701194267272946
1789030866310690600,10.755690673828125,-2.92376913986206,-8.787468280792236,3.497180437469482
1789030866320694800,10.76569482421875,-2.895936545562744,-8.545055362701415,3.270629105377197
1789030866330699800,10.77569970703125,-2.7157728706359863,-8.481609018707275,3.2836475769042965
1789030866340703700,10.785703857421876,-2.5579051986694332,-8.424597091674805,3.31985987701416
1789030866350707700,10.795707763671874,-2.7430069145202634,-8.264185580444336,3.3762732536315916
1789030866360712700,10.805712646484375,-2.9026702377319333,-8.239645013427733,3.4458547393798824
1789030866370716700,10.815716552734376,-2.8342858528137205,-8.375067044830322,3.4088942512512204
1789030866380721700,10.8257216796875,-2.963572742462158,-8.474875326538086,3.487753268432617
1789030866390725600,10.8357255859375,-2.775777549743652,-8.532336166381835,3.336918563842773
1789030866400729600,10.8457294921875,-2.789244934082031,-8.48490104598999,3.205387110137939
1789030866410734600,10.855734619140625,-3.153163586425781,-8.43372498550415,3.427150038909912
1789030866420738800,10.86573876953125,-3.268384541320801,-8.56824919128418,3.70263286743164
1789030866430743800,10.875743896484375,-3.099742961883545,-8.734047656249999,3.6899136711120604
1789030866440747800,10.885747802734375,-3.1287726570129393,-8.711901290893554,3.5372833152770995
1789030866450751700,10.895751708984376,-3.1302690330505367,-8.674342252349852,3.4042554855346676
1789030866460756700,10.9057568359375,-3.379864556121826,-8.833706300354004,3.6981437393188474
1789030866470760700,10.9157607421875,-3.5244144813537597,-9.299528160858154,3.9680899765014646
1789030866480764700,10.9257646484375,-3.4543840827941894,-9.72285294189453,4.223970278930664
1789030866490769700,10.935769775390625,-3.3625065940856933,-9.971550639343262,4.0924388252258295
1789030866500773600,10.945773681640626,-2.9487586196899414,-9.789292037963866,3.6891654830932614
1789030866510778600,10.955778564453125,-2.674323254394531,-9.320028512573241,3.507505432128906
1789030866520782600,10.965782470703125,-2.7492916938781735,-9.054571403503417,3.602674948120117
1789030866530786800,10.975786865234374,-3.186383134460449,-8.950124356079101,4.261828592681884
1789030866540791800,10.985791748046875,-3.5052608680725097,-9.11053586730957,4.355950645446777
1789030866550795500,10.99579541015625,-3.187430597686767,-9.18041662826538,3.688267657470703
1789030866560800800,11.00580078125,-2.5719711334228514,-8.941146099853515,2.916885810089111
1789030866570804200,11.01580419921875,-2.1054010848999023,-8.662221606445312,2.6417022567749022
1789030866580808200,11.02580810546875,-2.5267805770874023,-8.633491186523438,3.1069255668640134
1789030866590813200,11.035813232421875,-2.6427497200012207,-8.743474825286865,3.3343747245788573
1789030866600817200,11.045817138671875,-2.5725696838378904,-8.743175550079345,3.464110527038574
1789030866610822100,11.055822265625,-2.5495254928588866,-8.818742539978027,3.2849943153381345
1789030866620826400,11.065826416015625,-2.352452768707275,-8.892064965820312,3.1383494636535643
1789030866630830300,11.075830322265626,-2.1308394775390624,-8.985887743377685,3.1144074470520016
1789030866640835300,11.08583544921875,-2.0649989318847655,-8.813954136657715,3.004573445892334
1789030866650839300,11.09583935546875,-2.2391771026611327,-8.63812995223999,2.798223190307617
1789030866660844300,11.10584423828125,-2.4013842651367185,-8.579771286773681,2.817376803588867
1789030866670848300,11.11584814453125,-2.747196767425537,-8.742576999664307,3.1262288177490234
1789030866680852200,11.125852294921875,-2.5157073944091795,-8.939500086212158,3.0633810241699218
1789030866690857200,11.135857177734374,-2.2834698333740233,-8.878597581481934,2.8857611885070797
1789030866700861200,11.145861083984375,-2.5405472366333006,-8.84223564376831,2.925115878295898
1789030866710865200,11.155865234375,-2.708141352844238,-8.98888049545288,3.1823429191589354
1789030866720870100,11.1658701171875,-2.8170775283813474,-9.204657920074462,3.3361703758239742
1789030866730874400,11.175874267578125,-2.954594486236572,-9.471162492370604,3.4867058052062987
1789030866740879400,11.18587939453125,-3.0086136611938477,-9.859771349334716,3.4549826332092284
1789030866750883000,11.195883056640625,-2.6803087585449217,-9.999981784057617,3.1239842536926266
1789030866760887000,11.205886962890625,-2.15777424621582,-9.50572877883911,2.7527333587646483
1789030866770892000,11.21589208984375,-2.1083938369750976,-8.894159892272949,2.4015339027404785
1789030866780896300,11.225896240234375,-2.5303718795776367,-8.66326906967163,2.4218846168518064
1789030866790901200,11.2359013671875,-3.1004911499023438,-8.75260271911621,2.8936919815063473
1789030866800905200,11.2459052734375,-3.0467712501525877,-8.801534215545654,3.146130619049072
1789030866810909200,11.2559091796875,-2.713977219390869,-8.560916948699951,3.075800945281982
1789030866820914200,11.2659140625,-2.572270408630371,-8.186673301696777,2.9426234779357907
1789030866830918400,11.27591845703125,-2.775178999328613,-8.099284941101073,2.881870610809326
1789030866840923400,11.28592333984375,-2.991554974365234,-8.17784468307495,3.144185330200195
1789030866850927000,11.295927001953125,-3.025073797607422,-8.236352986145018,3.4062007743835445
1789030866860931000,11.30593115234375,-2.66205297088623,-8.130110287475585,3.3988685317993164
1789030866870936000,11.31593603515625,-2.637512403869629,-7.912237936401366,3.4172739570617674
1789030866880940300,11.325940185546875,-2.557456285858154,-7.77621735458374,3.2830490264892576
1789030866890944300,11.3359443359375,-2.6384102294921874,-7.818564796447753,3.136104899597168
1789030866900949200,11.34594921875,-2.9978397537231443,-8.109909210968016,3.3162685745239258
1789030866910953200,11.355953125,-3.15391177444458,-8.470386198425292,3.4102409896850583
1789030866920958200,11.365958251953124,-3.0795418853759764,-8.681075944519042,3.3678935478210446
1789030866930962400,11.37596240234375,-2.926013703918457,-8.783278427886962,3.2386066581726074
1789030866940966100,11.385966064453125,-2.942473840332031,-8.677335004425048,3.2589573722839353
1789030866950971100,11.39597119140625,-3.135356711578369,-8.687959274291991,3.2249896362304686
1789030866960975000,11.40597509765625,-3.245639625549316,-8.722375923156738,3.2052374725341797
1789030866970980000,11.41597998046875,-3.240252671813965,-8.690802388763426,3.2044892845153807
1789030866980984300,11.425984375,-3.1432875045776365,-8.656385739898681,3.2091280502319335
1789030866990988300,11.43598828125,-2.9569886878967284,-8.655338276672362,3.353079425048828
1789030867000993300,11.4459931640625,-2.805854708099365,-8.813056311035156,3.3227029914855954
1789030867010997200,11.455997314453125,-2.8206688308715817,-9.13627353515625,3.3111808959960936
1789030867021001200,11.466001220703125,-2.938732900238037,-9.593715689849853,3.5122938354492184
1789030867031006200,11.476006103515624,-3.0264205360412597,-10.045321977996826,3.7831378982543944
1789030867041010200,11.48601025390625,-3.117400199127197,-10.408193167114257,4.059368914794922
1789030867051015200,11.49601513671875,-3.0502129150390624,-10.573841994476318,4.244769905853271
1789030867061019100,11.50601904296875,-2.9408278266906738,-10.488099647521972,4.255543813323975
1789030867071023000,11.516023193359375,-2.7834090675354,-10.037540822601319,4.178630084991455
1789030867081028000,11.526028076171874,-2.8080992721557614,-9.433453816223144,4.106654397583007
1789030867091032300,11.5360322265625,-2.8657097496032713,-8.966135579681396,4.00953959274292
1789030867101037300,11.546037353515626,-3.001281418609619,-8.660425955200195,3.883395092773437
1789030867111041300,11.556041259765625,-3.056647332000732,-8.411877895355223,3.8980595779418943
1789030867121045000,11.566044921875,-3.0514100158691404,-8.312668164062499,3.7585973312377927
1789030867131050000,11.576050048828124,-3.0494647270202635,-8.3119199760437,3.4346319190979
1789030867141054200,11.58605419921875,-3.141791128540039,-8.435819911956786,3.3455975448608397
1789030867151058200,11.59605810546875,-3.1088708557128903,-8.681973770141601,3.420715621948242
1789030867161063200,11.606063232421874,-3.104681002807617,-8.985738105773926,3.7343560394287105
1789030867171067100,11.616067138671875,-3.018938655853271,-9.364770156097412,4.063109854888916
1789030867181072100,11.626072021484376,-2.512714642333984,-9.655964933013916,3.8558617736816405
1789030867191076400,11.636076416015625,-2.2285528327941893,-9.519345800781249,3.5627217079162596
1789030867201080300,11.646080322265625,-2.074426100921631,-9.011625411224365,3.331381972503662
1789030867211085300,11.656085205078124,-2.014870334625244,-8.535029643249512,3.1652842323303223
1789030867221089000,11.666089111328125,-1.9930232444763183,-8.216151909637452,3.393182302856445
1789030867231094000,11.676093994140626,-1.9054852462768554,-8.131756301116942,3.7759552932739258
1789030867241098200,11.68609814453125,-1.9798551353454588,-8.309525774383545,3.88818349609375
1789030867251102200,11.696102294921875,-1.9469348625183105,-8.649652047729491,3.494337322998047
1789030867261107200,11.706107177734374,-2.0081366424560545,-8.901641772460938,3.076399495697021
1789030867271111200,11.716111083984375,-2.1924901702880857,-9.188945971679686,2.8751369186401368
1789030867281115400,11.726115478515625,-2.1683985160827635,-9.42866541290283,2.8522423652648925
1789030867291120400,11.736120361328124,-2.1703438049316404,-9.379733916473388,2.8760347442626952
1789030867301124000,11.7461240234375,-2.438195115661621,-9.038111267089842,2.9218238510131833
1789030867311129300,11.75612939453125,-2.695422156524658,-8.856750491333008,2.846256861114502
1789030867321133000,11.766133056640625,-2.718466347503662,-8.88697728729248,2.8476035995483397
1789030867331137300,11.77613720703125,-2.7611130645751953,-9.047837711334228,3.031208939361572
1789030867341142300,11.786142333984374,-2.635417477416992,-9.22500863418579,3.2357635437011716
1789030867351146200,11.796146240234375,-2.6747721672058105,-9.272443754577637,3.4147301177978515
1789030867361150200,11.806150146484375,-2.928407905578613,-9.383025943756103,3.5658640975952145
1789030867371155200,11.8161552734375,-3.2041900093078612,-9.739313078308104,3.5488054107666014
1789030867381159400,11.826159423828125,-3.1051299156188965,-9.931896674346923,3.8248867897033687
1789030867391164400,11.836164306640624,-3.056198419189453,-9.782857621002197,4.110694612884521
1789030867401168100,11.846168212890625,-2.7525837211608883,-9.298331060028076,3.9018005180358886
1789030867411172000,11.856172119140625,-2.8576293190002438,-8.571241943359375,3.83685779800415
1789030867421177000,11.866177001953124,-3.080589348602295,-8.23575443572998,3.826083890533447
1789030867431181300,11.876181396484375,-2.821117743682861,-7.9858596374511714,3.745129946899414
1789030867441185300,11.886185302734376,-2.7630583534240722,-7.752873888397216,3.6605847007751464
1789030867451190300,11.896190185546875,-2.6707319519042967,-7.675810522460937,3.4120366409301757
1789030867461194200,11.9061943359375,-2.8247090461730955,-7.696460511779785,3.3367689262390137
1789030867471199200,11.91619921875,-2.958036151123047,-7.966257111358642,3.2812533752441406
1789030867481203200,11.926203125,-2.7602152389526364,-8.22961929397583,3.116951286315918
1789030867491207200,11.936207275390625,-2.8130373130798336,-8.28064571685791,3.126528092956543
1789030867501212200,11.946212158203124,-2.748543505859375,-8.346935175323486,3.1946132026672363
1789030867511216000,11.956216064453125,-2.851045264434814,-8.361898935699463,3.400963458251953
1789030867521220000,11.96622021484375,-3.0129531517028805,-8.467991996765136,3.497330075073242
1789030867531225000,11.97622509765625,-3.0550013183593747,-8.568698104095459,3.539677516937256
1789030867541229300,11.986229248046875,-3.1260791801452634,-8.6444147315979,3.5357869392395016
1789030867551234300,11.996234375,-3.289184168243408,-8.60042127609253,3.686920919036865
1789030867561238300,12.00623828125,-3.6457705780029293,-8.7463179397583,4.033182334136963
1789030867571242200,12.0162421875,-3.541473168182373,-9.118915573120116,4.116231204223633
1789030867581247200,12.026247314453125,-3.2507273040771483,-9.33379517211914,3.911078049468994
1789030867591251500,12.03625146484375,-3.038092269134521,-9.502137476348876,3.7681741378784177
1789030867601256400,12.04625634765625,-3.2411504974365233,-9.704896429443359,4.008941042327881
1789030867611260400,12.056260498046875,-3.375824340820312,-9.919327115631104,4.3053731353759765
1789030867621264400,12.066264404296875,-3.443610175323486,-9.968108974456786,4.36642527770996
1789030867631269400,12.076269287109374,-3.2626983123779296,-9.56977367324829,4.013879083251953
1789030867641273300,12.0862734375,-3.0074165603637693,-8.850764987182616,3.680486502075195
1789030867651277300,12.09627734375,-3.0455741493225097,-8.429385494995117,3.635295945739746
1789030867661282300,12.1062822265625,-2.8926445182800293,-8.393173194885254,3.659387599945068
1789030867671286300,12.116286376953125,-2.77712428817749,-8.512434365081786,3.5805285827636717
1789030867681290500,12.12629052734375,-2.636165665435791,-8.492831838989257,3.515136949920654
1789030867691295500,12.13629541015625,-2.835333316040039,-8.389731529998778,3.6137481307983395
1789030867701299500,12.146299560546876,-2.9831752685546875,-8.279298978424071,3.6489129676818846
1789030867711304400,12.156304443359375,-3.1652842323303223,-8.204330538940429,3.662081076812744
1789030867721308200,12.16630810546875,-3.0828339126586912,-8.239495375823974,3.4017116462707517
1789030867731312400,12.1763125,-2.5968109756469726,-8.248772907257079,3.1898247993469235
1789030867741317400,12.1863173828125,-2.2040122657775876,-8.141482745361328,3.0889690544128414
1789030867751321300,12.1963212890625,-2.332700605010986,-8.080729878234862,3.1208418640136717
1789030867761325300,12.2063251953125,-2.8821698860168454,-8.27391202468872,3.4139819297790526
1789030867771330300,12.216330322265625,-3.3105823455810546,-8.598775262451172,3.7647324729919434
1789030867781334500,12.22633447265625,-3.2377088325500485,-9.056666329956053,3.8099230293273925
1789030867791339500,12.236339599609375,-2.9788357780456542,-9.321674526214599,3.5711014137268062
1789030867801343500,12.246343505859375,-2.632724000549316,-9.28306802444458,3.243694336700439
1789030867811347200,12.25634716796875,-2.2459107948303223,-9.048436261749266,3.0110078628540036
1789030867821352200,12.266352294921875,-2.277783604431152,-8.749011416625976,2.9508535461425778
1789030867831356200,12.276356201171875,-2.6319758125305173,-8.679579568481445,3.0014310562133786
1789030867841360400,12.2863603515625,-2.9227216766357422,-8.859443968200683,3.0961516593933105
1789030867851365400,12.296365478515625,-2.956539775085449,-9.163357941436766,3.11545491027832
1789030867861369300,12.306369384765626,-2.4717139389038083,-9.318232861328125,2.9478607940673824
1789030867871374300,12.316374267578125,-2.3027730842590333,-9.189544522094726,2.8669068504333493
1789030867881378300,12.32637841796875,-2.0681413215637208,-8.815899425506592,2.697367445373535
1789030867891382500,12.336382568359374,-2.4622867698669433,-8.310722875213623,3.126977005767822
1789030867901387500,12.346387451171875,-3.519177165222168,-8.265681956481933,3.4593221237182616
1789030867911391200,12.35639111328125,-3.9827544616699218,-8.543110073852539,3.566911560821533
1789030867921395200,12.366395263671874,-3.6508582565307615,-8.910171115875244,3.4495956794738767
1789030867931400200,12.376400146484375,-2.983474543762207,-9.05322466506958,3.0725089179992673
1789030867941404400,12.386404296875,-2.6426000823974607,-8.704718685913086,2.7084406280517577
1789030867951408400,12.396408447265625,-2.8541876541137694,-8.167519688415528,2.745850028991699
1789030867961413400,12.406413330078125,-2.8947394447326658,-7.83367819442749,2.9899089607238767
1789030867971417300,12.416417236328124,-2.9659669441223144,-7.745092733001709,3.2905309066772457
1789030867981422300,12.42642236328125,-2.9966426528930663,-7.87841983795166,3.591751403045654
1789030867991426300,12.43642626953125,-2.8227637573242186,-8.097788565063476,3.4931402221679684
1789030868001430300,12.44643017578125,-2.9041666137695312,-8.215403721618651,3.413533016967773
1789030868011435300,12.456435302734375,-2.7952304382324216,-8.323890984344482,3.421164534759521
1789030868021439200,12.466439208984376,-2.6702830390930172,-8.157344331359862,3.5214217292785643
1789030868031443500,12.476443359375,-3.040336833190918,-8.015787158203125,3.6447231147766113
1789030868041448400,12.486448486328126,-3.2797569992065427,-8.000673760223389,3.625120588684082
1789030868051452400,12.496452392578124,-3.2882863426208493,-8.030302005767822,3.6242227630615234
1789030868061456400,12.506456298828125,-2.9747955627441405,-8.247725444030761,3.567510111236572
1789030868071461400,12.51646142578125,-2.653224352264404,-8.415618835449218,3.3247979179382323
1789030868081465300,12.52646533203125,-2.8884546653747556,-8.530540515136718,3.3455975448608397
1789030868091470300,12.53647021484375,-3.4229601860046386,-8.707262525177,3.652653907775879
1789030868101474300,12.546474365234374,-3.548506135559082,-9.003993893432616,3.763535372161865
1789030868111478300,12.556478271484375,-3.169623722839355,-9.300874899291992,3.6864720062255856
1789030868121483300,12.566483154296876,-2.9625252792358396,-9.573065700531005,3.730764736938476
1789030868131487500,12.576487548828124,-2.7902923973083493,-9.872191270446777,3.768473413085937
1789030868141491500,12.586491455078125,-2.747047129821777,-10.003124173736571,3.8857892944335934
1789030868151496400,12.596496337890626,-2.9836241813659665,-9.973047015380859,4.066252244567871
1789030868161500400,12.60650048828125,-2.906860090637207,-9.848847804260254,3.9577649818420406
1789030868171505400,12.61650537109375,-2.6880899139404297,-9.522039277648926,3.733009300994873
1789030868181509400,12.62650927734375,-2.422183892059326,-9.077465956878662,3.4861072547912597
1789030868191513300,12.636513427734375,-2.475005966186523,-8.733598743438721,3.3469442832946776
1789030868201518300,12.646518310546876,-2.8356325912475584,-8.650849148559569,3.634098844909668
1789030868211522300,12.656522216796875,-2.9249662406921386,-8.795399073791504,3.8817490791320797
1789030868221526300,12.6665263671875,-2.778471026611328,-8.8229323928833,3.8790556022644043
1789030868231531300,12.67653125,-2.6976667205810547,-8.716240781402588,3.7083190963745114
1789030868241535500,12.686535400390625,-2.7451018409729,-8.508394149780273,3.3578678283691406
1789030868251539200,12.696539306640625,-3.0624831985473633,-8.346635900115967,3.2640450508117675
1789030868261544200,12.706544189453124,-3.2231939849853513,-8.378359072113037,3.576039454650879
1789030868271548200,12.716548095703125,-3.062632836151123,-8.54221224822998,4.005499377441406
