time,seconds_elapsed,z,y,x
1788965052613366000,0.055365966796875,0.2029594441026449,0.006390870080888271,1.0553194927766918
1788965052623368000,0.065367919921875,0.19761691403090953,-0.022439795345067976,0.9856468216136097
1788965052633369900,0.075369873046875,0.034060675033926964,-0.1763075840204954,1.1583660257533193
1788965052643373000,0.085373046875,-0.08762626100480556,-0.35665187621116634,1.2029543784119188
1788965052653375000,0.095375,-0.312004340711236,-0.5031970669135452,1.4883198646530509
1788965052663377200,0.105377197265625,-0.7757347818940877,-0.6458800292298197,1.8189349439404903
1788965052673379000,0.115379150390625,-1.2732663703918456,-0.7236930444896221,1.8595937020651996
1788965052683382000,0.125382080078125,-1.4379659342050553,-0.8428928398877382,2.002488407436013
1788965052693384000,0.135384033203125,-1.2438292635053396,-0.8369757247984408,2.000395088418573
1788965052703386000,0.14538623046875,-0.17156594245135784,-0.49815439657121896,1.510880363768339
1788965052713388000,0.155387939453125,1.3192325872749089,-0.25680969223380085,1.7015059576071798
1788965052723391000,0.165390869140625,1.9016355851113795,-0.3848506734743714,1.2294554318465292
1788965052733393000,0.175392822265625,2.069222102537751,-0.48923985323160885,0.8900748623013496
1788965052743395000,0.18539501953125,2.1124486653238534,-0.6728150901675224,1.3665318063274026
1788965052753398000,0.19539794921875,1.9250760819315909,-1.099059265781939,1.3147700549080967
1788965052763400200,0.205400146484375,2.8196441639989613,-0.9000473902612924,1.7581734551161528
1788965052773401900,0.21540185546875,4.467029093709588,-0.42622751674056053,2.1831495104908942
1788965052783404000,0.225404052734375,5.648632494926452,-0.4263502663373947,1.7770044123142956
1788965052793407000,0.235406982421875,5.728810193490982,-1.3541168536514043,0.08136281669586896
1788965052803409200,0.2454091796875,3.9145939486354586,-1.6707894784346222,-0.5472451752156019
1788965052813411000,0.2554111328125,2.1390730528771877,-0.8474033030495047,1.2306038712292908
1788965052823413000,0.2654130859375,2.9269793340802193,-0.5537511961087584,2.1870488560169936
1788965052833416000,0.275416015625,2.70828689879477,-2.1139047093510626,0.9126122728019952
1788965052843418000,0.285418212890625,1.4818652816861868,-2.221712757641077,-0.4757949729859829
1788965052853420000,0.295419921875,-2.0129297219514846,-0.7826110974043607,-0.7233364861369133
1788965052863423200,0.30542333984375,-6.1020882103323935,1.443605985918641,0.16220657795369625
1788965052873425000,0.3154248046875,-1.9616160065606236,0.8523165017932653,0.5427408495336771
1788965052883426800,0.3254267578125,0.720147626967728,0.14009762199819087,0.3719675187647343
1788965052893429000,0.335428955078125,1.6862766781628131,-0.17359364888668058,-0.14586743757128715
1788965052903432000,0.345431884765625,2.6175492277711627,-0.7576981899440288,1.1194856754779816
1788965052913434000,0.35543408203125,-0.5389268442034721,-2.5838924573630093,2.4379104535013436
1788965052923436000,0.36543603515625,-3.9104619633972644,-3.892552797219157,3.7069279342770574
1788965052933438000,0.37543798828125,-3.9400253270119427,-3.9225750105172392,5.7354830953836435
1788965052943441000,0.38544091796875,-3.8701051108285784,-3.832980664309859,6.2152662612229586
1788965052953443000,0.395443115234375,-3.269200533878803,-3.552590190002322,5.32246460430622
1788965052963445000,0.405445068359375,-2.5410838277280328,-3.2570360488325356,3.1179981650203463
1788965052973448000,0.415447998046875,-0.6963567092746495,-3.054616118434071,1.5597341187864542
1788965052983449900,0.425449951171875,0.3968745810061693,-3.120813222441077,0.8566869719624519
1788965052993452000,0.4354521484375,0.8730556307002901,-3.812881879132986,0.7262257778376341
1788965053003454000,0.445453857421875,1.2066659462809561,-4.271318890082836,0.7421762111634016
1788965053013457200,0.45545703125,0.21667378893941638,-4.316251964525878,0.6326888314843178
1788965053023459000,0.465458984375,-0.6964572470396757,-4.019119906514883,0.2263490875184536
1788965053033461000,0.4754609375,-0.9709931501001119,-3.400364615575969,-0.36827275590002534
1788965053043464000,0.4854638671875,-1.2464502596586942,-2.734066359956562,-0.7227373511999845
1788965053053466000,0.495466064453125,-1.6528683295577764,-2.163128758986294,-0.3308084099024534
1788965053063468000,0.505468017578125,-1.9795529375284908,-1.6429484085679054,0.7663520365208387
1788965053073471000,0.515470947265625,-2.563130239841342,-1.3675433214575052,1.7946546352952717
1788965053083473000,0.525472900390625,-3.010267565880716,-1.7171619380310177,2.132788858041167
1788965053093475000,0.53547509765625,-3.320919615200162,-2.3954577976971865,1.378603060132265
1788965053103477000,0.54547705078125,-4.019274512554705,-2.6193627069339156,0.15138707777559757
1788965053113480700,0.555480712890625,-4.8835930023089045,-2.753259428465366,-1.2214794845312833
1788965053123482600,0.565482666015625,-5.521839760181307,-3.048061582224071,-2.669261879351735
1788965053133484800,0.57548486328125,-6.101750356680155,-3.6228608270585534,-4.029683970627189
1788965053143487700,0.58548779296875,-6.422768024930358,-3.957747738446295,-5.195248675712943
1788965053153490000,0.595489990234375,-6.378256098508834,-4.190310878174007,-6.151103877913951
1788965053163491800,0.605491943359375,-5.80373070217967,-3.3282550726547835,-6.96825846543312
1788965053173493800,0.61549365234375,-4.507060952107608,-1.0044231260150671,-7.458090731599927
1788965053183496700,0.62549658203125,-2.1334651498675345,1.3116748653717338,-7.5536998080521816
1788965053193499000,0.635498779296875,0.04859773443043232,2.9712127358213065,-7.165511806848645
1788965053203500800,0.645500732421875,2.295331828342378,4.186553863728046,-6.4873489259123795
1788965053213503700,0.655503662109375,3.757363990050554,4.41277990938872,-5.750740285748243
1788965053223505700,0.665505615234375,5.272464017340541,5.173482834106683,-4.916694184660911
1788965053233507800,0.6755078125,5.918627831947803,5.255974654832482,-4.333329063794016
1788965053243510800,0.6855107421875,6.148230368304252,4.385899501247704,-4.240568362510204
1788965053253513000,0.695512939453125,6.04625701751709,4.122021478062868,-4.2934301841259
1788965053263515000,0.705514892578125,6.036877194753289,4.415536806881428,-4.617400856962799
1788965053273516800,0.715516845703125,6.275666661649942,4.434663824416697,-4.720232870405912
1788965053283519700,0.725519775390625,6.684291301682591,4.441597715333104,-3.7057840249389407
1788965053293522000,0.73552197265625,6.884643193635344,3.515727024768293,-2.192161668986082
1788965053303523800,0.74552392578125,6.0516083154171705,2.4282380775317547,-1.3357073367357253
1788965053313526800,0.75552685546875,5.0218531797468655,1.8471514229908585,-1.3487450974851847
1788965053323528700,0.76552880859375,4.081939643043279,1.471249195125699,-1.7479904992759228
1788965053333531000,0.77553076171875,3.5779333055734632,1.9559300698786972,-1.9104688799083231
1788965053343533800,0.785533935546875,3.362994085341692,1.8738757637873291,-1.9334055188596246
1788965053353536000,0.795535888671875,3.441435753893852,1.684991606788337,-1.5469804356753825
1788965053363537700,0.80553759765625,3.2633605756789446,1.960954912303388,-1.0023293686062098
1788965053373540900,0.815540771484375,2.921143467533588,2.469429919619858,-0.45957156793773174
1788965053383542800,0.825542724609375,2.48694833291471,2.1836653510585426,-0.21883973480165003
1788965053393545000,0.835544921875,1.7361200287401675,1.0064026093944907,-0.4089519722908735
1788965053403547000,0.845546875,0.5604476250074804,0.5090820332989097,-0.17503624891042707
1788965053413549800,0.8555498046875,-0.805922268756479,0.43059141103848814,0.4151128330081701
1788965053423551700,0.8655517578125,-1.8308248498290776,-0.7821383653260767,0.7596154217422008
1788965053433553700,0.8755537109375,-2.2538182069540023,-2.1973868562884626,0.5428998394876718
1788965053443556900,0.885556884765625,-1.9203642509788275,-2.6459692665696144,0.39698564016520976
1788965053453558800,0.895558837890625,-1.6543723043799399,-3.3579356329083443,1.48025550840199
1788965053463560700,0.905560791015625,-0.8178513376116752,-3.288687909159064,3.451072181767225
1788965053473564000,0.91556396484375,1.2927613444566726,-1.65011990763247,3.38711145851016
1788965053483565800,0.92556591796875,2.1014707597136497,-0.9014784459777175,3.451788805603981
1788965053493567700,0.935567626953125,1.0618915646433829,0.10527999111711979,4.135777031692863
1788965053503570700,0.94557080078125,-0.07763846241049469,1.749898817115277,5.548050890758633
1788965053513572600,0.955572509765625,1.3586805083051323,2.8820564887702464,6.957968542087078
1788965053523574800,0.96557470703125,3.3758372003018855,2.5388451088905333,6.6141743938833475
1788965053533577700,0.97557763671875,3.1769308309823274,2.0115278923295437,4.530186683890223
1788965053543580000,0.985579833984375,1.706039509383589,1.2419446188025176,2.151903892877698
1788965053553581800,0.995581787109375,0.9440037286266684,0.34731063189208505,0.8568687582701444
1788965053563584800,1.005584716796875,0.09416589190661907,-0.30401246517449615,0.39172611220180986
1788965053573586700,1.015586669921875,-0.8184151089742779,-0.10848843176960944,0.35537177327275277
1788965053583588900,1.0255888671875,-0.6683341453611851,1.4884940521761774,0.8088345029413699
1788965053593591800,1.035591796875,1.255568801137805,3.6313740961208936,2.0289315932035445
1788965053603593700,1.04559375,3.804993171709776,5.397566899302602,2.869729506638646
1788965053613595600,1.055595703125,5.941874267500639,5.56409543210864,3.3869974767416715
1788965053623598800,1.065598876953125,9.018336891561747,6.565279722332954,3.810473648947477
1788965053633600800,1.075600830078125,10.28694111536145,6.185373811784387,5.176075773209333
1788965053643603000,1.08560302734375,9.68232687023878,3.666709905657172,3.856569045168161
1788965053653605600,1.095605712890625,9.458480705451965,-0.030491292114555833,-0.32016017463803287
1788965053663607800,1.10560791015625,8.774116631788015,-2.204478421984613,-2.9333967999070882
1788965053673609700,1.115609619140625,4.59707177016139,-2.0849150539711117,-5.293306314361095
1788965053683613000,1.125613037109375,-0.2337421203792095,-0.5297627100169658,-5.737545288610458
1788965053693614800,1.13561474609375,-4.259903177577257,-1.531440336716175,-6.265906315135956
1788965053703616800,1.14561669921875,-9.074643885195254,-2.6404537180185317,-4.492442936429381
1788965053713619700,1.15561962890625,-7.825515930759907,-3.141169781771302,-3.4494892964899537
1788965053723622000,1.165621826171875,-5.632422533881664,-4.351464439943433,-3.261214211300015
1788965053733623800,1.175623779296875,-5.5277416777014725,-6.219746036985516,-4.432617121019959
1788965053743626800,1.185626708984375,-6.393116398510337,-7.179962941527366,-4.632363448294997
1788965053753628700,1.195628662109375,-7.639723310035467,-6.822465846663713,-3.2877176028221844
1788965053763630800,1.205630859375,-8.234603512129187,-6.365504168963432,-1.023634606963396
1788965053773633800,1.2156337890625,-7.32583680883944,-4.78036439076364,2.3964567456066606
1788965053783636000,1.225635986328125,-6.836241274037957,-3.8301615152359005,6.2487944368153805
1788965053793637600,1.2356376953125,-7.098464808014035,-2.3185960918128488,8.621801917773485
1788965053803640800,1.245640869140625,-6.558693329679966,-0.9006593846797942,8.645687235751748
1788965053813642800,1.255642822265625,-5.159607453489303,0.5820774191439151,8.69693226982057
1788965053823645000,1.26564501953125,-3.162326551568508,0.6281535261422395,8.926647034379839
1788965053833647600,1.275647705078125,-1.4404093818344175,-0.4505278452605009,9.223213567462563
1788965053843649800,1.28564990234375,-0.8727028717398643,-0.9102934744656086,9.1532620793581
1788965053853651700,1.295651611328125,-0.4855331076681614,-0.5083545958071947,8.256414946442842
1788965053863655000,1.305655029296875,0.4673208668902516,-0.40044074905514715,6.98851390247643
1788965053873656800,1.31565673828125,1.7485168612375854,-1.9852800830036401,5.750165116208791
1788965053883659000,1.325658935546875,2.2690061314746734,-2.661686475661397,5.519807377570867
1788965053893661700,1.33566162109375,1.8294266734689473,-2.6363568040937184,5.5497693851143115
1788965053903663900,1.345663818359375,0.8631570447593927,-3.0516052461802956,5.0002860755831
1788965053913665800,1.355665771484375,0.8831208053797482,-4.837863809052109,3.6723183931887147
1788965053933045800,1.375045654296875,2.799655853459239,-6.88274758914709,2.4037749596655367
1788965053943047700,1.385047607421875,3.562984158244729,-8.015952577897906,0.5023854582697153
1788965053953051000,1.39505078125,5.6055988243639465,-9.132814919134974,-1.643672631189227
1788965053963052800,1.405052734375,7.267052026915549,-9.207980342495441,-4.387480925220251
1788965053973055000,1.415054931640625,8.080338833090662,-8.97551014174819,-7.369256848371029
1788965053983057700,1.4250576171875,9.682489367324113,-8.675586699452996,-9.609912791413068
1788965053993059800,1.435059814453125,9.664895258444547,-6.1440393463552,-9.307389980274438
1788965054003062800,1.445062744140625,8.83216374708712,-2.939471151384711,-7.305466805505752
1788965054013065000,1.45506494140625,7.5440575349599115,-1.0479390271365643,-4.810549685668945
1788965054023067000,1.46506689453125,5.778134488630294,-0.09582944120466709,-2.6527462133586406
1788965054033069800,1.47506982421875,4.063331973206997,0.6298328575313091,-1.3615584018290041
1788965054043071700,1.48507177734375,3.301101985052228,1.4411159226685761,-1.1796727254152297
1788965054053074000,1.495073974609375,2.8524139224395153,2.0160487307548522,-0.6666402009248733
1788965054063076600,1.50507666015625,2.0474609371066093,1.661563677188754,1.0463830298662185
1788965054073078800,1.515078857421875,0.5988406301572918,1.5163345375210047,2.6655975116252897
1788965054083080700,1.525080810546875,-1.523573841124773,2.4444062452614306,3.1139328152775763
1788965054093084000,1.535083984375,-3.559567043277621,3.565139290452003,2.473628248092532
1788965054103085800,1.5450859375,-4.277491733498871,4.481243497022986,1.3245435531646013
1788965054113086700,1.555086669921875,-3.822171685525775,5.332358221811056,0.17484218764305115
1788965054123089700,1.565089599609375,-2.743649304077029,5.950381399083137,0.36695699712634083
1788965054133091600,1.575091552734375,-1.3928238931864498,6.064055124536156,2.325371869558096
1788965054143094800,1.5850947265625,-1.0967851833701132,5.663526697197556,4.345042297941446
1788965054153096700,1.5950966796875,-2.3626965148240324,4.453851047706603,4.832534722983837
1788965054163099000,1.605098876953125,-3.987431221309304,2.82570799408257,3.424462407261133
1788965054173101600,1.6151015625,-5.323078936812282,1.2934165934950113,1.55474347089231
1788965054183103700,1.625103759765625,-5.468859865143894,-1.0490823519527912,-1.1154068817317486
1788965054193105700,1.635105712890625,-4.485782309496402,-3.867084593963623,-4.902686702096462
1788965054203108900,1.64510888671875,-2.0115520038574934,-6.047658701008558,-8.728204190918802
1788965054213110800,1.65511083984375,1.0533061071276664,-6.961672072780132,-10.548878233611584
1788965054223113700,1.66511376953125,3.453800729948282,-6.632142012250423,-9.827304665493964
1788965054233115600,1.67511572265625,4.073491548171639,-4.561597136676311,-8.57531430736482
1788965054243117800,1.685117919921875,4.020993883693218,-1.9994623376131058,-6.656752137371897
1788965054253120800,1.695120849609375,3.9361587147116657,-0.7163754149526357,-3.6021570617258547
1788965054263122700,1.705122802734375,3.287914002177119,0.06554653114378452,0.5676338832497596
1788965054273124600,1.71512451171875,1.541736982063949,1.3735130435168743,5.205731491282582
1788965054283127800,1.7251279296875,-0.5023769827023148,2.8859949972629546,8.89342923991084
1788965054293129700,1.735129638671875,-1.841963498958945,3.8354566990345713,11.283716941493749
1788965054303132000,1.7451318359375,-2.3941838322386144,4.502431246480345,12.672594727402926
1788965054313134600,1.755134521484375,-1.9359537420377133,5.247368739050627,12.895935865277051
1788965054323136800,1.76513671875,-1.190287642931938,5.809754200252891,12.622579527390002
1788965054333139700,1.7751396484375,-0.3395119408398867,6.250375568526983,11.808839716750382
1788965054343142000,1.785141845703125,0.18489450284093617,6.052073010319471,10.770413198846578
1788965054353143800,1.795143798828125,0.4786716974660754,4.52935432471931,8.526760996598005
1788965054363146800,1.805146728515625,1.2491405216559768,0.923562121361494,2.467323010468483
1788965054373148700,1.815148681640625,1.4407292614385485,-3.4138644408792254,-6.84621204843223
1788965054383151900,1.82515185546875,-0.7859709292262792,-4.580054584386945,-12.710956899023055
1788965054393153800,1.83515380859375,-4.226251083344221,-0.8549369134247302,-8.186981344732642
1788965054403155700,1.84515576171875,-3.5703567328393455,-0.6621510728120803,-6.771382140636444
1788965054413158700,1.85515869140625,1.4439853406250476,-3.091879388901591,-4.988360659989715
1788965054423160800,1.865160888671875,7.417094119822979,-5.178727164500952,-2.2118109568297863
1788965054433162800,1.875162841796875,11.459350571775436,-6.659951225674152,-1.8708260208278893
1788965054443165700,1.885165771484375,-0.8805860262051224,-5.644262024757266,-1.6846604751378296
1788965054453167600,1.895167724609375,-4.060905622842908,-4.067004524239898,-1.619013698489964
1788965054463170800,1.9051708984375,0.726546680355072,-2.661857740575075,-2.20032422491461
1788965054473172700,1.9151728515625,3.1683564793825147,-2.202743853276968,-2.5913985952094194
1788965054483175000,1.9251748046875,-0.36761867590546604,-0.7004793421626091,-1.3260907826066017
1788965054493177600,1.935177490234375,-0.32515900583863255,-0.4358791421830654,-0.9080570937156677
1788965054503179800,1.9451796875,0.7822621378362178,-1.599693788731098,-1.8882652314066886
1788965054513182700,1.9551826171875,0.2710334478974342,-4.467026171100139,-2.4444974306762215
1788965054523185000,1.965184814453125,-0.34467034651637074,-4.0666824526786804,-1.1917626839205622
1788965054533186600,1.9751865234375,-0.024320786786079407,-2.4636849462270733,-0.23772563705742358
1788965054543189800,1.985189697265625,1.5369424412637949,0.12345569927692412,1.2229679695233702
1788965054553191700,1.995191650390625,2.277532260018587,1.7491209646105765,2.2542221115797756
1788965054563194600,2.005194580078125,1.0882590548262,2.0383353813648224,2.3483657916545866
1788965054573196500,2.015196533203125,0.11846271329522132,2.4741110631734133,1.4573255914524197
1788965054583198700,2.02519873046875,-0.16663053187578916,3.200128751218319,0.9123802176117897
1788965054593202000,2.035201904296875,0.0956979237794876,3.0887001743435856,0.6398159068852662
1788965054603203800,2.045203857421875,-0.8080038973361253,2.794914796411991,-0.07434358558356761
1788965054613206800,2.055206787109375,-0.3384942882299423,2.124209830266237,-0.2738821153268218
1788965054623208700,2.065208740234375,1.3574062505856155,1.315982061046362,-0.18001140697449444
1788965054633210600,2.075210693359375,-0.4719000113740563,0.8735375689983368,-0.42800183293670413
1788965054643213800,2.0852138671875,-0.5636117881268262,0.19945932702720165,-0.6741682583421469
1788965054653215700,2.0952158203125,0.052473991341888904,-0.6975450422763824,-0.9872191854968666
1788965054663218700,2.10521875,0.3454834164649248,-1.2960422658234834,-1.4961948358118533
1788965054673220900,2.115220947265625,0.8234855441063642,-0.83017013643682,-1.255136254939437
1788965054683222800,2.125222900390625,0.29162118563503026,0.1947246997207403,-0.7968404060259461
1788965054693226000,2.13522607421875,0.5480629213392734,0.6140583652943372,0.12285159590393305
1788965054703227600,2.1452275390625,-0.23054537016451357,-0.09266074804067612,1.6090072682604193
1788965054713230800,2.15523095703125,-0.18108809629529712,-0.3500052778035402,1.4418936290428042
1788965054723232800,2.165232666015625,0.08270107956230639,-0.9392688090592622,1.053043949060142
1788965054733234700,2.175234619140625,0.23105244290381668,-1.3221382455885409,0.7843442048072814
1788965054743237600,2.185237548828125,-0.1570735989794135,-1.2061539051055907,0.5784349709883332
1788965054753239800,2.19523974609375,-0.07446575065851212,-0.10558511154353618,0.9237959301173686
1788965054763242800,2.20524267578125,-0.1176835456162691,0.2215373033225536,0.5808648284837603
1788965054773245000,2.215244873046875,0.25960692173689603,0.013161679390072822,0.28055063330531116
1788965054783247600,2.22524755859375,-0.15560118833929298,-0.23517653709650038,0.28644582882374525
1788965054793249800,2.235249755859375,-0.04461304870843887,-0.355085942068696,0.10871259591430425
1788965054803251700,2.245251708984375,-0.06561988864094019,-0.4378039727658033,0.13520166665017605
1788965054813255000,2.2552548828125,-0.19333704475462435,-0.6755085670351981,0.35888913374394177
1788965054823256800,2.2652568359375,0.00898117883503437,-0.5861421843647957,0.2546022453173995
1788965054833259800,2.275259765625,-0.058256958657503126,-0.15245441474616528,0.21527473579645157
1788965054843261700,2.28526171875,0.04659750052392483,0.07008475909531116,0.3229144417822361
1788965054853264000,2.295263916015625,0.17601473855376243,-0.027930209454894064,0.20487112294286489
1788965054863266800,2.305266845703125,-0.09399024307876824,-0.14732348159849643,0.18787673352211712
1788965054873268700,2.315268798828125,0.005243161350488662,-0.11076982070505619,0.2154012847855687
1788965054883271700,2.325271728515625,0.1069110994502902,0.19925065271258352,0.3951829746574163
1788965054893273900,2.33527392578125,-0.04846621700525283,0.1288859076321125,0.24617168610244988
1788965054903276800,2.34527685546875,-0.09585019173175095,0.2932318357020616,0.28863310973495243
1788965054913278700,2.35527880859375,0.152686177675426,0.4623527230888605,0.0428667895630002
1788965054923280600,2.36528076171875,-0.08618629132956265,0.3979647143304348,0.2779308061957359
1788965054933283800,2.375283935546875,-0.3300169672638178,0.36581367231011386,0.5301420647233724
1788965054943285800,2.38528564453125,0.07648381248265504,0.04756663781702518,0.3337295580461621
1788965054953288700,2.395288818359375,0.3770215872839093,-0.7578700393795966,-0.10860445936471223
1788965054963290600,2.40529052734375,0.03437748589813709,-1.055062010884285,-0.27439094163179395
1788965054973292800,2.415292724609375,-0.002315291205048561,-0.7881891897976399,0.01830664106309414
1788965054983295700,2.425295654296875,0.4091343431204557,-0.534033226943016,0.048236792163550854
1788965054993298000,2.4352978515625,0.09676409170627594,-0.2724760479211807,0.2462643328219652
1788965055003300600,2.445300537109375,-0.030843758814036844,-0.03540273729264736,0.21845015096217393
1788965055013302800,2.455302734375,0.08764175083488225,0.061008887714147565,0.326541984629631
1788965055023305700,2.4653056640625,-0.07211421909630299,0.2611228792577982,0.332543563131988
1788965055033308000,2.475307861328125,-0.43621524226963515,0.8105769626945256,0.09408668919056654
1788965055043309600,2.4853095703125,-0.6052107497110962,1.008271033614874,0.11527443864792584
1788965055053312800,2.495312744140625,-0.5961874853000044,0.6931681423664092,-0.04117196834385395
1788965055063314700,2.505314697265625,-0.6370365052998066,0.4664490524917841,-0.17777970239967106
1788965055073318000,2.51531787109375,-0.7691118566229939,-0.05111117855608463,-0.10887480073869228
1788965055083319600,2.525319580078125,-0.5994245675250888,0.16865794605016707,0.027575112406909463
1788965055093322800,2.53532275390625,1.0572723804101347,0.37357261587381363,0.15003712447136638
1788965055103324700,2.54532470703125,1.2303262233316898,-0.0820300484329462,0.1829687954753637
1788965055113328000,2.555328125,0.5364198298186064,-0.21252397578358648,0.07416822901666165
1788965055123330300,2.565330322265625,-0.0982531612202525,-0.20325287409126758,-0.17052023279070852
1788965055133332200,2.575332275390625,-0.36668782479614015,-0.3672030808418989,0.025247838503122327
1788965055143335400,2.58533544921875,-0.41803631923943757,-0.20836101088523865,0.281845349290967
1788965055153337300,2.59533740234375,-0.4903238490760326,0.028062311401963233,0.3454538981094956
1788965055163340300,2.60534033203125,-0.23262860617935657,0.19573007737100123,0.28496143548488617
1788965055173342200,2.61534228515625,-0.03866758430749178,0.31822599170506,0.2949789716303348
1788965055183345400,2.625345458984375,0.03594342004060745,0.4058452384471893,0.30088205819427966
1788965055193347300,2.635347412109375,-0.032279929096996784,0.3254319775611162,0.41810792317092416
1788965055203349200,2.645349365234375,-0.12160802558362484,0.45246787341237066,0.7698977463036775
1788965055213352200,2.655352294921875,-0.05856383264958858,0.5059808524131775,0.894423412899673
1788965055223354400,2.665354248046875,-0.06475742659270763,0.3885077346771955,0.6868935921415686
1788965055233357300,2.675357421875,-0.20681904214024543,0.42659576553106304,0.6366723481625318
1788965055243359200,2.685359130859375,-0.2808949166983366,0.5208844070345163,0.5272945663377643
1788965055253362400,2.695362548828125,-0.4544380044415593,0.48857905123531814,0.48916678799539803
1788965055263364400,2.7053642578125,-0.6536719982802868,0.21890578577518463,0.2979819528385997
1788965055273367300,2.7153671875,-0.6185825647205114,-0.26832828059196473,-0.1875888564914465
1788965055283369200,2.725369140625,-0.2546487148076296,-0.5309364299714565,-0.34550738186240193
1788965055293371100,2.73537109375,-0.46203591222465035,-0.46249359286427494,-0.22173457946032285
1788965055303374300,2.745374267578125,-0.3754065533027053,-0.44609658481478687,-0.2856011946931481
1788965055313376300,2.755376220703125,-0.06431669708788394,-0.32059330535829067,-0.31970424756407734
1788965055323379200,2.765379150390625,-0.2988233720988035,0.29503859286308287,0.09669014968723058
1788965055333381400,2.77538134765625,-0.2022632785320282,0.48210780939459796,-0.1850985009804368
1788965055343384300,2.78538427734375,-0.015119243198633192,0.19623568880558012,-0.5495736181631684
1788965055353386500,2.795386474609375,-0.08978972264900803,-0.07180325345098972,-0.8579682439446449
1788965055363389200,2.80538916015625,0.19963819072544572,-0.35586803235709663,-1.2845289381623268
1788965055373391400,2.815391357421875,-0.15886895796358586,-0.28934476513564583,-1.1192539125487209
1788965055383393300,2.825393310546875,-0.2705696297779679,-0.10087152702510356,-0.847678612859547
1788965055393396500,2.835396484375,-0.4684440257012844,0.010466448956727981,-0.5716790669873356
1788965055403398400,2.8453984375,-0.5611269855737686,0.039375732576847074,-0.37778000443577764
1788965055413401300,2.8554013671875,-0.37986616306006904,-0.0025917700588703155,0.09649696520268916
1788965055423403300,2.8654033203125,-0.4975153680153191,-0.06378828929960727,0.5328548308134079
1788965055433406500,2.875406494140625,-0.3043736997023225,-0.22537410500645635,0.6002624796539545
1788965055443408100,2.885408203125,-0.12914397404640912,-0.26955110038518904,0.5636705325767397
1788965055453411300,2.895411376953125,0.11468553284406661,-0.30727789671123024,0.2977487286046147
1788965055463413200,2.905413330078125,0.43792906045019625,-0.48619186383783813,-0.03701543318629265
1788965055473416400,2.91541650390625,0.7416890121683478,-0.6519254468739032,-0.22839520639330146
1788965055483418000,2.925418212890625,0.6379211791798473,-0.6904191359192132,-0.37491964656859633
1788965055493420300,2.935420166015625,0.5713859292596578,-0.6254284850925207,-0.4306751437991857
1788965055503423200,2.94542333984375,0.41888621406704185,-0.6277548822134733,-0.8034189076334237
1788965055513425400,2.95542529296875,0.09795505505651235,-0.6941168213933706,-1.2815262492150068
1788965055523428000,2.965427978515625,-0.07435790636986493,-0.5704004253536462,-1.4288205047190188
1788965055533430300,2.97543017578125,-0.13501549642831087,-0.15977204428315162,-1.2538257568627595
1788965055543433200,2.98543310546875,-0.27853724765628574,0.4460048148781061,-1.1356889145210385
1788965055553435400,2.995435302734375,-0.5628267752289772,1.0200585020422934,-1.04104634501338
1788965055563438300,3.005438232421875,-0.4823401568457484,1.4231652554363012,-0.5174187767505646
1788965055573440300,3.015440185546875,-0.3752919870123267,1.682039478984475,-0.11528466778099536
1788965055583443500,3.025443359375,-0.16024609153568745,1.7105062795341013,0.2503314361304045
1788965055593445400,3.0354453125,0.031851474551856516,1.5250684635967016,0.4260393006920814
1788965055603448300,3.0454482421875,0.282402983173728,1.146563067495823,0.3975049878641963
1788965055613450200,3.0554501953125,0.37830139796137807,0.7358154439598321,0.25146102468222375
1788965055623452200,3.0654521484375,0.41115152816176415,0.3196323513716459,0.1062725092858076
1788965055633455400,3.075455322265625,0.4460580063700676,-0.126934189042449,-0.1867775401085615
1788965055643457500,3.08545751953125,0.46662791619002814,-0.507837293934822,-0.4794190087020397
1788965055653460200,3.095460205078125,0.20327362461835144,-0.6671165862649678,-0.5909796875238418
1788965055663462400,3.10546240234375,0.008624035960435867,-0.5302250668317079,-0.7215534021124244
1788965055673465300,3.11546533203125,-0.20692805547267198,-0.11738134779930114,-0.6632821226686239
1788965055683467300,3.12546728515625,-0.29662293944507834,0.3980021237313747,-0.5880757827758789
1788965055693470200,3.13547021484375,-0.0637958880841732,0.8466957393020391,-0.238183609957993
1788965055703472400,3.145472412109375,0.10507160906344652,1.161402909231186,0.13074030332714318
1788965055713475300,3.155475341796875,0.1977604141548276,1.253105041372776,0.4155412875533104
1788965055723477200,3.165477294921875,0.14336626840531824,1.2629115651160479,0.6008560616329311
1788965055733480200,3.175480224609375,0.11793459776788949,1.125881513994932,0.6317664559423923
1788965055743482400,3.185482421875,0.01623728744313121,0.8845546375751495,0.590266863079369
1788965055753484300,3.195484375,0.08541910634934902,0.5044733704596758,0.5383215717867017
1788965055763487200,3.2054873046875,0.24506314033865928,-0.07128302896916866,0.570950022060424
1788965055773489200,3.2154892578125,0.39487873101383447,-0.552375523841381,0.6524342731788754
1788965055783492400,3.225492431640625,0.5891603631421923,-0.8590811736226082,0.83545260688439
1788965055793494300,3.235494384765625,0.556554124700278,-0.9705623574674129,0.9404116954840719
1788965055803497200,3.245497314453125,0.5190174441188573,-0.9869453369915485,-0.0006068798519670963
1788965055813499100,3.2554990234375,0.7971493258446455,-1.0298790543109178,-0.8362148234285414
1788965055823502300,3.26550244140625,0.7695671991750598,-0.7029734970659017,-0.7094283722937107
1788965055833504300,3.275504150390625,0.6480909832775592,-0.4129506865382194,-0.6506617105484008
1788965055843507200,3.285507080078125,0.6928554231554269,-0.21441373505294323,-0.7060678098194301
1788965055853509000,3.295509033203125,0.8104200185671449,0.03314940540790558,-0.6338533452190458
1788965055863512300,3.30551220703125,0.7912792647674679,0.32310674948394297,-0.4609608303390443
1788965055873514500,3.315514404296875,0.665725131906569,0.4981149413436651,-0.23741350236833095
1788965055883517200,3.32551708984375,0.436623092418164,0.6065542732745408,-0.09769903446882963
1788965055893519400,3.335519287109375,0.22061638908535242,0.5196177480995655,-0.08591770352125168
1788965055903522300,3.345522216796875,-0.03562222526222467,0.4579126948148012,0.0028655454989522694
1788965055913524500,3.3555244140625,-0.1282932024359703,0.2600280697584152,0.059496437324583526
1788965055923527200,3.365527099609375,-0.09380816451013088,0.22536241456866263,0.04315744307264685
1788965055933529300,3.375529296875,-0.005673369461297989,0.21779051800966262,-0.04610098571125418
1788965055943532300,3.3855322265625,0.22486498644053934,0.06925882966518401,-0.3485043351886794
1788965055953534500,3.395534423828125,0.7004178212337195,-0.036896190720796584,-0.6725023709565401
1788965055963537200,3.405537109375,1.0692270220980047,-0.009906476986408234,-0.8385675970997661
1788965055973539300,3.415539306640625,1.379285489438474,0.22652970478236675,-1.0342037125770003
1788965055983541200,3.425541259765625,1.4882266334116458,0.5958224513798952,-0.9903277459714561
1788965055993544400,3.43554443359375,1.046061542826891,0.9109978233426809,-0.6789410257019102
1788965056003547100,3.445547119140625,0.46826750009059903,1.1982640286386013,-0.3481886203030124
1788965056013549300,3.45554931640625,0.24532734423279762,1.3710942919373512,-0.0886991874659434
1788965056023551200,3.46555126953125,0.2288502566844225,1.4206377827852963,0.2812843544073403
1788965056033554400,3.475554443359375,0.4013239616304636,1.1811802073687314,0.5379590220846235
1788965056043556000,3.48555615234375,0.573350361200422,0.7888438543140888,0.7267338734902441
1788965056053559300,3.495559326171875,0.44800490265414117,0.44901802521944045,0.8074646028276532
1788965056063561200,3.505561279296875,0.31653423922583457,0.17087562209963797,0.8942265020880847
1788965056073564400,3.515564453125,0.6229395908862352,-0.17377894232571123,0.686682287478447
1788965056083566000,3.525566162109375,1.1055163329668343,-0.557920298486948,0.2844590389207005
1788965056093569300,3.5355693359375,1.5305318435691295,-0.9565414308995008,-0.05413827129229903
1788965056103571500,3.545571533203125,1.3506177594892679,-1.0542214684069156,-0.12742518742978573
1788965056113574000,3.555573974609375,0.9977378030322491,-0.945494551706314,0.034314211403578515
1788965056123575800,3.565575927734375,0.547189061114192,-0.5385889905512332,0.18891060661450026
1788965056133578800,3.575578857421875,0.8207645947098732,-0.11781155591011047,0.24368659128844736
1788965056143580700,3.58558056640625,0.8061148687191307,0.23197218809723852,0.41135289595276114
1788965056153583900,3.595583984375,0.7280278588235378,0.2149801367640495,0.36050738259553905
1788965056163585500,3.60558544921875,0.5435474897414445,0.43649522825479503,0.37558717056661844
1788965056173588700,3.615588623046875,0.5089671747475862,0.7887684509903192,0.37625644813030956
1788965056183590700,3.625590576171875,0.8319367077179253,0.6751409027665853,0.014825082557648419
1788965056193593900,3.63559375,1.0374743317455053,0.3242342922091484,-0.06995937914997338
1788965056203595500,3.645595458984375,1.0575653720073401,-0.110647071108222,0.10046338461562991
1788965056213598700,3.6555986328125,1.0505611923336982,-0.4192079933673143,0.17260843724161384
1788965056223601000,3.665600830078125,0.94828096755445,-0.39523791971504685,0.16772154198288916
1788965056233603800,3.675603759765625,0.9905677652724086,-0.22522212931513785,0.41986821084171533
1788965056243605800,3.685605712890625,1.028584338325262,-0.13879589174985885,0.6475608219236135
1788965056253608700,3.695608642578125,0.9361147289425135,0.13147650864720345,0.7504860666081309
1788965056263611000,3.70561083984375,0.868422271811217,0.38941257456243034,0.3860325767353177
1788965056273613600,3.715613525390625,1.2896090179055928,0.03994797950685024,-0.18010931439101696
1788965056283615700,3.72561572265625,1.2226454595707357,-0.0536567713856697,-0.4080833727627992
1788965056293618700,3.73561865234375,1.020006333463639,0.2297550965696573,-0.2212178621098399
1788965056303620900,3.745620849609375,0.7419557733457535,0.42510581923425195,0.23933833295106888
1788965056313623600,3.75562353515625,0.951243470621854,0.291931274497509,0.5871268114879727
1788965056323625700,3.765625732421875,1.3507505920886993,0.03482347609996796,0.48071810860186814
1788965056333628700,3.775628662109375,1.2334212667375801,0.08647533740401267,0.180590375906229
1788965056343630800,3.785630859375,1.2602818011343477,-0.0651724371343851,-0.09322218131572008
1788965056353633500,3.795633544921875,1.3395792097330093,-0.15818857448399065,-0.010023965886235237
1788965056363635700,3.8056357421875,1.366719145593047,-0.2341553773552179,0.12393705305308103
1788965056373639000,3.815638916015625,1.4444447748303413,-0.2556798114210367,-0.05804799208194017
1788965056383640800,3.825640869140625,1.4805794796593486,-0.19725977115631102,-0.12438538134247064
1788965056393643800,3.835643798828125,1.4649743526399135,-0.23242694612741469,-0.23567250391989944
1788965056403645700,3.845645751953125,1.3078349949479102,-0.14588438870608805,-0.2652572025835514
1788965056413649000,3.85564892578125,1.2172756031006573,0.02268061836361885,-0.24170126269012687
1788965056423650800,3.86565087890625,1.213756708259508,0.02685118204653263,-0.4720101937502622
1788965056433653800,3.87565380859375,1.1960176379512995,-0.04544774596691131,-0.5784937154382467
1788965056443655700,3.88565576171875,1.1397954730570317,-0.009649871876835822,-0.12381079632490873
1788965056453659000,3.895658935546875,1.3964485134243965,-0.13205050914287567,0.3011281419098377
1788965056463660800,3.905660888671875,1.3321096045047045,-0.25278467450141906,0.24775720172822474
1788965056473663700,3.915663818359375,1.166024139291048,-0.16602993563413618,0.053452480985224246
1788965056483665700,3.925665771484375,1.3314819741256534,-0.044181087031960484,0.18155249893665312
1788965056493668900,3.9356689453125,1.5656367669589817,0.031051556345820425,0.3182186851814389
1788965056503670800,3.9456708984375,1.6923089440643786,-0.03486380811035633,0.006347323200106621
1788965056513673700,3.955673828125,1.5815502292752266,0.07351122641265392,-0.4025222315043211
1788965056523675600,3.965675537109375,1.2838304345041514,0.2419213351815939,-0.3363891326442361
1788965056533678800,3.975678955078125,1.2329033803433178,0.3846136498481035,-0.2077706437766552
1788965056543680800,3.9856806640625,1.2614818245738744,0.3491805174171924,-0.28638357724249364
1788965056553683700,3.99568359375,1.3688614183187484,0.2667600083619356,-0.331163506950438
1788965056563685600,4.005685546875,1.462545079666376,0.21903262702524662,-0.28897680860608815
1788965056573688800,4.015688720703125,1.4907693036317824,0.23858488423526286,-0.590947538819909
1788965056583690800,4.025690673828125,1.3101575926765798,0.15564473522007463,-0.8021507873937487
1788965056593693700,4.035693603515625,1.1581662653975189,-0.10895721832513809,-0.8806544152662158
1788965056603695900,4.04569580078125,0.777355076572299,-0.12013619946539401,-0.6949073872491717
1788965056613698800,4.05569873046875,0.42423897327184673,-0.12189093417823314,-0.3759185944780707
1788965056623700700,4.06570068359375,0.31907427909746766,-0.31721184622645376,-0.11252309411317109
1788965056633703700,4.07570361328125,0.4266618165045976,-0.3028478053092956,0.1391419287085533
1788965056643705900,4.085705810546875,0.5826847373872995,-0.2615162624895572,0.1990270730897784
1788965056653708800,4.095708740234375,0.8543535605788231,-0.6270031870633364,-0.053013505046069616
1788965056663711700,4.105711669921875,0.8664860430516302,-0.8487135088652372,-0.39558015728145834
1788965056673713700,4.115713623046875,0.6597871201597154,-1.0851000062733889,-0.6632514352694153
1788965056683716900,4.125716796875,0.26312705868706104,-1.1270891362190245,-0.8290762037202716
1788965056693718800,4.13571875,0.4180184182565659,-1.1876163778960704,-0.6890896408811211
1788965056703721700,4.1457216796875,0.9278883139975368,-1.296563659349084,-0.25322949565947056
1788965056713723600,4.1557236328125,1.32657885838449,-1.353437054693699,0.016461889979243277
1788965056723726800,4.165726806640625,1.5636217738747595,-1.1573095024377107,-0.27991964192539454
1788965056733728800,4.175728759765625,1.1157597868226468,-0.7518056247740984,-0.5141407779932021
1788965056743731700,4.185731689453125,-0.21284663186669348,-0.5804004258424044,-0.9465183417961001
1788965056753734000,4.19573388671875,-1.385042737790942,-0.6726449942976236,-0.9451505605742335
1788965056763736800,4.20573681640625,-2.071007963041216,-0.8098305282413959,-0.9375561599224805
1788965056773738800,4.21573876953125,-1.8638569124676285,-0.8783359091907739,-1.1663564399853348
1788965056783741700,4.22574169921875,-1.4256670091241597,-0.8364525777071714,-1.1700438963264226
1788965056793744000,4.235743896484375,-1.1805939319133758,-0.7907721920281648,-0.7202250761181116
1788965056803746800,4.245746826171875,-1.2114559570364654,-0.5088496858477592,-0.5948214576438069
1788965056813748700,4.255748779296875,-1.3322015205718576,-0.11315350097119807,-0.5636702403157949
1788965056823751700,4.265751708984375,-1.415238115698844,0.2371066283762455,-0.23373627516031265
1788965056833753900,4.27575390625,-1.1894839253336191,0.43318741888105866,-0.3230775233894586
1788965056843756800,4.2857568359375,-1.1188479620963334,0.6944868237495422,-0.3568289863437414
1788965056853758700,4.2957587890625,-1.048187448939681,0.8693588220089673,-0.3227282715603709
1788965056863761700,4.30576171875,-0.7574354473546147,0.8178922541439533,-0.38505262578725813
1788965056873763800,4.315763916015625,-0.7162913899309933,0.771066205561161,-0.005564648389816284
1788965056883766500,4.3257666015625,-1.1072073547936976,0.6769160957455634,0.2995844195991754
1788965056893768700,4.335768798828125,-1.1545707251235842,0.42314825542569157,0.029404958182573316
1788965056903771600,4.345771728515625,-0.7632505633741616,0.3742570910066366,-0.27834026377946136
1788965056913774800,4.35577490234375,-0.7987491622567177,0.49918520092368124,-0.1529097572982311
1788965056923776800,4.36577685546875,-0.9305389746367931,0.42702305103242394,0.005060205999016762
1788965056933779700,4.37577978515625,-0.7442492180451751,0.2468231357485056,-0.1806944208025932
1788965056943782000,4.385781982421875,-0.3495893904790282,0.1004255368232727,0.022517829017341135
1788965056953784800,4.395784912109375,-0.2910577065333724,0.19243980365395544,-0.2439966801509261
1788965056963786800,4.405786865234375,-0.7320721657782793,0.6589198358058929,-0.2669727743297815
1788965056973789700,4.415789794921875,-0.5692153072223067,0.9541606732428073,0.45916064904928205
1788965056983791900,4.4257919921875,0.44801147852540013,0.3049006461858749,0.818014126957953
1788965056993794600,4.435794677734375,0.23941402853578328,-0.09638590604364872,0.3781754334941506
1788965057003796700,4.445796630859375,-0.5099827815309167,0.3267921599984169,0.2737666722536087
1788965057013799700,4.455799560546875,-0.27999066133499145,0.6254413445740937,0.22558190253823995
1788965057023801900,4.4658017578125,0.031983868759870526,0.5673959828406572,0.4355392427042126
1788965057033804500,4.475804443359375,-0.1710971558958292,0.47591830710470673,0.6251511294558644
1788965057043806700,4.485806640625,-0.20451573363393544,0.14319967966675756,0.27368396240621806
1788965057053809700,4.4958095703125,0.07612228569388389,-0.18588205257356166,0.1332227677926421
1788965057063811800,4.505811767578125,0.39660044023990626,-0.38466801038384435,-0.22585838139206169
1788965057073814800,4.515814697265625,0.4218365883052349,-0.4787959083676338,-0.4666834457695484
1788965057083816700,4.525816650390625,0.129815589697659,-0.3157692462027073,-0.4497840411558747
1788965057093820000,4.53581982421875,-0.16623714864403008,-0.03846446295082569,-0.5520861855059862
1788965057103822600,4.545822509765625,0.5136363356024026,0.12055004096329211,-0.8568369018271564
1788965057113825500,4.555825439453125,0.9400880164876579,0.170347798833251,-0.6572957417353987
1788965057123828500,4.565828369140625,0.8542693894267082,-0.09968845472037792,-0.1948658617570996
1788965057133830700,4.57583056640625,1.112227959434688,-0.5513502724468707,-0.4321557377457618
1788965057143833300,4.585833251953125,1.190248772226274,-0.6508861669540404,-0.9053107176169752
1788965057153835500,4.59583544921875,0.8505278648108243,-0.4425450298130512,-0.8809940224841236
1788965057163838700,4.605838623046875,0.4399395234897732,-0.27266543301343915,-0.815408620634675
1788965057173840600,4.615840576171875,0.11463117230832576,-0.15784546013474463,-0.011389701281487941
1788965057183843600,4.625843505859375,0.029949148061871527,-0.464500256511569,0.4915218266889453
1788965057193845500,4.635845458984375,0.25493542279452086,-0.8222042721241712,0.02321750171929598
1788965057203848700,4.6458486328125,0.2582207280755043,-0.8164099066317081,-0.42881957906037566
1788965057213850600,4.6558505859375,0.37310499836206434,-0.655225072941184,-0.016623510281741617
1788965057223853600,4.665853515625,0.457726524592936,-0.6220645616173743,0.376318991972506
1788965057233855500,4.67585546875,0.15756722771525383,-0.48218379724025723,0.5529752433001994
1788965057243858700,4.685858642578125,-0.021745383340120314,-0.5842424882233143,1.0918556180134416
1788965057253861400,4.695861328125,0.04717150101959705,-0.5568664055198431,0.5646031372517347
1788965057263863600,4.705863525390625,-0.20586247206777333,-0.3051718643426895,0.506377158254385
1788965057273866500,4.715866455078125,-0.28426322408765553,-0.13967325910627842,0.6416530591845512
1788965057283868700,4.72586865234375,-0.49827480808049435,0.06935293768942356,0.8419669572144747
1788965057293871400,4.735871337890625,-0.9580340075448155,0.2783978391855955,0.7678159715935587
1788965057303873500,4.74587353515625,-0.9139683635860681,0.17973755846917627,0.6866255888551474
1788965057313876500,4.75587646484375,-0.7755354599297046,0.019828736063838004,0.5902338375926017
1788965057323878400,4.76587841796875,-0.45439708790928124,-0.06909165640473365,0.3050368397861719
1788965057333881600,4.775881591796875,-0.27081483671069145,-0.15236264480948447,0.14609247849881649
1788965057343883500,4.785883544921875,-0.11634995892494916,-0.27134207545518874,0.0538552165672183
1788965057353886700,4.79588671875,-0.08591068925857544,-0.30790158156752584,-0.1978428317412734
1788965057363888400,4.805888427734375,0.06632043812572956,-0.0671329235523939,-0.4985349203214049
1788965057373891600,4.8158916015625,0.1315045656979084,0.07586568058431148,-0.3103887222081423
1788965057383893500,4.8258935546875,-0.1805330927610397,0.3603361176818609,-0.06677899554818868
1788965057393896700,4.835896728515625,-0.5652928730815648,1.0908815122842788,-0.11098404797762632
1788965057403899400,4.8458994140625,0.49483489675968884,1.7293997805744408,-0.20351240181028843
1788965057413901600,4.855901611328125,1.6388959183067082,1.9176760348081587,-0.5012883106827736
1788965057423904500,4.865904541015625,1.703742776748538,1.7581155874490737,-0.026397300799190997
1788965057433906400,4.875906494140625,1.070701478564739,1.7480898679971695,1.1161752357557415
1788965057443909400,4.885909423828125,0.7388827225759625,1.3899573978394268,0.8951312689080834
1788965057453911600,4.89591162109375,0.18458324493467806,0.9048591744571923,0.02545914316624403
1788965057463914500,4.90591455078125,0.028518530736863612,0.25733751550018785,-0.06209259129762649
1788965057473916400,4.91591650390625,-0.22212504008263348,-0.19308394677639007,0.29587562820911406
1788965057483919600,4.925919677734375,-0.18902853390574453,-0.5081868380248546,0.9245178146511316
1788965057493921500,4.935921630859375,0.050334641225636,-0.4601169268608093,0.637572804133594
1788965057503924700,4.9459248046875,1.1461477646932006,-0.6545978809535503,0.14733575655817985
1788965057513926400,4.955926513671875,1.0441475258991122,-0.6580611731499433,-0.0923366306528449
1788965057523929600,4.9659296875,0.31585546318143604,-0.6447703144222497,-0.17093232072293757
1788965057533932500,4.9759326171875,0.2726297771781683,-0.8315273962646722,-0.01980360162258148
1788965057543934500,4.9859345703125,0.4906760235145688,-0.8629448633134364,0.13359686180204153
1788965057553937400,4.9959375,0.4285977530032396,-0.8146049030363559,0.0035839959666132924
1788965057563939600,5.005939697265625,0.11920768644362688,-0.7846300360113382,-0.08237199373841285
1788965057573942500,5.015942626953125,0.025678338874876496,-0.6357306833982467,-0.13115005317181347
1788965057583944400,5.0259443359375,0.47532092573344703,-0.354489145219326,-0.13717764289826154
1788965057593947400,5.035947509765625,0.9017366585224866,-0.07210135961472988,-0.11634382144510745
1788965057603949600,5.045949462890625,0.8230959602668881,0.19387246680557726,0.06843553058356046
1788965057613952500,5.055952392578125,0.32382804949581623,0.21972002476751804,0.41319384764432904
1788965057623954400,5.065954345703125,0.3072179832175374,0.4180278436720371,0.5430135289952158
1788965057633957600,5.07595751953125,0.6685708767265081,0.6903565920770168,0.5163590385645628
1788965057643960600,5.085960693359375,0.7295809334844351,0.6582827069461346,0.4737044304475188
1788965057653962500,5.09596240234375,0.2821136448383331,0.5385545037597418,-0.16011925028562546
1788965057663965400,5.10596533203125,-0.0865504484668374,0.6088286479473114,-0.9228390677839517
1788965057673967600,5.115967529296875,-0.26668226695060726,0.9019009091734885,-0.9907038127422332
1788965057683970600,5.125970458984375,0.2630512169718742,0.8908090217947959,-0.8724880599454045
1788965057693972500,5.135972412109375,0.6712804279461503,0.8334294304937124,-0.5009270761549472
1788965057703975400,5.145975341796875,0.8419348085105419,0.8713625630468129,0.35386575262397524
1788965057713977600,5.1559775390625,0.7194494155704975,1.120230356365442,0.11107611017525196
1788965057723980500,5.16598046875,0.6056599547833204,1.105764024117589,0.46921617911756036
1788965057733982500,5.175982421875,0.5092699570864438,0.6173118141323327,0.562267680041492
1788965057743985400,5.1859853515625,0.15342062942981718,0.27972762648463245,-0.3533826452821493
1788965057753988600,5.195988525390625,0.045696460030972955,0.02092296104133129,-0.2764943436518311
1788965057763990500,5.205990478515625,0.40347061827033753,-0.32620646906495093,0.6026575580969452
1788965057773993500,5.215993408203125,0.7462795548290014,-0.5241968925833702,0.8432070204034448
1788965057783995400,5.225995361328125,0.6653238576292991,-0.7204495325237512,1.101192770679295
1788965057793998600,5.23599853515625,0.6598340280413627,-1.1800421432495116,1.673524164095521
1788965057804000500,5.24600048828125,0.41778322126120326,-1.592806367304921,1.215930033710599
1788965057814003500,5.25600341796875,-0.44292350773662326,-1.6737860299021006,0.5577972566291689
1788965057824005600,5.266005615234375,-1.1496128104552625,-1.5346037691831589,0.13599164798408747
1788965057834008600,5.276008544921875,-1.2854559898793696,-1.184071837157011,0.18835545694977043
1788965057844010500,5.286010498046875,-1.1765344273895024,-0.667041767463088,0.3680725571528077
1788965057854013400,5.296013427734375,-0.9714274498641491,-0.21112229229211807,0.3755491766437888
1788965057864016600,5.3060166015625,-0.7762877396017313,0.1352910984992981,0.1338417764738202
1788965057874018300,5.316018310546875,-0.7297329091757535,0.3270639626771211,-0.04885054014772176
1788965057884021500,5.326021484375,-0.4537035526871681,0.5455383712977171,-0.15541180324703455
1788965057894023400,5.3360234375,-0.44938510496616363,0.7219266193389892,-0.06338701502233743
1788965057904026600,5.346026611328125,-0.4336293174296617,0.7470540463328361,0.1549976694881916
1788965057914028300,5.3560283203125,-0.2259860994249582,0.7112234390169382,0.07542144394814967
1788965057924031500,5.366031494140625,-0.2882698293805122,0.6368272464632988,-0.362402402561903
1788965057934033400,5.376033447265625,-0.3469154950946569,0.560758736783266,-0.5452445029176771
1788965057944036600,5.38603662109375,-0.2425932430937886,0.5278256044745445,-0.36097967628240585
1788965057954038500,5.39603857421875,-0.19458850612044334,0.4536895241618156,-0.28846783617064353
1788965057964041500,5.40604150390625,-0.05270341618359089,0.23269757976233957,-0.2182670494802296
1788965057974044700,5.416044677734375,0.344212958137691,0.13180676351487636,-0.16542086382508278
1788965057984046300,5.42604638671875,0.3226882318109274,0.2317518233448267,0.03966916256546974
1788965057994049500,5.436049560546875,0.15908289297521114,0.2612222479790449,0.1759593551047146
1788965058004051500,5.446051513671875,-0.09398819725215435,0.2174246073067188,0.029191753823310136
1788965058014054700,5.4560546875,-0.12083645668923854,0.11693652664124965,-0.30295462668463585
1788965058024056300,5.466056396484375,0.029222879613935944,-0.009601356559991836,-1.1833806400224567
1788965058034059500,5.4760595703125,1.2291203546732663,-0.005630699363350868,-1.634992773388326
1788965058044061400,5.4860615234375,1.1784256479635833,0.14692191506028174,-1.2656512192130087
1788965058054064600,5.496064697265625,0.8486223234504461,0.3936667248755693,-1.095486521861702
1788965058064067600,5.506067626953125,0.7138146245539188,0.6240045897692441,-0.8612934428445994
1788965058074069500,5.516069580078125,0.7614902757033706,0.7541565718144178,-0.7125256076566875
1788965058084072700,5.52607275390625,0.5226999320238829,0.6839338655531406,-0.6120084470272064
1788965058094074400,5.536074462890625,-0.2914601498544216,0.5134615635573864,-0.39944297018945213
1788965058104077600,5.54607763671875,-1.1742968775957823,0.43023324525058265,-0.0715330582074821
1788965058114079500,5.55607958984375,-2.059323224335909,0.42220308353006836,0.16254574678018688
1788965058124082400,5.56608251953125,-1.5052888273715972,0.32868425735533235,0.12839213276579975
1788965058134084400,5.57608447265625,-0.12025076575577258,0.07335106741487979,-0.4184248801656067
1788965058144087300,5.58608740234375,1.172659924043715,-0.3368728245079517,-0.8687534034617245
1788965058154090500,5.596090576171875,2.150172539040446,-0.6624480099320411,-0.9528284017257392
1788965058164092400,5.606092529296875,2.7901263930916786,-0.9190028506219386,-0.6510160769440233
1788965058174095400,5.616095458984375,3.035832507508993,-1.1653794116467238,-0.43877413297221063
1788965058184097300,5.62609716796875,2.9185511129528283,-1.2833493729889391,-0.40385932532697916
1788965058194100500,5.6361005859375,2.644374690854549,-1.0310457600027323,-0.2356019229017198
1788965058204102400,5.646102294921875,2.5467045902192593,-0.7655956651955843,0.09608005496487021
1788965058214105300,5.656105224609375,2.3803908692076803,-0.4597194519758224,0.41785204871371384
1788965058224107300,5.666107177734375,2.089787336182594,0.08494973527193068,0.7200681319907307
1788965058234110500,5.6761103515625,1.8948492859721182,0.5567559308826923,0.9552000992931425
1788965058244113400,5.686113525390625,1.556685691001266,0.8210457497388124,0.9818579507246613
1788965058254115300,5.696115234375,1.1889008647486567,1.1014198574334382,0.771284232226014
1788965058264118500,5.706118408203125,1.033609911402315,1.2122288411051034,0.32193726731315253
1788965058274120400,5.716120361328125,0.8446636489525436,1.0278770668387411,-0.08356529517620802
1788965058284123400,5.726123291015625,0.6918783948168158,0.8210095093816518,-0.37126799219325185
1788965058294125300,5.736125244140625,0.8262138000264764,0.79025898180902,-0.35345863312780856
1788965058304128500,5.74612841796875,0.9688109837554395,0.7691331916719675,-0.40423517290204763
1788965058314130400,5.75613037109375,0.9752101832732558,0.8109358591347933,-0.22556100588068365
1788965058324133400,5.76613330078125,0.977630396157503,0.9460416641950606,0.02014437788426876
1788965058334136600,5.776136474609375,1.123986786289513,0.9826461784929037,0.10912994454354047
1788965058344138500,5.786138427734375,1.5394532550409434,0.8274912726163863,0.2006681182950735
1788965058354141400,5.796141357421875,1.9086776125773786,0.5355664278596639,0.23000921746119857
1788965058364143400,5.806143310546875,1.938845079565048,0.3352355786949396,0.2850529131606221
1788965058374146600,5.816146484375,1.7852569846138358,0.3716594757288694,0.24389088168889284
1788965058384148500,5.8261484375,1.6524420669697224,0.5569534992814064,0.09970343309380114
1788965058394151400,5.8361513671875,1.4584022807732224,0.6209861187309026,-0.012748422414064407
1788965058404153300,5.8461533203125,1.1996192426398395,0.5504682289153338,0.1352905870426446
1788965058414156500,5.856156494140625,1.0997826116204261,0.5341138909637928,0.29218276504054663
1788965058424159200,5.8661591796875,0.8866869734287262,0.4879956983894109,0.24610548899844287
1788965058434161400,5.876161376953125,0.6749047559231519,0.5285054034322499,0.215739649894461
1788965058444164400,5.886164306640625,0.5488225075349211,0.7258353172153234,0.29078612305037677
1788965058454166500,5.89616650390625,0.6317927594274282,1.0111235004365444,0.3547028610352427
1788965058464169200,5.906169189453125,0.8019456202104687,1.0033253939062357,0.30401801813244816
1788965058474171400,5.91617138671875,0.9647592241466045,0.7768488806158304,0.29591318374052644
1788965058484174600,5.926174560546875,1.0583695279970764,0.4307406102508306,0.41194435903988774
1788965058494176500,5.936176513671875,0.9287029913812875,0.10272036976218223,0.644604748596996
1788965058504179500,5.946179443359375,0.7096428918272256,-0.03159516170322895,0.7857721917837858
1788965058514182400,5.956182373046875,0.7791412293367087,0.0637304216325283,0.6869926686018705
1788965058524184600,5.9661845703125,0.9122836253695189,0.13317162212729453,0.45557000414617355
1788965058534187300,5.976187255859375,1.0433408856913446,0.09502455456256866,0.21901836103787645
1788965058544189400,5.986189453125,1.3010840593829751,-0.007328150931000709,0.10942021446069702
1788965058554192400,5.9961923828125,1.3067360937952994,-0.03710135790407657,0.5509893301799893
1788965058564194600,6.006194580078125,1.4676082082748412,0.044054245781898496,0.9403485671199857
1788965058574197200,6.016197265625,1.7270806899771094,0.38196810377538204,1.16252102654092
1788965058584200400,6.026200439453125,1.6502417804464697,0.767142310115695,1.1050000540077685
1788965058594202400,6.036202392578125,1.2325333779871464,0.9837199452042579,0.6764302849899977
1788965058604205300,6.046205322265625,0.6163169578760862,0.8542892631709575,0.17711539327204226
1788965058614207200,6.056207275390625,0.2976150192223489,0.45978316486179827,-0.2875487485643476
1788965058624210400,6.06621044921875,0.4848043550021946,0.023328268617391585,-0.587055499817431
1788965058634212600,6.076212646484375,0.4947451726496219,-0.45071489226520056,-0.7705183624200522
1788965058644215300,6.08621533203125,0.505450106537342,-0.8757885627955198,-0.7469500014364719
1788965058654217500,6.096217529296875,1.0912636434696614,-1.055498064213991,-0.7053484095036983
1788965058664220400,6.106220458984375,1.1679571531802415,-1.1991957565307616,-0.6327896615102887
1788965058674223400,6.116223388671875,0.38379385789781806,-1.257159285199642,-0.5921173132516443
1788965058684225300,6.126225341796875,-0.2574455059193075,-0.9312187735944986,-0.9878842252768576
1788965058694228500,6.136228515625,-0.4394536396689713,-0.4886901103943586,-1.5087632254838943
1788965058704230400,6.14623046875,-0.23115561101734636,-0.04133621899485588,-1.667320925541222
1788965058714233300,6.1562333984375,0.17229717933535574,0.3647743923902511,-1.5289973274782298
1788965058724235300,6.1662353515625,0.7379308286786079,0.652917965042591,-1.3114242516115306
1788965058734238500,6.176238525390625,1.1040684722460805,0.848872498819232,-0.9337380629390477
1788965058744241400,6.186241455078125,1.072809995151311,0.8541992467999457,-0.6901116774052382
1788965058754243300,6.196243408203125,0.8104168036967515,0.6635042409867048,-0.6775079241588712
1788965058764246500,6.20624658203125,0.19463935952484607,0.469332498973608,-0.3754764036685228
1788965058774248400,6.21624853515625,0.20374270343482492,0.4401484900653362,0.026176059263944625
1788965058784251400,6.22625146484375,0.7958435770083219,0.42024318163394925,0.21298136416226623
1788965058794253300,6.23625341796875,1.080764534352347,0.2794721904188394,0.5213964482098817
1788965058804256500,6.246256591796875,0.8253811485946178,0.1275654726833105,0.7730398437216878
1788965058814258400,6.256258544921875,0.4780681055497378,0.119940384632349,0.9885489727959036
1788965058824261400,6.266261474609375,0.3654612056106329,0.17212357633411884,1.214167407952249
1788965058834264300,6.276264404296875,0.18361228101067245,0.14762743298113346,1.2910904886350034
1788965058844266500,6.2862666015625,-0.09416538044996559,0.11889409044981002,1.2210486918985843
1788965058854269200,6.296269287109375,-0.28849728146083653,0.24913725790977476,1.1144254694789648
1788965058864271400,6.306271240234375,-0.17306586215291173,0.5970335807353258,1.0449100347042084
1788965058874274600,6.316274658203125,0.2690729614794254,0.9040326605051755,0.935613793683052
1788965058884276500,6.3262763671875,0.5015706712881103,1.0049854360729455,0.8257473515585064
1788965058894279400,6.336279541015625,0.5677782601565122,0.7586193964421749,0.513935903070867
1788965058904282400,6.346282470703125,0.22197914707222952,0.14311492399275302,0.17497253602445126
1788965058914284500,6.356284423828125,-0.42670043148193504,-0.6769768860220908,0.04031535151451826
1788965058924287200,6.366287353515625,-1.1702888109982013,-1.4697557416975497,0.4380579475268721
1788965058934289400,6.376289306640625,-0.9632242696642875,-2.406090835392475,0.9703098440110682
1788965058944292400,6.386292236328125,-0.2128425402134657,-3.4571453642010685,1.2696423346757888
1788965058954294500,6.39629443359375,0.48228199691772455,-4.193199877613782,1.8516238922297954
1788965058964297200,6.406297119140625,0.4328139093935489,-4.108030946633219,2.3969629415631295
1788965058974299400,6.41629931640625,0.03400749267512001,-2.9497417855083943,2.307637475425005
1788965058984302300,6.42630224609375,0.4156453324496746,-1.5869629019737244,1.858700114226341
1788965058994305300,6.43630517578125,0.7950070531189442,-0.7577876217931508,0.47790801961719986
1788965059004307200,6.44630712890625,0.7615536963284015,-0.4287251787751913,-0.39003567489683627
1788965059014310400,6.456310302734375,0.6096119072794914,-0.14313947391211987,-0.16329788032174108
1788965059024312600,6.4663125,0.6832008751034736,-0.13663842145502567,-0.17054945888519285
1788965059034315300,6.476315185546875,0.4022890072703361,-0.3019213381141424,-0.440680404984951
1788965059044317400,6.4863173828125,0.47551337956562634,-0.39233752209842204,-0.6643564739018678
1788965059054320400,6.4963203125,1.0417185451865196,-0.6021399639636278,-0.6817389858573675
1788965059064323300,6.5063232421875,1.785989098280668,-0.8012357183754444,-0.6700473790198564
1788965059074325200,6.5163251953125,3.0319352078095076,-0.7458592835903167,-0.8424263914197683
1788965059084328400,6.526328369140625,4.0965576587215065,-0.16332944450378417,-1.0263590634912252
1788965059094330400,6.536330322265625,5.06757448195815,0.8075888867944478,-1.3531079688698053
1788965059104333300,6.546333251953125,5.175706355375051,1.7986457507580518,-1.447140005263686
1788965059114335000,6.5563349609375,3.665962302160263,2.801649365364015,-0.8093740166455506
1788965059124338000,6.566337890625,0.3318675635665655,3.9009064918056127,0.06941840414106845
1788965059134340000,6.576340087890625,-4.263714844819903,5.048326176130772,1.5444944640785454
1788965059144342800,6.5863427734375,-6.07725362880528,5.232732895454764,3.3623914432734248
1788965059154346000,6.596345947265625,-4.923337860459089,4.547893605494499,4.451766058126092
1788965059164348200,6.60634814453125,-2.615402571131289,3.6211607451424,4.352501966297626
1788965059174351000,6.61635107421875,-0.7698971617817878,2.449054947850108,3.0432156034976243
1788965059184353000,6.62635302734375,0.18190438111424445,0.7264531568527222,1.4188719421565532
1788965059194356000,6.63635595703125,0.7508370720028876,-0.5630804577291012,0.3457879523694515
1788965059204358100,6.646358154296875,0.930516762804985,-1.2135171273499727,-0.07957681006193161
1788965059214360800,6.65636083984375,1.037122157306969,-2.1370272262632843,-0.955080710697174
1788965059224364000,6.666364013671875,1.2684691992431878,-3.4268282596096395,-2.214834688565135
1788965059234366000,6.676365966796875,1.4903180527329445,-3.863801626770198,-2.8546429966658353
1788965059244369200,6.686369140625,1.1225187595635653,-3.042525575406849,-2.3048329393982887
1788965059254370800,6.696370849609375,0.2555015322446823,-1.2156783970370888,-1.0766899053245782
1788965059264374000,6.7063740234375,-0.21236089417636395,0.4238540656074881,-0.6565607054591178
1788965059274376000,6.7163759765625,0.12252338686287402,1.3548323084443807,-0.6974409973800182
1788965059284379000,6.72637890625,0.6593886223614216,1.5962205596625805,-0.5660165111809968
1788965059294382000,6.736382080078125,0.7755038957476615,1.4897040124878287,-0.13295242641866206
1788965059304384000,6.746384033203125,0.5552993023335934,1.3538859675049781,0.1771048718780279
1788965059314387200,6.75638720703125,0.4659294125318527,1.251308805605769,-0.011790391036868094
1788965059324388900,6.766388916015625,0.572163343372941,1.0511381154388189,-0.8378314648449421
1788965059334392000,6.77639208984375,0.5586784233778714,0.8716784971281886,-1.2599825259268282
1788965059344394000,6.78639404296875,0.576663577401638,0.9074339933812617,-0.8922416849464178
1788965059354397200,6.796397216796875,0.46188685914278027,0.9980009840130806,-0.42425884701609606
1788965059364399900,6.80639990234375,0.3892740428745746,0.953208194823563,-0.11271744764149189
1788965059374402000,6.816402099609375,0.4732967264294624,0.8047551246732473,0.031080782440304756
1788965059384405000,6.826405029296875,0.5121107334703207,0.6977414416313171,-0.007760697129368782
1788965059394407000,6.836406982421875,0.5008727156192064,0.6884422828882932,-0.1895177787274122
1788965059404410000,6.84641015625,0.5964116494446993,0.680277681133151,-0.410952206197381
1788965059414412000,6.856412109375,0.8974918605595826,0.6268757612913847,-0.571721444824338
1788965059424415200,6.866415283203125,1.2005185295671223,0.5499789840936661,-0.643859629318118
1788965059434417000,6.8764169921875,1.4300041615456343,0.4195429244101047,-0.7310796476095914
1788965059444420000,6.886420166015625,1.4320938273012638,0.28130057488977905,-0.8926771537542343
1788965059454423000,6.896423095703125,1.520440219274163,0.11578969469368457,-0.9670844522237777
1788965059464425000,6.906425048828125,1.468940333661437,0.00564063623547554,-0.8871429005026816
1788965059474428000,6.916427978515625,1.2744260618209837,0.008124269744753837,-0.8276508470922708
1788965059484430000,6.92643017578125,1.0588047045439481,-0.008538695764541625,-0.7980027278035878
1788965059494433000,6.93643310546875,0.9699176298230886,-0.2126011326730251,-0.9421744673728942
1788965059504435000,6.94643505859375,0.6742687961071729,-0.3509112867325544,-1.2467276152953506
1788965059514438000,6.95643798828125,0.21254326500594614,-0.24440964486598968,-1.3934601452633737
1788965059524441000,6.966441162109375,-0.048453942045569416,-0.008439327043294906,-1.3229299804881214
1788965059534443000,6.976443115234375,-0.07828793929517269,-0.0650198769211769,-1.2647440412402153
1788965059544446000,6.986446044921875,-0.2698486220270395,-0.9215969587683677,-1.411050162489712
1788965059554448000,6.99644775390625,-0.4225298312664032,-2.5296114165991543,-1.4624597394704817
1788965059564451000,7.006451171875,-0.1403191557943821,-0.8445242404818535,-1.2782593563735485
1788965059574453000,7.016452880859375,-0.0940770445793867,-0.4982371064186096,-1.2123998137578367
1788965059584456000,7.0264560546875,-0.05440145227313042,0.08972937076389789,-1.1569093972042201
1788965059594459100,7.036459228515625,0.34490064814090726,0.5395271481841802,-1.2082415250346064
1788965059604461000,7.0464609375,0.47363516460359095,0.3403536523610353,-1.083441425411403
1788965059614464000,7.056464111328125,0.6302332550257445,0.2855120551049709,-0.7381529469966888
1788965059624466000,7.0664658203125,0.7722422636032104,0.18122458215653894,-0.3579942307308316
1788965059634469000,7.07646923828125,0.7767763999015093,-0.04079261363744736,-0.05707023309096693
1788965059644471000,7.086470947265625,0.47677170906364913,-0.37056817336082454,0.022663228837400674
1788965059654474000,7.096473876953125,0.3896563201904297,-0.7441495570629835,-0.0704373719252646
1788965059664477200,7.106477294921875,0.3889250833064318,-1.2385235583126544,-0.3741002930097282
1788965059674479000,7.11647900390625,0.6183639535337686,-1.619002300313115,-0.6378773400381207
1788965059684482000,7.12648193359375,0.8439858958214521,-1.6309207016438245,-0.7697527848750353
1788965059694484000,7.13648388671875,0.8163824341028928,-1.797479629588127,-0.8027997528217733
1788965059704487200,7.146487060546875,0.6802993084430694,-1.8853040435135364,-0.8080332695610821
1788965059714489000,7.156489013671875,0.8191390393346547,-1.8769091401338576,-0.4917725865796208
1788965059724492000,7.166491943359375,0.678476184669137,-1.6110317598253487,-0.2661011060617864
1788965059734495000,7.176494873046875,0.6596487346023321,-1.5368623617649078,0.12631956427544355
1788965059744497200,7.1864970703125,0.4855360302776098,-1.6166139438718556,0.3460189846463501
1788965059754499800,7.196499755859375,0.24325462961196898,-1.5675556061923503,0.3387885950013995
1788965059764502000,7.206501953125,0.13544190514683724,-1.3902169255584478,0.2736591202259064
1788965059774505000,7.2165048828125,0.16073007566034792,-1.1466758802205324,0.045045960232988
1788965059784507100,7.226507080078125,0.40890930219292637,-0.9106704910844564,-0.30781251504458484
1788965059794509800,7.236509765625,0.9401257181495427,-0.6757523126631975,-0.6504613656707108
1788965059804513000,7.246512939453125,1.1211778663486243,-0.20178455510437487,-0.7317965637072921
1788965059814515200,7.25651513671875,1.1039426539093256,0.22926409818232057,-0.8497393447816372
1788965059824518000,7.266517822265625,0.7165694762200117,0.5737561655223369,-0.8798339657288045
1788965059834520000,7.27652001953125,0.5507289256781339,0.8632014684230088,-0.7954783969577401
1788965059844523000,7.28652294921875,0.45233343337774273,0.9941782108545303,-0.747676781341061
1788965059854525200,7.296525146484375,0.370170113953948,1.0658394254863262,-0.46679918110370633
1788965059864528000,7.30652783203125,0.07388765850961208,0.9997001891463995,-0.14991923371274024
1788965059874531000,7.316531005859375,-0.4297469230383634,1.0625392148971557,-0.030957375256344673
1788965059884533000,7.326532958984375,-0.6278033975303172,1.7393588645309208,-0.16165442396365104
1788965059894536000,7.336535888671875,-0.062220601591467854,1.7775550319343805,-0.3419482280761003
1788965059904537900,7.346537841796875,0.05403086539506912,1.7807126191824674,-0.07196823475435375
1788965059914541000,7.356541015625,-0.647487172165513,1.6845447398036717,-0.4420981628283858
1788965059924543000,7.36654296875,-1.3525889134317635,1.4372715222001076,-0.6976458723023533
1788965059934546000,7.3765458984375,-0.7829092035681009,1.0843190850287676,-0.6325850788488984
1788965059944549000,7.386549072265625,0.251287129420042,0.6813391728848218,-0.5829372508436441
1788965059954551000,7.396551025390625,1.3228233052432536,0.4335521605402231,-0.5065114521585404
1788965059964554000,7.406553955078125,2.1872610374629495,0.12854922302365301,-0.42164281929880376
1788965059974556000,7.416555908203125,2.787573785999417,-0.43395372707843777,-0.31469160703383386
1788965059984559000,7.42655908203125,3.089356007903814,-1.09093528829813,-0.4115787405978888
1788965059994561800,7.436561767578125,2.724109906348586,-1.656241020861268,-0.7411850812342018
1788965060004564000,7.44656396484375,0.9913386035144328,-2.2561130398929117,-0.656349693056941
1788965060014567000,7.45656689453125,-0.8187941714197396,-2.5183500178724527,-0.11024148598201572
1788965060024569000,7.466569091796875,-2.491470778775215,-1.447656722614169,0.4269971859388053
1788965060034572000,7.476572021484375,-4.633699080812931,0.33278175580203534,1.1569869924850762
1788965060044574000,7.486573974609375,-5.379658317646384,0.5027379249691963,1.543899566925317
1788965060054577200,7.4965771484375,-4.555312941840291,0.16146481967568396,1.3503273982405661
1788965060064579800,7.506579833984375,-2.6386189038068055,0.5259329225957393,0.4618728306174278
1788965060074582000,7.51658203125,-0.9631763388693332,1.5596172144085167,-0.6737802819378673
1788965060084585000,7.5265849609375,0.014486790513992308,1.958054806947708,-0.9849910611186176
1788965060094587100,7.536587158203125,0.4266805212050676,1.329633569779992,-0.5504746221235022
1788965060104589800,7.54658984375,0.5686871916949748,0.820278272497654,0.020065723157487808
1788965060114591700,7.556591796875,0.5548913060545921,1.043418334841728,0.32589455357156694
1788965060124595000,7.566594970703125,0.7638900303214788,0.9747492877632379,0.19524795640986412
1788965060134598000,7.576597900390625,1.2553010901123285,0.24925065515637396,-0.6066180226931348
1788965060144599800,7.586599853515625,1.5088812989056108,-0.49523266390562054,-1.1044721576761454
1788965060154602800,7.596602783203125,1.682321218535304,-0.9737444946348667,-1.0020457293592393
1788965060164605000,7.60660498046875,1.5793588567107915,-1.1997896307706832,-0.24785496301427482
1788965060174608000,7.61660791015625,0.9420651617795228,-1.5156348648190499,0.7583440866321325
1788965060184609800,7.62660986328125,-0.11808745024204254,-1.8926093980908392,1.487278831167519
1788965060194613000,7.636613037109375,-1.3600374758720397,-1.5987924559772013,1.864830872066319
1788965060204616000,7.646615966796875,-1.6229349635869263,-0.4881383217304945,1.885279347463697
1788965060214617900,7.656617919921875,-0.6577268266290426,0.7433931857377291,1.2862357420802115
1788965060224620800,7.666620849609375,0.5743740051597357,0.8871522528529167,0.15808401813097298
1788965060234623000,7.676623046875,1.5417530564159154,0.6302683263391256,-0.8375866963036358
1788965060244626000,7.6866259765625,2.0952964549928903,0.43987551834285255,-1.3909351568304003
1788965060254627800,7.6966279296875,2.180672891244292,0.21414193237423895,-1.5034201108902692
1788965060264630800,7.706630859375,1.7445236999481915,0.19944646754562853,-1.4434499185740948
1788965060274634000,7.716634033203125,1.174612519416213,0.2806365580230951,-1.189456160543859
1788965060284636000,7.726635986328125,0.7463970437288284,0.5248030417829752,-0.7927281484015285
1788965060294638800,7.736638916015625,0.2711421689689159,0.7168138063699007,-0.680274904654175
1788965060304640800,7.746640869140625,-0.191409291562438,0.8066887230843305,-0.788132052782923
1788965060314644000,7.75664404296875,-0.26748540002703663,0.9704787708371877,-0.9718062200486659
1788965060324647000,7.76664697265625,0.07138239769041538,1.1985919454187155,-1.2793576730042695
1788965060334648800,7.77664892578125,0.4031394866198301,1.3741928424745797,-1.5896706996276975
1788965060344652000,7.786652099609375,0.5538280607372522,1.3847843791157006,-1.8163697696276009
1788965060354654000,7.796654052734375,0.5014011234074831,1.2271838336527348,-1.7941491699911654
1788965060364657000,7.806656982421875,-0.09266659325957298,0.941093101876974,-1.649195632394403
1788965060374658800,7.816658935546875,-0.9492588726758956,0.42052141405344007,-1.4599208686426282
1788965060384662000,7.826662109375,-1.3504460561841725,-0.03142214322388172,-1.0677964047729969
1788965060394664700,7.836664794921875,-1.3163169920891522,-0.2724059052944183,-0.5598777161650359
1788965060404667000,7.8466669921875,-1.3050380577057599,-0.4691074580460787,-0.10008651412725449
1788965060414670000,7.856670166015625,-1.4340671732008456,-0.5680278510034084,0.16854922497868538
1788965060424672000,7.866672119140625,-1.4698258843243122,-0.6649059244781732,0.2909038311459124
1788965060434675000,7.876675048828125,-1.3412719851255417,-0.7513800928384066,0.28672055411189795
1788965060444676900,7.8866767578125,-0.9464730413496494,-0.8534539813905954,0.1967594204187393
1788965060454680000,7.89668017578125,-0.43581016860008237,-0.891515708759427,0.17625526931136845
1788965060464682800,7.906682861328125,-0.04474105900228023,-0.7386211490303277,0.18095109897740183
1788965060474685000,7.916684814453125,0.18481120847165583,-0.5001432323008775,0.23422551998198032
1788965060484688000,7.92668798828125,0.23763562068641184,-0.40153731212019916,0.25679084140285846
1788965060494690000,7.93668994140625,0.06849895120859145,-0.3148001089096069,0.12326331850998103
1788965060504692700,7.946692626953125,-0.14426818568110464,-0.2766536258667707,-0.013439254222437738
1788965060514695000,7.95669482421875,-0.17068623700737953,-0.18707798435986042,-0.034951121067628266
1788965060524697900,7.96669775390625,-0.2806973482996225,-0.20386311494410037,-0.09995505150100216
1788965060534700800,7.97670068359375,-0.4328028034776449,-0.12354630016982554,-0.22199458210337905
1788965060544702700,7.98670263671875,-0.6777022776871919,0.008646832314133643,-0.3515207238677889
1788965060554706000,7.996705810546875,-0.9212497527658939,0.17465338707268238,-0.5026111567843705
1788965060564708000,8.0067080078125,-0.9647621467560529,0.34418753143548964,-0.5673537511341273
1788965060574710800,8.016710693359375,-0.901756532266736,0.4334931238293647,-0.47999330145865676
1788965060584714000,8.0267138671875,-0.8353823181271552,0.4570318203270435,-0.38595337401926516
1788965060594716000,8.0367158203125,-0.7205185061067342,0.4441951351076364,-0.2431771804615855
1788965060604718800,8.04671875,-0.6295329978018999,0.39205636706948277,-0.1278036653533578
1788965060614720800,8.056720703125,-0.4793272387653589,0.3144394589036703,-0.014422346975654362
1788965060624724000,8.066723876953125,-0.4348375241756439,-0.0011497545570135115,-0.10517989174351096
1788965060634726000,8.076725830078125,-0.3346896352499723,-0.4206789427027106,-0.35822102522403
1788965060644728800,8.086728759765625,0.048991702184081075,-0.7630281527951359,-0.40913171277195215
1788965060654732000,8.09673193359375,0.2272849070638418,-0.937288448897004,-0.11225655213147401
1788965060664734000,8.10673388671875,0.2800105350792408,-1.073633732624352,0.11792261506915092
1788965060674737000,8.11673681640625,-0.04521978242993355,-1.3451438581228254,0.33706016377359627
1788965060684738800,8.12673876953125,-0.5867804822683333,-1.7973019349336623,0.268062907654047
1788965060694742000,8.136741943359375,-0.6906792481601238,-2.2807482994556425,0.15737959618866443
1788965060704744000,8.146743896484375,-0.6794155113458633,-2.5748168782427907,0.44005642786771054
1788965060714747000,8.156746826171876,-0.465675145509839,-2.506836397950351,0.9071297497376799
1788965060724749800,8.166749755859374,-0.16369301711916923,-2.204448319107294,1.2072206575542688
1788965060734752000,8.176751953125,0.2925941223204136,-1.7817805406749248,1.0244760262236
1788965060744754700,8.186754638671875,0.5295768320560456,-1.353515380626917,0.5471233024016022
1788965060754756900,8.1967568359375,0.28756314241588116,-0.7214256840795278,0.09552110590785741
1788965060764759800,8.206759765625,-0.13257014910280704,-0.13422025439739227,-0.09216098182499408
1788965060774762800,8.2167626953125,-0.49726563103795046,0.5025009013429284,0.19753215835690496
1788965060784764700,8.2267646484375,-0.6302794322550297,1.1197460799798369,0.658257572504878
1788965060794768000,8.236767822265625,-0.3595522738277912,1.2851844794616103,0.7338795074611901
1788965060804770000,8.24677001953125,0.029264672929048538,1.1311419187411664,0.5595908620476723
1788965060814772700,8.256772705078125,0.3780401166766882,0.8135916343405842,0.549686138626933
1788965060824775000,8.26677490234375,0.1218792437404394,0.35258711099028583,0.992860113993287
1788965060834777900,8.27677783203125,-0.028650340422987936,-0.34664340015500783,1.5475713873058556
1788965060844780800,8.28678076171875,-0.011295300996303558,-0.7627844071671366,1.3171873451828955
1788965060854782700,8.29678271484375,0.2293020921051502,-1.2302645562723278,-0.22320786688327787
1788965060864786000,8.306785888671875,-0.04930500591695308,-0.9390630573540926,-1.3332558519303799
1788965060874787800,8.316787841796875,-0.6323264279127121,0.18869316447153686,-0.6309194837242365
1788965060884790800,8.326790771484376,-1.0563421138226985,1.2167960028901696,0.4103191689908504
1788965060894792700,8.336792724609374,-0.7051993564218282,1.6636343459829688,1.1603034235566854
1788965060904796000,8.3467958984375,-0.17858780391216278,1.4374826807327568,1.0268599987506866
1788965060914798800,8.356798828125,0.02359656416475773,1.0255310882344841,0.11103986981809139
1788965060924800800,8.36680078125,0.008720482072234153,0.7705715539120137,-0.6612701983243227
1788965060934804000,8.376803955078126,0.22590192827284336,0.9049849927939474,-0.007094926697015762
1788965060944806000,8.386805908203126,0.7183370704144239,1.1509294460117816,1.5464765778064726
1788965060954808800,8.396808837890624,1.4013245950281619,0.9016061640106141,1.3149445346921682
1788965060964810800,8.406810791015625,1.6617951478570698,0.3794470608651638,-0.20811434264779088
1788965060974814000,8.41681396484375,1.1373434037297963,0.14766718046963215,-0.6369307068377733
1788965060984817000,8.42681689453125,0.8179735026866197,0.04818666941151022,-0.6572948649525642
1788965060994818800,8.43681884765625,0.6329688174694776,0.17145999785885213,-0.27813538885712624
1788965061004821800,8.44682177734375,0.5047200386971235,0.7446354408837854,0.65103638907969
1788965061014824000,8.456823974609375,0.7322942840963602,0.9905642581410705,0.6366518898963928
1788965061024827000,8.466826904296875,0.8548287768751383,0.6357448580540717,-0.15181144066751
1788965061034829800,8.476829833984375,0.5377490325957537,0.2725705943368375,-0.6953028163075446
1788965061044832000,8.48683203125,0.21669980016350746,0.19921178200691939,-0.8817313968479633
1788965061054835000,8.4968349609375,0.2079085909426212,0.30155455062836406,-0.6629045215278864
1788965061064836900,8.5068369140625,0.3050345016986131,0.6049952072642744,0.12835282366871834
1788965061074839800,8.51683984375,0.46403614613115785,0.8056793999113142,1.0593594158172608
1788965061084842000,8.526842041015625,0.6360498323500156,0.7651572737783193,1.0590817679196596
1788965061094845000,8.536844970703125,0.6669955902338027,0.535626049092412,0.6089893914669752
1788965061104848000,8.546847900390626,0.6424538541734218,0.25215017599016426,-0.11466741266548633
1788965061114850300,8.556850341796874,0.8410679625481366,-0.020981120969355106,-0.8077677504926919
1788965061124853200,8.566853271484375,1.076584106862545,-0.00490472317636013,-0.5389011252403259
1788965061134855200,8.576855224609375,1.0455080005973576,0.3293345379576087,0.6891513079404831
1788965061144858400,8.5868583984375,1.081819084906578,0.5545394238770007,1.2049544661879539
1788965061154861300,8.596861328125,1.3187041794866323,0.45803807476013897,0.4086854303091764
1788965061164863200,8.60686328125,1.5325684639632702,0.255360370208323,-0.4230757747113704
1788965061174866200,8.6168662109375,1.5285259105741977,0.09533025951087475,-0.7667308067053556
1788965061184868400,8.626868408203125,1.3020353687584398,-0.08096738763749599,-0.8502303431689738
1788965061194871300,8.636871337890625,1.012314171525836,-0.12592851913124323,-0.5647849235594272
1788965061204873200,8.646873291015625,0.6780839704811573,-0.04870674776285887,-0.14700141003727912
1788965061214876200,8.656876220703126,0.3094751144945621,-0.022254209645092487,0.041461306679248806
1788965061224879400,8.66687939453125,-0.041725510573387144,-0.05570522834807634,0.11335603780597447
1788965061234881300,8.67688134765625,-0.28705168576240536,-0.12802403010576963,0.19787351914048193
1788965061244884200,8.68688427734375,-0.41654900329113004,-0.22147680530697106,0.24941782841682433
1788965061254886100,8.69688623046875,-0.6163888540685176,-0.41317105129063125,0.07349749014824629
1788965061264889300,8.706889404296875,-4.425614548781514,-1.5020824325457214,-2.6793624176055193
1788965061274891300,8.716891357421876,-1.9979180307805537,-1.4800205306023357,-0.9309203751698136
1788965061284894200,8.726894287109374,0.20033318725228308,-1.174053131967783,0.7082961533933878
1788965061294897400,8.7368974609375,-1.5011223553419113,-1.4308695462033152,-0.6739896869048476
1788965061304899300,8.7468994140625,0.6784890441507101,-0.5720815103083848,0.6662360040381551
1788965061314902300,8.75690234375,0.13904431355297564,-0.23239158255308864,-0.0031599253356456754
1788965061324904200,8.766904296875,0.512315316131711,0.09159487237483263,0.10058248095065354
1788965061334907400,8.776907470703126,-0.1342535721451044,0.1215937047973275,-0.4357461634531617
1788965061344910000,8.78691015625,-0.34475802479982376,0.15040391195714473,-0.6024962300553918
1788965061354912300,8.796912353515625,-0.16620236959159373,0.29863398700654503,-0.5003434310480952
1788965061364915500,8.80691552734375,-0.31283377727270123,0.36545828300118444,-0.5488105248361825
1788965061374917400,8.81691748046875,-0.6047855100363493,0.35509997059404846,-0.6823202928766607
1788965061384920300,8.82692041015625,-0.5708697964310646,0.29038170696794985,-0.8182777463302016
1788965061394922200,8.836922119140626,-0.6982821243792772,0.026838322564959525,-0.7927233260959387
1788965061404925400,8.846925537109374,-0.6921691944569349,-0.18743746532201766,-0.6702559072040021
1788965061414928100,8.85692822265625,-0.7858627926766872,-0.4441179782181978,-0.5178616982124745
1788965061424930300,8.866930419921875,-0.6297627149045467,-0.6358417425572872,-0.3735651632197201
1788965061434933200,8.876933349609375,-0.34577041671276093,-0.7037111636906862,-0.29813597435653205
1788965061444935400,8.886935302734376,-0.18646949707269667,-0.7157102290421724,-0.29564547271505
1788965061454938000,8.896938232421874,0.022158055794239042,-0.6208323894739151,-0.22911270701289177
1788965061464941300,8.90694140625,0.16223697309195995,-0.5658177737385034,-0.20924663461335002
1788965061474943200,8.916943115234375,0.44030748001933095,-0.5400765987604856,-0.1664512297861278
1788965061484946200,8.9269462890625,0.5850228249460458,-0.48179918183684345,-0.07146021216697991
1788965061494948000,8.936947998046875,0.5457575670063496,-0.33768355636894704,0.04068666904494166
1788965061504951300,8.946951416015626,0.3538876721948385,-0.07242752282917499,0.16852270229794084
1788965061514953500,8.956953369140624,0.0015256021320819854,-0.10277473029792308,0.19119360298514365
1788965061524956200,8.9669560546875,-0.5130757791101932,-0.20544073952436445,0.2457415693231858
1788965061534959400,8.97695947265625,-0.96918756198287,-0.23047522753775118,0.2293129057601094
1788965061544961300,8.986961181640625,-1.3025976788163185,-0.2454056701660156,0.09105009797364473
1788965061554964200,8.996964111328126,-2.1021651717185974,-0.37971360284686084,-0.09879296718537807
1788965061564966100,9.006966064453126,-2.527498369967937,-0.41983460083305835,-0.3079004855889827
1788965061574969300,9.01696923828125,-2.414166589820385,0.07963058607578277,-0.1718223283652216
1788965061584972000,9.026971923828125,-2.201634430730343,1.1300935787320137,0.6929675782930106
1788965061594974200,9.03697412109375,-1.4948884293884037,2.220201768556237,1.5266282602593302
1788965061604977400,9.046977294921875,-0.3301835560023784,2.0613883401721713,1.4161167982295155
1788965061614979300,9.056979248046876,0.6143494571954011,0.9044330579996108,0.49346474091764536
1788965061624982300,9.066982177734374,1.0359954913645981,0.02403963175714016,-0.2436270613872446
1788965061634984200,9.076984130859374,1.0962293030530215,-0.09466039742529392,-0.04319185679890215
1788965061644987400,9.0869873046875,0.7477396905094384,0.3453530680835247,0.5982144976155832
1788965061654990000,9.096989990234375,0.05972703121006488,1.3511001361787318,1.0210874797638505
1788965061664992300,9.1069921875,-0.5760889923840761,1.9029431605786085,1.0189553631059824
1788965061674995200,9.1169951171875,-0.7730775453835725,1.151784601536393,0.20502682496123015
1788965061684997400,9.126997314453124,-0.3740864106148481,0.539199231404066,-0.4778730944342911
1788965061695000000,9.137,0.4427630564779043,0.8510305536359548,-0.07608884921516292
1788965061705003300,9.147003173828125,1.126534424945712,1.1718337023526428,0.4856189593207091
1788965061715005200,9.157005126953125,1.3101806812912224,0.7087777994304895,0.23399121803576126
1788965061725008100,9.167008056640626,1.028695982006192,-0.21889467985928057,-0.6288067293539643
1788965061735010000,9.177010009765626,0.47620998352766036,-1.0545569839715958,-1.0224883595377205
1788965061745013200,9.18701318359375,-0.2034428437054157,-1.627657900455594,-0.7459305952608585
1788965061755015400,9.197015380859375,-0.9849176305562257,-1.1862322300612926,0.12270457038236782
1788965061765018000,9.20701806640625,-1.2074579734414814,0.761547266587615,0.9789753810256719
1788965061775021300,9.217021240234375,-0.22212767043113707,1.750729568850994,1.3296167647756636
1788965061785023200,9.227023193359376,1.037439260432124,1.4663281053364277,0.9717158383514731
1788965061795026200,9.237026123046874,1.9724100800365207,0.8075824570536613,0.23779914068505167
1788965061805028000,9.247028076171874,2.291816221436858,0.19779402416348457,-0.5878968460123986
1788965061815031300,9.25703125,1.9357541278123855,0.3791811034053564,-0.7744500027805566
1788965061825034200,9.2670341796875,1.1351549537748098,1.0577677627116442,-0.06450920571899041
1788965061835036200,9.2770361328125,0.3816068692475557,1.7681781317800283,0.8132669324308633
1788965061845039400,9.287039306640626,-0.10773147592246532,1.8641291535377502,0.761641886068508
1788965061855041300,9.297041259765624,-0.37902269797325133,1.239037353053689,-0.09476364773721434
1788965061865044500,9.30704443359375,-0.612212445166707,0.44475043090283867,-1.0103139376193284
1788965061875047200,9.317047119140625,-0.8308271390408277,0.014070610928535461,-1.2943911376155912
1788965061885049300,9.32704931640625,-0.8910393234193325,-0.03156710465252399,-0.9990748968549072
1788965061895052300,9.33705224609375,-0.6762626002728939,0.23538404236733912,-0.3992704631667584
1788965061905054200,9.34705419921875,-0.227838449293375,0.697004944050312,0.2496821784414351
1788965061915057200,9.35705712890625,0.10426292302906513,0.7235878305494785,0.39923111753705887
1788965061925059300,9.367059326171875,0.3134492788225412,0.2888976058900356,0.06318480698112398
1788965061935062300,9.377062255859375,0.4174252016037702,0.05378653524518013,-0.1680135106667876
1788965061945065200,9.387065185546875,0.44830315494835377,0.01622691217958927,-0.008714308059774339
1788965061955067100,9.397067138671876,0.4245166211694479,0.046503392499685284,0.41194023085404186
1788965061965070300,9.4070703125,0.2964069586068392,0.009360533541440964,0.7374627727754414
1788965061975072300,9.417072265625,-0.03826455646455288,-0.24055063135027885,0.7435442115809768
1788965061985075200,9.4270751953125,-0.4890215343058109,-0.7271300332009792,0.6860876825861633
1788965061995077400,9.437077392578125,-0.812308901053667,-1.2177747847944498,0.6065169369388371
1788965062005080300,9.447080322265625,-1.136208262220025,-1.568947352811694,0.49004853926599024
1788965062015083300,9.457083251953126,-1.4128367536455393,-1.8254086699992418,0.6002697861775755
1788965062025085200,9.467085205078124,-1.4527356333136558,-1.823112083494663,0.800013921495527
1788965062035088400,9.47708837890625,-1.160399285146594,-1.6093682105273008,0.7890606388699263
1788965062045090300,9.48709033203125,-0.6522422577381134,-1.0809820495605469,0.6573750905819237
1788965062055093200,9.49709326171875,0.0318891762137413,-0.30286943261921406,0.5849738712377845
1788965062065096200,9.50709619140625,0.5998819559037685,0.3264952228784561,0.6323625221394003
1788965062075098400,9.517098388671876,0.9639788874238729,0.573007977503538,0.7377469965443014
1788965062085101300,9.527101318359374,1.110731875658035,0.5139847106486558,0.7217989013060927
1788965062095103200,9.537103271484375,1.0738690026849507,0.19285656776130197,0.4686948951898142
1788965062105106400,9.5471064453125,0.9858335763573646,-0.10787702187299728,0.09438760836590081
1788965062115109000,9.557109130859375,0.7663742483526468,-0.3503577445030212,-0.04910502636544406
1788965062125111000,9.567111083984376,0.6208522632181644,-0.21026538320183752,0.0615201982371509
1788965062135114200,9.5771142578125,0.3963198697328567,0.09432838899195194,0.20792521328385918
1788965062145116200,9.5871162109375,0.07761515460014343,0.21729250535964964,0.4396552266556769
1788965062155119000,9.597119140625,-0.15330080244243144,0.16279402245283126,0.45085579857323316
1788965062165121000,9.60712109375,-0.29364217006862164,-0.0235322667568922,0.21986677629444748
1788965062175124200,9.617124267578125,-0.5305787025749683,-0.18166063548624514,0.05787190486267209
1788965062185127000,9.627126953125,-0.8613847743898629,-0.2708838102936745,0.03065828271191567
1788965062195129000,9.637129150390624,-1.1640905408799647,-0.4050350911080837,0.12330759604312479
1788965062205132300,9.64713232421875,-1.3494570451468229,-0.5581213740170001,0.20542528622690587
1788965062215134200,9.65713427734375,-1.285626670271158,-0.5373603255391121,0.14708269511256367
1788965062225137200,9.66713720703125,-0.9907382995337247,-0.1294178225517273,0.41681379170715804
1788965062235140000,9.67714013671875,-0.5515279671013354,0.6665221275031566,0.964678998517245
1788965062245142300,9.687142333984376,-0.1858241849064827,1.2618652709335088,1.0517772170599549
1788965062255145000,9.69714501953125,-0.03901683613657951,1.4226795177459717,1.0774196809038519
1788965062265147100,9.707147216796875,-0.0830973854035139,1.1543372086286545,1.1549815709467977
1788965062275150000,9.717150146484375,-0.1384884332358837,0.47111236812770363,0.7964926885668188
1788965062285152300,9.72715234375,0.02411152794957161,-0.10482698665261268,0.17241211095191536
1788965062295155000,9.737155029296876,0.12069675595760344,-0.5285878210186958,-0.08298968724533914
1788965062305158100,9.747158203125,0.16595803944170473,-0.693765523737669,-0.06810352215021848
1788965062315160000,9.75716015625,0.30411095711290836,-0.5418389322578907,0.0419851478902623
1788965062325163000,9.7671630859375,0.18994857136011123,-0.47382338065207,0.08670647927876561
1788965062335165000,9.7771650390625,-0.13451602247357367,-0.5201929176390171,0.03223612648788839
1788965062345168100,9.787168212890625,-0.4455085557937622,-0.6674357352167367,-0.12335516151189803
1788965062355171300,9.79717138671875,-0.6528992603421211,-0.7995119633227586,-0.22332787653375416
1788965062365173000,9.807173095703124,-0.7267384035348892,-0.590906622287631,-0.12334851257540284
1788965062375176200,9.81717626953125,-0.6154226393848657,0.06375497155189513,0.366802135358192
1788965062385178000,9.82717822265625,-0.3938859205842018,0.6365577818721533,0.8778883846189827
1788965062395181000,9.83718115234375,-0.021765257084369657,0.8774532811373472,1.0819893269069492
1788965062405184000,9.84718408203125,0.3920961145579815,1.0100111552804707,1.0985600840881466
1788965062415186200,9.857186279296876,0.6058195292592048,1.06544078155756,1.1719497299477457
1788965062425189000,9.867189208984374,0.6714712743431329,0.8901765691101551,0.9915801571853459
1788965062435191000,9.87719091796875,0.8248661848098039,0.77645783547163,0.533193122857064
1788965062445194200,9.8871943359375,1.0323767163455486,0.7611351786553859,0.34584899837430566
1788965062455196200,9.897196044921875,1.130898465374112,0.7169687046706676,0.37161468673907216
1788965062465199400,9.907199462890626,0.9457400508999824,0.4508855726569891,0.25677319614831356
1788965062475202000,9.9172021484375,0.4594564171254635,-0.028897593182325362,-0.12940664357058704
1788965062485204200,9.927204345703124,0.05718728359937667,-0.23398060531020162,-0.4292006507998332
1788965062495207200,9.937207275390625,-0.21362053884863852,-0.09735504333674908,-0.4622397277010604
1788965062505209000,9.947208984375,-0.3875158010303974,0.22329262255728244,-0.06843962223678828
1788965062515212000,9.9572119140625,-0.410267731064558,0.5890910972982645,0.313431523970142
1788965062525215200,9.96721533203125,-0.5513502724468707,0.5917606087684631,0.371586556623131
1788965062535217200,9.977217041015624,-0.8869850795924663,0.0970750573515892,0.03297843275517225
1788965062545220000,9.98722021484375,-1.1122720908373593,-0.4386357474148273,-0.22406645647399126
1788965062555222000,9.997221923828125,-1.122459722852707,-0.7389613407701253,-0.05342763880491257
1788965062565225200,10.00722509765625,-0.850528449332714,-0.5627087018072605,0.3686410777557641
1788965062575227100,10.01722705078125,-0.6462707821130752,-0.07929156337976455,0.4147980679705739
1788965062585230000,10.02722998046875,-0.5034966343820094,0.5346732784122228,0.42580191173963244
1788965062595233300,10.0372333984375,-0.3143780841052532,0.934360578751564,0.6341394686840475
1788965062605235200,10.047235107421875,-0.05383680412769317,0.9566653495401144,0.7798956279005855
1788965062615238100,10.057238037109375,0.06570142944455147,0.564893644630909,0.22651425148490814
1788965062625240000,10.067239990234375,0.2777133640527725,0.38359658176004885,-0.3374782430551946
1788965062635243300,10.0772431640625,0.7961153066217899,0.647526335132122,-0.314159326788038
1788965062645246000,10.087245849609374,1.5162041891396045,1.1348258679509162,0.48825895243547857
1788965062655248100,10.097248046875,1.7409926032125949,1.2018652680009603,1.0769115852512419
1788965062665251000,10.1072509765625,0.8010732212901115,0.4353144940376282,0.7498814517784863
1788965062675253200,10.117253173828125,-0.6227969675451517,-0.6656938599854707,-0.826807016679272
1788965062685256200,10.127256103515625,-1.2377613417685032,-1.0523358007907866,-1.734725944033265
1788965062695259100,10.137259033203126,-0.7144353868007659,-0.23416648327112197,-1.0462559694204479
1788965062705261300,10.14726123046875,0.11595102273523807,1.2924912953436374,0.6336108417000621
1788965062715264000,10.157263916015625,0.21045710638165474,2.032586608579755,1.4563742820769547
1788965062725266200,10.16726611328125,-0.05702712460160255,1.6895862411022184,1.9635249089218676
1788965062735269000,10.17726904296875,-0.3908136735320091,-0.009369885891675948,1.3228721128210426
1788965062745271300,10.187271240234375,-0.9116881436944008,-1.7871856145888565,-0.6681066202156245
1788965062755274000,10.19727392578125,-1.3546125282138586,-2.0749054088711736,-1.0464966463085263
1788965062765277200,10.207277099609374,-1.268474459940195,-0.869933991548419,0.836455208055675
1788965062775279000,10.217279052734375,-1.0008949518889187,0.31067163080275056,2.3165455890238285
1788965062785282000,10.227281982421875,-0.9460738128989934,0.37188743926584716,1.2625338178448378
1788965062795284000,10.237283935546875,-1.0674117893695831,-0.19089140516817568,-0.5954755376383661
1788965062805287200,10.247287109375,-1.1310545327186583,-0.2476291914343834,-0.9287851167067885
1788965062815290000,10.2572900390625,-0.6021726971894502,0.5143330856949091,-0.379406582724303
1788965062825292000,10.2672919921875,0.39362171669006346,1.4880197126626968,0.5593958509322255
1788965062835295200,10.277295166015625,1.3152736205160618,1.9815397274315356,1.2965975616186856
1788965062845297200,10.287297119140625,1.7036410699397324,1.5927818173855541,1.3822221274122595
1788965062855300000,10.297300048828125,1.32490011151731,0.48769408509433265,0.2624135766554624
1788965062865303000,10.307302978515626,0.4337427146762609,-0.3904214593440294,-1.1009741594925522
1788965062875305200,10.31730517578125,-0.2752268079340458,-0.40962124985456466,-1.4404729485899208
1788965062885308000,10.327307861328125,-0.16366496006846426,0.06420797601640224,-1.082607239609584
1788965062895310000,10.33731005859375,0.5480839641273021,0.8482149116933345,0.1375797208931297
1788965062905313000,10.34731298828125,1.0421955150485038,1.4806985759943723,1.165462340689823
1788965062915316200,10.357316162109376,0.7001292135506868,1.254530105739832,1.2602223260320722
1788965062925318100,10.367318115234376,-0.20099311246573923,0.2190758816450834,0.4228350247580558
1788965062935321000,10.377321044921874,-0.938555107831955,-0.9083347416132688,-1.044984488179907
1788965062945323300,10.3873232421875,-1.1984288638114928,-1.3686264405190944,-1.4341818856216966
1788965062955326200,10.397326171875,-0.949795463770628,-0.8389052315562963,-0.07843962272554636
1788965062965328100,10.407328125,-0.4087006278783083,0.17674129926264284,1.3237231766924262
1788965062975331000,10.4173310546875,-0.21147592803537843,0.9006295740634203,1.326213239942491
1788965062985334300,10.427334228515624,-0.34159926850795747,1.1941752980202436,0.8978143705122172
1788965062995336000,10.4373359375,-0.1744692626774311,1.2733698307663202,0.31471805664934216
1788965063005339100,10.447339111328125,0.24970892031788824,1.531871129348874,0.009938698755577206
1788965063015341000,10.457341064453125,0.6166401984810829,1.5458388644248247,0.13630977402254937
1788965063025344300,10.46734423828125,1.198463935124874,1.482802854797244,0.1744260811228305
1788965063035347200,10.47734716796875,1.7770248705804348,1.4884540124267338,0.3894102364748716
1788965063045349000,10.48734912109375,1.9645143583506344,1.3327023097008466,0.8558324009597301
1788965063055352300,10.497352294921875,1.602034798899293,0.67030164604187,0.32748182276301085
1788965063065354000,10.50735400390625,0.6920435222506522,-0.1893400840729475,-0.9711240830034017
1788965063075357200,10.517357177734375,-0.508861376285553,-0.7412006441295147,-1.5238010740093886
1788965063085360000,10.527360107421876,-1.47863287563622,-1.0840823536634445,-1.3402350432932375
1788965063095362300,10.5373623046875,-1.835470045286417,-1.2541677021682263,-0.9741812786169349
1788965063105365000,10.547364990234374,-1.933371616590023,-1.191802139148116,-0.49405324486270547
1788965063115367700,10.55736767578125,-2.1835563377261162,-0.8798708636730909,0.1563579980559647
1788965063125370600,10.56737060546875,-2.5170927112877366,-0.6020896950811148,0.3890928410887718
1788965063135372500,10.57737255859375,-2.5455823081910607,-0.6215823310583829,-0.18028357497937977
1788965063145375500,10.58737548828125,-2.142822176277637,-0.7467132700711488,-0.8813597139913588
1788965063155378700,10.597378662109374,-1.657751425424218,-0.4595335740149021,-0.8690593276057392
1788965063165380400,10.60738037109375,-1.0183259791612624,0.5033090028554201,-0.0314847601313144
1788965063175383600,10.617383544921875,-0.30821430077850814,1.4702104997277259,0.9196754891864954
1788965063185385500,10.627385498046875,0.49460021122097964,1.9135756137520075,1.4360235679656266
1788965063195388700,10.637388671875,1.2521247981637715,1.9442057298153637,1.5856436360687016
1788965063205391600,10.6473916015625,1.9505682505846023,1.658460450476408,1.5288310310006141
1788965063215393500,10.6573935546875,2.4516356119930744,1.0698965919226406,1.1457675332039594
1788965063225396700,10.667396728515625,2.654455939885974,0.3370902666509151,0.48755946239661424
1788965063235398700,10.677398681640625,2.7225053937613963,-0.11874620641171932,0.00854318927656859
1788965063245401600,10.687401611328125,2.46980839754343,-0.0745271254569292,-0.33642336370740084
1788965063255404500,10.697404541015626,1.6390461404323577,0.5241144749969243,-0.39363132476862517
1788965063265406700,10.70740673828125,0.8444932608217001,1.0097487049520015,-0.36708873374722895
1788965063275409400,10.717409423828125,0.4026391358822584,0.9941676894605159,-0.41163171289414163
1788965063285411600,10.72741162109375,0.14058335968852043,0.4414724321454763,-0.5974705839131027
1788965063295414500,10.73741455078125,-0.19741233136951922,-0.2332856087833643,-0.8921863745626062
1788965063305417500,10.74741748046875,-0.5131827466160058,-0.6346177537202835,-1.218351927095279
1788965063315419400,10.75741943359375,-0.9681453594535588,-0.7156763267725705,-1.3199632396370171
1788965063325422600,10.767422607421874,-1.4105483504474163,-0.2693225523263216,-0.6599118425179272
1788965063335424800,10.7774248046875,-1.8371546373724936,0.24546587592065333,0.0756146284326911
1788965063345427500,10.787427490234375,-2.1711194654792547,0.24414368740618228,-0.11977737609036267
1788965063355430700,10.7974306640625,-2.3936451953172684,-0.359026788648963,-0.7802955139383673
1788965063365432600,10.8074326171875,-2.261530388766527,-0.9407757064908743,-1.0228143766216933
1788965063375435500,10.817435546875,-1.6939304077863693,-0.48456689298450945,-0.12811748054288327
1788965063385437400,10.8274375,-1.3589537722885607,0.43248423904776573,0.5943930030986666
1788965063395440600,10.837440673828125,-1.027418801677227,0.7741232550442219,1.3658521535001695
1788965063405443300,10.847443359375,-0.37316929576992985,0.266399358355999,1.6570499991565941
1788965063415445500,10.857445556640625,-0.01668576186299324,-0.6944131739914416,0.6827795809514821
1788965063425448700,10.86744873046875,-0.07119710425138473,-1.016788102069497,-0.43983314050585026
1788965063435450600,10.87745068359375,0.08041618349552154,-0.24046353758871553,0.22387714444696902
1788965063445453600,10.88745361328125,0.4513642960846424,0.8562211080163716,0.8726763490591197
1788965063455455500,10.89745556640625,0.5499550186961889,1.2561398790240288,1.043660546099767
1788965063465458700,10.907458740234375,0.6390308939874172,0.9944809931933879,0.7604507035225629
1788965063475461400,10.91746142578125,0.949582697802782,0.5331961915969848,-0.3366316726958379
1788965063485463600,10.927463623046876,1.3034399748593568,0.7596165907859802,-0.3224560670228675
1788965063495466500,10.937466552734374,1.272429919567704,1.0322036978662013,0.20110924965869634
1788965063505468700,10.94746875,0.9158902715593575,0.6609773528575896,0.6183844848651439
1788965063515471400,10.957471435546875,0.6558417435348034,0.02636836696565151,0.43198096570074557
1788965063525474600,10.967474609375,0.49315410406589505,-0.43935821647047996,-0.4727888865051791
1788965063535476500,10.9774765625,0.10989829856753348,-0.6103904904365539,-1.1171054292779414
1788965063545479400,10.9874794921875,-0.3696738548696041,-0.466320457676053,-0.6248340263307094
1788965063555481300,10.9974814453125,-0.8585527658343315,-0.2159703168451786,0.14876725066602228
1788965063565484500,11.007484619140625,-1.2198691267251969,0.028251111972332,0.36953817272596057
1788965063575487500,11.017487548828125,-1.2416402290284634,0.12286650121212005,0.47635669852197166
1788965063585489400,11.027489501953125,-0.9298346257597208,0.08298983337581158,0.3140222564049065
1788965063595492600,11.03749267578125,-0.5973316868990659,0.058249944394826884,0.04940064831115305
1788965063605494500,11.04749462890625,-0.5209516270518303,0.11163549762368201,-0.14235153840482234
1788965063615497500,11.05749755859375,-0.70888885858953,0.2261649631232023,-0.1556815600991249
1788965063625500400,11.06750048828125,-1.0004033689796925,0.48819092870056624,0.002453530631959438
1788965063635502600,11.077502685546875,-1.2154220841884613,0.5725479587763548,0.13486118264943361
1788965063645505800,11.087505859375,-1.2231839503616093,0.40343057852089403,0.1328919284030795
1788965063655507500,11.097507568359376,-0.8917161997675895,0.12289397374093532,0.19032661089226602
1788965063665510700,11.1075107421875,-0.6528945841670036,-0.1354790222868323,0.23179303213804958
1788965063675512600,11.1175126953125,-0.7304834352821111,-0.297158946017921,0.36438568533360954
1788965063685515500,11.127515625,-0.9718424604058266,-0.4549722574487328,0.5732958545342087
1788965063695518500,11.1375185546875,-0.7958657157748937,-0.5322305614352226,0.71471683409065
1788965063705520600,11.147520751953126,-0.41972471071779727,-0.3403130280897021,0.7806465193331241
1788965063715523600,11.157523681640624,-0.3079424980998039,-0.05672960295975208,0.7936310885906219
1788965063725525500,11.167525390625,-0.47294075259864327,-0.052076516456902026,0.7116615381732583
1788965063735528400,11.177528564453125,-0.8920879556894302,-0.8594920925110578,0.4469277749419212
1788965063745531600,11.18753173828125,-1.1956447860509156,-2.3440900140315293,0.3291208952069282
1788965063755533600,11.197533447265625,-1.4807909304529427,-3.8334853989616033,0.0783244719132781
1788965063765536500,11.20753662109375,-1.7925626314520835,-4.778737958605587,-0.04565291315019131
1788965063775538400,11.217538330078124,-2.1769079857528206,-5.162454659613966,0.08354337560534476
1788965063785541600,11.227541748046875,-2.4692057554751634,-4.895820323458314,0.16298983728587627
1788965063795544600,11.237544677734375,-2.25083831436038,-4.041911584037542,0.31567046200335025
1788965063805546500,11.24754638671875,-1.7450725660026072,-3.0277859791755675,0.632835546478629
1788965063815549700,11.2575498046875,-1.6897592595815658,-2.1552301146909594,0.36469080576002594
1788965063825551600,11.267551513671876,-1.720470039665699,-1.288454002651572,0.025915947023034094
1788965063835554600,11.277554443359374,-0.5085504106402396,-0.6139870536237955,-0.05875614035129547
1788965063845557500,11.2875576171875,0.42272096992433067,-0.15285466611012816,-0.5484229868233204
1788965063855559700,11.2975595703125,1.002248704585433,0.34037542580142616,-0.2813555199474096
1788965063865562400,11.307562255859375,2.1550918752640484,1.1262366110429167,1.2914432475954294
1788965063875564500,11.317564453125,3.2622663507014513,1.5638590897619724,1.9360837981581687
1788965063885567700,11.327567626953124,3.6131221078544855,1.7962194003939627,2.3297920240879058
1788965063895570400,11.3375703125,3.4634283899933096,1.8638187724143265,2.0965584377527238
1788965063905572600,11.347572509765625,3.087994656422734,1.8987626600235699,1.2670470574855803
1788965063915575600,11.357575439453125,2.5842501847594974,1.8285807241640983,1.037864792367816
1788965063925577700,11.36757763671875,1.85206286816895,1.5167621152833104,1.5700427468329667
1788965063935580400,11.377580322265626,1.0782780512988566,0.9736154614277184,1.3675719630300998
1788965063945583600,11.38758349609375,0.3079962741136551,0.388687767419219,0.9046236121356487
1788965063955585500,11.39758544921875,-0.18909341583549974,0.06294321677759289,0.6675725133389234
1788965063965588500,11.40758837890625,-0.2852233012914657,-0.11121449573263525,-0.17712766823172568
1788965063975590400,11.41759033203125,-0.24383038367331025,-0.18125614633858203,-1.1027098972439766
1788965063985593600,11.427593505859376,0.10854571491479872,0.0494010136373341,-0.9330255307555199
1788965063995595500,11.437595458984376,0.8972890314638614,0.37251828451529145,-0.08934241727292537
1788965064005598500,11.447598388671874,1.3292565531611442,0.45564942605793474,0.10370002844929695
1788965064015601700,11.4576015625,1.2092162152856587,0.11232537958398461,-0.7210632805079221
1788965064025603600,11.467603515625,1.1800304528117178,-0.3831723649986088,-1.1890309208691119
1788965064035606500,11.4776064453125,1.0667799212068318,-0.7103307279609143,-0.9366612569093704
1788965064045608400,11.4876083984375,0.7302724228799342,-0.7202091478966176,-0.02384440144598484
1788965064055611600,11.497611572265624,0.20930559825897216,-0.3536901037961244,0.9967220501184463
1788965064065614300,11.5076142578125,-0.24027122988700866,0.039445436812192196,1.3191478316009044
1788965064075616500,11.517616455078125,-0.3709586339831352,0.17914689909964798,0.9693336924552917
1788965064085619500,11.527619384765625,-0.35795886715650554,-0.01801832564100623,-0.0824047269642353
1788965064095621600,11.53762158203125,-0.2137467955768108,-0.4025641709499061,-1.1529647512316703
1788965064105624300,11.547624267578126,0.09413257415890693,-0.6702515232898294,-1.2823702988237142
1788965064115627500,11.55762744140625,0.49511809761524195,-0.7646142529428005,-0.7240928574621677
1788965064125629700,11.567629638671875,0.7519663682937622,-0.699779231069237,-0.30553134530484677
1788965064135632600,11.577632568359375,0.7195932079553604,-0.5387888970375061,-0.17685820364058016
1788965064145634600,11.587634521484375,0.4977835174322128,-0.3839215759307146,-0.18475129497796297
1788965064155637500,11.597637451171876,0.23882161560058593,-0.24888182184398172,-0.17413228580802678
1788965064165640700,11.607640625,0.20929741495251655,-0.08731091144531965,-0.09697013567239046
1788965064175642400,11.617642333984374,0.3418628878802061,0.0619637042209506,0.07553133406341075
1788965064185645600,11.6276455078125,0.42228725468218326,0.16836217797398567,0.1808455197110772
1788965064195647500,11.6376474609375,0.2969067248225212,0.3073956778720021,0.11617577140182256
1788965064205650700,11.647650634765625,0.08432955754697323,0.3009296967282891,-0.12002981648147105
1788965064215653600,11.657653564453126,-0.01030921256840229,0.1444622469484806,-0.49117666651308534
1788965064225655600,11.667655517578124,0.008513561323285103,-0.08606880242973565,-0.8013850637182592
1788965064235658800,11.67765869140625,0.13614216237068175,-0.3212430014386773,-1.0214444034427403
1788965064245660400,11.687660400390625,0.16713585104942322,-0.5197057186439633,-1.0723217732429504
1788965064255663600,11.69766357421875,0.23418518797159193,-0.6621764995142817,-1.1279597815737128
1788965064265666600,11.70766650390625,0.3297580240666866,-0.6695104956641793,-1.177754909095168
1788965064275668700,11.717668701171876,0.36129999427795406,-0.6861646933451294,-1.114025656506419
1788965064285671400,11.72767138671875,0.32382045071125026,-0.7448568285495042,-0.9962594010427593
1788965064295673600,11.737673583984375,0.28145547319054603,-0.8083820829987526,-0.8234121866092086
1788965064305676500,11.747676513671875,0.21415245376825331,-0.7604553796976804,-0.6481479741618037
1788965064315679500,11.757679443359375,0.304081731018424,-0.7078261977940797,-0.5062200679965317
1788965064325681400,11.767681396484376,0.3490834867835045,-0.7240203767478466,-0.32355756199136376
1788965064335684600,11.7776845703125,0.29705051720738407,-0.7699275569200515,-0.3242132494211197
1788965064345686500,11.7876865234375,0.1031482397854328,-0.813207895720005,-0.5352062162451445
1788965064355689500,11.797689453125,-0.3233773831188679,-0.7433265502423048,-0.841674257878214
1788965064365692700,11.807692626953125,-0.7523328635185956,-0.5988602116405963,-1.0686740643903612
1788965064375694600,11.817694580078125,-1.0064128385275601,-0.39322248823940753,-1.1919595947321504
1788965064385697500,11.827697509765626,-1.29604869556427,-0.18361118503212928,-1.245105128660053
1788965064395699500,11.837699462890624,-1.2850772196948528,0.05281038368940353,-1.2683612088240683
1788965064405702700,11.84770263671875,-0.9775210905641317,0.2875157961428165,-1.1192600500285625
1788965064415705300,11.857705322265625,-0.9206739987045526,0.5038561153441667,-0.798774223632738
1788965064425707500,11.86770751953125,-0.8021814747929572,0.7802490444481373,-0.5254948965046554
1788965064435710500,11.87771044921875,-0.6151116737395524,0.9953285499334334,-0.3166431064277887
1788965064445712600,11.887712646484376,-0.4921195003211498,1.0080494998186826,-0.11250709282644092
1788965064455715600,11.897715576171874,-0.38006665406823154,0.9181547093600034,0.0796544053427875
1788965064465718500,11.907718505859375,-0.6553016453087329,0.8055927445411681,0.3648167702272534
1788965064475720700,11.917720703125,-1.538743937727809,0.6160796419888734,0.6476211738087236
1788965064485723400,11.927723388671875,-2.260687508201599,0.14259879116415977,0.6211661514729261
1788965064495725600,11.9377255859375,-2.700788067471981,-0.4320312345832586,0.1751646975956857
1788965064505728500,11.947728515625,-2.4693524704694747,-0.6053770461887121,0.08246157171800732
1788965064515731500,11.9577314453125,-1.9383412216961382,-0.2742617622941732,0.34327611567899585
1788965064525733400,11.9677333984375,-1.064424297991395,0.3931237040400505,0.8309833525158464
1788965064535736600,11.977736572265625,-0.09737374803721904,1.0467629690945148,1.1258964193031191
1788965064545738500,11.987738525390625,0.615645926746726,1.293141283684969,0.8124178413208574
1788965064555741400,11.997741455078126,0.9257681069731711,0.919903014332056,0.10089837849941104
1788965064565744600,12.00774462890625,1.0072609797894954,0.2092640972048044,-0.4503685265129432
1788965064575746600,12.01774658203125,0.7811994770407676,-0.358929758015275,-0.31091592442002147
1788965064585749500,12.02774951171875,0.09182079008519649,-0.462972900813818,0.42013928286805746
1788965064595751400,12.03775146484375,-0.7023597490817308,-0.08864157552719115,1.03510131900385
1788965064605754600,12.047754638671876,-0.8413818508028984,0.1561433323919773,1.0164603314198553
1788965064615757600,12.057757568359374,-0.7033136888056993,-0.30252924087941646,0.3302167641522363
1788965064625759500,12.067759521484374,-0.4242857350230217,-0.3513181139677763,-0.2147967978200875
1788965064635762400,12.077762451171875,0.21776187643706799,0.7823433863788842,-0.09440762824062257
1788965064645764600,12.0877646484375,1.0743412963718175,2.0769857222765684,-0.015981988374656066
1788965064655767600,12.097767578125,2.1288491805046794,2.5062802253723144,-0.07520594716710038
1788965064665770500,12.1077705078125,2.8189228639870882,2.0621382817566394,-0.2511175815394148
1788965064675772700,12.117772705078124,2.703988324818015,1.507170987856388,-0.6533171204280108
1788965064685775600,12.127775634765625,1.980880971261859,0.8930237752348184,-0.9024528439678251
1788965064695777500,12.137777587890625,1.0038000256806612,0.40760757194459435,-0.7713147734947502
1788965064705780500,12.147780517578125,-0.007765373304486275,0.1696627391785383,-0.4217011984225362
1788965064715783700,12.15778369140625,-0.5737590881317853,0.2625081961363554,-0.02719446079256013
1788965064725785600,12.16778564453125,-0.4334188895493746,0.7715016743689775,0.2701053550007753
1788965064735788500,12.17778857421875,0.08706102833747863,1.2356412808746098,0.2550963489772752
1788965064745790500,12.18779052734375,0.5682534764528274,1.4588713595896958,-0.08409841567222029
1788965064755793700,12.197793701171875,0.8790589627683162,1.5604378831416368,-0.47413635559137907
1788965064765796600,12.207796630859375,0.9979536377400159,1.5430863508462904,-0.9210975578788667
1788965064775798500,12.217798583984376,0.9744903445661067,1.4303659805953501,-1.334844290165603
1788965064785801700,12.2278017578125,0.8022755828171968,1.2692214789152145,-1.5243483326286076
1788965064795803600,12.2378037109375,0.5373275923132896,0.887707548648119,-1.5445342115670442
1788965064805806600,12.247806640625,0.14357377367615698,0.4358130912095308,-1.420954447519034
1788965064815809500,12.2578095703125,-0.3541623974829912,-0.09393559028208255,-1.4020429724305867
1788965064825811700,12.267811767578126,-0.7841782005906105,-0.33942075542509553,-1.4304292550899087
1788965064835814400,12.277814453125,-0.8872773405373096,-0.4015799822181463,-1.3776751316323876
1788965064845816600,12.287816650390624,-0.9553484217226504,-0.5103928236365318,-1.0560668040126562
1788965064855819500,12.297819580078125,-1.0108861845493315,-0.8542553609013557,-0.652900283255428
1788965064865822500,12.307822509765625,-0.9950959102213383,-1.126157992848754,-0.3180482970505953
1788965064875824400,12.317824462890625,-0.8243348544120788,-1.3458593129158019,-0.12397285501882434
1788965064885827600,12.32782763671875,-0.5291150597631931,-1.4862830981284378,-0.09872384747192263
1788965064895829500,12.33782958984375,-0.647733255881071,-1.4812684848368167,-0.005950578967481851
1788965064905832400,12.34783251953125,-1.1525929953098297,-1.3053040151655673,0.09845496740266681
1788965064915835600,12.357835693359375,-1.7688544236063957,-1.1052052211910486,0.11199234823733567
1788965064925837600,12.367837646484375,-2.1641145551532506,-0.8760498440802097,0.08270056810565292
1788965064935840500,12.377840576171875,-2.3096610902070998,-0.6101122580170631,-0.17460479869060216
1788965064945843500,12.387843505859376,-2.1734265733778475,-0.31705899375230073,-0.5644319088706746
1788965064955845600,12.397845703125,-1.7440841394871471,0.00663578475266695,-0.7934336663223802
1788965064965848300,12.407848388671875,-1.1751274832010268,0.3474856961980462,-0.8937011630397289
1788965064975850500,12.4178505859375,-0.5444833092868328,0.7266404961183667,-0.8296295998193323
1788965064985853400,12.427853515625,-0.08729834422469139,1.0249304919928313,-0.5881171376995742
1788965064995855600,12.437855712890626,0.06568973900675773,1.1841069084703921,-0.33393092583715916
1788965065005858600,12.447858642578124,-0.02412847908437252,1.0909393799513578,-0.04562412544712424
1788965065015861500,12.457861572265625,-0.027076222974061964,0.8254355091303587,0.09921309229359031
1788965065025863700,12.46786376953125,-0.16417057150304318,0.3453510222569108,0.11381576427221297
1788965065035866600,12.47786669921875,-0.5360638559877872,-0.17242285154163836,0.2679462955370545
1788965065045869600,12.48786962890625,-0.9878671280115843,-0.7247796706825494,0.6107359428733586
1788965065055871500,12.49787158203125,-1.247107262262702,-1.2411384169861674,1.0128720976695418
1788965065065874700,12.507874755859374,-1.2567781769275665,-1.614567532736063,1.3266983931109309
1788965065075876400,12.51787646484375,-1.1033628081947564,-1.8866762086495756,1.361568046440184
1788965065085879600,12.527879638671875,-0.6848503958761691,-2.1648069213315844,1.7638360109224915
1788965065095882800,12.5378828125,-0.5995780045211315,-2.4534435381978748,2.136192821265757
1788965065105884700,12.547884765625,-0.48735623144209383,-2.546972885766625,2.0638260887131095
