time,seconds_elapsed,z,y,x
1788965052600863000,0.042863037109375,9.152284758758544,3.423708374023437,0.37454292221069335
1788965052610865200,0.052865234375,9.336787924194335,3.385550785064697,0.37140053253173827
1788965052620867000,0.0628671875,9.371204573059082,3.435978657531738,0.17028759307861327
1788965052630870000,0.0728701171875,9.191938723754882,3.3749265151977537,0.2018611274719238
1788965052640872000,0.082871826171875,9.0144685256958,3.258059546661377,0.1331774673461914
1788965052650873900,0.092873779296875,8.773851258850097,3.1949124778747557,0.20949264526367187
1788965052660877000,0.102876953125,8.323890984344482,3.1358056243896484,0.3913023338317871
1788965052670879200,0.112879150390625,7.698854713439941,3.142838591766357,0.3298012786865234
1788965052680881000,0.122880859375,7.38656103439331,3.125181354522705,0.19093758239746092
1788965052690882800,0.1328828125,7.383418644714355,3.1578023521423337,0.1031003089904785
1788965052700886000,0.142885986328125,8.08252552947998,3.4983775382995606,-0.5475239921569824
1788965052710888000,0.152887939453125,9.636661682128906,3.8697780708312988,-0.620547142791748
1788965052720890000,0.16289013671875,10.34983450164795,3.8338650459289547,-0.9578303016662597
1788965052730892000,0.17289208984375,10.537480056762695,3.7152024261474605,-1.6707038459777832
1788965052740895000,0.18289501953125,10.580575686645508,3.6358944961547848,-1.412279704284668
1788965052750897000,0.19289697265625,10.288333446502685,3.183988932800293,-1.5110405227661132
1788965052760899000,0.202899169921875,10.761188274383544,3.246986363983154,-1.5351321769714354
1788965052770901000,0.21290087890625,12.182595872497558,3.7383962547302243,-1.2669815910339355
1788965052780904000,0.222904052734375,13.434314427947998,4.046500080871581,-1.6907552848815917
1788965052790905900,0.23290576171875,13.533673796844482,3.3348236373901363,-3.5570354789733885
1788965052800908000,0.242907958984375,12.030713704681396,2.89219560546875,-5.083488674926757
1788965052810911000,0.252910888671875,9.361927041625975,3.538181140899658,-4.154388793182373
1788965052820913200,0.2629130859375,9.422230995941161,4.484938259887695,-3.053654579925537
1788965052830915000,0.2729150390625,9.113528619384764,3.1967081291198727,-4.442890093231201
1788965052840917000,0.2829169921875,7.605780123901367,2.726696415710449,-6.184671800994873
1788965052850920000,0.292919921875,4.703558798980713,3.921851956939697,-7.511358795928954
1788965052860922000,0.302922119140625,-1.2606968116760253,6.554575957489013,-6.3712698928833005
1788965052870924000,0.312924072265625,1.4317325927734375,6.742371150207519,-6.315754341888427
1788965052880926000,0.322926025390625,4.667496136474609,6.025457390594482,-5.976675531768798
1788965052890929000,0.332928955078125,5.5644239334106445,5.799953521728515,-6.883928323364257
1788965052900931000,0.34293115234375,6.5628060256958,5.5641246582031245,-5.8349687210083
1788965052910933000,0.35293310546875,4.450371973419189,4.128501487731933,-4.431816910552978
1788965052920936200,0.362936279296875,0.03456628646850586,2.508375151824951,-3.416825044250488
1788965052930938000,0.372938232421875,-0.4843769233703613,2.2849662094116208,-1.386093123626709
1788965052940939800,0.382939697265625,-0.4748001167297363,2.2918495391845704,-0.5820902786254882
1788965052950942000,0.39294189453125,0.057610477447509766,2.3249194496154786,-1.258302610015869
1788965052960945000,0.40294482421875,0.7802104660034179,2.430563597869873,-3.402010921478271
1788965052970947000,0.412947021484375,2.440888592529297,2.383278115081787,-5.4506993545532225
1788965052980949000,0.422948974609375,3.9715316413879393,2.176329309082031,-6.433818411254882
1788965052990952000,0.432951904296875,4.490774126434326,1.3201029403686522,-6.88213267211914
1788965053000953900,0.442953857421875,5.046528186798096,0.4950011932373047,-6.957400386810303
1788965053010956000,0.4529560546875,4.378695561218262,0.11896189498901366,-7.175272737884521
1788965053020958000,0.4629580078125,3.371784125518799,0.0953191535949707,-7.587823611450195
1788965053030961200,0.472961181640625,3.0582933456420895,0.3983353012084961,-8.259995727539062
1788965053040962800,0.482962890625,2.9040169761657713,0.8643067993164062,-8.78432589111328
1788965053050965000,0.492965087890625,2.5807997520446775,1.21296241607666,-8.668207110595702
1788965053060968000,0.502968017578125,2.281823819732666,1.4989198768615721,-7.800458646392822
1788965053070970000,0.51297021484375,1.7886182777404784,1.608155327606201,-6.7562874473571775
1788965053080972000,0.522971923828125,1.25126964263916,1.130661734008789,-6.300341668701171
1788965053090975000,0.53297509765625,0.9032125762939452,0.044592005920410155,-6.944381915283203
1788965053100977000,0.542976806640625,0.2941875289916992,-0.6980594215393066,-8.240842114257813
1788965053110979800,0.552979736328125,-0.6839934867858887,-1.2919710708618164,-9.714024323272705
1788965053120981800,0.562981689453125,-1.4278420150756834,-2.0202572883605954,-11.240028606414795
1788965053130984700,0.572984619140625,-2.1251532485961913,-3.0728081932067868,-12.72997022705078
1788965053140986600,0.582986572265625,-2.677764919281006,-4.001010249328613,-13.999495657348632
1788965053150988800,0.59298876953125,-2.8848633628845213,-4.816684827423096,-15.066711047363281
1788965053160992000,0.602991943359375,-2.710685192108154,-4.863521397399902,-15.940594653320312
1788965053170994000,0.612993896484375,-1.9119196632385254,-3.282001563262939,-16.546776586151122
1788965053180995600,0.62299560546875,-0.03142389678955078,-1.2657844902038573,-16.79098515548706
1788965053190997800,0.632997802734375,2.073079362487793,0.18719664230346678,-16.44517265319824
1788965053201000700,0.643000732421875,4.056376162719726,1.3290811965942382,-15.838092894744872
1788965053211003000,0.6530029296875,5.512499684906006,1.433827519226074,-15.062221919250488
1788965053221004800,0.6630048828125,6.928221054077148,1.9202993690490722,-14.235923071289061
1788965053231007700,0.6730078125,7.604583023071289,2.1269488998413086,-13.501800987243652
1788965053241009700,0.683009765625,7.80195502243042,1.2550105827331541,-13.307272102355956
1788965053251011800,0.69301171875,7.611615990447998,0.6189011291503906,-13.31116268005371
1788965053261014800,0.703014892578125,7.386261759185791,0.828693049621582,-13.569586821746825
1788965053271017000,0.713016845703125,7.434594705200195,0.8415618835449218,-13.818134881591796
1788965053281018600,0.7230185546875,7.708581157684326,0.9250596664428711,-13.131298280334471
1788965053291021800,0.733021728515625,7.96116943283081,0.2998737579345703,-11.614272253417967
1788965053301023700,0.743023681640625,7.357232064056396,-0.8670002761840819,-10.569801779174805
1788965053311026000,0.75302587890625,6.271910523986816,-1.448641641998291,-10.410288093566894
1788965053321027800,0.76302783203125,5.345953031921386,-1.9009961181640624,-10.784681378173827
1788965053331030800,0.77303076171875,4.768651156616211,-1.4558242469787597,-11.080963833618164
1788965053341032700,0.78303271484375,4.522646936035156,-1.24498486328125,-11.138424673461913
1788965053351035000,0.793034912109375,4.6353240516662595,-1.3928268157958983,-10.90439146118164
1788965053361037800,0.803037841796875,4.582801252746582,-1.1218331153869627,-10.4065471534729
1788965053371039700,0.813039794921875,4.295646691131592,-0.4677671493530273,-9.881618439483642
1788965053381041700,0.823041748046875,3.919158480072021,-0.36496611557006836,-9.552565348815918
1788965053391044900,0.833044921875,3.254617881774902,-1.2759598472595215,-9.725097505950927
1788965053401046800,0.843046875,2.1779753227233885,-1.9704279663085937,-9.697115274047851
1788965053411049000,0.853049072265625,0.7697358337402344,-1.839345425415039,-9.169792358398437
1788965053421051600,0.8630517578125,-0.4074631950378418,-2.7157728706359863,-8.725967225646972
1788965053431053800,0.8730537109375,-1.123030216217041,-4.159027558898925,-8.862287082672118
1788965053441055700,0.8830556640625,-1.0519523544311522,-4.8506525634765625,-9.118167385101318
1788965053451059000,0.893058837890625,-0.8524854286193847,-5.229534976196288,-8.518120594024658
1788965053461060900,0.903060791015625,-0.6661866119384765,-5.768230349731445,-6.41631081161499
1788965053471062800,0.913062744140625,1.1022305892944335,-4.100070343017578,-6.098031628417968
1788965053481064700,0.923064697265625,2.129642376708984,-3.2040403717041013,-6.1930515068054195
1788965053491068000,0.93306787109375,1.0983400115966797,-2.2979846809387205,-5.666027866363525
1788965053501069800,0.94306982421875,-0.6030395431518555,-0.7728782234191894,-4.428075970458984
1788965053511071700,0.95307177734375,-0.304512523651123,0.6286275733947754,-2.7733833480834957
1788965053521074700,0.96307470703125,1.6877625328063963,0.44801498565673825,-2.59217220993042
1788965053531076900,0.973076904296875,1.7106570861816406,-0.11686696853637694,-4.190601093292236
1788965053541078800,0.983078857421875,0.0017956512451171875,-0.9727940620422363,-6.642862143707275
1788965053551082000,0.99308203125,-1.1737573638916015,-1.9015946685791014,-8.092700886535644
1788965053561084000,1.003083984375,-2.158672071838379,-2.7775732009887695,-8.692747677612305
1788965053571085600,1.01308544921875,-3.28798706741333,-2.8203695556640622,-8.72821178970337
1788965053581088800,1.0230888671875,-3.652504270172119,-1.6689081947326658,-8.452130410766602
1788965053591091000,1.033091064453125,-2.1603180854797364,0.5487210929870605,-7.286004564666747
1788965053601092900,1.0430927734375,0.48931496429443355,2.516006669616699,-6.321590208435058
1788965053611095800,1.053095703125,2.7699416831970214,3.018938655853271,-5.806687213897705
1788965053621097700,1.06309765625,5.862651677703857,3.537432952880859,-5.663932939910889
1788965053631099600,1.073099609375,8.183979824829102,3.8189012855529785,-3.987692502593994
1788965053641102800,1.083102783203125,7.873481797027587,1.0793360359191895,-4.721365673828124
1788965053651104800,1.093104736328125,7.777115180206298,-2.565237441253662,-8.257302250671387
1788965053661107000,1.10310693359375,7.81452458114624,-5.953032790374755,-11.19887826538086
1788965053671110000,1.11310986328125,4.633378762817382,-6.8387377670288085,-13.433266964721678
1788965053681111800,1.12311181640625,-0.30840310134887694,-5.485564916229248,-14.144943408203124
1788965053691113700,1.13311376953125,-4.116829754638672,-6.545747338867187,-14.547169287109375
1788965053701117000,1.143116943359375,-8.810662109374999,-7.80794052658081,-12.893374490356445
1788965053711118600,1.15311865234375,-8.814702324676514,-8.56750100326538,-11.942726793670653
1788965053721120800,1.163120849609375,-5.92445200805664,-9.66673884048462,-10.995371124267578
1788965053731123700,1.173123779296875,-4.962581491088867,-11.43395894088745,-12.162843708801269
1788965053741126000,1.1831259765625,-5.313631309509277,-12.841300604248046,-12.665027507019042
1788965053751127800,1.1931279296875,-6.000318273162842,-12.465710218811035,-11.70779575576782
1788965053761130800,1.203130859375,-6.73563745803833,-12.146533209991455,-9.630376902770996
1788965053771132700,1.213132568359375,-5.782595559692383,-10.523264484405518,-6.5491890037536615
1788965053781134800,1.223134765625,-5.039944132232666,-9.381828842926025,-2.712181568145752
1788965053791137800,1.2331376953125,-5.328894345092773,-7.931541187286377,0.16519991455078123
1788965053801139700,1.2431396484375,-5.091120192718505,-6.499509319305419,0.6001964286804199
1788965053811141600,1.2531416015625,-3.8208465744018554,-4.955847798919677,0.5428852264404297
1788965053821144800,1.263144775390625,-1.8185457984924316,-4.501996946716308,0.8074445098876952
1788965053831146800,1.273146728515625,0.2998737579345703,-5.522226129150391,1.2087725631713866
1788965053841149000,1.28314892578125,1.32144967880249,-6.331466290283203,1.368735161590576
1788965053851151600,1.293151611328125,1.788319002532959,-6.1656678253173824,0.8737339683532714
1788965053861153800,1.30315380859375,2.8357822288513184,-6.057030924987792,-0.2967313682556152
1788965053871155700,1.31315576171875,4.069693909454346,-7.241262921142578,-1.3078326568603516
1788965053881159000,1.323158935546875,5.124040465545654,-8.710255277252196,-1.7528548904418944
1788965053891160800,1.333160888671875,5.064185424041748,-8.882787434387206,-1.470339094543457
1788965053901162800,1.343162841796875,4.171597117614746,-9.075071755218506,-1.5285481224060058
1788965053911165700,1.353165771484375,4.078223252868652,-10.906636025238036,-2.5463831031799313
1788965053921793800,1.363793701171875,5.854720884704589,-13.382988729858397,-3.4029087471008297
1788965053931795700,1.373795654296875,7.0473325866699215,-14.673912337493896,-4.804863456726074
1788965053941797600,1.383797607421875,8.679878843688964,-16.04369496231079,-6.703166098022461
1788965053951800800,1.39380078125,10.792612171173095,-16.398934633636475,-9.18640213241577
1788965053961802800,1.403802734375,11.58733748474121,-16.318878515625,-12.061239775848389
1788965053971805000,1.413804931640625,13.034183475494384,-16.05820980987549,-14.698452904510496
1788965053981807600,1.4238076171875,13.430723125457764,-14.26944189453125,-15.165771141052245
1788965053991809800,1.433809814453125,12.641983316040038,-10.7773491355896,-13.543250603485106
1788965054001812700,1.443812744140625,11.379790128326416,-8.516025667572022,-11.232546726226806
1788965054011815000,1.45381494140625,9.731980835723876,-7.268646602630615,-9.079411245727538
1788965054021816800,1.46381689453125,7.826645227050781,-6.434716236877441,-7.670573206329346
1788965054031819800,1.47381982421875,6.880337020874023,-5.514893886566162,-7.409455587768554
1788965054041821700,1.48382177734375,6.475866577911376,-4.655824403381347,-7.256974869537353
1788965054051823900,1.493823974609375,5.87357522277832,-4.656871866607665,-5.891232460021972
1788965054061826800,1.503826904296875,4.657021504211426,-4.922927526092529,-4.16890364074707
1788965054071828700,1.513828857421875,2.7575217620849606,-4.123713084411621,-3.4473511154174803
1788965054081830700,1.52383056640625,0.5930138236999511,-2.9095535675048825,-3.8757635749816894
1788965054091833900,1.533833740234375,-0.3972878379821777,-1.92164610748291,-4.974253224182129
1788965054101835800,1.543835693359375,-0.15637129592895507,-1.0019733947753906,-6.189310566711425
1788965054111836700,1.553836669921875,0.8532336166381835,-0.24091654205322263,-6.523451335906982
1788965054121839900,1.56383984375,2.2336405113220215,0.01945288848876953,-4.869656539154052
1788965054131841500,1.573841552734375,2.908655741882324,-0.2501940734863281,-2.7207109115600585
1788965054141844700,1.5838447265625,1.8740613494873046,-1.3045406295776367,-1.6730980476379393
1788965054151846700,1.5938466796875,0.18749591751098632,-3.03270531539917,-2.701856573486328
1788965054161848800,1.603848876953125,-1.38549457321167,-4.659565343475341,-4.397699536895752
1788965054171851800,1.613851806640625,-1.8767548263549803,-6.905176863098144,-6.670395462799072
1788965054181853700,1.623853759765625,-1.1950059036254883,-9.862764101409912,-10.054300234222412
1788965054191855600,1.633855712890625,1.000477018737793,-12.39238779296875,-13.900884476470946
1788965054201858800,1.64385888671875,4.074183037567138,-13.68196466217041,-16.282516577911377
1788965054211860700,1.65386083984375,6.871358764648437,-13.703063564300537,-15.995062741088866
1788965054221863700,1.66386376953125,7.907449533081055,-12.035502108001708,-14.809633644104004
1788965054231865600,1.673865478515625,7.908796271514892,-9.280823460388183,-13.218836278533935
1788965054241867800,1.68386767578125,7.723993830871581,-7.573009488677978,-10.625616605377196
1788965054251871000,1.69387109375,7.235726329803466,-6.7094508773803705,-6.8692638381958
1788965054261873000,1.703872802734375,5.563675745391845,-5.490054044342041,-2.379387537384033
1788965054271874600,1.71387451171875,3.381211294555664,-3.901501242828369,1.5508441253662109
1788965054281877800,1.723877685546875,1.737292579650879,-2.798821740722656,4.169801466369629
1788965054291879700,1.733879638671875,0.9498995086669921,-2.1691467041015624,5.876418337249755
1788965054301881900,1.7438818359375,1.2119149528503417,-1.530343773651123,6.466589046478271
1788965054311884500,1.753884521484375,2.0513819099426267,-1.0904092185974121,6.544250962829589
1788965054321886700,1.76388671875,2.9982886665344237,-0.8370727554321289,6.1453171112060545
1788965054331890000,1.773889892578125,3.7898715904235836,-1.0393827957153319,5.60557427444458
1788965054341891800,1.783891845703125,4.224419191741943,-2.3689129051208493,4.293252489471436
1788965054351893800,1.793893798828125,5.008370597839355,-5.7146600875854485,-0.27353753967285155
1788965054361896700,1.803896728515625,5.575497116088867,-10.14498062210083,-8.715791868591308
1788965054371898600,1.813898681640625,4.161272122955322,-12.816311124420166,-16.646584867858884
1788965054381901800,1.82390185546875,0.4982932205200195,-9.68529390335083,-13.503895913696288
1788965054391903700,1.83390380859375,-0.09546879119873046,-8.21031604309082,-10.704176347351073
1788965054401905700,1.84390576171875,4.077325427246094,-10.554538743591309,-9.664344638824462
1788965054411908900,1.853908935546875,9.82580361328125,-12.658742727661132,-6.449530359649658
1788965054421910800,1.863910888671875,16.27308940887451,-14.504073657226561,-5.748178910827637
1788965054431912700,1.87391259765625,6.6343328002929685,-14.01386086730957,-5.334281298828125
1788965054441915600,1.88391552734375,-0.14649521408081054,-12.534842791748046,-5.282357050323486
1788965054451917600,1.89391748046875,3.838803086853027,-10.796652386474609,-5.4236149482727045
1788965054461920800,1.903920654296875,7.702296378326416,-10.48361051940918,-6.144868198394775
1788965054471923000,1.9139228515625,4.957493812561035,-9.099911597442626,-5.080944835662842
1788965054481924900,1.9239248046875,3.6854245429992676,-8.495076403045653,-4.128800762939453
1788965054491927800,1.933927734375,5.022735807800292,-9.098415221405029,-4.912752169036865
1788965054501929700,1.9439296875,4.745307690429687,-12.17466507949829,-5.9485436622619625
1788965054511933000,1.953932861328125,3.829974468231201,-12.531700402069092,-5.027374573516846
1788965054521934800,1.963934814453125,3.7633857345581054,-11.187206532287597,-4.051438121795654
1788965054531936800,1.973936767578125,4.907664490509033,-8.782979152679443,-2.8495488883972167
1788965054541939700,1.983939697265625,6.053888535308838,-6.772897221374511,-1.591695191192627
1788965054551942000,1.99394189453125,5.01779776687622,-6.318747093963623,-1.3102268585205077
1788965054561944800,2.00394482421875,3.7210382926940917,-6.10970336151123,-2.0040964271545407
1788965054571946800,2.01394677734375,3.1578023521423337,-5.3570262145996095,-2.743306189727783
1788965054581948700,2.02394873046875,3.151816847991943,-5.346401944732666,-3.010708587646484
1788965054591952000,2.033951904296875,2.57930337600708,-5.716156463623046,-3.5754409042358395
1788965054601953800,2.043953857421875,2.020107650756836,-6.2675710334777825,-3.9802106224060054
1788965054611956700,2.053956787109375,4.1088989616394045,-7.217171266937256,-3.7484219741821287
1788965054621958700,2.063958740234375,2.773233710479736,-7.753173163604736,-3.8518215583801267
1788965054631960800,2.0739609375,1.9372084182739258,-8.403498189544678,-4.001010249328613
1788965054641963800,2.0839638671875,2.724900764465332,-9.297133959197998,-4.143016335296631
1788965054651966000,2.093966064453125,2.849997801208496,-10.16323640975952,-4.496460355377197
1788965054661968600,2.10396875,3.5142391242980957,-9.926210445404053,-4.446331758117675
1788965054671970800,2.113970703125,3.0373440811157226,-9.121908325195312,-3.736899878692627
1788965054681972700,2.12397265625,3.0838813758850097,-8.285583757781982,-3.133561060333252
1788965054691976000,2.133975830078125,2.632724000549316,-9.012373599243164,-1.3682862487792968
1788965054701977900,2.143977783203125,2.339434297180176,-9.315389746856688,-1.1520599113464354
1788965054711980800,2.153980712890625,2.608632346343994,-9.876979673767089,-1.541716231536865
1788965054721982700,2.163982666015625,2.9331963088989257,-10.284592506408691,-1.8564041122436523
1788965054731985000,2.17398486328125,2.456600540924072,-10.436025761413573,-2.0712837112426756
1788965054741987600,2.183987548828125,2.6095301719665525,-9.408314698791504,-1.9009961181640624
1788965054751989800,2.19398974609375,2.3808839134216306,-8.822483480072021,-1.9946692581176757
1788965054761992700,2.20399267578125,2.869749964904785,-8.961047901153563,-2.4913164649963377
1788965054771995000,2.213994873046875,2.5189994216918943,-9.204957195281981,-2.4564509033203126
1788965054781997600,2.22399755859375,2.5118168167114256,-9.368810371398926,-2.7090391784667966
1788965054791999700,2.233999755859375,2.5585037490844726,-9.407416873168945,-2.7570728492736816
1788965054802001700,2.244001708984375,2.4545056144714352,-9.622895022583007,-2.5782559127807616
1788965054812004900,2.2540048828125,2.517503045654297,-9.642647186279296,-2.6234464691162107
1788965054822006800,2.2640068359375,2.6288334228515624,-9.226205735015869,-2.778620664215088
1788965054832009700,2.274009765625,2.5754127983093262,-8.932467118835449,-2.702455123901367
1788965054842011600,2.28401171875,2.7998692039489743,-8.93216784362793,-2.7808652282714843
1788965054852013800,2.294013916015625,2.561945413970947,-9.07821414489746,-2.921075662994385
1788965054862016800,2.304016845703125,2.546083827972412,-9.067140962219238,-2.9019220497131344
1788965054872018700,2.314018798828125,2.694823606109619,-8.785672629547118,-2.7920880485534667
1788965054882021600,2.324021728515625,2.6197055290222164,-8.753500544738769,-2.8850130004882812
1788965054892023800,2.33402392578125,2.488024437713623,-8.662371244049071,-2.9701567970275877
1788965054902026800,2.34402685546875,2.687192088317871,-8.426243105316162,-3.1114146949768067
1788965054912028700,2.354028564453125,2.6617536956787107,-8.444349255371094,-3.182043643951416
1788965054922030600,2.364030517578125,2.2403742034912106,-8.467842359161377,-2.7693431327819824
1788965054932033800,2.37403369140625,2.5769091743469237,-8.65758284072876,-2.972401361083984
1788965054942035700,2.38403564453125,2.9146412460327147,-9.38467195739746,-3.358616016387939
1788965054952038700,2.39403857421875,2.8095956481933593,-9.879972425842285,-3.7186440910339353
1788965054962040600,2.40404052734375,2.5163059448242184,-9.665541739654541,-3.4687492927551267
1788965054972042800,2.414042724609375,2.996343377685547,-9.380332466888428,-3.414281204986572
1788965054982045700,2.424045654296875,2.895786907958984,-9.07836378250122,-3.2947207595825194
1788965054992047900,2.4340478515625,2.60474176864624,-8.890269314575194,-3.2588077346801754
1788965055002050600,2.444050537109375,2.7353753967285153,-8.67568899078369,-3.2609026611328122
1788965055012052700,2.454052734375,2.680009483337402,-8.583362589263915,-3.1878795104980466
1788965055022056000,2.464055908203125,2.371606381988525,-8.062773365783691,-3.422511273193359
1788965055032057900,2.474057861328125,2.178873148345947,-7.669376105499267,-3.4534862571716305
1788965055042059800,2.484059814453125,2.2499510101318356,-7.914033587646484,-3.535487664031982
1788965055052062700,2.494062744140625,2.3220763351440428,-8.099584216308592,-3.724031044769287
1788965055062064600,2.504064697265625,2.300378882598877,-8.568847741699217,-3.6851252677917476
1788965055072067800,2.51406787109375,2.286911498260498,-8.569745567321776,-3.5329438247680662
1788965055082069800,2.52406982421875,3.7491701622009277,-8.207323291015625,-3.423708374023437
1788965055092072700,2.53407275390625,4.501697671508789,-8.552686880493164,-3.3330279861450194
1788965055102075000,2.544074951171875,3.8066310020446776,-8.846126221466063,-3.3864486106872556
1788965055112078000,2.554078125,3.2158617424011227,-8.762179525756835,-3.642179275512695
1788965055122080300,2.564080322265625,2.7896938468933103,-8.973916735076903,-3.554042726898193
1788965055132082200,2.574082275390625,2.7775732009887695,-8.859892881011962,-3.2606033859252928
1788965055142085400,2.58408544921875,2.627037771606445,-8.641421979522704,-3.1467291694641113
1788965055152087300,2.59408740234375,2.851194902038574,-8.447790920257567,-3.201795807647705
1788965055162090200,2.60409033203125,3.0515596534729004,-8.315810553741455,-3.197905229949951
1788965055172092200,2.614092041015625,3.151966485595703,-8.231714220428467,-3.2225954345703123
1788965055182095400,2.624095458984375,3.0856770271301266,-8.271517823028564,-3.1199440383911132
1788965055192097300,2.63409716796875,2.9414263771057128,-8.24188957748413,-2.82830034866333
1788965055202099200,2.64409912109375,2.906860090637207,-8.141782020568847,-2.5986066268920895
1788965055212102400,2.654102294921875,2.870498152923584,-8.253561310577393,-2.7659014678955076
1788965055222104300,2.664104248046875,2.664297534942627,-8.315511278533934,-2.9022213249206543
1788965055232107500,2.674107421875,2.4766519798278805,-8.207622566223144,-2.9746459251403805
1788965055242109200,2.684109130859375,2.2698528114318846,-8.238747187805176,-3.05185892868042
1788965055252112400,2.6941123046875,1.9750667320251463,-8.445247080993651,-3.1777041534423827
1788965055262114300,2.7041142578125,1.8445827415466307,-8.913762418365478,-3.63888724822998
1788965055272117500,2.714117431640625,2.192789445495605,-9.28920316619873,-3.9311294883728025
1788965055282119200,2.724119140625,2.0644003814697265,-9.275137231445312,-3.8518215583801267
1788965055292121300,2.734121337890625,2.03671742477417,-9.20016879196167,-3.850325182342529
1788965055302124300,2.744124267578125,2.333299155426025,-9.189694159698485,-4.021061688232422
1788965055312126500,2.75412646484375,2.235885075378418,-8.622567641448974,-3.630657180023193
1788965055322129200,2.764129150390625,2.1480478019714355,-8.26747760772705,-3.6912604095458983
1788965055332131300,2.77413134765625,2.395548398590088,-8.495076403045653,-4.155136981201172
1788965055342134300,2.78413427734375,2.268954985809326,-8.779986400604248,-4.402188665008545
1788965055352136400,2.794136474609375,2.532616443634033,-9.086444213104247,-4.8898576156616205
1788965055362139100,2.80413916015625,2.3292589401245114,-9.121609049987793,-4.849754737854004
1788965055372141300,2.814141357421875,2.0471920570373534,-8.928426903533936,-4.556165759277343
1788965055382143200,2.824143310546875,1.9617489852905272,-8.812607398223877,-4.297591979980469
1788965055392146400,2.834146484375,1.7353472908020018,-8.744073375701904,-4.069843547058105
1788965055402148400,2.8441484375,1.9590555084228514,-8.801983128356934,-3.6960488128662106
1788965055412151300,2.8541513671875,1.862988166809082,-8.838195428466797,-3.1337106979370115
1788965055422153200,2.8641533203125,2.0040964271545407,-9.003395343017578,-2.971653173065185
1788965055432156400,2.874156494140625,2.211943058776855,-9.099462684631348,-2.976591213989258
1788965055442158300,2.884158447265625,2.4440309822082518,-9.126098178100586,-3.115005997467041
1788965055452161300,2.894161376953125,2.7596166885375975,-9.269151727294922,-3.4585739356994627
1788965055462163200,2.9041630859375,3.1299697578430172,-9.472509230804443,-3.630058629608154
1788965055472166400,2.91416650390625,3.1579519897460937,-9.54463455581665,-3.7741596420288084
1788965055482168300,2.924168212890625,3.0735563812255857,-9.511714282989502,-3.7811926094055175
1788965055492170200,2.934170166015625,3.0163948165893553,-9.488370816802979,-4.001309524536133
1788965055502173200,2.944173095703125,2.7181670722961426,-9.57695627822876,-4.472368701171875
1788965055512175400,2.95417529296875,2.53456173248291,-9.51261210861206,-4.66659831085205
1788965055522178300,2.96417822265625,2.4779987182617185,-9.185354669189453,-4.518756358337402
1788965055532180200,2.97418017578125,2.403628829193115,-8.623914379882812,-4.262576780700683
1788965055542183400,2.984183349609375,2.1052514472961423,-8.02566324005127,-4.253299249267578
1788965055552185300,2.994185302734375,2.111985139465332,-7.589469625091552,-3.731363287353515
1788965055562188300,3.004188232421875,2.221819140625,-7.297825935363769,-3.2713772933959957
1788965055572190200,3.014190185546875,2.4179940391540526,-7.222109307861328,-2.869151414489746
1788965055582193400,3.024193359375,2.5974095260620116,-7.363516843414306,-2.5938182235717773
1788965055592195300,3.0341953125,2.848501425170898,-7.728183683776855,-2.5471312911987303
1788965055602198300,3.0441982421875,2.9673136825561524,-8.155399042510986,-2.640056243133545
1788965055612200200,3.0542001953125,2.999785042572021,-8.57348650741577,-2.7563246612548826
1788965055622202400,3.064202392578125,3.005022358703613,-9.024643882751464,-2.9568390502929685
1788965055632205300,3.074205322265625,3.0672716018676756,-9.478345097351074,-3.265691064453125
1788965055642207500,3.08420751953125,2.842216645812988,-9.685742816162108,-3.3355718254089353
1788965055652210200,3.094210205078125,2.618209152984619,-9.660603698730467,-3.4570775596618653
1788965055662212400,3.10421240234375,2.385971591949463,-9.318532136535644,-3.379415643310547
1788965055672215300,3.11421533203125,2.198774949645996,-8.821884929656981,-3.283946852111816
1788965055682217500,3.124217529296875,2.3413795860290527,-8.373121755981446,-2.976291938781738
1788965055692220200,3.13422021484375,2.4908675521850583,-8.032696207427978,-2.5623943267822265
1788965055702222300,3.144222412109375,2.574215697479248,-7.924807495117187,-2.231096672058105
1788965055712225300,3.154225341796875,2.459892568206787,-7.907000620269775,-1.9898808547973632
1788965055722227500,3.1642275390625,2.3982418754577637,-8.028207079315186,-1.890371848297119
1788965055732230100,3.174230224609375,2.250998473358154,-8.28034644165039,-1.890970398712158
1788965055742232300,3.184232421875,2.2010195137023922,-8.626757494354248,-1.8873790962219237
1788965055752234200,3.194234130859375,2.3431752372741697,-9.203161544036865,-1.8245313026428223
1788965055762237200,3.2042373046875,2.44507844543457,-9.73661960144043,-1.6793828269958495
1788965055772239000,3.214239013671875,2.6222493682861328,-10.124330632781982,-1.4279916526794432
1788965055782242300,3.2242421875,2.6556185539245605,-10.322600457763672,-1.102529864501953
1788965055792244200,3.234244140625,2.517353408050537,-10.360009858703613,-1.6563386360168455
1788965055802247200,3.2442470703125,2.7705402336120604,-10.455927562713622,-2.6039935806274412
1788965055812249000,3.2542490234375,2.8291981742858887,-10.24658455505371,-2.5172037704467773
1788965055822252300,3.264252197265625,2.650231600189209,-9.92172131729126,-2.2819734573364254
1788965055832254500,3.27425439453125,2.6529250770568846,-9.743802206420899,-2.248304996490478
1788965055842257200,3.284257080078125,2.7632079910278318,-9.54448491821289,-2.0917840629577635
1788965055852259300,3.29425927734375,2.7762264625549316,-9.25029738922119,-1.8528128097534178
1788965055862262300,3.30426220703125,2.656666017150879,-9.075071755218506,-1.5078981330871581
1788965055872264400,3.314264404296875,2.4539070640563962,-8.937405159759521,-1.2454337760925291
1788965055882267100,3.32426708984375,2.2213702278137206,-9.024045332336426,-1.0940005210876464
1788965055892269300,3.334269287109375,1.9635446365356444,-9.089586602783202,-0.936581761932373
1788965055902272300,3.344272216796875,1.805527326965332,-9.274688318634032,-0.7166144844055176
1788965055912274400,3.3542744140625,1.8171990600585937,-9.376292251586914,-0.5927145484924317
1788965055922277000,3.364277099609375,1.8715175102233885,-9.366565807342528,-0.5125087928771972
1788965055932279300,3.374279296875,2.0397101768493653,-9.497498710632323,-0.6304232246398925
1788965055942282200,3.3842822265625,2.467673723602295,-9.648183777618408,-0.8315361640930176
1788965055952284400,3.394284423828125,2.8712463409423825,-9.656713121032714,-0.9065046035766601
1788965055962287000,3.404287109375,3.178153066253662,-9.482534950256348,-0.9620201545715331
1788965055972289300,3.414289306640625,3.3750761528015136,-9.118765935516358,-0.8999205490112304
1788965055982291200,3.424291259765625,3.0741549316406247,-8.792406321716308,-0.5330091445922851
1788965055992294400,3.43429443359375,2.4500164863586424,-8.491934013366699,-0.08215104446411133
1788965056002297300,3.44429736328125,2.126350349426269,-8.285583757781982,0.26381109542846676
1788965056012299300,3.45429931640625,2.0569185012817384,-8.192958081054687,0.7152677459716796
1788965056022301200,3.46430126953125,2.1646575759887696,-8.341398583984375,1.1061211669921875
1788965056032304400,3.474304443359375,2.365471240234375,-8.730157078552246,1.424849263000488
1788965056042306300,3.484306396484375,2.27927998046875,-9.082403997802734,1.615936483001709
1788965056052309200,3.494309326171875,2.0515315475463867,-9.360281027984618,1.8498200576782224
1788965056062311400,3.5043115234375,2.2411223915100096,-9.681552963256836,1.8510171585083006
1788965056072314400,3.514314453125,2.653224352264404,-10.041431400299071,1.5869067878723144
1788965056082316300,3.52431640625,3.130119395446777,-10.44380691680908,1.3289315589904784
1788965056092319200,3.5343193359375,3.0666730514526366,-10.63040500869751,1.282693539428711
1788965056102321400,3.5443212890625,2.717718159484863,-10.546757588195801,1.5099930595397948
1788965056112323800,3.55432373046875,2.1965303855895995,-10.190769728851318,1.7871219017028808
1788965056122325800,3.56432568359375,2.268805348205566,-9.739911628723144,1.9431939224243162
1788965056132328700,3.57432861328125,2.3912089080810546,-9.348310019683836,2.189198143005371
1788965056142330600,3.58433056640625,2.264016944885254,-9.259425283050536,2.2822727325439454
1788965056152333800,3.594333740234375,2.101660144805908,-9.150189832305907,2.3344962562561036
1788965056162336000,3.6043359375,1.9589058708190916,-8.752153806304932,2.4657284347534176
1788965056172338700,3.614338623046875,2.205059729003906,-8.718335707855225,2.23468797454834
1788965056182340900,3.6243408203125,2.4534581512451172,-9.043647858428955,2.0992659431457517
1788965056192343800,3.63434375,2.4851813232421875,-9.445574462127684,2.301725621032715
1788965056202345700,3.644345703125,2.4646809715270996,-9.80066449584961,2.4947581298828125
1788965056212348700,3.6543486328125,2.34960965423584,-9.833285493469237,2.5363573837280273
1788965056222350800,3.664350830078125,2.352003855895996,-9.665990652465819,2.7884967460632324
1788965056232353800,3.674353759765625,2.3657705154418944,-9.535506661987304,3.126378455352783
1788965056242355700,3.684355712890625,2.3329998802185057,-9.330952057647705,3.3258453811645508
1788965056252358700,3.694358642578125,2.146401788330078,-8.956858048248291,3.1952117530822752
1788965056262360800,3.70436083984375,2.5082255142211913,-9.197325677490234,2.636165665435791
1788965056272363800,3.71436376953125,2.560598675537109,-9.405172309112547,2.3671172538757324
1788965056282365700,3.72436572265625,2.3220763351440428,-9.164106129455567,2.4733599525451657
1788965056292368600,3.73436865234375,2.0335750350952146,-8.911218579101561,2.9604303527832028
1788965056302370800,3.744370849609375,1.993771432495117,-8.910021478271483,3.443759812927246
1788965056312373800,3.754373779296875,2.4883237129211424,-9.224559721374511,3.4849101539611813
1788965056322375700,3.764375732421875,2.4358009140014647,-9.171288734436034,3.295618585205078
1788965056332379000,3.77437890625,2.3879168807983397,-9.25762963180542,3.0666730514526366
1788965056342380800,3.784380859375,2.5067291381835934,-9.349357482910156,3.0960020217895505
1788965056352383700,3.7943837890625,2.536058108520508,-9.392004199981688,3.3714848503112793
1788965056362385700,3.8043857421875,2.618358790588379,-9.433603453826903,3.2644939636230466
1788965056372388900,3.814388916015625,2.6765678184509274,-9.356689725494384,3.2044892845153807
1788965056382390800,3.824390869140625,2.6732757911682126,-9.354445161437988,3.1485248207092282
1788965056392393700,3.834393798828125,2.5438392639160154,-9.325565103912353,3.0793922477722164
1788965056402395600,3.844395751953125,2.427121932983398,-9.144054690551757,3.1467291694641113
1788965056412398800,3.85439892578125,2.393603109741211,-9.082403997802734,2.991554974365234
1788965056422400800,3.86440087890625,2.402282090759277,-9.156923524475097,2.7878981956481934
1788965056432403700,3.87440380859375,2.316090830993652,-9.125649265289306,3.1350574363708494
1788965056442405600,3.884405517578125,2.507926239013672,-9.210194511413574,3.6644752784729
1788965056452408800,3.894408935546875,2.602497204589844,-9.356689725494384,3.7141549629211426
1788965056462410800,3.90441064453125,2.371606381988525,-9.302670550537108,3.5357869392395016
1788965056472413700,3.91441357421875,2.4958055931091305,-9.176675688171386,3.5486557731628414
1788965056482415600,3.92441552734375,2.710236279296875,-9.073425741577148,3.7735610916137694
1788965056492418800,3.934418701171875,2.8872575645446776,-9.118317022705078,3.571251051330566
1788965056502420700,3.944420654296875,2.8706477905273435,-9.070283351898192,3.141791128540039
1788965056512423700,3.954423583984375,2.5412954246520996,-8.890568589782715,3.070114716339111
1788965056522425600,3.964425537109375,2.4597429306030274,-8.709207814025879,3.309684519958496
1788965056532428800,3.9744287109375,2.452410688018799,-8.700977745819092,3.2487820152282714
1788965056542430700,3.9844306640625,2.5589526618957517,-8.762927713775634,3.258059546661377
1788965056552433700,3.99443359375,2.6617536956787107,-8.818742539978027,3.3008559013366696
1788965056562435800,4.004435791015625,2.7226562004089354,-8.790161757659911,3.114108171844482
1788965056572438800,4.014438720703125,2.608033795928955,-8.821585654449462,2.8655601119995118
1788965056582441000,4.02444091796875,2.450914311981201,-9.067739512634278,2.7551275604248047
1788965056592443600,4.034443603515625,2.136824981689453,-9.165003955078124,2.863315547943115
1788965056602445800,4.04444580078125,1.7203835304260253,-9.118915573120116,3.1988030555725095
1788965056612448800,4.05444873046875,1.523161168670654,-9.288454978179931,3.4521395187377926
1788965056622451000,4.064450927734375,1.5881038887023924,-9.374945513153076,3.7530607398986815
1788965056632453600,4.07445361328125,1.645115815734863,-9.241319132995605,3.85616104888916
1788965056642455800,4.084455810546875,1.9195511810302732,-9.577405191040038,3.6994904777526854
1788965056652458800,4.094458740234375,1.9627964485168456,-9.824157599639893,3.3795652809143064
1788965056662461700,4.104461669921875,1.7880197273254395,-10.07390276031494,3.042880672454834
1788965056672463600,4.114463623046875,1.3766659545898436,-10.152612139892577,2.883815899658203
1788965056682466800,4.124466796875,1.3204022155761719,-10.191517916870117,2.9140426956176757
1788965056692468700,4.13446875,1.8516157089233398,-10.302549018859862,3.316118936920166
1788965056702471700,4.1444716796875,2.296338667297363,-10.376918907928466,3.7084687339782714
1788965056712473900,4.154473876953125,2.6625018836975096,-10.25376716003418,3.4677018295288082
1788965056722476800,4.164476806640625,2.5583541114807127,-9.860369899749756,3.2543186065673826
1788965056732479000,4.17447900390625,1.443404325866699,-9.592069676208496,2.810343836212158
1788965056742481700,4.184481689453125,0.22355858001708984,-9.652672905731201,2.6645968101501465
1788965056752483800,4.19448388671875,-0.5557540603637695,-9.790638776397705,2.682553322601318
1788965056762486800,4.20448681640625,-0.5524620330810547,-9.900323139953613,2.4377462028503416
1788965056772489000,4.214489013671875,-0.019303250885009764,-9.897629663085937,2.2732944763183593
1788965056782491600,4.22449169921875,0.28580782318115233,-9.87638112335205,2.576011348724365
1788965056792493800,4.234493896484375,0.39279870986938475,-9.686341366577148,2.784157255554199
1788965056802496800,4.244496826171875,0.3101987525939941,-9.307309316253662,2.699761647033691
1788965056812498700,4.254498779296875,0.2539350135803223,-8.947879792022704,2.883815899658203
1788965056822501600,4.264501708984375,0.46627077331542965,-8.735394394683837,2.9109003059387204
1788965056832503800,4.27450390625,0.7047931137084961,-8.508394149780273,2.6815058593749996
1788965056842506800,4.2845068359375,0.8222586326599121,-8.288277234649657,2.7365724975585937
1788965056852508700,4.2945087890625,1.1843816337585449,-8.285434120178222,2.5758617111206052
1788965056862511900,4.304511962890625,1.4643535903930662,-8.337657643890381,2.795679351043701
1788965056872513800,4.314513671875,1.2337620429992675,-8.377910159301758,3.1947628402709958
1788965056882516700,4.324516845703125,1.138891802215576,-8.58680425415039,3.0129531517028805
1788965056892518700,4.3345185546875,1.622819812774658,-8.693795140838622,2.648884861755371
1788965056902521900,4.34452197265625,1.7865233512878418,-8.551789054870605,2.6601076820373533
1788965056912524800,4.35452490234375,1.7450737350463865,-8.522160809326172,2.877830395507812
1788965056922526700,4.364526611328125,1.9301754508972166,-8.667458922576904,2.7157728706359863
1788965056932529700,4.37452978515625,2.404526654815674,-8.809764283752441,2.8452093978881834
1788965056942531800,4.38453173828125,2.6960207069396973,-8.77863966217041,2.7169699714660642
1788965056952534800,4.39453466796875,2.4199393280029295,-8.35711053237915,2.5020903724670407
1788965056962536700,4.40453662109375,2.345719076538086,-7.883058603668212,3.1281741065979003
1788965056972539600,4.41453955078125,3.432686630249023,-8.305485559082031,3.6927567855834957
1788965056982541800,4.424541748046875,3.7015854042053222,-8.883236347198485,3.3475428337097166
1788965056992544800,4.434544677734375,2.9222727638244628,-8.569745567321776,3.175010676574707
1788965057002546700,4.444546630859375,2.9697078842163083,-8.145373323059081,3.1387983764648437
1788965057012549600,4.454549560546875,3.4406174232482907,-8.117690366363524,3.286640328979492
1788965057022551800,4.4645517578125,3.3515830490112304,-8.17185917892456,3.6082115394592282
1788965057032554800,4.4745546875,3.2525229553222657,-8.42788911895752,3.3424551551818844
1788965057042556700,4.484556640625,3.470993856811523,-8.761730612945556,3.1995512435913085
1788965057052560000,4.494559814453125,3.838952724456787,-8.96942760696411,2.934842322540283
1788965057062561800,4.504561767578125,3.9514802024841305,-9.102904349517821,2.639308055114746
1788965057072564700,4.514564697265625,3.7036803306579587,-8.997709114074706,2.651877613830566
1788965057082566700,4.524566650390625,3.3056443046569823,-8.706514337158202,2.646191384887695
1788965057092569900,4.53456982421875,3.7075709083557125,-8.551639417266845,2.3939023849487304
1788965057102572800,4.54457275390625,4.293701402282714,-8.441356503295898,2.4218846168518064
1788965057112575500,4.554575439453125,4.205265578460693,-8.652794437408447,2.9575872383117674
1788965057122578700,4.56457861328125,4.313004653167725,-9.081955084991455,2.966715132141113
1788965057132580600,4.57458056640625,4.500051657867432,-9.322721989440918,2.428019758605957
1788965057142583600,4.58458349609375,4.198980799102783,-9.13582462234497,2.3918074584960936
1788965057152585500,4.59458544921875,3.7490205245971677,-8.977508037567139,2.467673723602295
1788965057162588700,4.604588623046875,3.379116368103027,-8.788066831207274,3.0687679779052734
1788965057172590600,4.614590576171875,3.1823429191589354,-9.003993893432616,3.8488288063049314
1788965057182593500,4.624593505859375,3.3545758010864257,-9.393051663208007,3.6399347114562985
1788965057192595500,4.634595458984375,3.4267011260986324,-9.470713579559325,3.0555998687744137
1788965057202598700,4.6445986328125,3.443161262512207,-9.271396291351317,3.393930490875244
1788965057212600600,4.6546005859375,3.6414310874938964,-9.2182749420166,3.886687120056152
1788965057222603500,4.664603515625,3.361908043670654,-9.034968877410888,4.0818145553588865
1788965057232605400,4.67460546875,3.149273008728027,-9.061604370880126,4.7764323120117185
1788965057242608600,4.684608642578125,3.2607530235290527,-9.101108698272705,4.406079242706299
1788965057252611300,4.694611328125,3.0582933456420895,-8.828319346618652,4.247912295532227
1788965057262613500,4.704613525390625,2.9617770912170407,-8.620771990203856,4.367472740936279
1788965057272616700,4.71461669921875,2.8636148231506344,-8.447042732238769,4.5976153755187985
1788965057282618600,4.72461865234375,2.3707085563659667,-8.173505192565917,4.619312828063965
1788965057292621600,4.73462158203125,2.3897125320434567,-8.214954808807372,4.433313286590576
1788965057302623500,4.74462353515625,2.4467244590759276,-8.368183715057372,4.443189368438721
1788965057312626700,4.754626708984375,2.792985874176025,-8.456918814086913,4.149899665069579
1788965057322628600,4.764628662109375,3.0515596534729004,-8.536974932098389,3.9619548347473144
1788965057332631600,4.774631591796875,3.1988030555725095,-8.608052793884276,3.8943186378479
1788965057342633500,4.784633544921875,3.3062428550720213,-8.691700214385985,3.7113118484497067
1788965057352636700,4.79463671875,3.426551488494873,-8.477568803405761,3.388094624328613
1788965057362638600,4.804638671875,3.572597789764404,-8.284985207366942,3.475034072113037
1788965057372641500,4.8146416015625,3.3509844985961914,-8.07624075012207,3.832518307495117
1788965057382643500,4.8246435546875,2.8947394447326658,-7.4305544898986815,3.808127378082275
1788965057392646700,4.834646728515625,3.487603630828857,-6.707655226135254,3.818302735137939
1788965057402649300,4.8446494140625,4.85813444366455,-6.369923154449462,3.5137902114868163
1788965057412651500,4.854651611328125,5.1882349975585935,-6.507739387512206,3.727771984863281
1788965057422654500,4.864654541015625,4.664952297210693,-6.511330690002441,4.858284081268311
1788965057432656600,4.87465673828125,4.287865535736084,-6.7651160659790035,5.125087928771972
1788965057442659600,4.88465966796875,3.775805655670166,-7.215375615692138,4.09872360458374
1788965057452661500,4.89466162109375,3.568258299255371,-7.837868047332763,3.972579104614258
1788965057462664700,4.904664794921875,3.305345029449463,-8.333767066192626,4.121468520355224
1788965057472666600,4.91466650390625,3.2939725715637205,-8.724919762420654,4.8117467864990235
1788965057482669600,4.924669677734375,3.375824340820312,-8.669703486633301,4.844517421722411
1788965057492671500,4.93467138671875,4.41191510925293,-8.846874409484863,4.262277505493164
1788965057502674700,4.9446748046875,4.684405185699463,-8.88757583770752,4.0143279960632325
1788965057512676400,4.95467626953125,3.9772178703308105,-8.847472959899902,3.8289270050048825
1788965057522679600,4.964679443359375,3.732261112976074,-9.003993893432616,3.9796120719909664
1788965057532682500,4.9746826171875,3.99667075881958,-9.090185153198242,4.1183261306762695
1788965057542684700,4.9846845703125,4.020762413024902,-9.043797496032715,4.0526352226257325
1788965057552687400,4.994687255859375,3.762188633728027,-9.022399318695069,3.911078049468994
1788965057562689500,5.004689453125,3.536235852050781,-8.922591036987304,3.8613983650207517
1788965057572692500,5.0146923828125,3.9003041419982907,-8.655487914276122,3.858106337738037
1788965057582694700,5.024694580078125,4.390367294311523,-8.375515957641602,3.8340146835327147
1788965057592697600,5.034697509765625,4.483890796661377,-8.072948722839355,3.9673417884826656
1788965057602699500,5.044699462890625,4.031237045288086,-8.015338245391845,4.279036917114258
1788965057612702700,5.05470263671875,3.8486791687011714,-7.882609690856933,4.483142608642578
1788965057622704400,5.064704345703125,4.2043677528381345,-7.598896794128417,4.419845902252197
1788965057632707600,5.07470751953125,4.366126002502441,-7.556698989868163,4.389768743896484
1788965057642710500,5.08471044921875,4.018817124176025,-7.708581157684326,3.9160160903930663
1788965057652712700,5.094712646484375,3.5755905418395995,-7.729380784606933,3.020285394287109
1788965057662715400,5.10471533203125,3.291129457092285,-7.477391059875488,2.770091320800781
1788965057672717600,5.114717529296875,3.65819049911499,-7.453149768066406,2.805256157684326
1788965057682720500,5.124720458984375,4.062960217285156,-7.4951979347229,3.0988451362609863
1788965057692722400,5.134722412109375,4.366574915313721,-7.566724709320068,3.7963060073852537
1788965057702725400,5.144725341796875,4.234145635986328,-7.3651628570556635,3.958812445068359
1788965057712727600,5.1547275390625,4.094833026885986,-7.247996613311767,3.87516502456665
1788965057722730500,5.16473046875,3.994725469970703,-7.694066310119628,4.296095603942871
1788965057732732400,5.174732421875,3.7077205459594724,-8.123825508117676,3.392583752441406
1788965057742735600,5.184735595703125,3.4241572868347165,-8.369829728698729,3.1193454879760742
1788965057752738600,5.194738525390625,3.708618371582031,-8.750956705474852,3.882197991943359
1788965057762740700,5.20474072265625,4.129100038146972,-9.010278672790527,4.369118754577636
1788965057772743400,5.214743408203125,4.104409833526611,-9.163806854248046,4.357895934295654
1788965057782745600,5.22474560546875,4.074033399963379,-9.578901567077637,4.985326406860351
1788965057792748500,5.23474853515625,4.038718925476074,-10.07495022354126,4.7207671234130855
1788965057802750500,5.24475048828125,3.30714068069458,-10.229376230621337,3.9707834533691404
1788965057812753400,5.25475341796875,2.5303718795776367,-10.160692570495605,3.389591000366211
1788965057822755600,5.264755615234375,2.3108535148620604,-9.866654679107665,3.252074042510986
1788965057832758500,5.274758544921875,2.412008535003662,-9.38422304458618,3.386747885894775
1788965057842760400,5.284760498046875,2.6527754394531247,-8.892513878631592,3.3678935478210446
1788965057852763400,5.294763427734375,2.8962358207702636,-8.525752111816406,3.118746937561035
1788965057862766600,5.3047666015625,3.05185892868042,-8.300547518157959,2.8321909263610836
1788965057872768500,5.3147685546875,3.2984616996765133,-8.10137986755371,2.615066763305664
1788965057882771500,5.324771484375,3.47308878326416,-7.907299895477294,2.601749016571045
1788965057892773400,5.3347734375,3.4319384422302246,-7.837718409729003,2.7494413314819335
1788965057902776600,5.344776611328125,3.713706050109863,-7.865700641632079,2.7172692466735837
1788965057912778500,5.354778564453125,3.7288194480895993,-7.934234664154053,2.270900274658203
1788965057922781400,5.364781494140625,3.6866216438293455,-8.028506354522705,1.9168577041625976
1788965057932783600,5.37478369140625,3.7740100044250484,-8.06292300338745,1.9963152717590331
1788965057942786600,5.38478662109375,3.883544730377197,-8.110208486175537,2.0757728393554684
1788965057952788500,5.39478857421875,3.9633015731811523,-8.302043894195556,2.0992659431457517
1788965057962791400,5.40479150390625,4.383035051727295,-8.476970252990721,2.1059996353149413
1788965057972794600,5.414794677734375,4.460098417663574,-8.400355799865721,2.261473105621338
1788965057982796500,5.424796630859375,4.350114778900147,-8.346935175323486,2.4275708457946776
1788965057992799500,5.434799560546875,4.031087407684326,-8.394819208526611,2.339284659576416
1788965058002801400,5.444801513671875,3.9223008697509765,-8.507645961761474,2.0311808334350583
1788965058012804600,5.4548046875,3.868281694793701,-8.643067993164061,1.3584101669311524
1788965058022806500,5.464806640625,4.960037651824951,-8.723124111175537,0.5104138664245605
1788965058032809500,5.4748095703125,5.193621951293945,-8.622717279052734,0.8309376136779785
1788965058042811400,5.484811279296875,4.774038110351563,-8.42714093093872,0.9841665199279784
1788965058052814600,5.494814697265625,4.547337140655517,-8.216151909637452,1.1978490180969237
1788965058062817500,5.504817626953125,4.4835915214538575,-8.079832052612304,1.3364134391784668
1788965058072819500,5.5148193359375,4.333804280090332,-8.13295340194702,1.4547767837524412
1788965058082822700,5.52482275390625,3.4850597915649413,-8.33137286453247,1.605611488342285
1788965058092824600,5.534824462890625,2.4953566802978515,-8.494328215026854,1.9958663589477539
1788965058102827500,5.54482763671875,1.3531728507995604,-8.571092305755615,2.2667104217529297
1788965058112829400,5.554829345703125,1.2439374000549315,-8.670601312255858,2.448520110321045
1788965058122832400,5.564832275390625,2.3789386245727537,-8.956858048248291,1.9948188957214354
1788965058132834600,5.57483447265625,3.5227684677124023,-9.382726668548584,1.5460557220458984
1788965058142837200,5.584837158203125,4.4184991638183595,-9.788543849945068,1.3435960441589354
1788965058152840400,5.59484033203125,4.995352126312255,-10.094253474426269,1.57044665145874
1788965058162842400,5.60484228515625,5.2439001861572265,-10.375123256683349,1.8320131828308104
1788965058172845300,5.61484521484375,5.124788653564453,-10.595838722229002,1.8332102836608886
1788965058182847500,5.624847412109375,4.814589900970459,-10.428543881225586,1.9291279876708982
1788965058192850400,5.634850341796875,4.633678038024902,-10.162937134552001,2.120963395690918
1788965058202852600,5.6448525390625,4.540154535675049,-9.917980377197265,2.4253262817382812
1788965058212855300,5.654855224609375,4.253897799682617,-9.443479535675047,2.621501180267334
1788965058222857500,5.664857421875,4.086752596282959,-8.91825154647827,2.8239608581542965
1788965058232860400,5.6748603515625,3.8091748413085935,-8.643516905975341,2.8302456375122067
1788965058242863400,5.68486328125,3.442263436889648,-8.359355096435547,2.634669289398193
1788965058252865300,5.694865234375,3.2754175086975095,-8.181735260772705,2.1212626708984375
1788965058262868500,5.704868408203125,3.143137866973877,-8.313565989685058,1.6603788513183593
1788965058272870400,5.714870361328125,2.9686604209899903,-8.563760063171387,1.2409446479797364
1788965058282873300,5.724873291015625,3.0569466072082516,-8.62556039352417,1.1550526634216307
1788965058292875300,5.734875244140625,3.2492309280395504,-8.652195886993407,1.0615291610717772
1788965058302878500,5.74487841796875,3.3125276344299315,-8.630797709655761,1.1192892761230469
1788965058312880400,5.75488037109375,3.3146225608825683,-8.506748136138915,1.3347674255371094
1788965058322883300,5.76488330078125,3.436128295135498,-8.434622811126708,1.4061445625305176
1788965058332886500,5.774886474609375,3.7954081817626952,-8.543409349060058,1.4595651870727537
1788965058342888400,5.784888427734375,4.244320993041992,-8.821436016845702,1.454327870941162
1788965058352891400,5.794891357421875,4.355352095031738,-9.073276103973388,1.4791677131652832
1788965058362893300,5.804893310546875,4.2217257148742675,-9.09751739578247,1.433827519226074
1788965058372896500,5.814896484375,4.071339923095703,-8.93141965560913,1.2870330299377442
1788965058382898400,5.8248984375,3.907337109375,-8.835202676391601,1.0890624801635742
1788965058392901400,5.8349013671875,3.5977369071960448,-8.888324025726318,1.1613374427795409
1788965058402903300,5.8449033203125,3.432686630249023,-8.945635227966308,1.3218985916137695
1788965058412906500,5.854906494140625,3.2199019577026364,-8.985588468170166,1.29601128616333
1788965058422909400,5.864909423828125,2.935590510559082,-8.98977832107544,1.2051812606811523
1788965058432911400,5.874911376953125,2.724451851654053,-8.858546142578124,1.2298714653015137
1788965058442914600,5.88491455078125,2.71352830657959,-8.572588681793212,1.2770073104858397
1788965058452916500,5.89491650390625,2.8380267929077148,-8.504653209686278,1.1887211242675781
1788965058462919400,5.90491943359375,2.96881005859375,-8.711751653289795,1.110161382293701
1788965058472921300,5.91492138671875,3.0735563812255857,-9.045742784881591,1.1161468864440918
1788965058482924500,5.924924560546875,2.9646202056884765,-9.407267235565184,1.2589011604309082
1788965058492926500,5.934926513671875,2.7090391784667966,-9.613617491149903,1.3512275619506835
1788965058502929400,5.944929443359375,2.675819630432129,-9.565284545135498,1.2075754623413084
1788965058512932400,5.954932373046875,2.814234413909912,-9.488071541595458,0.8725368675231933
1788965058522934500,5.9649345703125,2.9083564666748045,-9.50004254989624,0.5092167655944824
1788965058532937200,5.974937255859375,3.1530139488220215,-9.598204817962646,0.14769231491088866
1788965058542939400,5.984939453125,3.2386066581726074,-9.655665657806395,0.32022447204589843
1788965058552942300,5.9949423828125,3.328089945220947,-9.605686698150635,0.5913678100585937
1788965058562944500,6.004944580078125,3.647416591644287,-9.318681774139403,0.6905775413513183
1788965058572947200,6.014947265625,3.69021294631958,-8.907926551818846,0.5342062454223633
1788965058582950400,6.024950439453125,3.393930490875244,-8.602516202545166,0.03516483688354492
1788965058592952600,6.03495263671875,2.8125884002685546,-8.619724526977539,-0.6736684921264648
1788965058602955300,6.044955322265625,2.358438272857666,-8.965985942077635,-1.343296768951416
1788965058612957400,6.05495751953125,2.4919150154113767,-9.358186101531983,-1.871816785430908
1788965058622960400,6.06496044921875,2.558054836273193,-9.79946739501953,-2.2839187461853028
1788965058632962600,6.074962646484375,2.475903791809082,-10.22099652481079,-2.5047838493347165
1788965058642965200,6.08496533203125,2.9248166030883787,-10.437522137451172,-2.638859142303467
1788965058652967400,6.094967529296875,3.200449069213867,-10.533140566253662,-2.7660511054992676
1788965058662970400,6.104970458984375,2.4919150154113767,-10.626215155792236,-2.840271356964111
1788965058672973300,6.114973388671875,1.657386099243164,-10.372429779815674,-3.258658097076416
1788965058682975200,6.124975341796875,1.2479776153564452,-9.926509720611572,-3.9227497825622555
1788965058692978400,6.134978515625,1.2770073104858397,-9.45574981918335,-4.305522772979736
1788965058702980400,6.14498046875,1.5132850868225096,-9.026888446807861,-4.2977416175842285
1788965058712983300,6.1549833984375,1.9511247154235838,-8.696787892913818,-4.2143934722900385
1788965058722985200,6.164985107421875,2.31115279006958,-8.458115914916991,-3.969137439727783
1788965058732988400,6.174988525390625,2.2854151222229,-8.368333352661132,-3.7675755874633787
1788965058742991400,6.184991455078125,2.0178630867004395,-8.506299223327636,-3.849128081512451
1788965058752993300,6.1949931640625,1.35990654296875,-8.673893339538573,-3.781342247009277
1788965058762996500,6.20499658203125,1.0746972702026367,-8.71399621734619,-3.4765304481506347
1788965058772998400,6.214998291015625,1.5484499237060545,-8.648155671691894,-3.4036569351196286
1788965058783001300,6.22500146484375,1.9138649520874023,-8.718934258270263,-3.2736218574523925
1788965058793003300,6.235003173828125,1.7130512878417967,-8.8229323928833,-3.1317654090881346
1788965058803006500,6.24500634765625,1.2861352043151855,-8.826074782562255,-3.0454245117187497
1788965058813008400,6.25500830078125,1.064970825958252,-8.71384657974243,-2.934842322540283
1788965058823011300,6.26501123046875,0.8774749084472656,-8.68287159576416,-2.9008745864868164
1788965058833014500,6.2750146484375,0.5349544334411621,-8.693495865631103,-3.0289643753051756
1788965058843016400,6.285016357421875,0.2533364631652832,-8.598625624847411,-3.187580235290527
1788965058853019400,6.295019287109375,0.18779519271850584,-8.263287754821777,-3.309684519958496
1788965058863021300,6.305021240234375,0.5716156463623047,-7.902212216949462,-3.4466029273986813
1788965058873024500,6.3150244140625,0.821061531829834,-7.728183683776855,-3.570652500915527
1788965058883026400,6.3250263671875,0.8883984535217284,-7.8547770965576165,-3.882347629547119
1788965058893029400,6.335029296875,0.6376058296203613,-8.349479014587402,-4.2974423423767085
1788965058903032300,6.3450322265625,0.02558803024291992,-9.115473908233643,-4.608538920593261
1788965058913034500,6.355034423828125,-0.7956231391906737,-9.83837317199707,-4.448875597381591
1788965058923037200,6.365037109375,-0.8990227233886718,-10.6609310798645,-4.030189582061768
1788965058933039400,6.375039306640625,-0.2506429862976074,-11.604994721984863,-3.849277719116211
1788965058943042300,6.385042236328125,0.4653729476928711,-12.369642877197265,-3.5425206314086912
1788965058953044500,6.39504443359375,0.5220855995178222,-12.419621836853027,-3.069067253112793
1788965058963047200,6.405047119140625,0.011372457885742187,-11.360786152648926,-3.236212456512451
1788965058973049300,6.41504931640625,0.033219548034667964,-9.788992762756347,-3.7270237968444824
1788965058983052500,6.425052490234375,0.40895957107543945,-8.636783213806153,-5.170128847503662
1788965058993055200,6.43505517578125,0.2711433380126953,-8.034342221069336,-6.553827769470215
1788965059003057400,6.445057373046875,-0.09965864410400391,-7.52707074432373,-6.727257752227783
1788965059013060400,6.455060302734375,-0.18180968856811522,-7.185298457336425,-6.82512074508667
1788965059023062500,6.4650625,-0.6389525680541992,-7.109731467437744,-7.331943309020995
1788965059033065200,6.475065185546875,-0.9636661682128905,-6.918943522644042,-7.75691410369873
1788965059043067400,6.4850673828125,-0.7272387542724609,-6.802974379730224,-8.078335676574707
1788965059053070300,6.4950703125,-0.3550900337219238,-6.712742904663085,-8.210914593505859
1788965059063073300,6.5050732421875,0.4665700485229492,-6.391321331787109,-8.531139065551757
1788965059073075200,6.5150751953125,1.2179004570007324,-5.620687672424316,-8.842983831787109
1788965059083078400,6.525078369140625,1.8394950630187987,-4.389619106292725,-9.157222799682616
1788965059093080300,6.535080322265625,1.866130556488037,-3.10931976852417,-9.419687156677245
1788965059103083300,6.545083251953125,0.47420156631469723,-1.9240403091430662,-8.889521126556396
1788965059113085000,6.5550849609375,-2.671180864715576,-0.6792050834655762,-8.03119983139038
1788965059123088100,6.565088134765625,-7.284957101440429,0.5940612869262695,-6.752995420074463
1788965059133090000,6.575090087890625,-10.210821167755126,1.1525088241577148,-4.876090956115722
1788965059143093000,6.585093017578125,-9.534608836364745,0.5808931777954102,-3.5667619232177734
1788965059153096000,6.595095947265625,-7.441478034973144,-0.34760815353393554,-3.258059546661377
1788965059163098000,6.60509814453125,-5.362113893127441,-1.4612112007141111,-4.324826023864746
1788965059173101000,6.61510107421875,-4.333804280090332,-3.149273008728027,-5.86669189300537
1788965059183103000,6.62510302734375,-3.7707179771423336,-4.6538791145324705,-7.083395249176025
1788965059193106000,6.63510595703125,-3.60072965927124,-5.431994654083252,-7.50148271408081
1788965059203108000,6.645108154296875,-3.6100071907043456,-6.20547142791748,-8.134898690795898
1788965059213111000,6.655111083984375,-3.5051112304687497,-7.513154447174072,-9.345766180419922
1788965059223114000,6.665114013671875,-3.3137247352600094,-8.240542839050292,-10.121487518310547
1788965059233116000,6.675115966796875,-3.5845687980651855,-7.742848168945312,-9.91558617553711
1788965059243119000,6.685119140625,-4.430170896911621,-6.083367143249512,-8.576479259490966
1788965059253121000,6.69512109375,-5.15187305984497,-4.310460813903808,-7.920318367004394
1788965059263124000,6.7051240234375,-5.040542682647705,-3.2275334754943845,-7.851185794067383
1788965059273126100,6.715126220703125,-4.534767581939697,-2.8547862045288084,-7.739256866455078
1788965059283129000,6.725129150390625,-4.370465493011475,-2.958036151123047,-7.267150226593017
1788965059293132000,6.735132080078125,-4.608389282989502,-3.1515175727844236,-6.818087777709961
1788965059303134000,6.745134033203125,-4.841674307250976,-3.308786694335937,-6.750152305603027
1788965059313137200,6.75513720703125,-4.799476502990722,-3.5199253532409664,-7.397933492279052
1788965059323139000,6.76513916015625,-4.846462710571289,-3.7761049308776853,-7.968052762603759
1788965059333142000,6.77514208984375,-4.874444942474365,-3.837605986022949,-7.662492775726318
1788965059343144000,6.78514404296875,-5.004180744934081,-3.7784991325378416,-7.096862633514404
1788965059353147100,6.795147216796875,-5.175815076446533,-3.841496563720703,-6.658424454498291
1788965059363150000,6.805150146484375,-5.174019425201416,-4.035726173400879,-6.364236925506591
1788965059373152000,6.815152099609375,-5.187187534332275,-4.225317017364501,-6.254851837158203
1788965059383155200,6.8251552734375,-5.256619382476806,-4.313902478790283,-6.296002178192138
1788965059393157000,6.8351572265625,-5.295525159454345,-4.3807904876708985,-6.395062271881103
1788965059403160000,6.84516015625,-5.080645560455322,-4.473266526794434,-6.468384697723388
1788965059413162000,6.855161865234375,-4.8650177734375,-4.6055461685180665,-6.423343778991699
1788965059423165200,6.865165283203125,-4.658517880249023,-4.800224691009521,-6.358999609374999
1788965059433167000,6.8751669921875,-4.678718956756591,-5.004480020141601,-6.369025328826904
1788965059443170000,6.885170166015625,-4.693084166717529,-5.244947649383545,-6.3156047042846675
1788965059453173000,6.895173095703125,-4.742614213562011,-5.4512979049682615,-6.126462773132324
1788965059463175200,6.905175048828125,-4.993855750274658,-5.570708712768554,-5.856217260742187
1788965059473177900,6.915177734375,-5.28624762802124,-5.631910492706298,-5.659144536590576
1788965059483180000,6.925179931640625,-5.444564212799072,-5.887341882324218,-5.5461681457519525
1788965059493183000,6.935182861328125,-5.725882907867431,-6.166416013336181,-5.640290198516845
1788965059503185200,6.94518505859375,-6.222530114746093,-6.209212368011475,-5.665728591156006
1788965059513188000,6.95518798828125,-6.606500205993652,-6.070199034118652,-5.429600452423095
1788965059523191000,6.96519091796875,-6.676530604553222,-6.1170356040954585,-5.150975234222412
1788965059533193200,6.975193115234375,-6.847716023254394,-6.729502316284179,-5.0008887176513666
1788965059543196000,6.98519580078125,-7.103147412872314,-8.733000193023681,-4.974402861785888
1788965059553198000,6.995197998046875,-6.880935571289062,-7.695562686157226,-4.568136767578125
1788965059563201000,7.005200927734375,-6.763769327545166,-6.948871043395996,-4.308665162658691
1788965059573203200,7.015203125,-6.7748425102233885,-6.726359926605224,-4.089296435546875
1788965059583206000,7.025205810546875,-6.383839451599121,-6.112097563171386,-3.9715316413879393
1788965059593209000,7.035208984375,-6.1833250625610345,-6.3515177291870115,-3.783437173461914
1788965059603211000,7.0452109375,-6.003759938049316,-6.523750611114502,-3.365648983764648
1788965059613214000,7.0552138671875,-5.813271268463135,-6.66530778427124,-2.835482953643799
1788965059623215900,7.0652158203125,-5.721543417358398,-6.929418154907226,-2.4172458511352537
1788965059633219000,7.075218994140625,-5.920112517547607,-7.31653063583374,-2.159270622253418
1788965059643221000,7.085220947265625,-6.021566812896729,-7.745242370605468,-2.13877027053833
1788965059653224000,7.095223876953125,-5.992836392974853,-8.271218547821045,-2.3439234252929686
1788965059663227100,7.10522705078125,-5.768828900146484,-8.8099139213562,-2.5866356185913086
1788965059673229000,7.11522900390625,-5.440075084686279,-8.926780889892578,-2.7070938896179197
1788965059683232000,7.12523193359375,-5.339668252563476,-9.099462684631348,-2.688389189147949
1788965059693234000,7.13523388671875,-5.470301880645752,-9.280075272369384,-2.694823606109619
1788965059703237000,7.145237060546875,-5.307047254943847,-9.374945513153076,-2.3362919075012205
1788965059713239000,7.155239013671875,-5.352237811279297,-9.190891260528565,-2.0109797569274903
1788965059723242000,7.165241943359375,-5.382614244842529,-9.085696025085449,-1.5688006378173827
1788965059733245000,7.175244873046875,-5.46536383972168,-9.192088361358643,-1.1791443176269532
1788965059743247000,7.1852470703125,-5.730521673583984,-9.20016879196167,-1.0465654006958007
1788965059753250000,7.19525,-5.887491519927978,-9.050231912994384,-1.0072107109069823
1788965059763252000,7.205251953125,-5.936423016357422,-8.814103774261474,-1.0488099647521971
1788965059773255200,7.215255126953125,-5.814917282104492,-8.5417633354187,-1.3016975151062011
1788965059783257000,7.225257080078125,-5.380369680786132,-8.299350417327881,-1.5086463211059569
1788965059793260000,7.235260009765625,-5.169380659484863,-7.824699938201904,-1.496525675201416
1788965059803263000,7.245262939453125,-5.185242245483398,-7.32281541519165,-1.4050970993041991
1788965059813265200,7.25526513671875,-5.61859274597168,-6.899490634155273,-1.2996025886535645
1788965059823267800,7.265267822265625,-5.935974103546142,-6.520159308624267,-1.0260650489807128
1788965059833270000,7.27527001953125,-6.119130530548095,-6.274604000854492,-0.7468412803649902
1788965059843273000,7.28527294921875,-6.302735870361328,-6.105363871002197,-0.316034619140625
1788965059853275100,7.295275146484375,-6.613233898162841,-6.036829848480224,0.28730419921875
1788965059863277800,7.30527783203125,-7.175272737884521,-5.936123741149902,0.706139852142334
1788965059873281000,7.315281005859375,-7.689577182006835,-5.242104534912109,0.9650129066467285
1788965059883283000,7.325282958984375,-7.226149523162841,-4.844667059326172,0.879719472503662
1788965059893286000,7.335285888671875,-7.1124249443054195,-4.782567453765869,1.4130278923034667
1788965059903288000,7.3452880859375,-7.583184845733642,-4.675875842285156,1.3581108917236326
1788965059913291000,7.355291015625,-8.589647368621826,-4.825513446044922,1.1041758781433104
1788965059923293200,7.365293212890625,-8.321047869873047,-5.083937587738037,1.138293251800537
1788965059933295900,7.3752958984375,-7.371447636413574,-5.48421817779541,1.124227317047119
1788965059943299000,7.385299072265625,-6.317400355529784,-5.769577088165283,1.052251629638672
1788965059953301000,7.395301025390625,-5.377376928710937,-6.0796262031555175,0.9901520240783691
1788965059963304000,7.405303955078125,-4.716726908111572,-6.620117227935791,0.9090484428405761
1788965059973305900,7.415305908203125,-4.297292704772949,-7.337629537963867,0.7698854713439941
1788965059983309000,7.42530908203125,-4.375104258728027,-7.982417972564697,0.3298012786865234
1788965059993312000,7.43531201171875,-5.738901379394531,-8.626757494354248,0.22101474075317382
1788965060003314000,7.44531396484375,-7.6461822769165035,-9.122506875610352,0.6952163070678711
1788965060013317000,7.455317138671875,-9.150938020324707,-8.513182553100586,1.2446855880737304
1788965060023319000,7.465319091796875,-11.287014813995361,-6.677877342987061,1.9470845001220702
1788965060033322000,7.475322021484375,-12.451943559265136,-6.0981812660217285,2.468870824432373
1788965060043324000,7.485323974609375,-11.975796704101562,-6.531681404113769,2.3211785095214843
1788965060053327000,7.4953271484375,-10.21545993347168,-6.417507912445068,1.523310806274414
1788965060063330000,7.505330078125,-8.358457270812988,-5.483170714569091,0.19183540802001953
1788965060073332000,7.51533203125,-7.192630699920654,-4.857835168457031,-0.5035305366516113
1788965060083335000,7.5253349609375,-6.619219402313232,-5.348047958374023,-0.31064766540527344
1788965060093337000,7.535337158203125,-6.383091263580322,-6.056582012176514,0.24226328048706053
1788965060103340000,7.545340087890625,-6.33999563369751,-5.989095452880859,0.5940612869262695
1788965060113341700,7.555341796875,-6.202329038238525,-5.932981351470947,0.6055833824157715
1788965060123345000,7.565344970703125,-5.716156463623046,-6.523002423095702,-0.05776011505126953
1788965060133348000,7.57534814453125,-5.4047606101989745,-7.3377791755676265,-0.6670844375610351
1788965060143349800,7.585349853515625,-5.238812507629394,-7.857021660614013,-0.6494272003173828
1788965060153353000,7.59535302734375,-5.236717581176758,-8.104821532440186,0.03366846084594726
1788965060163355000,7.60535498046875,-5.775263317108154,-8.332719602966309,1.1432312927246093
1788965060173358000,7.615358154296875,-6.763021139526367,-8.722076647949219,2.031480108642578
1788965060183359700,7.62535986328125,-8.040926275634765,-8.623315829467773,2.5659856292724608
1788965060193363000,7.635363037109375,-8.681375219726561,-7.660547486877441,2.7365724975585937
1788965060203366000,7.645365966796875,-7.962965084075927,-6.3043818840026855,2.3279122016906735
1788965060213368000,7.6553681640625,-6.761524763488769,-5.842600238800048,1.2767080352783202
1788965060223370800,7.665370849609375,-5.728726022338867,-6.065560268402099,0.21832126388549802
1788965060233373000,7.675373046875,-5.102941563415527,-6.214150408935547,-0.443076944732666
1788965060243375900,7.6853759765625,-4.9157449211120605,-6.41616117401123,-0.5945101997375488
1788965060253377800,7.695377685546875,-5.284751251983642,-6.430227108764648,-0.5141548065185546
1788965060263380700,7.705380615234375,-5.904101293945312,-6.325480786132812,-0.24226328048706053
1788965060273384000,7.715384033203125,-6.401795964050293,-6.052691434478759,0.24735095901489257
1788965060283386000,7.72538623046875,-6.893505130004883,-5.764190134429931,0.5421370384216309
1788965060293388800,7.735388916015625,-7.42486826095581,-5.595847830200195,0.5780500633239746
1788965060303391000,7.745390869140625,-7.679102549743652,-5.389347937011719,0.5018845230102539
1788965060313394000,7.755393798828125,-7.437587457275391,-5.108927067565918,0.3094505645751953
1788965060323396900,7.76539697265625,-7.123198851776123,-4.824914895629883,0.07781155395507812
1788965060333398800,7.775398681640625,-6.957849299621581,-4.719270747375488,-0.13976152191162108
1788965060343402000,7.785402099609375,-6.988225733184814,-4.767154780578613,-0.12554594955444334
1788965060353404000,7.79540380859375,-7.44402187423706,-4.955249248504638,0.08903437423706054
1788965060363406800,7.80540673828125,-8.372972118377685,-5.3664533836364745,0.29284079055786133
1788965060373408800,7.81540869140625,-8.931270018005371,-5.807136126708984,0.6832452987670898
1788965060383412000,7.825411865234375,-9.005041356658936,-6.033537821197509,1.2123638656616211
1788965060393415000,7.835414794921875,-8.996960926055907,-6.17958412246704,1.6793828269958495
1788965060403416800,7.845416748046875,-9.15527751083374,-6.267122120666504,1.9615993476867675
1788965060413420000,7.855419921875,-9.28980171661377,-6.286275733947754,2.042254016113281
1788965060423422000,7.865421875,-9.271396291351317,-6.32667788696289,1.9713257919311522
1788965060433425000,7.8754248046875,-9.004442806243896,-6.369773516845703,1.7672201004028318
1788965060443426800,7.8854267578125,-8.552836518096923,-6.401945601654052,1.5897499023437498
1788965060453430000,7.895429931640625,-8.170362802886963,-6.252906548309326,1.438915197753906
1788965060463432700,7.9054326171875,-7.962216896057129,-5.981314297485351,1.3370119895935058
1788965060473435000,7.915434814453125,-7.891587947082519,-5.818508584594726,1.2249334243774412
1788965060483437800,7.925437744140625,-8.039429899597167,-5.692364084625244,0.9831190567016601
1788965060493440000,7.93543994140625,-8.321047869873047,-5.626673176574707,0.6610989334106445
1788965060503442700,7.945442626953125,-8.398111235809326,-5.498583387756347,0.4305073860168457
1788965060513444900,7.95544482421875,-8.508244512176514,-5.475239921569824,0.203656778717041
1788965060523448000,7.965447998046875,-8.674342252349852,-5.392340689086914,-0.1283890640258789
1788965060533450800,7.97545068359375,-8.907178363800048,-5.2371664939880365,-0.48407764816284177
1788965060543453000,7.985452880859375,-9.185653944396972,-5.06283868560791,-0.8958803337097168
1788965060553455900,7.995455810546875,-9.272294116973876,-4.85229857711792,-1.2716203567504882
1788965060563458000,8.0054580078125,-9.211241974639892,-4.724657701110839,-1.4890437950134277
1788965060573460700,8.015460693359374,-9.1293902053833,-4.651933825683593,-1.662473777770996
1788965060583464000,8.0254638671875,-9.000402590942382,-4.618115727233887,-1.8079215286254882
1788965060593465900,8.0354658203125,-8.889072213745116,-4.630086735534667,-1.9418471839904785
1788965060603468800,8.04546875,-8.71474440536499,-4.629488185119628,-2.069787335205078
1788965060613470700,8.055470703125,-8.602216927337645,-4.829104748535156,-2.3288100273132324
1788965060623474000,8.065473876953124,-8.531288703155518,-5.174917250823975,-2.812289125061035
1788965060633475800,8.075475830078124,-8.155399042510986,-5.481524700927734,-3.144334967803955
1788965060643478800,8.085478759765625,-7.890540483856201,-5.615151081085204,-3.103483901977539
1788965060653482000,8.09548193359375,-7.800009733581542,-5.668571705627441,-3.040935383605957
1788965060663484000,8.10548388671875,-7.955333566284179,-5.798756420898437,-2.9575872383117674
1788965060673486800,8.11548681640625,-8.554332894134522,-6.105363871002197,-3.095702746582031
1788965060683488800,8.12548876953125,-8.764274452209472,-6.481852082061767,-3.3705870246887204
1788965060693492000,8.135491943359375,-8.773851258850097,-6.706458125305176,-3.321056977844238
1788965060703494000,8.145493896484375,-8.627954595184326,-6.5868976799011225,-3.0132524269104004
1788965060713496800,8.155496826171875,-8.321646420288085,-6.221482651519775,-2.7864018196105955
1788965060723499800,8.165499755859376,-7.870638682556152,-5.685331117248535,-3.0123546012878415
1788965060733502000,8.175501953125,-7.480084536743163,-5.155165087127685,-3.649810793304443
1788965060743505000,8.1855048828125,-7.552958049774169,-4.474762902832031,-4.305073860168457
1788965060753506800,8.1955068359375,-7.930194448852538,-3.7098154724121093,-4.795137012481689
1788965060763510000,8.205510009765625,-8.22393306503296,-3.005770546722412,-4.78151999053955
1788965060773513000,8.215512939453125,-8.387337328338623,-2.2264579063415524,-4.516811069488525
1788965060783515000,8.225514892578126,-8.125621159362792,-1.818246523284912,-4.459499867248535
1788965060793517800,8.235517822265624,-7.712621372985839,-1.8372504989624023,-4.798728314971924
1788965060803520000,8.24552001953125,-7.217620179748534,-2.0124761329650878,-5.000140529632568
1788965060813522700,8.255522705078125,-7.313238608551025,-2.342277411651611,-4.768351881408691
1788965060823524900,8.26552490234375,-7.464971138763428,-2.9638720176696776,-4.270357936096191
1788965060833527800,8.27552783203125,-7.485770765686035,-3.352630512237549,-4.311059364318847
1788965060843531000,8.285531005859376,-7.1960723648071285,-3.745878134918213,-5.649717367553711
1788965060853532700,8.29553271484375,-7.270442253875732,-3.659986150360107,-7.225700610351562
1788965060863535900,8.305535888671875,-7.776815904998779,-2.570175482177734,-6.950666694641113
1788965060873537800,8.315537841796875,-8.294113101196288,-1.3925275405883788,-5.996726970672607
1788965060883541000,8.325541015625,-8.093449074554442,-0.7004536231994628,-5.118952787017822
1788965060893542700,8.335542724609375,-7.50163235168457,-0.7656956184387207,-5.097105696868896
1788965060903545900,8.3455458984375,-7.204003157806396,-1.1137526847839354,-5.860407113647461
1788965060913549000,8.355549072265624,-7.179612228393554,-1.4206594100952148,-6.873453691101074
1788965060923550700,8.36555078125,-7.025036583709716,-1.3467384338378905,-6.657526628875732
1788965060933554000,8.375553955078125,-6.553079581451415,-1.0685621284484863,-5.138405675506592
1788965060943555800,8.385555908203125,-5.920411792755127,-1.1414356414794922,-4.739471823883056
1788965060953559000,8.39555908203125,-5.434089580535888,-1.6705542083740232,-6.294056889343262
1788965060963560700,8.405560791015626,-5.871779571533203,-1.947832688140869,-6.963385890960693
1788965060973564000,8.41556396484375,-6.285677183532714,-2.070385885620117,-7.0473325866699215
1788965060983567000,8.425567138671875,-6.493374177551269,-2.0368670623779295,-6.777984899902344
1788965060993569000,8.435569091796875,-6.675333503723144,-1.565358972930908,-5.874772323608398
1788965061003572000,8.445572021484375,-6.565200227355956,-1.1821370697021483,-5.501576139831543
1788965061013574000,8.455573974609376,-6.360047072601318,-1.4591162742614745,-6.200533386993408
1788965061023577000,8.4655771484375,-6.642862143707275,-1.9068319847106932,-6.776189248657226
1788965061033579800,8.475579833984375,-7.034912665557861,-2.053027923583984,-7.002441305541992
1788965061043582000,8.48558203125,-7.152078909301758,-2.0356699615478515,-6.866121448516846
1788965061053585000,8.4955849609375,-7.08010322189331,-1.7961001579284668,-6.170456228637695
1788965061063587000,8.505587158203125,-6.955305460357666,-1.6026187362670898,-5.118054961395264
1788965061073589800,8.51558984375,-6.814346837615966,-1.6259622024536131,-4.810100772857666
1788965061083592000,8.525592041015624,-6.763470052337646,-1.8879776466369629,-5.130624520111084
1788965061093595000,8.535594970703125,-6.854300077819824,-2.223764429473877,-5.72693037109375
1788965061103597800,8.545597900390625,-6.739528035736083,-2.5719711334228514,-6.437110438537597
1788965061113600300,8.555600341796875,-6.48664048538208,-2.7329811950683593,-6.413168421936035
1788965061123603500,8.565603515625,-6.473322738647461,-2.5330653564453125,-5.259163221740723
1788965061133605000,8.575605224609374,-6.527341913604736,-2.33045604095459,-4.309562988281249
1788965061143608300,8.5856083984375,-6.354959394073486,-2.4627356826782223,-4.761767826843261
1788965061153611300,8.595611328125,-6.14127689590454,-2.79014275970459,-5.589862326049804
1788965061163613400,8.605613525390625,-6.107159522247314,-3.0732571060180662,-5.919663604736328
1788965061173616000,8.6156162109375,-6.310666663360595,-3.372382675933838,-5.969941839599609
1788965061183618300,8.625618408203126,-6.5954270233154295,-3.5850177108764645,-5.693860460662841
1788965061193621200,8.635621337890624,-6.923881563568115,-3.6447231147766113,-5.168183558654785
1788965061203623200,8.645623046875,-7.273285368347167,-3.723282856750488,-4.836586628723144
1788965061213626000,8.655626220703125,-7.634211268615722,-3.8666356811523435,-4.668393962097167
1788965061223629300,8.66562939453125,-7.899369102478027,-4.033631246948242,-4.5233951240539545
1788965061233631500,8.675631591796876,-8.022371212768554,-4.224419191741943,-4.39216294555664
1788965061243634200,8.68563427734375,-8.211363506317138,-4.449025234985351,-4.368370566558838
1788965061253636400,8.69563623046875,-10.730811840820312,-5.178358915710449,-6.009146891784668
1788965061263639300,8.705639404296875,-11.599607768249511,-6.000767185974121,-6.591087532806396
1788965061273641500,8.715641357421875,-6.990171022033691,-5.191527024841308,-2.9741970123291015
1788965061283644200,8.72564404296875,-9.545981294250488,-5.869834282684326,-4.892551092529296
1788965061293647400,8.7356474609375,-7.461978386688232,-5.174019425201416,-3.4062007743835445
1788965061303649300,8.745649169921874,-7.521085240173339,-4.8650177734375,-3.633500294494629
1788965061313652200,8.75565234375,-7.3760864021301265,-4.688744676208496,-3.526060494995117
1788965061323654100,8.765654052734375,-7.718008326721191,-4.725256251525878,-3.70936655960083
1788965061333657300,8.7756572265625,-8.159738533020018,-4.878485157775879,-3.8322190322875973
1788965061343660300,8.785660400390626,-7.986158912658691,-4.891653266906738,-3.550301786804199
1788965061353662200,8.795662109375,-7.992593329620361,-4.9163434715270995,-3.2959178604125974
1788965061363665400,8.80566552734375,-8.370877191925048,-5.0818426612854,-3.2577602714538574
1788965061373667300,8.815667236328125,-8.289623973083495,-5.1800049293518065,-3.159448365783691
1788965061383670300,8.825670166015625,-8.44045867767334,-5.531503660583496,-2.9721020858764646
1788965061393672200,8.835672119140625,-8.413374271392822,-5.834220532989502,-2.661005507659912
1788965061403675400,8.84567529296875,-8.500612994384765,-6.1364884925842285,-2.316240468597412
1788965061413678000,8.855677978515626,-8.435819911956786,-6.4275336318969725,-1.979705497741699
1788965061423680300,8.86568017578125,-8.148515712738037,-6.55023646697998,-1.7061679580688476
1788965061433683200,8.87568310546875,-7.958475955963134,-6.617723026275635,-1.5312415992736816
1788965061443685400,8.885685302734375,-7.772626052093505,-6.5680433418273925,-1.3168109130859373
1788965061453688000,8.89568798828125,-7.6288243148803705,-6.5111810523986815,-1.140238540649414
1788965061463691300,8.905691162109376,-7.3840171951293945,-6.496666204833984,-0.9718962364196777
1788965061473693400,8.915693359375,-7.1954738143920896,-6.443095942687988,-0.7170633972167968
1788965061483696000,8.925696044921875,-7.211335400390625,-6.34643005065918,-0.42751463394165035
1788965061493698300,8.9356982421875,-7.373392925262451,-6.080374391174316,-0.08723872299194335
1788965061503701200,8.945701171875,-7.704690579986572,-6.016329496765136,0.19572598571777342
1788965061513703400,8.955703369140625,-8.181435985565185,-6.121973645019531,0.45804070510864253
1788965061523706000,8.9657060546875,-8.68287159576416,-6.146813487243652,0.7191583236694336
1788965061533709300,8.975709228515624,-8.979303688812255,-6.1364884925842285,0.7951742263793945
1788965061543711200,8.985711181640625,-9.657760584259032,-6.241534090423584,0.7802104660034179
1788965061553714200,8.995714111328125,-10.264391429901123,-6.385036552429199,0.6190507667541504
1788965061563716000,9.005716064453125,-10.150367575836182,-6.0811225791931145,0.6459855354309082
1788965061573719300,9.01571923828125,-9.968408249664305,-5.230283164215088,1.2771569480895995
1788965061583722200,9.02572216796875,-9.34741219406128,-4.103063095092773,2.174533657836914
1788965061593724200,9.03572412109375,-8.201188149261474,-3.9655461372375487,2.182165175628662
1788965061603727400,9.045727294921875,-7.079055758666992,-5.076754982757568,1.252616381072998
1788965061613729300,9.055729248046875,-6.46703795928955,-6.217442436218262,0.17896657409667968
1788965061623732200,9.065732177734375,-6.246472131347656,-6.583156739807128,0.04369418029785156
1788965061633734100,9.075734130859376,-6.428281819915771,-6.373215181732177,0.5641337661743163
1788965061643737300,9.0857373046875,-7.002890218353271,-5.521627578735351,1.025316860961914
1788965061653740300,9.095740234375,-7.658602198028564,-4.7670051429748534,1.119738188934326
1788965061663742200,9.1057421875,-7.946056034851074,-5.289240380096436,0.47165772705078124
1788965061673745200,9.1157451171875,-7.665186252593994,-6.134393566131592,-0.45983635635375975
1788965061683747300,9.125747314453125,-6.881234846496581,-6.0431146278381345,-0.3520972816467285
1788965061693750000,9.13575,-6.087257720947266,-5.628768103027343,0.25303718795776364
1788965061703753200,9.145753173828124,-5.727379283905029,-5.91801759109497,0.21054010848999022
1788965061713755400,9.15575537109375,-5.8916813728332516,-6.824073281860351,-0.6654384239196777
1788965061723758300,9.16575830078125,-6.375459745788574,-7.718008326721191,-1.2226888603210448
1788965061733760300,9.17576025390625,-7.02264238204956,-8.403348551940917,-1.1406874534606932
1788965061743763200,9.18576318359375,-7.7790604690551755,-8.36444277496338,-0.3628711891174316
1788965061753765400,9.195765380859376,-8.259397177124024,-6.60769730682373,0.5280711036682129
1788965061763768300,9.205768310546874,-7.539041752624511,-5.197213253784179,1.0357914932250976
1788965061773771300,9.215771240234375,-6.261286254119873,-5.268740028381347,0.7948749511718749
1788965061783773200,9.225773193359375,-5.216965417480468,-5.852177045440674,0.13587094421386717
1788965061793776400,9.2357763671875,-4.7484500801086424,-6.549039366149902,-0.7248445526123046
1788965061803778000,9.245778076171876,-4.936245272827148,-6.583904927825928,-1.0965443603515623
1788965061813781200,9.25578125,-5.679644888305663,-5.963357785034179,-0.5506663818359374
1788965061823784400,9.265784423828125,-6.476614765930176,-5.214870491027832,0.45489831542968745
1788965061833786400,9.275786376953125,-7.0275804229736325,-4.935646722412109,0.7080851409912109
1788965061843789300,9.285789306640625,-7.325059979248047,-5.413140316009521,0.053420624542236325
1788965061853791200,9.295791259765625,-7.548917834472656,-6.258892052459716,-0.8652046249389648
1788965061863794400,9.30579443359375,-7.764545621490478,-6.806715319824218,-1.2521674682617188
1788965061873797000,9.315797119140624,-7.880514764404296,-6.955305460357666,-1.006163247680664
1788965061883799300,9.32579931640625,-7.746140196228027,-6.723067899322509,-0.3898059577941894
1788965061893802200,9.33580224609375,-7.3478048950195305,-6.268319221496582,0.3477577911376953
1788965061903804400,9.345804443359375,-7.001244204711914,-6.022015725708007,0.7260416534423828
1788965061913807000,9.35580712890625,-6.809259159088135,-6.3812956123352045,0.5089174903869629
1788965061923809300,9.365809326171876,-6.7185787712097165,-6.638373015594482,0.28012159423828126
1788965061933812200,9.375812255859374,-6.717531307983398,-6.667701985931396,0.38097733917236326
1788965061943815200,9.385815185546875,-6.758681649017333,-6.599916151428222,0.8463502868652343
1788965061953817300,9.3958173828125,-6.886771437835693,-6.562656388092041,1.2788029617309569
1788965061963820300,9.4058203125,-7.188291209411621,-6.719476596832275,1.4217068733215332
1788965061973822500,9.415822509765626,-7.672668132781982,-7.125742691040038,1.3826514587402343
1788965061983825200,9.4258251953125,-8.042422651672362,-7.612663453674316,1.3494319107055663
1788965061993827300,9.435827392578124,-8.37611450805664,-7.9566803047180175,1.222539222717285
1788965062003830300,9.445830322265625,-8.728660702514649,-8.214206620788573,1.2445359504699707
1788965062013833200,9.455833251953125,-8.869020774841308,-8.253262035369872,1.4535796829223633
1788965062023835100,9.465835205078125,-8.676886091613769,-8.069357420349121,1.4649521408081054
1788965062033838300,9.47583837890625,-8.24144066467285,-7.597699693298339,1.3103764961242674
1788965062043840300,9.48584033203125,-7.601290995788574,-6.83754066619873,1.1755530151367186
1788965062053843200,9.49584326171875,-6.998850003051757,-6.117783792114257,1.1547533882141112
1788965062063846400,9.505846435546875,-6.608146219635009,-5.761047744750976,1.2406453727722166
1788965062073848300,9.515848388671875,-6.40359161529541,-5.724835444641113,1.2624924629211425
1788965062083851300,9.525851318359376,-6.434716236877441,-5.986401976013183,1.0781389350891113
1788965062093853200,9.535853271484376,-6.510732139587402,-6.297348916625976,0.6907271789550781
1788965062103856400,9.5458564453125,-6.726060651397705,-6.552032118225097,0.4644751220703125
1788965062113859000,9.555859130859375,-6.912060192871094,-6.509385401153564,0.5256769020080566
1788965062123861000,9.565861083984375,-7.101351761627197,-6.186617089843749,0.6382043800354004
1788965062133864200,9.5758642578125,-7.426963187408447,-5.987299801635742,0.8774749084472656
1788965062143866000,9.5858662109375,-7.7221981796264645,-5.974430967712402,0.9720458740234375
1788965062153869000,9.595869140625,-7.87812056274414,-6.133944653320312,0.7912836486816406
1788965062163871000,9.60587109375,-8.089857772064208,-6.289118848419189,0.6051344696044921
1788965062173874200,9.615874267578125,-8.42100578918457,-6.370820980072021,0.5407902999877929
1788965062183877000,9.625877197265625,-8.749759604644774,-6.469132885742187,0.6088754096984863
1788965062193879000,9.635879150390625,-8.992022885131835,-6.618620851898193,0.7131728195190429
1788965062203882200,9.64588232421875,-9.006088819885253,-6.655282064819335,0.6575076309204101
1788965062213884200,9.65588427734375,-8.755745108795166,-6.357952146148682,0.7939771255493163
1788965062223887000,9.66588720703125,-8.334664891815185,-5.635352157592773,1.3308768478393553
1788965062233890000,9.67589013671875,-7.921515467834472,-4.9443257034301755,1.5300444984436035
1788965062243892200,9.685892333984375,-7.710526446533203,-4.694430905151367,1.4917372718811035
1788965062253895200,9.695895263671876,-7.711723547363281,-4.855440966796874,1.5913959159851074
1788965062263897000,9.70589697265625,-7.779808657073974,-5.47119970626831,1.3871405868530273
1788965062273900000,9.715900146484374,-7.6614453125,-6.113743576812744,0.7293336807250976
1788965062283902200,9.725902099609375,-7.529315308380126,-6.57597413482666,0.3763385734558105
1788965062293905000,9.73590478515625,-7.489362068176269,-6.8296098731994626,0.3520972816467285
1788965062303908000,9.745908203125,-7.351396197509765,-6.724414637756348,0.47330374069213865
1788965062313910300,9.75591015625,-7.381174080657958,-6.609044045257568,0.5621884773254394
1788965062323913200,9.765913330078124,-7.688380081176757,-6.629245121765137,0.548421817779541
1788965062333915100,9.7759150390625,-8.016236071014404,-6.743418613433837,0.4499602745056152
1788965062343918000,9.78591796875,-8.265681956481933,-6.903979762268066,0.3290530906677246
1788965062353921300,9.79592138671875,-8.377012333679199,-6.8016276412963865,0.37409400939941406
1788965062363923200,9.805923095703125,-8.307430847930908,-6.223876853179931,0.7766191635131835
1788965062373926100,9.815926025390626,-8.098985665893554,-5.6024318847656245,1.3392565536499024
1788965062383928000,9.825927978515624,-7.762151419830322,-5.294926609039306,1.599177071380615
1788965062393931300,9.83593115234375,-7.309647306060791,-5.182698406219482,1.636885747528076
1788965062403934200,9.845934326171875,-7.0178539787292475,-5.110273805999755,1.6606781265258788
1788965062413936000,9.85593603515625,-6.919841348266601,-5.262604886627197,1.5901988151550293
1788965062423939300,9.865939208984376,-6.778882725524902,-5.436184506988525,1.115997248840332
1788965062433941200,9.875941162109376,-6.5628060256958,-5.47808303604126,0.8444049980163574
1788965062443944200,9.885944091796874,-6.414215885162353,-5.517437725830078,0.8571241943359375
1788965062453946000,9.895946044921875,-6.508038662719726,-5.700444515228271,0.8352771041870116
1788965062463949300,9.90594921875,-6.944381915283203,-6.185569626617431,0.5098153160095215
1788965062473952000,9.915951904296875,-7.397933492279052,-6.4649430328369135,0.19422960968017577
1788965062483954200,9.9259541015625,-7.6942159477233885,-6.397606111145019,0.07541735229492187
1788965062493957000,9.93595703125,-7.907150257873535,-6.113294664001464,0.3956418243408203
1788965062503959300,9.945959228515624,-7.958924868774414,-5.710769509887695,0.835726016998291
1788965062513962000,9.9559619140625,-8.046762142181397,-5.5726540016174315,1.0128969398498535
1788965062523965200,9.965965087890625,-8.365939151000976,-5.966350537109375,0.7688380081176758
1788965062533967000,9.975967041015625,-8.647706758880615,-6.516119093322754,0.4583399803161621
1788965062543970000,9.985969970703126,-8.729109615325926,-6.897395707702636,0.5418377632141113
1788965062553972200,9.99597216796875,-8.49836843032837,-6.833799726104736,0.9769839149475097
1788965062563975200,10.00597509765625,-8.26119282836914,-6.422894866180419,1.1186907257080076
1788965062573977300,10.015977294921875,-8.105120807647705,-5.8159647453308105,1.0740987197875975
1788965062583980000,10.02597998046875,-7.921814743041992,-5.360916792297363,1.2095207511901855
1788965062593983200,10.035983154296876,-7.654262707519531,-5.2444987365722655,1.4080898513793945
1788965062603985200,10.045985107421876,-7.499387787628174,-5.566219584655761,1.0030208580017088
1788965062613988000,10.055988037109374,-7.345261055755615,-5.874173773193359,0.3324947555541992
1788965062623990000,10.065989990234375,-6.894402955627441,-5.691765534210205,0.17821838607788085
1788965062633993200,10.0759931640625,-6.19260259399414,-5.241954897308349,0.814028564453125
1788965062643996200,10.08599609375,-5.7323173248291015,-5.004629657745361,1.6102502540588377
1788965062653998000,10.095998046875,-6.3895256805419915,-5.584325734710693,1.595436131286621
1788965062664001300,10.106001220703124,-7.811232553863525,-6.682965021514892,0.2549824768066406
1788965062674003200,10.116003173828124,-8.717587519836425,-7.323413965606689,-0.9674071083068847
1788965062684006100,10.126006103515625,-8.437914838409423,-6.836792478179931,-0.7240963645935058
1788965062694009000,10.136009033203125,-7.544279068756103,-5.319766451263427,0.9497498710632324
1788965062704011300,10.14601123046875,-7.255029580688476,-4.345625650787353,1.9744681816101073
1788965062714014000,10.156013916015626,-7.47574504623413,-4.387524179840088,2.5968109756469726
1788965062724016000,10.16601611328125,-7.789385463714599,-5.7721209274291985,2.4072201316833493
1788965062734019000,10.17601904296875,-8.261043190765381,-7.715614125061035,0.5467758041381836
1788965062744021200,10.186021240234375,-8.783727340698242,-8.445396718597411,-0.4557961410522461
1788965062754024000,10.19602392578125,-8.829666085052489,-7.5254247306823725,1.0075099861145018
1788965062764027100,10.206027099609376,-8.544307174682617,-6.189011291503906,2.9052140769958497
1788965062774029000,10.216029052734376,-8.409633331298828,-5.827337203216552,2.5403975990295407
1788965062784032000,10.226031982421874,-8.499266255950927,-6.356455770111084,0.5566518859863281
1788965062794034200,10.2360341796875,-8.625710031127928,-6.616077012634277,-0.15382745666503905
1788965062804037000,10.246037109375,-8.270470359802246,-6.024110652160644,0.21817162628173828
1788965062814040000,10.2560400390625,-7.343465404510497,-5.046827462005615,1.0772411094665526
1788965062824042000,10.2660419921875,-6.341342372131347,-4.3911154823303225,1.9156606033325194
1788965062834045200,10.276045166015624,-5.780500633239746,-4.544942938995361,2.2266075439453124
1788965062844047000,10.286047119140624,-5.960215395355224,-5.552153649902343,1.4483423667907713
1788965062854050000,10.296050048828125,-6.7839704040527335,-6.581510726165771,-0.02558803024291992
1788965062864053200,10.30605322265625,-7.608623238372802,-6.7942953987121575,-0.6187514915466308
1788965062874055200,10.31605517578125,-7.729081509399413,-6.392219157409667,-0.4294599227905273
1788965062884058000,10.32605810546875,-7.112724219512939,-5.679944163513183,0.5702689079284667
1788965062894060000,10.33606005859375,-6.471976000213623,-4.923675714111328,1.8550573738098144
1788965062904063200,10.346063232421875,-6.593182459259033,-4.9169420219421385,2.1773767723083495
1788965062914066200,10.356066162109375,-7.427711375427245,-5.768529624938965,1.6454150909423828
1788965062924068000,10.366068115234375,-8.275408400726318,-6.968623207092285,0.17387889556884764
1788965062934071000,10.376071044921876,-8.648305309295655,-7.622240260314941,-0.5945101997375488
1788965062944073200,10.3860732421875,-8.556727095794677,-7.332092946624756,0.33758243408203126
1788965062954076200,10.396076171875,-8.020725199127197,-6.335057592773437,2.0145710594177246
1788965062964078000,10.406078125,-7.7018474655151365,-5.518934101867676,2.309357138824463
1788965062974081000,10.4160810546875,-7.786392711639404,-5.135412923431396,1.9135656768798828
1788965062984084200,10.426084228515625,-7.721300354003906,-5.059995571136474,1.3250409812927246
1788965062994086100,10.436086181640626,-7.301117962646484,-4.854692778778076,0.8111854499816894
1788965063004089000,10.446089111328124,-6.931513081359863,-4.772841009521484,0.8072948722839355
1788965063014091000,10.456091064453124,-6.428281819915771,-4.863521397399902,0.8071452346801757
1788965063024094200,10.46609423828125,-5.7912745407104484,-4.855889879608154,0.8981248977661133
1788965063034097200,10.47609716796875,-5.505017804718017,-4.924723177337646,1.4294880287170408
1788965063044099000,10.48609912109375,-5.717503202056885,-5.431096828460693,1.2832920898437499
1788965063054102300,10.496102294921876,-6.536170532226562,-6.289567761230469,0.07122749938964844
1788965063064104200,10.506104248046874,-7.709628620910644,-6.887818901062011,-0.7306804191589356
1788965063074107100,10.516107177734375,-8.8236805809021,-7.238868719482421,-0.6625953094482422
1788965063084110000,10.526110107421875,-9.35878465194702,-7.427711375427245,-0.29553426742553707
1788965063094112300,10.5361123046875,-9.47460415725708,-7.406612473297119,0.17687164764404295
1788965063104115200,10.546115234375,-9.718812726593017,-7.1130234947204585,0.8418611587524414
1788965063114117600,10.55611767578125,-10.050858569335936,-6.762422589111328,1.316362000274658
1788965063124120600,10.56612060546875,-10.212317543792723,-6.69044690170288,0.9285013313293456
1788965063134122500,10.57612255859375,-9.880421338653564,-6.835146464538574,0.1427542739868164
1788965063144125400,10.58612548828125,-9.407865785980224,-6.724713912963867,-0.1304839904785156
1788965063154128600,10.596128662109376,-8.795997624206542,-5.915024839019775,0.4583399803161621
1788965063164130600,10.606130615234376,-8.084770093536376,-4.908711953735351,1.381005445098877
1788965063174133500,10.616133544921874,-7.270142978668212,-4.350862966918945,1.9439421104431152
1788965063184135400,10.626135498046875,-6.493374177551269,-4.255543813323975,2.100911956787109
1788965063194138600,10.636138671875,-5.763890859222411,-4.480000218963623,2.051232272338867
1788965063204141600,10.6461416015625,-5.193173038482666,-5.002684368896484,1.74926358795166
1788965063214143500,10.6561435546875,-4.905719201660156,-5.747131447601318,1.1031284149169922
1788965063224146700,10.666146728515624,-4.824914895629883,-6.292560513305664,0.6037877311706542
1788965063234148600,10.676148681640624,-4.94148258895874,-6.413916609954834,0.2694973243713379
1788965063244151600,10.686151611328125,-5.665429315948486,-5.891531735229492,0.16609774017333984
1788965063254154500,10.696154541015625,-6.527341913604736,-5.310638557434082,0.24750059661865234
1788965063264156700,10.70615673828125,-7.077559382629394,-5.163245517730712,0.27353753967285155
1788965063274159400,10.716159423828126,-7.363067930603027,-5.574300015258789,0.17342998275756835
1788965063284161500,10.72616162109375,-7.69960290145874,-6.251709447479247,-0.04683656997680664
1788965063294164700,10.736164794921875,-8.032995482635497,-6.71019906539917,-0.33010055389404297
1788965063304167400,10.74616748046875,-8.447342007446288,-6.868066737365722,-0.48347909774780273
1788965063314169600,10.756169677734375,-8.925733426666259,-6.5318310417175285,-0.016909049224853513
1788965063324172500,10.766172607421876,-9.356689725494384,-5.95662409286499,0.8809165733337402
1788965063334174700,10.7761748046875,-9.729287358856201,-5.786785412597656,0.9183259742736816
1788965063344177400,10.786177490234374,-10.006116925811767,-6.2475195945739745,0.28086978225708004
1788965063354180600,10.7961806640625,-9.985317298889159,-6.9436337272644035,-0.22041619033813475
1788965063364182500,10.8061826171875,-9.487772266387939,-6.7836711288452145,0.4248211570739746
1788965063374185500,10.816185546875,-9.061155458068846,-5.863250228118896,1.166425121307373
1788965063384187400,10.8261875,-8.787617918395995,-5.339668252563476,1.8632874420166015
1788965063394190600,10.836190673828124,-8.183530912017822,-5.645078601837158,2.299032144165039
1788965063404193500,10.846193603515625,-7.697807250213622,-6.58195963897705,1.645115815734863
1788965063414195500,10.856195556640625,-7.696310874176025,-7.151330721282958,0.21622633743286132
1788965063424198700,10.86619873046875,-7.660846762084961,-6.632836424255371,0.43230303726196284
1788965063434200600,10.87620068359375,-7.2821139869689935,-5.465513477325439,1.2536638442993164
1788965063444203500,10.88620361328125,-7.142352465057373,-4.856638067626953,1.4173673828125
1788965063454205400,10.896205322265626,-7.107486903381347,-4.93534744720459,1.3428478561401367
1788965063464208600,10.906208740234375,-6.872705503082275,-5.425560237121582,0.23223756103515625
1788965063474211300,10.91621142578125,-6.514921992492676,-5.338920064544677,-0.1497872413635254
1788965063484213500,10.926213623046875,-6.4652423080444335,-4.930708681488037,0.2846107223510742
1788965063494216400,10.936216552734376,-6.8116533607482905,-5.109226342773437,0.6989572471618652
1788965063504218600,10.946218505859376,-7.1668930320739745,-5.684882204437256,0.6193500419616699
1788965063514221300,10.95622119140625,-7.352144385528564,-6.14172580871582,-0.23343466186523437
1788965063524224500,10.966224609375,-7.730577885437011,-6.3515177291870115,-1.1788450424194334
1788965063534226700,10.976226806640625,-8.239944288635254,-6.196642809295654,-1.0699088668823242
1788965063544229600,10.986229736328125,-8.767566479492187,-5.890933184814453,-0.29658173065185545
1788965063554231600,10.9962314453125,-9.235932179260253,-5.569062699127197,-0.11926117019653319
1788965063564234500,11.006234375,-9.39155528717041,-5.359570053863525,-0.11776479415893554
1788965063574237700,11.01623779296875,-9.166500331115722,-5.327996519470214,-0.3938461730957031
1788965063584239400,11.0262392578125,-8.819490727996826,-5.311087470245361,-0.8424597091674804
1788965063594242600,11.03624267578125,-8.670750949859618,-5.212925202178955,-1.3046902671813965
1788965063604244500,11.046244384765625,-8.796596174621582,-5.073762230682373,-1.5981296081542968
1788965063614247700,11.05624755859375,-9.082852910614013,-4.779275426483154,-1.7163433151245115
1788965063624250600,11.066250732421874,-9.31479119644165,-4.532074105072021,-1.804180588531494
1788965063634252500,11.07625244140625,-9.399785355377198,-4.568735317993164,-2.0121768577575683
1788965063644255700,11.086255859375,-9.125499627685546,-4.742464575958252,-2.216581824493408
1788965063654257400,11.09625732421875,-8.797942913055419,-4.900930798339844,-2.414702011871338
1788965063664260600,11.106260498046876,-8.794052335357666,-4.978143801879883,-2.5246856506347655
1788965063674262500,11.116262451171876,-9.013570700073242,-5.009118785858154,-2.568379830932617
1788965063684265700,11.126265625,-8.95715732345581,-5.0185459548950195,-2.6378116790771484
1788965063694268400,11.136268310546875,-8.49836843032837,-4.75623123550415,-2.837877155303955
1788965063704270600,11.1462705078125,-8.26732797012329,-4.340837247467041,-3.1103672317504882
1788965063714273500,11.1562734375,-8.263886305236817,-4.056675437927246,-3.4446576385498044
1788965063724275700,11.166275634765626,-8.638878140258788,-4.440495891571045,-3.9463925239562987
1788965063734278400,11.1762783203125,-8.94533595275879,-5.588216312408447,-4.304924222564697
1788965063744281600,11.186281494140625,-9.241768045806884,-6.871209127044677,-4.669441425323486
1788965063754283800,11.19628369140625,-9.560496141815184,-7.68015001296997,-5.0763060699462885
1788965063764286500,11.206286376953125,-9.899874227142334,-7.894730336761474,-5.146186830902099
1788965063774288600,11.21628857421875,-10.237007748413085,-7.505822204589843,-5.26709401473999
1788965063784291600,11.22629150390625,-10.098443327331543,-6.462249555969238,-5.356128388977051
1788965063794294500,11.23629443359375,-9.529371520233154,-5.184793332672119,-5.220107807159423
1788965063804296400,11.24629638671875,-9.23249051437378,-4.013430170440674,-5.4692544174194335
1788965063814299600,11.256299560546875,-9.364919793701171,-2.940229276275635,-6.055684186553955
1788965063824301600,11.266301513671875,-8.328080837249756,-2.0121768577575683,-6.245723943328857
1788965063834304500,11.276304443359376,-7.1395093505859375,-1.3500304611206053,-6.751947956848144
1788965063844307700,11.2863076171875,-6.525546262359619,-0.8262988479614257,-6.954706909942627
1788965063854309600,11.2963095703125,-5.477484485626221,-0.003890577697753906,-5.5461681457519525
1788965063864312600,11.3063125,-4.205864128875732,0.5352537086486816,-4.694131629943848
1788965063874314500,11.316314453125,-3.6447231147766113,0.7891887222290038,-4.287117347717285
1788965063884317700,11.326317626953125,-3.705924894714355,0.8379705810546875,-4.304924222564697
1788965063894320400,11.3363203125,-4.0475475440979,0.8125321884155273,-5.046827462005615
1788965063904322600,11.346322509765624,-4.511424115753173,0.712424631500244,-5.53539423828125
1788965063914325500,11.356325439453125,-5.189881011199951,0.39803602600097654,-5.0285716743469235
1788965063924327700,11.36632763671875,-6.011541093444824,-0.14634557647705076,-4.968118082427978
1788965063934330400,11.376330322265625,-6.795642137145996,-0.7971195152282714,-5.442319648742675
1788965063944333600,11.38633349609375,-7.431901228332519,-1.213560966491699,-5.608118113708496
1788965063954335500,11.39633544921875,-7.632116342163085,-1.3938742790222167,-6.276549289703369
1788965063964338400,11.40633837890625,-7.631218516540527,-1.4921861846923827,-7.2821139869689935
1788965063974340400,11.41634033203125,-7.415441091918945,-1.307383744049072,-7.428758838653564
1788965063984343600,11.426343505859375,-6.694636754608154,-0.9642647186279296,-6.581061813354491
1788965063994345700,11.436345703125,-6.137087042999267,-0.7956231391906737,-6.117783792114257
1788965064004348400,11.446348388671876,-6.21205548248291,-1.0702081420898437,-6.710498340606689
1788965064014351600,11.4563515625,-6.329521001434326,-1.5946879432678223,-7.321917589569091
1788965064024353500,11.466353515625,-6.456563327026367,-2.0356699615478515,-7.151031446075439
1788965064034356500,11.4763564453125,-6.784419316864013,-2.203712990570068,-6.2970496414184565
1788965064044358400,11.4863583984375,-7.336133161926269,-2.014122146606445,-5.117157135772705
1788965064054361600,11.496361572265625,-7.874828535461425,-1.6805799278259277,-4.499752382659912
1788965064064364500,11.506364501953126,-8.144475497436522,-1.5758336051940918,-4.572176982879639
1788965064074366500,11.516366455078124,-8.213757707977294,-1.7969979835510252,-5.357475127410888
1788965064084369700,11.52636962890625,-8.167519688415528,-2.271049912261963,-6.424989792633056
1788965064094371600,11.53637158203125,-7.944110746002197,-2.696768894958496,-6.709301239776611
1788965064104374500,11.54637451171875,-7.593509840393066,-2.9683611457824703,-6.117484516906738
1788965064114377500,11.55637744140625,-7.321767951965332,-3.0609868225097654,-5.495440998077393
1788965064124379600,11.566379638671876,-7.330746208190917,-3.077895871734619,-5.166088632202148
1788965064134382600,11.576382568359374,-7.543530880737304,-3.075352032470703,-4.99894342880249
1788965064144384500,11.586384521484375,-7.863156802368164,-3.107823392486572,-4.8618753837585444
1788965064154387500,11.596387451171875,-7.968501675415038,-3.1393969268798827,-4.6526820137023925
1788965064164390700,11.606390625,-7.8627078895568845,-3.1561563385009763,-4.34772057723999
1788965064174392600,11.616392578125,-7.767987286376953,-3.236062818908691,-4.0520366722106935
1788965064184395500,11.6263955078125,-7.818115883636474,-3.284695040130615,-3.944896147918701
1788965064194397400,11.6363974609375,-8.037185335540771,-3.416376131439209,-3.9860464889526366
1788965064204400600,11.646400634765625,-8.15255592803955,-3.716998077392578,-4.2149920227050774
1788965064214403600,11.656403564453125,-8.153304116058349,-4.095581214904785,-4.374655345916747
1788965064224405500,11.666405517578125,-8.025513602447509,-4.478204567718506,-4.488978475189208
1788965064234408700,11.67640869140625,-7.968800950622558,-4.844667059326172,-4.403685041046142
1788965064244410600,11.68641064453125,-7.886799543762207,-5.142445890808105,-4.297591979980469
1788965064254413600,11.69641357421875,-7.783399959564209,-5.315576598358154,-4.205415216064453
1788965064264416500,11.70641650390625,-7.709778258514404,-5.450848992156982,-4.0143279960632325
1788965064274418700,11.716418701171875,-7.708730795288085,-5.621884773254394,-3.7395933555603027
1788965064284421400,11.72642138671875,-7.734019550323486,-5.810278516387939,-3.4286464149475098
1788965064294423600,11.736423583984376,-7.799860095977783,-5.913827738189697,-3.05799407043457
1788965064304426500,11.746426513671874,-7.7227967300415035,-5.946299098205566,-2.7391163368225095
1788965064314429400,11.756429443359375,-7.62927322769165,-6.057180562591553,-2.3734020332336425
1788965064324431600,11.766431640625,-7.63585728225708,-6.1924529563903805,-2.1143793411254883
1788965064334434600,11.7764345703125,-7.761103956604003,-6.335207230377197,-2.083254719543457
1788965064344436700,11.786436767578126,-8.14073455734253,-6.367678590393066,-2.15777424621582
1788965064354439400,11.796439453125,-8.584709327697754,-6.30737463607788,-2.1812673500061033
1788965064364442600,11.806442626953125,-8.858695780181884,-6.155193193054199,-2.0503344467163083
1788965064374444500,11.816444580078125,-9.170989459228515,-5.980715747070312,-1.8703204093933103
1788965064384447500,11.826447509765625,-9.254936154937743,-5.750722750091552,-1.6133926437377928
1788965064394449400,11.836449462890625,-8.992621435546875,-5.51594134979248,-1.241692835998535
1788965064404452600,11.84645263671875,-8.871414976501464,-5.296123709869384,-0.6643909606933593
1788965064414455600,11.85645556640625,-8.789114294433594,-5.004480020141601,-0.10369885940551757
1788965064424457500,11.86645751953125,-8.623465467071533,-4.725405889129639,0.36750995483398435
1788965064434460700,11.876460693359375,-8.47278040008545,-4.627842171478271,0.7972691528320313
1788965064444462600,11.886462646484375,-8.335413079833984,-4.687846850585937,1.2192471954345703
1788965064454465500,11.896465576171876,-8.445097443389892,-4.773888472747802,1.7000328163146972
1788965064464468500,11.906468505859374,-9.194931475830078,-4.965274967956542,2.173785469818115
1788965064474470700,11.916470703125,-9.870994169616699,-5.428253713989258,2.3151930053710936
1788965064484473300,11.926473388671875,-10.393079769134522,-6.16716420135498,1.8804957664489745
1788965064494475500,11.9364755859375,-10.148571924591064,-6.6331356994628905,1.5378256538391113
1788965064504478500,11.946478515625,-9.58294178237915,-6.630591860198974,1.4896423454284666
1788965064514481700,11.956481689453126,-8.649801685333252,-6.187514915466308,1.753752716064453
1788965064524483300,11.9664833984375,-7.577648254394531,-5.653607945251465,1.8981530036926269
1788965064534486500,11.976486572265625,-6.6524389503479,-5.389347937011719,1.5958850440979002
1788965064544488400,11.986488525390625,-6.203226863861084,-5.711816973114013,0.7441478034973145
1788965064554491400,11.996491455078125,-6.022464638519287,-6.4375593513488765,-0.015412673187255858
1788965064564494600,12.00649462890625,-6.146364574432373,-7.098508647155762,-0.16729484100341796
1788965064574496500,12.01649658203125,-6.725013188171387,-7.31653063583374,0.414346524810791
1788965064584499700,12.026499755859374,-7.619846058654785,-7.003339131164551,1.0729016189575196
1788965064594501400,12.03650146484375,-7.968501675415038,-6.599616876220702,1.1878232986450195
1788965064604504600,12.046504638671875,-7.865700641632079,-6.887818901062011,0.5608417388916015
1788965064614507500,12.056507568359375,-7.6844895034790035,-7.165845568847656,-0.18390461502075195
1788965064624509700,12.066509765625,-7.151031446075439,-6.255001474761962,-0.22864625854492185
1788965064634512600,12.0765126953125,-6.346729325866699,-4.862025021362304,-0.14454992523193358
1788965064644514600,12.0865146484375,-5.351339985656738,-4.133439528656005,-0.20829554443359374
1788965064654517800,12.096517822265625,-4.500650208282471,-4.439298790740967,-0.31872809600830077
1788965064664520400,12.1065205078125,-4.439598065948486,-4.961534027862548,-0.6238391700744629
1788965064674522600,12.116522705078125,-5.055805718231201,-5.5558945899963375,-0.8954314208984374
1788965064684525600,12.126525634765626,-6.011241818237305,-6.07139613494873,-0.7673416320800781
1788965064694527700,12.13652783203125,-7.069628589630127,-6.350320628356934,-0.38741175613403317
1788965064704530400,12.146530517578125,-7.8052470497131345,-6.338948170471191,0.09083002548217772
1788965064714533600,12.15653369140625,-7.851335431671142,-5.882104566192627,0.5003881469726562
1788965064724535600,12.16653564453125,-7.407959211730956,-5.331438184356689,0.6690297264099121
1788965064734538500,12.17653857421875,-6.914903307342529,-5.0294694999694824,0.47375265350341794
1788965064744540400,12.18654052734375,-6.586149491882324,-4.857835168457031,0.20470424194335937
1788965064754543600,12.196543701171874,-6.467786147308349,-4.790198971557617,-0.10265139617919922
1788965064764546600,12.206546630859375,-6.4834980957031245,-4.8235681571960445,-0.4010287780761719
1788965064774548500,12.216548583984375,-6.666654522705078,-4.881028997039794,-0.5023334358215332
1788965064784551700,12.2265517578125,-6.949918506622314,-5.140201326751709,-0.405368268585205
1788965064794553600,12.2365537109375,-7.351396197509765,-5.497984837341308,-0.1562216583251953
1788965064804556500,12.246556640625,-7.873481797027587,-5.932382801055907,0.07152677459716797
1788965064814559500,12.2565595703125,-8.404994565582275,-6.168211664581299,0.17088614349365233
1788965064824561700,12.266561767578125,-8.636184663391113,-6.151452252960205,0.29718028106689454
1788965064834564400,12.276564453125,-8.747215765380858,-6.098330903625488,0.6153098266601562
1788965064844566500,12.28656640625,-8.89969648361206,-6.29510435256958,1.0715548805236816
1788965064854569500,12.296569580078126,-8.98214680328369,-6.482450632476806,1.3970166687011718
1788965064864572400,12.306572509765624,-8.95700768585205,-6.592733546447754,1.617133583831787
1788965064874574600,12.31657470703125,-8.709058176422118,-6.6820671958923334,1.5846622238159178
1788965064884577500,12.32657763671875,-8.770259956359864,-6.634931350708007,1.5752350547790526
1788965064894579700,12.336579833984375,-9.260173471069335,-6.436811163330078,1.5722423027038572
1788965064904582400,12.34658251953125,-9.939079279327393,-6.1818286865234375,1.4662988792419434
1788965064914585600,12.356585693359374,-10.466851107788086,-5.899312890625,1.2606968116760253
1788965064924587500,12.36658740234375,-10.729465102386474,-5.599289495086669,0.8541314422607421
1788965064934590500,12.376590576171875,-10.724676699066162,-5.268590390777588,0.1867477294921875
1788965064944593400,12.386593505859375,-10.394576145172119,-4.8977884086608885,-0.39863457641601563
1788965064954595600,12.396595703125,-9.89583401184082,-4.52638787612915,-0.877175633239746
1788965064964598500,12.4065986328125,-9.27633433227539,-4.092738100433349,-1.261594637298584
1788965064974600400,12.416600341796874,-8.766818291473388,-3.7050270690917966,-1.4315829551696777
1788965064984603600,12.426603759765625,-8.513631465911864,-3.417722869873047,-1.565358972930908
1788965064994605600,12.43660546875,-8.583961139678955,-3.3807623817443844,-1.6481085678100584
1788965065004608500,12.4466083984375,-8.570942668151854,-3.510797459411621,-1.80672442779541
1788965065014611500,12.456611572265626,-8.61897633895874,-3.8584056129455564,-2.1006126815795896
1788965065024613600,12.466613525390626,-8.904484886932373,-4.285471334075927,-2.2966379425048826
1788965065034616600,12.476616455078124,-9.329605319213867,-4.733635957336426,-2.264465857696533
1788965065044619500,12.48661962890625,-9.606135610961914,-5.173271237182617,-2.088791310882568
1788965065054621400,12.496621337890625,-9.631723641204834,-5.482272888946533,-1.975366007232666
1788965065064624600,12.506624755859375,-9.518298337554931,-5.6564510597229,-2.100911956787109
1788965065074626600,12.51662646484375,-9.075670305633544,-5.814318731689453,-2.016217073059082
1788965065084629500,12.52662939453125,-8.884583085632324,-5.992537117767333,-1.7227777320861815
1788965065094632700,12.5366328125,-8.82996536026001,-6.021566812896729,-1.805527326965332
1788965065104634600,12.546634521484375,-8.624812205505371,-5.84783755493164,-2.4179940391540526
1788965065114637300,12.55663720703125,-8.503007196044921,-5.686827493286133,-3.4262522132873534
1788965065124639200,12.56663916015625,-8.264185580444336,-5.377526566314697,-4.469226311492919
1788965065134642400,12.576642333984376,-8.28693049621582,-4.7104421287536615,-4.753388121032715
1788965065144645400,12.586645263671874,-8.782679877471923,-3.8298248306274414,-4.419546627044677
1788965065154647300,12.596647216796875,-9.127594554138183,-3.0062194595336913,-4.304176034545899
1788965065164650500,12.606650390625,-9.181164816284179,-2.344821250915527,-4.372111506652832
1788965065174652400,12.61665234375,-9.073725016784667,-1.9928736068725585,-4.719869297790527
1788965065184655400,12.6266552734375,-8.397512685394286,-1.8596961395263671,-4.676474392700195
1788965065194658300,12.636658203125,-7.7136688362121575,-1.8203414497375487,-4.075080863189697
1788965065204660500,12.646660400390624,-7.7127710105895995,-1.9072808975219726,-3.5722985145568846
1788965065214663200,12.6566630859375,-7.877671649932861,-2.0431518417358396,-3.0482676261901855
1788965065224665300,12.666665283203125,-7.974786454772949,-1.9636942741394041,-3.0036756202697754
1788965065234668500,12.67666845703125,-7.469310629272461,-1.3781623306274413,-3.5839702476501465
1788965065244671200,12.686671142578126,-6.886621800231933,-0.3268085266113281,-4.645499408721924
1788965065254673400,12.69667333984375,-6.844423995971679,0.41195232315063474,-5.7423430442810055
1788965065264676400,12.70667626953125,-6.946626479339599,0.7683890953063964,-5.354931288146973
1788965065274679300,12.71667919921875,-6.574328121185302,0.37229835815429685,-3.9709330909729004
1788965065284681200,12.72668115234375,-6.479906793212891,-1.0351929428100586,-5.01809704208374
1788965065294684400,12.736684326171876,-6.9527616210937495,-2.2227169662475585,-6.462997743988037
1788965065304686300,12.746686279296876,-7.538293564605713,-2.5891794578552245,-6.730250504302978
1788965065314689300,12.756689208984374,-7.8918872222900385,-2.24067347869873,-5.725583632659911
1788965065324692500,12.7666923828125,-7.920916917419433,-1.6231190879821777,-4.680963520812988
