time,seconds_elapsed,z,y,x
1788965052602113000,0.044113037109375,0.17520536482334137,0.9925153851509094,0.294686496257782
1788965052612115000,0.054114990234375,0.19669601321220398,1.1490296125411987,0.46103233098983765
1788965052622118000,0.064117919921875,0.19587096571922302,1.2983826398849487,0.6219807267189026
1788965052632119800,0.074119873046875,0.20774413645267487,1.4328573942184448,0.7676388621330261
1788965052642122000,0.0841220703125,0.22400407493114471,1.5899486541748047,0.8862717747688293
1788965052652125200,0.094125244140625,0.21581672132015228,1.8071709871292114,0.9775851964950562
1788965052662127000,0.104127197265625,0.2057560831308365,2.0639286041259766,1.017560601234436
1788965052672129000,0.11412890625,0.22174863517284393,2.3548402786254883,1.0123075246810913
1788965052682131000,0.124130859375,0.2637128531932831,2.692751407623291,0.9490595459938049
1788965052692134000,0.1341337890625,0.3769283592700958,2.353238582611084,0.7669482827186584
1788965052702136000,0.144135986328125,0.4861920177936554,1.8872342109680176,0.5349193215370178
1788965052712138000,0.154137939453125,0.5640814900398254,1.6476037502288818,0.32781729102134705
1788965052722140200,0.16414013671875,0.6959809064865112,1.6966900825500488,0.0912175253033638
1788965052732142800,0.174142822265625,0.8304052948951721,2.1692516803741455,-0.1056198999285698
1788965052742145000,0.18414501953125,0.9967833757400513,2.7226107120513916,-0.21755176782608032
1788965052752147000,0.19414697265625,1.1946974992752075,3.2197227478027344,-0.24304699897766113
1788965052762149000,0.204149169921875,1.299626350402832,3.8448283672332764,-0.09917797893285751
1788965052772152000,0.214152099609375,1.3520925045013428,4.52953577041626,0.17745546996593475
1788965052782154000,0.224154052734375,1.4149219989776611,5.119409561157227,0.4594607949256897
1788965052792156000,0.234156005859375,1.521857500076294,5.796750068664551,0.6821479201316833
1788965052802159000,0.2441591796875,1.5277361869812012,6.20794153213501,0.7577052712440491
1788965052812161000,0.2541611328125,1.3371689319610596,6.699887275695801,0.8584750294685364
1788965052822163200,0.2641630859375,1.283193826675415,7.458978652954102,0.9305947422981262
1788965052832165000,0.2741650390625,1.3788080215454102,8.003317832946777,0.9211354851722717
1788965052842168000,0.28416796875,1.3241511583328247,8.017696380615234,0.9842859506607056
1788965052852170000,0.294169921875,1.249501347541809,4.937841415405273,1.8608108758926392
1788965052862172000,0.304171875,0.9151068925857544,2.5156171321868896,2.5843052864074707
1788965052872175000,0.314175048828125,0.5354045629501343,1.2913249731063843,2.8055410385131836
1788965052882177000,0.324177001953125,0.4153575301170349,0.21748332679271698,2.924743175506592
1788965052892179000,0.334178955078125,0.5225670337677002,0.11307834833860397,2.794459104537964
1788965052902180900,0.344180908203125,0.6306775808334351,1.219085454940796,2.309361696243286
1788965052912184000,0.35418408203125,0.4193674325942993,1.4381637573242188,1.627265453338623
1788965052922186000,0.36418603515625,-0.10408938676118851,1.190240502357483,0.7877723574638367
1788965052932188200,0.374188232421875,-0.8009331822395325,0.9079488515853882,-0.18444494903087616
1788965052942191000,0.384191162109375,-1.5217899084091187,0.7489325404167175,-1.1760714054107666
1788965052952193000,0.394193115234375,-2.0470709800720215,0.7470625042915344,-1.9935179948806763
1788965052962195000,0.40419482421875,-2.3015129566192627,0.8622420430183411,-2.531719207763672
1788965052972197000,0.414197021484375,-2.338794469833374,1.1536837816238403,-2.7554640769958496
1788965052982199800,0.42419970703125,-2.2432875633239746,1.14005446434021,-2.6978445053100586
1788965052992202000,0.434201904296875,-2.141295909881592,0.9956437945365906,-2.4960930347442627
1788965053002204000,0.444203857421875,-2.0712859630584717,0.8235724568367004,-2.25301194190979
1788965053012207000,0.45420703125,-2.0297482013702393,0.5217888951301575,-2.109572649002075
1788965053022209000,0.464208984375,-1.9499452114105225,0.185615673661232,-2.089165687561035
1788965053032211000,0.4742109375,-1.8010636568069458,0.10433279722929001,-2.1806342601776123
1788965053042212900,0.484212890625,-1.6455880403518677,0.1973162740468979,-2.350437879562378
1788965053052216000,0.494216064453125,-1.6012191772460938,0.4181375801563263,-2.5452072620391846
1788965053062218000,0.504218017578125,-1.7607990503311157,0.7426549792289734,-2.7294678688049316
1788965053072220200,0.51422021484375,-2.133599281311035,1.039034128189087,-2.909719467163086
1788965053082222800,0.524222900390625,-2.613691568374634,1.2931764125823975,-3.0877716541290283
1788965053092225000,0.53422509765625,-3.0839293003082275,1.488077998161316,-3.313333034515381
1788965053102227000,0.54422705078125,-3.4531466960906982,1.5362465381622314,-3.638975143432617
1788965053112230000,0.55422998046875,-3.6654539108276367,1.477920413017273,-4.033032417297363
1788965053122232800,0.56423291015625,-3.7246897220611572,1.4281102418899536,-4.486695289611816
1788965053132234800,0.57423486328125,-3.6742069721221924,1.4322235584259033,-5.001528739929199
1788965053142236700,0.584236572265625,-3.555074453353882,1.6246744394302368,-5.539114952087402
1788965053152239900,0.594239990234375,-3.39568829536438,1.910765290260315,-6.045921802520752
1788965053162241800,0.60424169921875,-3.127779245376587,1.964909315109253,-6.453117370605469
1788965053172243700,0.61424365234375,-2.7053253650665283,1.7084276676177979,-6.671154499053955
1788965053182245600,0.62424560546875,-2.1499364376068115,1.3967243432998657,-6.552798271179199
1788965053192248800,0.634248779296875,-1.6250717639923096,0.9455302953720093,-6.103456497192383
1788965053202250800,0.644250732421875,-1.2581044435501099,0.5427120327949524,-5.4044880867004395
1788965053212253000,0.6542529296875,-1.0449700355529785,0.2821033298969269,-4.664876461029053
1788965053222255600,0.664255615234375,-0.917752206325531,0.2280329018831253,-3.90389347076416
1788965053232257800,0.6742578125,-0.8732640743255615,0.3778540790081024,-3.13952898979187
1788965053242259700,0.684259765625,-0.8401799201965332,0.6558486819267273,-2.4559166431427
1788965053252263000,0.694262939453125,-0.7117732167243958,0.95741868019104,-1.905388355255127
1788965053262264800,0.704264892578125,-0.3980448544025421,1.0659464597702026,-1.4291073083877563
1788965053272266800,0.714266845703125,0.05067675933241844,0.9496757984161377,-1.005989670753479
1788965053282269700,0.724269775390625,0.3659510910511017,0.7354660034179688,-0.5665252208709717
1788965053292271900,0.73427197265625,0.4600685238838196,0.44839268922805786,-0.1641889363527298
1788965053302273800,0.744273681640625,0.5287773013114929,0.1867094337940216,0.10526569932699203
1788965053312276000,0.75427587890625,0.6361801624298096,-0.126139298081398,0.22709786891937256
1788965053322278700,0.764278564453125,0.818376362323761,-0.37569373846054077,0.19986677169799805
1788965053332280800,0.77428076171875,0.9904466271400452,-0.5120925903320312,0.12849219143390656
1788965053342282800,0.78428271484375,1.132720947265625,-0.5570653676986694,0.16020511090755463
1788965053352286000,0.794285888671875,1.2299503087997437,-0.45940008759498596,0.3227705955505371
1788965053362287900,0.804287841796875,1.2588379383087158,-0.2446017563343048,0.5126494765281677
1788965053372289800,0.814289794921875,1.2170484066009521,0.01665966957807541,0.7145029306411743
1788965053382292700,0.824292724609375,1.1632109880447388,0.2294771373271942,0.9737241268157959
1788965053392295000,0.834294921875,1.11642587184906,0.4157679080963135,1.208556890487671
1788965053402296800,0.844296875,1.0001122951507568,0.5675076246261597,1.2325674295425415
1788965053412299800,0.8542998046875,0.7720956802368164,0.7046257853507996,0.9919193983078003
1788965053422301700,0.8643017578125,0.5100062489509583,0.9156967997550964,0.6189311742782593
1788965053432303900,0.874303955078125,0.37888073921203613,1.2830827236175537,0.24120622873306274
1788965053442305800,0.884305908203125,0.37472328543663025,1.7048393487930298,-0.09007929265499115
1788965053452309000,0.89430908203125,0.32287871837615967,2.1222448348999023,-0.4188486635684967
1788965053462311000,0.904310791015625,0.2632414996623993,2.475329875946045,-0.5355848670005798
1788965053472312600,0.9143125,0.24740366637706757,2.850754976272583,-0.5109966993331909
1788965053482315800,0.924315673828125,0.2088879644870758,3.1818621158599854,-0.5736419558525085
1788965053492318000,0.93431787109375,0.07734885066747665,3.385946750640869,-0.8929541707038879
1788965053502319900,0.94431982421875,-0.26111894845962524,3.48781418800354,-1.2735092639923096
1788965053512322800,0.95432275390625,-0.7380988001823425,3.594747304916382,-1.2726975679397583
1788965053522324700,0.96432470703125,-1.138998031616211,3.5240719318389893,-0.9486637711524963
1788965053532326700,0.97432666015625,-1.235743761062622,3.1983418464660645,-0.6363969445228577
1788965053542329900,0.984329833984375,-1.1053436994552612,2.745349645614624,-0.4603007733821869
1788965053552331800,0.994331787109375,-0.884871244430542,2.314516305923462,-0.4095017611980438
1788965053562333700,1.004333740234375,-0.6230161786079407,1.9376217126846313,-0.5449626445770264
1788965053572337000,1.0143369140625,-0.3388230502605438,1.3566899299621582,-0.8014807105064392
1788965053582338800,1.0243388671875,-0.17665493488311768,0.4209725260734558,-0.9671948552131653
1788965053592340700,1.0343408203125,-0.1464642733335495,-0.5932468175888062,-0.8873679041862488
1788965053602343700,1.04434375,-0.14656281471252441,-1.480443000793457,-0.40163692831993103
1788965053612345600,1.054345703125,-0.36386317014694214,-2.0693325996398926,0.44649627804756165
1788965053622347800,1.06434765625,-1.139510989189148,-1.894242763519287,1.5626153945922852
1788965053632350700,1.074350830078125,-2.3009066581726074,-1.7052921056747437,2.710021495819092
1788965053642353000,1.084352783203125,-3.495600700378418,-1.3867356777191162,3.634864091873169
1788965053652354800,1.094354736328125,-4.062536239624023,-0.5852535963058472,4.607091426849365
1788965053662357800,1.104357666015625,-4.226531028747559,0.17038825154304504,5.382385730743408
1788965053672359700,1.114359619140625,-4.200048446655273,0.8391649723052979,5.654550552368164
1788965053682361900,1.12436181640625,-3.663196325302124,1.106656551361084,5.3371124267578125
1788965053692364800,1.13436474609375,-2.677107810974121,0.21910464763641357,4.837035179138184
1788965053702366700,1.14436669921875,-1.9550316333770752,-1.6096636056900024,3.9022269248962402
1788965053712368600,1.15436865234375,-1.423673152923584,-2.3665764331817627,2.62886905670166
1788965053722371800,1.164371826171875,-0.6858089566230774,-3.118344783782959,1.740091323852539
1788965053732373800,1.174373779296875,0.07930201292037964,-4.022524833679199,1.2687368392944336
1788965053742376000,1.1843759765625,0.6217237114906311,-4.515140533447266,1.136222004890442
1788965053752378600,1.194378662109375,0.9550210237503052,-3.9119715690612793,1.063907504081726
1788965053762380800,1.204380859375,1.3078581094741821,-2.6756625175476074,0.7633978128433228
1788965053772382700,1.2143828125,1.3725508451461792,-1.035355567932129,0.10420896112918854
1788965053782386000,1.224385986328125,1.1278839111328125,0.029390379786491394,-0.7504391074180603
1788965053792387800,1.234387939453125,0.6645809412002563,-0.1867147535085678,-1.381546974182129
1788965053802389800,1.2443896484375,0.25277286767959595,-1.1666669845581055,-1.7535767555236816
1788965053812392700,1.254392822265625,-0.07235808670520782,-2.3004438877105713,-1.7731842994689941
1788965053822395000,1.264394775390625,-0.3156096339225769,-3.2282509803771973,-1.618823528289795
1788965053832396800,1.274396728515625,-0.5094714760780334,-3.6320042610168457,-1.5873878002166748
1788965053842399700,1.284399658203125,-0.818385660648346,-3.711399555206299,-1.7761918306350708
1788965053852401700,1.294401611328125,-1.0538173913955688,-3.542228937149048,-2.0477771759033203
1788965053862403800,1.30440380859375,-1.3081114292144775,-3.4582364559173584,-2.1798431873321533
1788965053872406800,1.31440673828125,-1.3236901760101318,-3.29545259475708,-2.09576678276062
1788965053882409000,1.324408935546875,-1.4462831020355225,-3.5092129707336426,-1.9605680704116821
1788965053892411000,1.334410888671875,-1.5736504793167114,-4.087108135223389,-2.0451886653900146
1788965053902413800,1.344413818359375,-1.5679563283920288,-4.514037609100342,-2.3910634517669678
1788965053912415700,1.354415771484375,-1.3219465017318726,-4.869202136993408,-2.7627530097961426
1788965053931795700,1.373795654296875,-0.873455822467804,-5.069441795349121,-2.7032270431518555
1788965053941797600,1.383797607421875,-0.7119582891464233,-4.533114433288574,-2.3794291019439697
1788965053951800800,1.39380078125,-0.4636789858341217,-3.6733100414276123,-1.9628788232803345
1788965053961802800,1.403802734375,-0.11207673698663712,-2.451939821243286,-1.765809178352356
1788965053971805000,1.413804931640625,0.4777175784111023,-1.0269665718078613,-1.5016875267028809
1788965053981807600,1.4238076171875,0.9392231106758118,-0.0628303587436676,-1.113371729850769
1788965053991809800,1.433809814453125,1.24897301197052,0.5173496603965759,-0.6740394234657288
1788965054001812700,1.443812744140625,1.4743521213531494,0.8639947175979614,-0.27859407663345337
1788965054011815000,1.45381494140625,1.6434729099273682,0.8837830424308777,-0.024469124153256416
1788965054021816800,1.46381689453125,1.7527402639389038,0.6347167491912842,0.12460850924253464
1788965054031819800,1.47381982421875,1.885698914527893,0.24964338541030884,0.3075319826602936
1788965054041821700,1.48382177734375,1.9198379516601562,-0.06298935413360596,0.5399860143661499
1788965054051823900,1.493823974609375,1.780981183052063,-0.22845634818077087,0.7166087031364441
1788965054061826800,1.503826904296875,1.5006132125854492,-0.29827138781547546,0.7239816784858704
1788965054071828700,1.513828857421875,1.1633012294769287,-0.4990425705909729,0.4969290792942047
1788965054081830700,1.52383056640625,0.9136184453964233,-0.7967746257781982,0.13557113707065582
1788965054091833900,1.533833740234375,0.8110827207565308,-1.0605969429016113,-0.17140690982341766
1788965054101835800,1.543835693359375,0.8444715738296509,-1.082743525505066,-0.270025372505188
1788965054111836700,1.553836669921875,0.8054640293121338,-0.835111677646637,-0.11716843396425247
1788965054121839900,1.56383984375,0.45740750432014465,-0.26947247982025146,0.2061944454908371
1788965054131841500,1.573841552734375,-0.2788396179676056,0.4393469989299774,0.4495341181755066
1788965054141844700,1.5838447265625,-1.0009267330169678,1.1195417642593384,0.46385714411735535
1788965054151846700,1.5938466796875,-1.5216010808944702,1.444356918334961,0.289753794670105
1788965054161848800,1.603848876953125,-1.8988882303237915,1.1846121549606323,-0.03176911547780037
1788965054171851800,1.613851806640625,-2.0922610759735107,0.4125231206417084,-0.40747004747390747
1788965054181853700,1.623853759765625,-2.008986473083496,-0.6513423323631287,-0.7173296213150024
1788965054191855600,1.633855712890625,-1.5813146829605103,-1.494785189628601,-0.7727420330047607
1788965054201858800,1.64385888671875,-0.9169833660125732,-1.806975245475769,-0.5623344779014587
1788965054211860700,1.65386083984375,-0.20165827870368958,-1.4991275072097778,-0.3248087167739868
1788965054221863700,1.66386376953125,0.4837610721588135,-0.7999504804611206,-0.1569768339395523
1788965054231865600,1.673865478515625,0.9968430399894714,0.09298959374427795,0.011755991727113724
1788965054241867800,1.68386767578125,1.3075900077819824,1.198328971862793,0.22379954159259796
1788965054251871000,1.69387109375,1.3227263689041138,2.1010901927948,0.378364622592926
1788965054261873000,1.703872802734375,1.0667014122009277,2.505532741546631,0.39206498861312866
1788965054271874600,1.71387451171875,0.6854992508888245,2.3288376331329346,0.27018222212791443
1788965054281877800,1.723877685546875,0.1942214071750641,1.6875636577606201,0.06953860074281693
1788965054291879700,1.733879638671875,-0.44969338178634644,0.6876833438873291,-0.07569742202758789
1788965054301881900,1.7438818359375,-1.296277642250061,-0.345831960439682,-0.1291518658399582
1788965054311884500,1.753884521484375,-2.2675139904022217,-1.2044119834899902,-0.10865244269371033
1788965054321886700,1.76388671875,-3.2438786029815674,-1.9028037786483765,-0.02947959490120411
1788965054331890000,1.773889892578125,-4.134464740753174,-2.4720826148986816,0.06748530268669128
1788965054341891800,1.783891845703125,-4.717919826507568,-2.6450624465942383,0.1260886937379837
1788965054351893800,1.793893798828125,-4.5146331787109375,-2.169778823852539,0.27041444182395935
1788965054361896700,1.803896728515625,-3.251506805419922,-1.4240449666976929,0.3618069291114807
1788965054371898600,1.813898681640625,-1.9938533306121826,-1.286553978919983,0.1318027675151825
1788965054381901800,1.82390185546875,-1.4312317371368408,-1.3981901407241821,-0.3286958634853363
1788965054391903700,1.83390380859375,-0.9457793235778809,-1.0121455192565918,-0.7239662408828735
1788965054401905700,1.84390576171875,-0.8296239376068115,-0.4854353964328766,-0.4482851028442383
1788965054411908900,1.853908935546875,-0.8452284932136536,0.4601620137691498,0.6281390190124512
1788965054421910800,1.863910888671875,-0.9100719094276428,1.0687345266342163,1.5433039665222168
1788965054431912700,1.87391259765625,-0.9309518933296204,-0.03293105214834213,1.0729899406433105
1788965054441915600,1.88391552734375,-0.8925679922103882,-0.8663422465324402,0.5527057647705078
1788965054451917600,1.89391748046875,-0.8006383776664734,-0.5836533308029175,0.41929394006729126
1788965054461920800,1.903920654296875,-0.8361247181892395,-0.114176906645298,0.3703807294368744
1788965054471923000,1.9139228515625,-0.9546276330947876,0.06696545332670212,0.041190315037965775
1788965054481924900,1.9239248046875,-0.9445558786392212,0.39757052063941956,-0.08561477065086365
1788965054491927800,1.933927734375,-0.6535932421684265,0.957870602607727,-0.1849011480808258
1788965054501929700,1.9439296875,-0.1736370325088501,1.5094125270843506,-0.5129450559616089
1788965054511933000,1.953932861328125,0.2068844735622406,1.6523633003234863,-0.8675186038017273
1788965054521934800,1.963934814453125,0.37250298261642456,1.567501187324524,-1.1287912130355835
1788965054531936800,1.973936767578125,0.2554118037223816,1.4323798418045044,-1.0801438093185425
1788965054541939700,1.983939697265625,0.03765976056456566,1.1866430044174194,-0.9610879421234131
1788965054551942000,1.99394189453125,-0.22993439435958862,1.129798412322998,-0.9717099666595459
1788965054561944800,2.00394482421875,-0.4036523997783661,1.3011882305145264,-1.060149073600769
1788965054571946800,2.01394677734375,-0.5560594797134399,1.534170389175415,-1.1090636253356934
1788965054581948700,2.02394873046875,-0.6567009091377258,1.8809176683425903,-0.9969457983970642
1788965054591952000,2.033951904296875,-0.720729410648346,1.5720043182373047,-1.0494362115859985
1788965054601953800,2.043953857421875,-0.8767091631889343,1.2640752792358398,-0.8726547360420227
1788965054611956700,2.053956787109375,-1.0867094993591309,1.1026922464370728,-0.5809632539749146
1788965054621958700,2.063958740234375,-1.2693477869033813,0.7795639634132385,-0.4281119406223297
1788965054631960800,2.0739609375,-1.4225772619247437,0.5786542892456055,-0.21958322823047638
1788965054641963800,2.0839638671875,-1.5356359481811523,0.3269943594932556,-0.1105605959892273
1788965054651966000,2.093966064453125,-1.5275455713272095,0.20751404762268066,-0.10640952736139297
1788965054661968600,2.10396875,-1.4689602851867676,0.19478945434093475,-0.17969173192977905
1788965054671970800,2.113970703125,-1.238214135169983,0.14674043655395508,-0.2692447900772095
1788965054681972700,2.12397265625,-0.9341138601303101,0.17737025022506714,-0.18260788917541504
1788965054691976000,2.133975830078125,-0.7767655253410339,0.007841411046683788,-0.1166299432516098
1788965054701977900,2.143977783203125,-0.6001420021057129,-0.13149410486221313,-0.0388917401432991
1788965054711980800,2.153980712890625,-0.3740854561328888,-0.13991954922676086,0.006549245677888393
1788965054721982700,2.163982666015625,-0.11169137805700302,-0.09437710046768188,-0.01696034148335457
1788965054731985000,2.17398486328125,0.12567856907844543,-0.08827286958694458,-0.029230322688817978
1788965054741987600,2.183987548828125,0.20621389150619507,-0.10582123696804047,-0.06494411081075668
1788965054751989800,2.19398974609375,0.2743668556213379,-0.01619654707610607,-0.10536583513021469
1788965054761992700,2.20399267578125,0.3082699477672577,-0.0005334311863407493,-0.09340691566467285
1788965054771995000,2.213994873046875,0.3448023796081543,-0.05548909306526184,-0.0685441717505455
1788965054781997600,2.22399755859375,0.3726758360862732,-0.06406527012586594,-0.017608555033802986
1788965054791999700,2.233999755859375,0.3910580277442932,-0.02563505619764328,0.03039625473320484
1788965054802001700,2.244001708984375,0.38993310928344727,-0.028297152370214462,0.04644313082098961
1788965054812004900,2.2540048828125,0.39411455392837524,0.01660347729921341,0.0626484677195549
1788965054822006800,2.2640068359375,0.38472023606300354,0.06395234912633896,0.01751667633652687
1788965054832009700,2.274009765625,0.364249587059021,0.1252218335866928,-0.00800466351211071
1788965054842011600,2.28401171875,0.37597230076789856,0.13560177385807037,-0.018853049725294113
1788965054852013800,2.294013916015625,0.3919382095336914,0.0976911410689354,-0.0309336818754673
1788965054862016800,2.304016845703125,0.40626654028892517,0.03569674491882324,-0.005762814078480005
1788965054872018700,2.314018798828125,0.4004930853843689,0.03278457745909691,0.021932195872068405
1788965054882021600,2.324021728515625,0.4009269177913666,-0.021877069026231766,0.0260624922811985
1788965054892023800,2.33402392578125,0.37704527378082275,-0.055927712470293045,0.024997495114803314
1788965054902026800,2.34402685546875,0.42283007502555847,0.01119006983935833,0.039742354303598404
1788965054912028700,2.354028564453125,0.39898332953453064,0.025480326265096664,0.0068115671165287495
1788965054922030600,2.364030517578125,0.35383370518684387,0.1088431254029274,-0.03026922233402729
1788965054932033800,2.37403369140625,0.2897268831729889,0.18081185221672058,-0.012464659288525581
1788965054942035700,2.38403564453125,0.28774577379226685,0.17962142825126648,0.05470239371061325
1788965054952038700,2.39403857421875,0.3203071653842926,0.01050270814448595,0.069841668009758
1788965054962040600,2.40404052734375,0.33535856008529663,-0.17181622982025146,0.11200802773237228
1788965054972042800,2.414042724609375,0.34443166851997375,-0.2592872381210327,0.1453116536140442
1788965054982045700,2.424045654296875,0.3251464068889618,-0.24464383721351624,0.08155903965234756
1788965054992047900,2.4340478515625,0.3173007369041443,-0.08422859758138657,0.020329240709543228
1788965055002050600,2.444050537109375,0.26155197620391846,0.0963214784860611,0.004193946253508329
1788965055012052700,2.454052734375,0.2093753218650818,0.11688774079084396,0.13533945381641388
1788965055022056000,2.464055908203125,0.1779835820198059,-0.009896306321024895,0.3489731550216675
1788965055032057900,2.474057861328125,0.09294671565294266,-0.0899309515953064,0.5820378661155701
1788965055042059800,2.484059814453125,-0.01744423806667328,-0.05254736542701721,0.7776814103126526
1788965055052062700,2.494062744140625,-0.07715097814798355,0.02047038823366165,0.9228937029838562
1788965055062064600,2.504064697265625,-0.08607815951108932,-0.016925720497965813,1.0370460748672485
1788965055072067800,2.51406787109375,-0.10947669297456741,0.039323702454566956,0.7937064170837402
1788965055082069800,2.52406982421875,-0.12518560886383057,0.17568820714950562,0.44989311695098877
1788965055092072700,2.53407275390625,-0.0782276913523674,0.04168353229761124,0.16625289618968964
1788965055102075000,2.544074951171875,-0.05481185019016266,-0.172634094953537,0.08448958396911621
1788965055112078000,2.554078125,-0.0493377223610878,-0.24525582790374756,0.0731264054775238
1788965055122080300,2.564080322265625,-0.03870585188269615,-0.14573243260383606,0.07299218326807022
1788965055132082200,2.574082275390625,-0.0355587936937809,0.00014647385978605598,0.055689360946416855
1788965055142085400,2.58408544921875,-0.030007699504494667,0.12394298613071442,0.01641945354640484
1788965055152087300,2.59408740234375,-0.03489300236105919,0.15601623058319092,-0.024037159979343414
1788965055162090200,2.60409033203125,-0.03771142661571503,0.12150725722312927,-0.06985924392938614
1788965055172092200,2.614092041015625,-0.02359028160572052,0.07965168356895447,-0.12203216552734375
1788965055182095400,2.624095458984375,-0.015338209457695484,0.09491239488124847,-0.21083314716815948
1788965055192097300,2.63409716796875,-0.031156055629253387,0.18125660717487335,-0.35405659675598145
1788965055202099200,2.64409912109375,-0.04152800142765045,0.31340745091438293,-0.5040485262870789
1788965055212102400,2.654102294921875,-0.04929191619157791,0.4430125951766968,-0.604983389377594
1788965055222104300,2.664104248046875,-0.08913014084100723,0.5648561716079712,-0.6735262274742126
1788965055232107500,2.674107421875,-0.1117773950099945,0.67050701379776,-0.698074460029602
1788965055242109200,2.684109130859375,-0.13394048810005188,0.7155532836914062,-0.6880462765693665
1788965055252112400,2.6941123046875,-0.10828865319490433,0.6849205493927002,-0.6428253054618835
1788965055262114300,2.7041142578125,-0.03223143890500069,0.6079367995262146,-0.5237825512886047
1788965055272117500,2.714117431640625,0.038846466690301895,0.4923630952835083,-0.3499681353569031
1788965055282119200,2.724119140625,0.07886631786823273,0.33008629083633423,-0.18252506852149963
1788965055292121300,2.734121337890625,0.13441826403141022,0.21835923194885254,-0.03345036879181862
1788965055302124300,2.744124267578125,0.1393994390964508,0.20240449905395508,0.0627446100115776
1788965055312126500,2.75412646484375,0.05639350041747093,0.23692838847637177,0.0335230715572834
1788965055322129200,2.764129150390625,-0.0015297196805477142,0.3606034517288208,-0.033010415732860565
1788965055332131300,2.77413134765625,-0.046304915100336075,0.39997029304504395,-0.10947855561971664
1788965055342134300,2.78413427734375,-0.04968952387571335,0.29526999592781067,-0.15694008767604828
1788965055352136400,2.794136474609375,-0.020323913544416428,0.1560671031475067,-0.14203757047653198
1788965055362139100,2.80413916015625,-0.007683219853788614,0.031438350677490234,-0.14720356464385986
1788965055372141300,2.814141357421875,-0.011178351938724518,0.024872859939932823,-0.11975010484457016
1788965055382143200,2.824143310546875,-0.036607012152671814,0.02634585276246071,-0.09736383706331253
1788965055392146400,2.834146484375,-0.060202620923519135,0.022123944014310837,-0.02599857747554779
1788965055402148400,2.8441484375,-0.12979847192764282,0.0017483652336522937,0.057734936475753784
1788965055412151300,2.8541513671875,-0.23523008823394775,0.005739910993725061,0.12359917163848877
1788965055422153200,2.8641533203125,-0.33130577206611633,0.06726958602666855,0.1713280826807022
1788965055432156400,2.874156494140625,-0.3977912962436676,0.15173786878585815,0.19500677287578583
1788965055442158300,2.884158447265625,-0.39850902557373047,0.17357392609119415,0.19638629257678986
1788965055452161300,2.894161376953125,-0.3633396029472351,0.06306552141904831,0.2015107423067093
1788965055462163200,2.9041630859375,-0.31497737765312195,-0.16220594942569733,0.20609857141971588
1788965055472166400,2.91416650390625,-0.2835531532764435,-0.3920553922653198,0.15977981686592102
1788965055482168300,2.924168212890625,-0.27601906657218933,-0.5670056343078613,0.10319642722606659
1788965055492170200,2.934170166015625,-0.26886820793151855,-0.7345131635665894,0.03151318430900574
1788965055502173200,2.944173095703125,-0.25008681416511536,-0.8924665451049805,-0.03943129628896713
1788965055512175400,2.95417529296875,-0.22553539276123047,-0.996354341506958,-0.10080144554376602
1788965055522178300,2.96417822265625,-0.2067723572254181,-1.0719923973083496,-0.13706117868423462
1788965055532180200,2.97418017578125,-0.13108718395233154,-1.1067066192626953,-0.18439939618110657
1788965055542183400,2.984183349609375,-0.061958976089954376,-1.1274524927139282,-0.24981781840324402
1788965055552185300,2.994185302734375,-0.021168667823076248,-1.1294915676116943,-0.30164825916290283
1788965055562188300,3.004188232421875,-0.009376191534101963,-1.1085256338119507,-0.34431716799736023
1788965055572190200,3.014190185546875,-0.027569042518734932,-1.0402690172195435,-0.37195679545402527
1788965055582193400,3.024193359375,-0.06521202623844147,-0.930681586265564,-0.38143789768218994
1788965055592195300,3.0341953125,-0.10647104680538177,-0.8079801797866821,-0.3709149658679962
1788965055602198300,3.0441982421875,-0.1560564488172531,-0.6794602870941162,-0.36000052094459534
1788965055612200200,3.0542001953125,-0.21910864114761353,-0.5528671741485596,-0.3348168730735779
1788965055622202400,3.064202392578125,-0.2637338936328888,-0.4713723063468933,-0.29005900025367737
1788965055632205300,3.074205322265625,-0.2997361123561859,-0.4670931398868561,-0.23859073221683502
1788965055642207500,3.08420751953125,-0.3274601399898529,-0.5173171758651733,-0.1999722421169281
1788965055652210200,3.094210205078125,-0.34742215275764465,-0.46588486433029175,-0.21817095577716827
1788965055662212400,3.10421240234375,-0.34683918952941895,-0.33425626158714294,-0.287217915058136
1788965055672215300,3.11421533203125,-0.3257996737957001,-0.20172113180160522,-0.36322614550590515
1788965055682217500,3.124217529296875,-0.323003888130188,-0.05837009847164154,-0.41590532660484314
1788965055692220200,3.13422021484375,-0.3346107304096222,0.11441419273614883,-0.4489370584487915
1788965055702222300,3.144222412109375,-0.35652828216552734,0.27930647134780884,-0.4712466299533844
1788965055712225300,3.154225341796875,-0.3963388204574585,0.43489205837249756,-0.4782467484474182
1788965055722227500,3.1642275390625,-0.44665178656578064,0.5207811594009399,-0.46815335750579834
1788965055732230100,3.174230224609375,-0.5085415244102478,0.5250576734542847,-0.4497080445289612
1788965055742232300,3.184232421875,-0.5866270065307617,0.48542076349258423,-0.4007655382156372
1788965055752234200,3.194234130859375,-0.7032116651535034,0.44454631209373474,-0.3337862193584442
1788965055762237200,3.2042373046875,-0.8530304431915283,0.4137050211429596,-0.2511025369167328
1788965055772239000,3.214239013671875,-1.0586568117141724,0.3796868622303009,-0.16643957793712616
1788965055782242300,3.2242421875,-1.2599198818206787,0.30764490365982056,-0.12246013432741165
1788965055792244200,3.234244140625,-1.2984867095947266,0.27443554997444153,-0.11551593989133835
1788965055802247200,3.2442470703125,-1.240322470664978,0.24667130410671234,-0.11536547541618347
1788965055812249000,3.2542490234375,-1.1952283382415771,0.1331854909658432,-0.12802773714065552
1788965055822252300,3.264252197265625,-1.1565948724746704,0.05029033496975899,-0.14253637194633484
1788965055832254500,3.27425439453125,-1.1278841495513916,0.042210303246974945,-0.14308232069015503
1788965055842257200,3.284257080078125,-1.1101226806640625,0.08679801225662231,-0.12026329338550568
1788965055852259300,3.29425927734375,-1.1103986501693726,0.14023727178573608,-0.09138557314872742
1788965055862262300,3.30426220703125,-1.1313854455947876,0.19220831990242004,-0.05345363914966583
1788965055872264400,3.314264404296875,-1.159532904624939,0.23766076564788818,-0.022916235029697418
1788965055882267100,3.32426708984375,-1.1812280416488647,0.3091226816177368,-0.024985777214169502
1788965055892269300,3.334269287109375,-1.232382893562317,0.29534590244293213,-0.048230379819869995
1788965055902272300,3.344272216796875,-1.2860589027404785,0.21291227638721466,-0.07852943241596222
1788965055912274400,3.3542744140625,-1.349027156829834,0.09689165651798248,-0.10943301767110825
1788965055922277000,3.364277099609375,-1.4063043594360352,-0.06801926344633102,-0.1322762817144394
1788965055932279300,3.374279296875,-1.4260483980178833,-0.19753411412239075,-0.13580310344696045
1788965055942282200,3.3842822265625,-1.4074270725250244,-0.2725905179977417,-0.11965875327587128
1788965055952284400,3.394284423828125,-1.3472883701324463,-0.3023177981376648,-0.09289691597223282
1788965055962287000,3.404287109375,-1.2494782209396362,-0.24162088334560394,-0.05247785523533821
1788965055972289300,3.414289306640625,-1.139662504196167,-0.14692339301109314,-0.009355951100587845
1788965055982291200,3.424291259765625,-1.06832754611969,-0.03623070940375328,-0.027803935110569
1788965055992294400,3.43429443359375,-1.0185879468917847,0.005598230753093958,-0.07744765281677246
1788965056002297300,3.44429736328125,-0.9906207919120789,0.0017273263074457645,-0.1285388022661209
1788965056012299300,3.45429931640625,-0.9900652766227722,-0.0031707596499472857,-0.15783889591693878
1788965056022301200,3.46430126953125,-1.022589921951294,0.04427212476730347,-0.16717034578323364
1788965056032304400,3.474304443359375,-1.075127124786377,0.10442174971103668,-0.18523190915584564
1788965056042306300,3.484306396484375,-1.1344046592712402,0.05053454637527466,-0.23470064997673035
1788965056052309200,3.494309326171875,-1.2055834531784058,-0.12008805572986603,-0.2955187261104584
1788965056062311400,3.5043115234375,-1.246433138847351,-0.27108344435691833,-0.3330024480819702
1788965056072314400,3.514314453125,-1.2377264499664307,-0.20563970506191254,-0.32303664088249207
1788965056082316300,3.52431640625,-1.1853442192077637,-0.06344369053840637,-0.27367547154426575
1788965056092319200,3.5343193359375,-1.1383212804794312,0.014768293127417564,-0.2435910850763321
1788965056102321400,3.5443212890625,-1.098129391670227,0.027599137276411057,-0.2535286843776703
1788965056112323800,3.55432373046875,-1.059944748878479,0.006712497677654028,-0.29032716155052185
1788965056122325800,3.56432568359375,-1.0274955034255981,0.1156134158372879,-0.2783498764038086
1788965056132328700,3.57432861328125,-1.0198290348052979,0.24771739542484283,-0.2691483795642853
1788965056142330600,3.58433056640625,-0.9864454865455627,0.40074422955513,-0.2563284635543823
1788965056152333800,3.594333740234375,-0.9418703317642212,0.4588557183742523,-0.2853561043739319
1788965056162336000,3.6043359375,-0.8735655546188354,0.3774319887161255,-0.3017220199108124
1788965056172338700,3.614338623046875,-0.7625802159309387,0.1645870804786682,-0.25776922702789307
1788965056182340900,3.6243408203125,-0.6722732186317444,-0.10850277543067932,-0.19528241455554962
1788965056192343800,3.63434375,-0.6378656625747681,-0.2861068546772003,-0.15642529726028442
1788965056202345700,3.644345703125,-0.6370078921318054,-0.28447088599205017,-0.15222415328025818
1788965056212348700,3.6543486328125,-0.6659718751907349,-0.14005324244499207,-0.16576606035232544
1788965056222350800,3.664350830078125,-0.7320595979690552,0.10371707379817963,-0.19189566373825073
1788965056232353800,3.674353759765625,-0.7859758138656616,0.34905174374580383,-0.233623668551445
1788965056242355700,3.684355712890625,-0.8202858567237854,0.4981416165828705,-0.3112100660800934
1788965056252358700,3.694358642578125,-0.7968841195106506,0.5342117547988892,-0.34854093194007874
1788965056262360800,3.70436083984375,-0.6849660873413086,0.5444033741950989,-0.35895204544067383
1788965056272363800,3.71436376953125,-0.5425687432289124,0.4820515811443329,-0.3764133155345917
1788965056282365700,3.72436572265625,-0.482072114944458,0.26772359013557434,-0.36643391847610474
1788965056292368600,3.73436865234375,-0.5090078711509705,0.10244248807430267,-0.38206934928894043
1788965056302370800,3.744370849609375,-0.5859548449516296,0.05559242144227028,-0.34854865074157715
1788965056312373800,3.754373779296875,-0.6551852822303772,0.05765584111213684,-0.28468579053878784
1788965056322375700,3.764375732421875,-0.7335559725761414,0.10401135683059692,-0.20112085342407227
1788965056332379000,3.77437890625,-0.7894093990325928,0.23625221848487854,-0.10621858388185501
1788965056342380800,3.784380859375,-0.8329925537109375,0.3631846010684967,-0.035943351686000824
1788965056352383700,3.7943837890625,-0.788794994354248,0.41559746861457825,-0.002273007994517684
1788965056362385700,3.8043857421875,-0.6538792848587036,0.35798609256744385,-0.013162140734493732
1788965056372388900,3.814388916015625,-0.48576855659484863,0.25328364968299866,-0.04224013164639473
1788965056382390800,3.824390869140625,-0.32190611958503723,0.20557285845279694,-0.06523013859987259
1788965056392393700,3.834393798828125,-0.22686058282852173,0.15792837738990784,-0.07217885553836823
1788965056402395600,3.844395751953125,-0.16858422756195068,0.08549226075410843,-0.07163557410240173
1788965056412398800,3.85439892578125,-0.12538854777812958,-0.039445675909519196,-0.024332502856850624
1788965056422400800,3.86440087890625,-0.07187499105930328,-0.08907235413789749,-0.0022591594606637955
1788965056432403700,3.87440380859375,-0.07001583278179169,-0.1299111247062683,0.011877166107296944
1788965056442405600,3.884405517578125,-0.1304139345884323,-0.044983986765146255,0.04676803946495056
1788965056452408800,3.894408935546875,-0.15335306525230408,0.08562888205051422,0.036253612488508224
1788965056462410800,3.90441064453125,-0.10734563320875168,0.19739030301570892,-0.01290354784578085
1788965056472413700,3.91441357421875,-0.08862121403217316,0.20363648235797882,-0.03683258220553398
1788965056482415600,3.92441552734375,-0.09040126949548721,0.1892053484916687,-0.03208975866436958
1788965056492418800,3.934418701171875,-0.07396450638771057,0.23773346841335297,-0.054431017488241196
1788965056502420700,3.944420654296875,-0.07695603370666504,0.14859320223331451,-0.048718005418777466
1788965056512423700,3.954423583984375,-0.18218551576137543,0.03695748373866081,-0.015779228881001472
1788965056522425600,3.964425537109375,-0.29506999254226685,0.05175667256116867,-0.006988667417317629
1788965056532428800,3.9744287109375,-0.3488360047340393,0.1516057699918747,-0.04392458125948906
1788965056542430700,3.9844306640625,-0.33342376351356506,0.22802917659282684,-0.09437496960163116
1788965056552433700,3.99443359375,-0.33107805252075195,0.24034708738327026,-0.08965025842189789
1788965056562435800,4.004435791015625,-0.3245173692703247,0.29046937823295593,-0.050209373235702515
1788965056572438800,4.014438720703125,-0.2723734676837921,0.34407269954681396,-0.03816043585538864
1788965056582441000,4.02444091796875,-0.14166311919689178,0.400260865688324,-0.083077572286129
1788965056592443600,4.034443603515625,-0.05751735344529152,0.2949269711971283,-0.13412664830684662
1788965056602445800,4.04444580078125,-0.0650748759508133,0.16972112655639648,-0.16887609660625458
1788965056612448800,4.05444873046875,-0.06626850366592407,0.09944110363721848,-0.22876952588558197
1788965056622451000,4.064450927734375,-0.022295719012618065,0.0075788237154483795,-0.32040145993232727
1788965056632453600,4.07445361328125,-0.025121064856648445,-0.1900722086429596,-0.3253336250782013
1788965056642455800,4.084455810546875,-0.04452938586473465,-0.2359643280506134,-0.30586403608322144
1788965056652458800,4.094458740234375,-0.03881823644042015,-0.20056559145450592,-0.27902525663375854
1788965056662461700,4.104461669921875,-0.05022189021110535,-0.16072815656661987,-0.24245710670948029
1788965056672463600,4.114463623046875,-0.04478584602475166,-0.12091150879859924,-0.23024944961071014
1788965056682466800,4.124466796875,-0.029628731310367584,0.01401648297905922,-0.17816200852394104
1788965056692468700,4.13446875,-0.0362115353345871,0.1588655412197113,-0.061891064047813416
1788965056702471700,4.1444716796875,-0.0701359435915947,0.41088953614234924,0.11874449253082275
1788965056712473900,4.154473876953125,-0.10948175191879272,0.7359049320220947,0.33569252490997314
1788965056722476800,4.164476806640625,-0.08944226801395416,1.001503348350525,0.4805471897125244
1788965056732479000,4.17447900390625,-0.0027742148377001286,0.9991970062255859,0.5035049319267273
1788965056742481700,4.184481689453125,0.1065346971154213,0.7927133440971375,0.4428975284099579
1788965056752483800,4.19448388671875,0.2807246148586273,0.5277423858642578,0.3423437774181366
1788965056762486800,4.20448681640625,0.4924943745136261,0.3209407329559326,0.31321677565574646
1788965056772489000,4.214489013671875,0.6580561995506287,0.14346368610858917,0.35995951294898987
1788965056782491600,4.22449169921875,0.7357232570648193,-0.11272361874580383,0.47057604789733887
1788965056792493800,4.234493896484375,0.8008245229721069,-0.38499295711517334,0.5961728692054749
1788965056802496800,4.244496826171875,0.8534677624702454,-0.5674125552177429,0.7023898363113403
1788965056812498700,4.254498779296875,0.8429285883903503,-0.6024168729782104,0.7771031856536865
1788965056822501600,4.264501708984375,0.8314021229743958,-0.4566303789615631,0.8492602109909058
1788965056832503800,4.27450390625,0.7676593661308289,-0.2584669589996338,0.9158938527107239
1788965056842506800,4.2845068359375,0.6964669823646545,-0.08484085649251938,1.001369833946228
1788965056852508700,4.2945087890625,0.6146684885025024,0.05449333414435387,1.1115903854370117
1788965056862511900,4.304511962890625,0.4762139320373535,0.08106156438589096,1.2013514041900635
1788965056872513800,4.314513671875,0.3464120030403137,-0.01804558001458645,1.2339162826538086
1788965056882516700,4.324516845703125,0.2844274640083313,-0.23281380534172058,1.2778691053390503
1788965056892518700,4.3345185546875,0.2731148898601532,-0.5054793953895569,1.3343286514282227
1788965056902521900,4.34452197265625,0.2551896870136261,-0.7532380819320679,1.3634068965911865
1788965056912524800,4.35452490234375,0.2631205916404724,-0.8560557961463928,1.3486098051071167
1788965056922526700,4.364526611328125,0.29585695266723633,-0.8196807503700256,1.3397668600082397
1788965056932529700,4.37452978515625,0.3200501799583435,-0.840191125869751,1.3674242496490479
1788965056942531800,4.38453173828125,0.38867291808128357,-0.9606839418411255,1.371968150138855
1788965056952534800,4.39453466796875,0.41384777426719666,-1.1597394943237305,1.3042844533920288
1788965056962536700,4.40453662109375,0.3427802622318268,-1.2330526113510132,1.270123839378357
1788965056972539600,4.41453955078125,0.2667272984981537,-1.0428624153137207,1.2782403230667114
1788965056982541800,4.424541748046875,0.24468643963336945,-0.8430414795875549,1.1892458200454712
1788965056992544800,4.434544677734375,0.2159259021282196,-0.842730700969696,1.043199896812439
1788965057002546700,4.444546630859375,0.16489307582378387,-0.8594691753387451,0.9359415769577026
1788965057012549600,4.454549560546875,0.06813457608222961,-0.8293520212173462,0.8281578421592712
1788965057022551800,4.4645517578125,-0.03303331881761551,-0.7427375316619873,0.6698201894760132
1788965057032554800,4.4745546875,-0.10361108183860779,-0.604160726070404,0.49808862805366516
1788965057042556700,4.484556640625,-0.16825371980667114,-0.4656614363193512,0.3597443103790283
1788965057052560000,4.494559814453125,-0.20414647459983826,-0.36486637592315674,0.2498721480369568
1788965057062561800,4.504561767578125,-0.23040178418159485,-0.25278565287590027,0.13175803422927856
1788965057072564700,4.514564697265625,-0.25856390595436096,-0.20840780436992645,-0.036922864615917206
1788965057082566700,4.524566650390625,-0.26326119899749756,-0.26022544503211975,-0.22769521176815033
1788965057092569900,4.53456982421875,-0.21918508410453796,-0.32542362809181213,-0.3038235306739807
1788965057102572800,4.54457275390625,-0.21149148046970367,-0.3389517068862915,-0.34282100200653076
1788965057112575500,4.554575439453125,-0.23993723094463348,-0.26685965061187744,-0.39133739471435547
1788965057122578700,4.56457861328125,-0.2303605079650879,-0.1281353384256363,-0.3908015787601471
1788965057132580600,4.57458056640625,-0.22254225611686707,-0.024575650691986084,-0.36432868242263794
1788965057142583600,4.58458349609375,-0.2367723286151886,0.07938963174819946,-0.36018428206443787
1788965057152585500,4.59458544921875,-0.2457415908575058,0.19668562710285187,-0.37824317812919617
1788965057162588700,4.604588623046875,-0.36842358112335205,0.23883548378944397,-0.39482322335243225
1788965057172590600,4.614590576171875,-0.5289482474327087,0.2577340602874756,-0.37592461705207825
1788965057182593500,4.624593505859375,-0.6074097752571106,0.28300613164901733,-0.32501882314682007
1788965057192595500,4.634595458984375,-0.6372368931770325,0.2694977819919586,-0.2752435505390167
1788965057202598700,4.6445986328125,-0.6802288889884949,0.26045769453048706,-0.18729186058044434
1788965057212600600,4.6546005859375,-0.7280358076095581,0.2791813015937805,-0.11102612316608429
1788965057222603500,4.664603515625,-0.7967323064804077,0.34284737706184387,-0.06693269312381744
1788965057232605400,4.67460546875,-0.829964280128479,0.4740160405635834,-0.04676084592938423
1788965057242608600,4.684608642578125,-0.7432531118392944,0.5489821434020996,-0.0275043286383152
1788965057252611300,4.694611328125,-0.5991819500923157,0.5606300234794617,-0.008372711949050426
1788965057262613500,4.704613525390625,-0.45357680320739746,0.5685933828353882,0.025431590154767036
1788965057272616700,4.71461669921875,-0.3241887390613556,0.557173490524292,0.04688947647809982
1788965057282618600,4.72461865234375,-0.18312907218933105,0.4315974712371826,0.06499657779932022
1788965057292621600,4.73462158203125,-0.07603590935468674,0.2076117843389511,0.08986251056194305
1788965057302623500,4.74462353515625,-0.01757073774933815,0.0875823125243187,0.11980949342250824
1788965057312626700,4.754626708984375,-0.018908975645899773,0.04873238503932953,0.17433664202690125
1788965057322628600,4.764628662109375,-0.06799209862947464,0.02600070834159851,0.21638023853302002
1788965057332631600,4.774631591796875,-0.1367671638727188,-0.0246126689016819,0.2824050486087799
1788965057342633500,4.784633544921875,-0.17453664541244507,-0.12057941406965256,0.32342973351478577
1788965057352636700,4.79463671875,-0.1676393300294876,-0.2464662343263626,0.3419911563396454
1788965057362638600,4.804638671875,-0.192640021443367,-0.2942199110984802,0.31352436542510986
1788965057372641500,4.8146416015625,-0.2002073973417282,-0.29899469017982483,0.19783292710781097
1788965057382643500,4.8246435546875,-0.20008249580860138,-0.3186379075050354,0.037343110889196396
1788965057392646700,4.834646728515625,-0.14145833253860474,-0.49589815735816956,0.07664763927459717
1788965057402649300,4.8446494140625,-0.017129186540842056,-0.5253644585609436,0.19003517925739288
1788965057412651500,4.854651611328125,0.026318423449993134,-0.3131682872772217,0.24418416619300842
1788965057422654500,4.864654541015625,-0.09789566695690155,-0.0013696637470275164,0.21530379354953766
1788965057432656600,4.87465673828125,-0.1755151003599167,0.2777802050113678,0.16146452724933624
1788965057442659600,4.88465966796875,-0.1970273107290268,0.4438437521457672,0.0792977511882782
1788965057452661500,4.89466162109375,-0.13767078518867493,0.4605092704296112,-0.013367203995585442
1788965057462664700,4.904664794921875,-0.15201322734355927,0.30786755681037903,-0.08465283364057541
1788965057472666600,4.91466650390625,-0.23234082758426666,0.10131170600652695,-0.15065449476242065
1788965057482669600,4.924669677734375,-0.24877919256687164,0.06341918557882309,-0.1473766714334488
1788965057492671500,4.93467138671875,-0.2163328379392624,0.15451021492481232,-0.027306456118822098
1788965057502674700,4.9446748046875,-0.12660561501979828,0.13644865155220032,0.06410441547632217
1788965057512676400,4.95467626953125,-0.04385001212358475,0.10372373461723328,0.052008870989084244
1788965057522679600,4.964679443359375,0.00968831405043602,0.211188405752182,0.01998702436685562
1788965057532682500,4.9746826171875,0.01528654433786869,0.37713557481765747,-0.019654927775263786
1788965057542684700,4.9846845703125,0.0004801679460797459,0.450204461812973,-0.06124471500515938
1788965057552687400,4.994687255859375,-0.04575071111321449,0.43743327260017395,-0.13095828890800476
1788965057562689500,5.004689453125,-0.09264364838600159,0.40254053473472595,-0.1784760057926178
1788965057572692500,5.0146923828125,-0.10910731554031372,0.3589480519294739,-0.16486752033233643
1788965057582694700,5.024694580078125,-0.10746121406555176,0.3482424020767212,-0.09082204848527908
1788965057592697600,5.034697509765625,-0.09186521172523499,0.39480963349342346,-0.04051413759589195
1788965057602699500,5.044699462890625,-0.05727900192141533,0.5028365254402161,-0.08013797551393509
1788965057612702700,5.05470263671875,0.03002980351448059,0.45070672035217285,-0.09415126591920853
1788965057622704400,5.064704345703125,0.11371484398841858,0.30809685587882996,-0.07340151071548462
1788965057632707600,5.07470751953125,0.16706222295761108,0.25267618894577026,-0.0754643976688385
1788965057642710500,5.08471044921875,0.2562216520309448,0.2894083857536316,-0.14987099170684814
1788965057652712700,5.094712646484375,0.3411634564399719,0.24239400029182434,-0.25125327706336975
1788965057662715400,5.10471533203125,0.37977689504623413,0.10992037504911423,-0.3501329720020294
1788965057672717600,5.114717529296875,0.39139625430107117,0.052332714200019836,-0.3814626634120941
1788965057682720500,5.124720458984375,0.38442784547805786,0.10394690185785294,-0.344558984041214
1788965057692722400,5.134722412109375,0.3036480247974396,0.0678059458732605,-0.2817201018333435
1788965057702725400,5.144725341796875,0.35207122564315796,0.08036407828330994,-0.24030287563800812
1788965057712727600,5.1547275390625,0.30412954092025757,0.05101125314831734,-0.19509172439575195
1788965057722730500,5.16473046875,0.2841952443122864,0.07000838220119476,-0.16684171557426453
1788965057732732400,5.174732421875,0.34428122639656067,0.08049244433641434,-0.18939895927906036
1788965057742735600,5.184735595703125,0.3718952536582947,0.005608617328107357,-0.18058335781097412
1788965057752738600,5.194738525390625,0.3501569330692291,-0.04861334338784218,-0.1373530626296997
1788965057762740700,5.20474072265625,0.4077693819999695,-0.01865704171359539,-0.07241001725196838
1788965057772743400,5.214743408203125,0.41642358899116516,0.03320908546447754,0.010760501958429813
1788965057782745600,5.22474560546875,0.37618693709373474,0.28120583295822144,0.10156896710395813
1788965057792748500,5.23474853515625,0.3911632299423218,0.5900449156761169,0.14586958289146423
1788965057802750500,5.24475048828125,0.42684292793273926,0.827041745185852,0.14012488722801208
1788965057812753400,5.25475341796875,0.4651482403278351,0.9236287474632263,0.11215023696422577
1788965057822755600,5.264755615234375,0.4678577482700348,0.8655459880828857,0.11388475447893143
1788965057832758500,5.274758544921875,0.45924481749534607,0.8063502907752991,0.14574627578258514
1788965057842760400,5.284760498046875,0.45398080348968506,0.7956451773643494,0.20646075904369354
1788965057852763400,5.294763427734375,0.46337512135505676,0.8002634048461914,0.26884397864341736
1788965057862766600,5.3047666015625,0.4843616187572479,0.7799152135848999,0.32148268818855286
1788965057872768500,5.3147685546875,0.5239084959030151,0.6866795420646667,0.3938458263874054
1788965057882771500,5.324771484375,0.5829736590385437,0.48548492789268494,0.41288238763809204
1788965057892773400,5.3347734375,0.6215999126434326,0.28166335821151733,0.4085427522659302
1788965057902776600,5.344776611328125,0.6432124972343445,0.16153563559055328,0.3965052664279938
1788965057912778500,5.354778564453125,0.6648924946784973,0.11453510075807571,0.36992186307907104
1788965057922781400,5.364781494140625,0.6531245112419128,0.04231443256139755,0.35803723335266113
1788965057932783600,5.37478369140625,0.6110343337059021,-0.040100548416376114,0.3521577715873718
1788965057942786600,5.38478662109375,0.5792670845985413,-0.1152818500995636,0.3197697401046753
1788965057952788500,5.39478857421875,0.5556294322013855,-0.15878671407699585,0.26352325081825256
1788965057962791400,5.40479150390625,0.5112286806106567,-0.2135210633277893,0.22017736732959747
1788965057972794600,5.414794677734375,0.42121994495391846,-0.2489379197359085,0.15444523096084595
1788965057982796500,5.424796630859375,0.3215247690677643,-0.27497270703315735,0.05500918999314308
1788965057992799500,5.434799560546875,0.26178818941116333,-0.316503643989563,-0.0935315489768982
1788965058002801400,5.444801513671875,0.26101669669151306,-0.4004313051700592,-0.272309809923172
1788965058012804600,5.4548046875,0.37213948369026184,-0.38086453080177307,-0.4058718681335449
1788965058022806500,5.464806640625,0.43732672929763794,-0.28128838539123535,-0.41126689314842224
1788965058032809500,5.4748095703125,0.46047547459602356,-0.1846846342086792,-0.4391171634197235
1788965058042811400,5.484811279296875,0.4493008255958557,-0.16168317198753357,-0.49471092224121094
1788965058052814600,5.494814697265625,0.41550931334495544,-0.1879746913909912,-0.5740976333618164
1788965058062817500,5.504817626953125,0.366525799036026,-0.22247594594955444,-0.6388928890228271
1788965058072819500,5.5148193359375,0.3115141987800598,-0.35575437545776367,-0.7384868264198303
1788965058082822700,5.52482275390625,0.21981491148471832,-0.6522675156593323,-0.8930468559265137
1788965058092824600,5.534824462890625,0.10546517372131348,-1.0248438119888306,-1.1530907154083252
1788965058102827500,5.54482763671875,-0.00896899402141571,-1.4472227096557617,-1.4972996711730957
1788965058112829400,5.554829345703125,-0.032170720398426056,-1.6828269958496094,-1.7606450319290161
1788965058122832400,5.564832275390625,0.024709606543183327,-1.744964599609375,-1.859268069267273
1788965058132834600,5.57483447265625,0.14441736042499542,-1.7038140296936035,-1.7956552505493164
1788965058142837200,5.584837158203125,0.26560690999031067,-1.573104977607727,-1.6149941682815552
1788965058152840400,5.59484033203125,0.3605573773384094,-1.3880842924118042,-1.3374048471450806
1788965058162842400,5.60484228515625,0.4540175497531891,-1.227462887763977,-1.0072115659713745
1788965058172845300,5.61484521484375,0.5685403943061829,-1.0716794729232788,-0.6793297529220581
1788965058182847500,5.624847412109375,0.6981950998306274,-0.8379982709884644,-0.3946961760520935
1788965058192850400,5.634850341796875,0.8215399384498596,-0.5682192444801331,-0.1534140557050705
1788965058202852600,5.6448525390625,0.9174211621284485,-0.4107060432434082,0.03068946860730648
1788965058212855300,5.654855224609375,0.937246561050415,-0.37136104702949524,0.1779439002275467
1788965058222857500,5.664857421875,0.9082955718040466,-0.3491438925266266,0.2858900725841522
1788965058232860400,5.6748603515625,0.8445850610733032,-0.321167916059494,0.3398939073085785
1788965058242863400,5.68486328125,0.7879907488822937,-0.24869529902935028,0.3487260341644287
1788965058252865300,5.694865234375,0.7543938755989075,-0.22410766780376434,0.34709829092025757
1788965058262868500,5.704868408203125,0.7492436170578003,-0.24855495989322662,0.3237879276275635
1788965058272870400,5.714870361328125,0.7549291849136353,-0.3476168215274811,0.3034762442111969
1788965058282873300,5.724873291015625,0.7431409955024719,-0.45468708872795105,0.31609857082366943
1788965058292875300,5.734875244140625,0.732377290725708,-0.5323759913444519,0.33403417468070984
1788965058302878500,5.74487841796875,0.6963385939598083,-0.5896278619766235,0.3290114402770996
1788965058312880400,5.75488037109375,0.6499210000038147,-0.5849345922470093,0.2916816473007202
1788965058322883300,5.76488330078125,0.6039367318153381,-0.4617854654788971,0.225179061293602
1788965058332886500,5.774886474609375,0.5470724105834961,-0.26253095269203186,0.17335261404514313
1788965058342888400,5.784888427734375,0.46436288952827454,-0.08198168873786926,0.14302639663219452
1788965058352891400,5.794891357421875,0.37726739048957825,0.09324739128351212,0.08736952394247055
1788965058362893300,5.804893310546875,0.3072992265224457,0.251982718706131,-0.010521616786718369
1788965058372896500,5.814896484375,0.25248923897743225,0.3347148597240448,-0.08421581238508224
1788965058382898400,5.8248984375,0.22136062383651733,0.39215660095214844,-0.19220805168151855
1788965058392901400,5.8349013671875,0.19699348509311676,0.4174821972846985,-0.32165393233299255
1788965058402903300,5.8449033203125,0.16004639863967896,0.38823428750038147,-0.40739521384239197
1788965058412906500,5.854906494140625,0.1631564348936081,0.3658115267753601,-0.4737987220287323
1788965058422909400,5.864909423828125,0.20449428260326385,0.34703758358955383,-0.5374141931533813
1788965058432911400,5.874911376953125,0.26522448658943176,0.31823763251304626,-0.5824487805366516
1788965058442914600,5.88491455078125,0.3376246392726898,0.2553529441356659,-0.5632354021072388
1788965058452916500,5.89491650390625,0.43356022238731384,0.2000228315591812,-0.489739328622818
1788965058462919400,5.90491943359375,0.5445243120193481,0.18625350296497345,-0.4056103527545929
1788965058472921300,5.91492138671875,0.6490565538406372,0.1996486634016037,-0.323184996843338
1788965058482924500,5.924924560546875,0.7425162196159363,0.20401757955551147,-0.2814127802848816
1788965058492926500,5.934926513671875,0.8427599668502808,0.19108366966247559,-0.2734706997871399
1788965058502929400,5.944929443359375,0.9767487049102783,0.18957765400409698,-0.2619418501853943
1788965058512932400,5.954932373046875,1.144303798675537,0.1794232875108719,-0.2276395559310913
1788965058522934500,5.9649345703125,1.3364280462265015,0.20362289249897003,-0.1604117751121521
1788965058532937200,5.974937255859375,1.5150203704833984,0.2788574695587158,-0.07014100253582001
1788965058542939400,5.984939453125,1.6161137819290161,0.3334605097770691,0.016999224200844765
1788965058552942300,5.9949423828125,1.6549146175384521,0.44285279512405396,0.13545823097229004
1788965058562944500,6.004944580078125,1.6458297967910767,0.5967536568641663,0.24928173422813416
1788965058572947200,6.014947265625,1.626889705657959,0.7166505455970764,0.34438374638557434
1788965058582950400,6.024950439453125,1.6489616632461548,0.7448638081550598,0.3756130337715149
1788965058592952600,6.03495263671875,1.7149654626846313,0.6899417042732239,0.31358906626701355
1788965058602955300,6.044955322265625,1.7943711280822754,0.6442703008651733,0.20544689893722534
1788965058612957400,6.05495751953125,1.8822429180145264,0.5987920761108398,0.10104432702064514
1788965058622960400,6.06496044921875,1.9632418155670166,0.47004687786102295,-0.008978048339486122
1788965058632962600,6.074962646484375,2.0034849643707275,0.3256894052028656,-0.11093131452798843
1788965058642965200,6.08496533203125,1.9861937761306763,0.3253634572029114,-0.1946357935667038
1788965058652967400,6.094967529296875,1.8855856657028198,0.3678019940853119,-0.3206062316894531
1788965058662970400,6.104970458984375,1.7080961465835571,0.34911563992500305,-0.524884819984436
1788965058672973300,6.114973388671875,1.5046935081481934,0.31302157044410706,-0.8018890023231506
1788965058682975200,6.124975341796875,1.3340197801589966,0.15365853905677795,-1.0623078346252441
1788965058692978400,6.134978515625,1.200119137763977,-0.1231996938586235,-1.249811053276062
1788965058702980400,6.14498046875,1.142870306968689,-0.3843492567539215,-1.34590482711792
1788965058712983300,6.1549833984375,1.1617469787597656,-0.5538133978843689,-1.34454345703125
1788965058722985200,6.164985107421875,1.1980628967285156,-0.6259230375289917,-1.2593932151794434
1788965058732988400,6.174988525390625,1.2554961442947388,-0.6460844874382019,-1.1502373218536377
1788965058742991400,6.184991455078125,1.337522268295288,-0.6445438265800476,-1.0774377584457397
1788965058752993300,6.1949931640625,1.4269161224365234,-0.6789318919181824,-1.063004970550537
1788965058762996500,6.20499658203125,1.514831304550171,-0.6560817360877991,-1.0157504081726074
1788965058772998400,6.214998291015625,1.5929615497589111,-0.5619274973869324,-0.8859929442405701
1788965058783001300,6.22500146484375,1.6119050979614258,-0.39749568700790405,-0.74881511926651
1788965058793003300,6.235003173828125,1.5813019275665283,-0.19021068513393402,-0.6656400561332703
1788965058803006500,6.24500634765625,1.4982433319091797,0.02365446276962757,-0.6245768070220947
1788965058813008400,6.25500830078125,1.3545457124710083,0.14842116832733154,-0.5845507979393005
1788965058823011300,6.26501123046875,1.1672786474227905,0.18305423855781555,-0.5583910942077637
1788965058833014500,6.2750146484375,0.9492509961128235,0.19301019608974457,-0.5574851036071777
1788965058843016400,6.285016357421875,0.7352724075317383,0.20362183451652527,-0.5830216407775879
1788965058853019400,6.295019287109375,0.544460654258728,0.21911956369876862,-0.5730233192443848
1788965058863021300,6.305021240234375,0.4009913504123688,0.23065398633480072,-0.5108978748321533
1788965058873024500,6.3150244140625,0.34721627831459045,0.2713199257850647,-0.42719313502311707
1788965058883026400,6.3250263671875,0.4278285801410675,0.2608337104320526,-0.3393234610557556
1788965058893029400,6.335029296875,0.6347346305847168,0.09600535780191422,-0.2944103181362152
1788965058903032300,6.3450322265625,0.9201554656028748,-0.1903664767742157,-0.33918020129203796
1788965058913034500,6.355034423828125,1.2080389261245728,-0.4324773848056793,-0.4825780987739563
1788965058923037200,6.365037109375,1.4921289682388306,-0.4911350905895233,-0.6193524599075317
1788965058933039400,6.375039306640625,1.7697304487228394,-0.32963594794273376,-0.7126829624176025
1788965058943042300,6.385042236328125,1.9894955158233643,-0.10315275192260742,-0.7685792446136475
1788965058953044500,6.39504443359375,2.1700491905212402,0.07736722379922867,-0.8691633343696594
1788965058963047200,6.405047119140625,2.3181354999542236,0.1976126730442047,-1.0293796062469482
1788965058973049300,6.41504931640625,2.4919562339782715,0.43471071124076843,-1.1750361919403076
1788965058983052500,6.425052490234375,2.769151210784912,0.651684045791626,-1.3376107215881348
1788965058993055200,6.43505517578125,3.032931089401245,0.6787065863609314,-1.5180050134658813
1788965059003057400,6.445057373046875,3.179377555847168,0.6272580623626709,-1.7113054990768433
1788965059013060400,6.455060302734375,3.2656378746032715,0.6133070588111877,-1.9585621356964111
1788965059023062500,6.4650625,3.3245275020599365,0.7251931428909302,-2.2856318950653076
1788965059033065200,6.475065185546875,3.367441177368164,0.8294918537139893,-2.614323377609253
1788965059043067400,6.4850673828125,3.44053053855896,0.896909236907959,-2.8831946849823
1788965059053070300,6.4950703125,3.615015745162964,1.2579065561294556,-3.0007541179656982
1788965059063073300,6.5050732421875,3.7396774291992188,1.9887917041778564,-2.9055755138397217
1788965059073075200,6.5150751953125,3.6649818420410156,2.824093818664551,-2.614717721939087
1788965059083078400,6.525078369140625,3.4503672122955322,3.642129421234131,-2.148723602294922
1788965059093080300,6.535080322265625,3.076625347137451,4.101238250732422,-1.5706762075424194
1788965059103083300,6.545083251953125,2.5493433475494385,3.9871788024902344,-1.101702332496643
1788965059113085000,6.5550849609375,1.840893030166626,3.1292169094085693,-0.8426800966262817
1788965059123088100,6.565088134765625,1.0165719985961914,1.646256446838379,-0.9638137221336365
1788965059133090000,6.575090087890625,0.19659055769443512,0.3522379398345947,-1.1588451862335205
1788965059143093000,6.585093017578125,-0.5406398177146912,-0.42782485485076904,-1.1953643560409546
1788965059153096000,6.595095947265625,-1.0456377267837524,-0.4791114628314972,-1.1208581924438477
1788965059163098000,6.60509814453125,-1.2610536813735962,-0.16929209232330322,-1.1047433614730835
1788965059173101000,6.61510107421875,-1.2315822839736938,0.20811671018600464,-1.135183572769165
1788965059183103000,6.62510302734375,-1.1212661266326904,0.48372751474380493,-1.1515064239501953
1788965059193106000,6.63510595703125,-1.018849492073059,0.6239123344421387,-1.1478599309921265
1788965059203108000,6.645108154296875,-0.862838625907898,0.6931851506233215,-1.0732007026672363
1788965059213111000,6.655111083984375,-0.6367863416671753,0.7585620284080505,-0.9227144718170166
1788965059223114000,6.665114013671875,-0.4075866937637329,0.7566666603088379,-0.7051451206207275
1788965059233116000,6.675115966796875,-0.32299697399139404,0.6802374124526978,-0.5116851329803467
1788965059243119000,6.685119140625,-0.332793653011322,0.6117174625396729,-0.44332364201545715
1788965059253121000,6.69512109375,-0.38208451867103577,0.5496506094932556,-0.4127550721168518
1788965059263124000,6.7051240234375,-0.45843788981437683,0.5574965476989746,-0.35544437170028687
1788965059273126100,6.715126220703125,-0.5866861343383789,0.6846795082092285,-0.290870726108551
1788965059283129000,6.725129150390625,-0.7542370557785034,0.8165145516395569,-0.2551390826702118
1788965059293132000,6.735132080078125,-0.8893887400627136,0.8467347621917725,-0.26641011238098145
1788965059303134000,6.745134033203125,-0.9269360899925232,0.791779100894928,-0.2746017277240753
1788965059313137200,6.75513720703125,-0.8586753010749817,0.71063232421875,-0.2610339820384979
1788965059323139000,6.76513916015625,-0.7921647429466248,0.6322150230407715,-0.2418147623538971
1788965059333142000,6.77514208984375,-0.7928917407989502,0.5882259607315063,-0.21543428301811218
1788965059343144000,6.78514404296875,-0.8565673828125,0.6092028617858887,-0.20081353187561035
1788965059353147100,6.795147216796875,-0.9489434361457825,0.695029616355896,-0.19494499266147614
1788965059363150000,6.805150146484375,-1.0443010330200195,0.8238728642463684,-0.19238914549350739
1788965059373152000,6.815152099609375,-1.105966567993164,0.9128322601318359,-0.18611900508403778
1788965059383155200,6.8251552734375,-1.1267493963241577,0.9748668670654297,-0.17970877885818481
1788965059393157000,6.8351572265625,-1.109639048576355,1.0300161838531494,-0.15601755678653717
1788965059403160000,6.84516015625,-1.0893303155899048,1.088199257850647,-0.10299269109964371
1788965059413162000,6.855161865234375,-1.0847902297973633,1.175083041191101,-0.01715714856982231
1788965059423165200,6.865165283203125,-1.0978580713272095,1.264914631843567,0.06851568073034286
1788965059433167000,6.8751669921875,-1.1072843074798584,1.3507035970687866,0.14180374145507812
1788965059443170000,6.885170166015625,-1.1153539419174194,1.454150676727295,0.2108275443315506
1788965059453173000,6.895173095703125,-1.1358325481414795,1.5435057878494263,0.2685273289680481
1788965059463175200,6.905175048828125,-1.1519370079040527,1.6514618396759033,0.3074129521846771
1788965059473177900,6.915177734375,-1.187796950340271,1.742497205734253,0.3567517399787903
1788965059483180000,6.925179931640625,-1.2275657653808594,1.792110562324524,0.4347173571586609
1788965059493183000,6.935182861328125,-1.2583580017089844,1.8111841678619385,0.508228600025177
1788965059503185200,6.94518505859375,-1.2838045358657837,1.80300772190094,0.5542059540748596
1788965059513188000,6.95518798828125,-1.306273341178894,1.8043904304504395,0.5904331803321838
1788965059523191000,6.96519091796875,-1.3336085081100464,1.8252490758895874,0.6145928502082825
1788965059533193200,6.975193115234375,-1.380629062652588,1.8847728967666626,0.6177796125411987
1788965059543196000,6.98519580078125,-1.434503197669983,1.849243402481079,0.6564622521400452
1788965059553198000,6.995197998046875,-1.35447096824646,1.7023977041244507,0.7185624241828918
1788965059563201000,7.005200927734375,-1.2311277389526367,1.6333129405975342,0.775412917137146
1788965059573203200,7.015203125,-1.025503158569336,1.5417606830596924,0.8282926082611084
1788965059583206000,7.025205810546875,-0.7803221940994263,1.4740029573440552,0.9059842228889465
1788965059593209000,7.035208984375,-0.5564725399017334,1.4845589399337769,0.9639931917190552
1788965059603211000,7.0452109375,-0.3928665816783905,1.5345221757888794,1.0003656148910522
1788965059613214000,7.0552138671875,-0.2772268056869507,1.5747705698013306,1.0361979007720947
1788965059623215900,7.0652158203125,-0.20236003398895264,1.5598347187042236,1.0674349069595337
1788965059633219000,7.075218994140625,-0.1367463916540146,1.4328815937042236,1.0762102603912354
1788965059643221000,7.085220947265625,-0.08738816529512405,1.238067865371704,1.0764113664627075
1788965059653224000,7.095223876953125,-0.027700869366526604,1.0226868391036987,1.066794991493225
1788965059663227100,7.10522705078125,0.0346573144197464,0.8795824646949768,1.0587711334228516
1788965059673229000,7.11522900390625,0.08494764566421509,0.8170956373214722,1.0430622100830078
1788965059683232000,7.12523193359375,0.13469655811786652,0.8909120559692383,1.0122078657150269
1788965059693234000,7.13523388671875,0.19198381900787354,1.1268281936645508,0.9728977680206299
1788965059703237000,7.145237060546875,0.2515544593334198,1.4522547721862793,0.9452906250953674
1788965059713239000,7.155239013671875,0.32302120327949524,1.7490310668945312,0.8924473524093628
1788965059723242000,7.165241943359375,0.3893216550350189,1.9777991771697998,0.8341129422187805
1788965059733245000,7.175244873046875,0.4505615830421448,2.10005784034729,0.7176691889762878
1788965059743247000,7.1852470703125,0.4840308427810669,2.1983871459960938,0.5241559147834778
1788965059753250000,7.19525,0.49192366003990173,2.283576250076294,0.27738261222839355
1788965059763252000,7.205251953125,0.5106033682823181,2.4046499729156494,0.008412126451730728
1788965059773255200,7.215255126953125,0.5426286458969116,2.587735891342163,-0.21878772974014282
1788965059783257000,7.225257080078125,0.5822964310646057,2.85532283782959,-0.38207361102104187
1788965059793260000,7.235260009765625,0.5794497728347778,3.129871368408203,-0.5299754738807678
1788965059803263000,7.245262939453125,0.5643610954284668,3.3320271968841553,-0.6721070408821106
1788965059813265200,7.25526513671875,0.5236842632293701,3.5026743412017822,-0.8389575481414795
1788965059823267800,7.265267822265625,0.4736807346343994,3.638043165206909,-1.0000414848327637
1788965059833270000,7.27527001953125,0.4423758089542389,3.775482177734375,-1.1482882499694824
1788965059843273000,7.28527294921875,0.41748324036598206,3.9370718002319336,-1.2891178131103516
1788965059853275100,7.295275146484375,0.4257526397705078,4.094300270080566,-1.4534376859664917
1788965059863277800,7.30527783203125,0.4819067120552063,4.2934441566467285,-1.6886768341064453
1788965059873281000,7.315281005859375,0.5861181020736694,4.3510966300964355,-1.896547794342041
1788965059883283000,7.325282958984375,0.6369085311889648,4.281132221221924,-2.0314831733703613
1788965059893286000,7.335285888671875,0.6582894921302795,4.1516337394714355,-2.092283248901367
1788965059903288000,7.3452880859375,0.6957052946090698,3.4471118450164795,-1.9586955308914185
1788965059913291000,7.355291015625,0.7331344485282898,2.40517258644104,-1.5986130237579346
1788965059923293200,7.365293212890625,0.7739702463150024,1.2944563627243042,-1.1270779371261597
1788965059933295900,7.3752958984375,0.8265959024429321,0.12307292968034744,-0.6280897855758667
1788965059943299000,7.385299072265625,0.8602575063705444,-0.8145946860313416,-0.17695027589797974
1788965059953301000,7.395301025390625,0.8583895564079285,-1.358728051185608,0.16236759722232819
1788965059963304000,7.405303955078125,0.8234262466430664,-1.5680266618728638,0.3914942741394043
1788965059973305900,7.415305908203125,0.7845826745033264,-1.492120385169983,0.5596566200256348
1788965059983309000,7.42530908203125,0.7378048300743103,-1.0289061069488525,0.7177693247795105
1788965059993312000,7.43531201171875,0.6922157406806946,-0.3613062798976898,0.8346897959709167
1788965060003314000,7.44531396484375,0.6470165848731995,0.26691266894340515,0.7982058525085449
1788965060013317000,7.455317138671875,0.5916699767112732,0.7449870705604553,0.6063112020492554
1788965060023319000,7.465319091796875,0.4601436257362366,0.7403143048286438,0.42168599367141724
1788965060033322000,7.475322021484375,0.32453545928001404,0.14823900163173676,0.3742614686489105
1788965060043324000,7.485323974609375,0.278695285320282,-0.5321762561798096,0.3933326303958893
1788965060053327000,7.4953271484375,0.342844158411026,-1.0476033687591553,0.3938109576702118
1788965060063330000,7.505330078125,0.422261506319046,-1.435463547706604,0.41167277097702026
1788965060073332000,7.51533203125,0.39934951066970825,-1.627280592918396,0.4820675849914551
1788965060083335000,7.5253349609375,0.27224403619766235,-1.4256471395492554,0.5846027135848999
1788965060093337000,7.535337158203125,0.12196744978427887,-0.9249813556671143,0.6558114290237427
1788965060103340000,7.545340087890625,-0.051116447895765305,-0.47672873735427856,0.6082271337509155
1788965060113341700,7.555341796875,-0.264458566904068,-0.360737144947052,0.4523347020149231
1788965060123345000,7.565344970703125,-0.437209814786911,-0.36684751510620117,0.2697465121746063
1788965060133348000,7.57534814453125,-0.4649466574192047,-0.046001847833395004,0.062368836253881454
1788965060143349800,7.585349853515625,-0.3877626359462738,0.44261789321899414,-0.15703648328781128
1788965060153353000,7.59535302734375,-0.30171138048171997,0.8829358816146851,-0.33584457635879517
1788965060163355000,7.60535498046875,-0.24275672435760498,1.0985161066055298,-0.42133739590644836
1788965060173358000,7.615358154296875,-0.21424011886119843,1.073982834815979,-0.42744800448417664
1788965060183359700,7.62535986328125,-0.19836874306201935,0.8568097352981567,-0.39176031947135925
1788965060193363000,7.635363037109375,-0.21553201973438263,0.4978412091732025,-0.3683924078941345
1788965060203366000,7.645365966796875,-0.22762756049633026,0.14160187542438507,-0.3748031556606293
1788965060213368000,7.6553681640625,-0.2210032194852829,-0.10861781984567642,-0.3992302119731903
1788965060223370800,7.665370849609375,-0.20521865785121918,-0.11309219896793365,-0.42505860328674316
1788965060233373000,7.675373046875,-0.20302662253379822,0.040879521518945694,-0.45396244525909424
1788965060243375900,7.6853759765625,-0.2160382866859436,0.26450595259666443,-0.5091881155967712
1788965060253377800,7.695377685546875,-0.25359100103378296,0.4973386824131012,-0.5936987400054932
1788965060263380700,7.705380615234375,-0.3160857856273651,0.6879874467849731,-0.6806349754333496
1788965060273384000,7.715384033203125,-0.39839479327201843,0.8249050974845886,-0.7464302778244019
1788965060283386000,7.72538623046875,-0.48416081070899963,0.9134671688079834,-0.7910193204879761
1788965060293388800,7.735388916015625,-0.5647949576377869,0.9171615242958069,-0.8250789642333984
1788965060303391000,7.745390869140625,-0.615674614906311,0.820553719997406,-0.8410091996192932
1788965060313394000,7.755393798828125,-0.6274369955062866,0.6684198975563049,-0.8290489912033081
1788965060323396900,7.76539697265625,-0.5848509669303894,0.5492095947265625,-0.8054810762405396
1788965060333398800,7.775398681640625,-0.5090984106063843,0.47324424982070923,-0.7637008428573608
1788965060343402000,7.785402099609375,-0.4439002275466919,0.46198147535324097,-0.7194098234176636
1788965060353404000,7.79540380859375,-0.39478886127471924,0.49450185894966125,-0.7195696234703064
1788965060363406800,7.80540673828125,-0.3298839032649994,0.5100446343421936,-0.7326409220695496
1788965060373408800,7.81540869140625,-0.24033217132091522,0.4786651134490967,-0.7223568558692932
1788965060383412000,7.825411865234375,-0.10541670024394989,0.34833186864852905,-0.715336799621582
1788965060393415000,7.835414794921875,0.05077875778079033,0.08303150534629822,-0.7178915739059448
1788965060403416800,7.845416748046875,0.19538547098636627,-0.24068717658519745,-0.7340191006660461
1788965060413420000,7.855419921875,0.31616222858428955,-0.5493017435073853,-0.7738695740699768
1788965060423422000,7.865421875,0.4141484498977661,-0.8150279521942139,-0.8090837597846985
1788965060433425000,7.8754248046875,0.5064567923545837,-1.0549290180206299,-0.7927657961845398
1788965060443426800,7.8854267578125,0.5715489983558655,-1.2803517580032349,-0.7125620245933533
1788965060453430000,7.895429931640625,0.6026283502578735,-1.4336611032485962,-0.6197372674942017
1788965060463432700,7.9054326171875,0.5862458944320679,-1.483525037765503,-0.5385249853134155
1788965060473435000,7.915434814453125,0.5433061718940735,-1.4800059795379639,-0.49278387427330017
1788965060483437800,7.925437744140625,0.5036988258361816,-1.524023175239563,-0.46629661321640015
1788965060493440000,7.93543994140625,0.4614722728729248,-1.616734266281128,-0.45308199524879456
1788965060503442700,7.945442626953125,0.4294120967388153,-1.7872668504714966,-0.4308888018131256
1788965060513444900,7.95544482421875,0.3822197914123535,-2.0145468711853027,-0.3942301273345947
1788965060523448000,7.965447998046875,0.3229495584964752,-2.2722795009613037,-0.35181209444999695
1788965060533450800,7.97545068359375,0.2599218487739563,-2.565128803253174,-0.32229360938072205
1788965060543453000,7.985452880859375,0.2121836245059967,-2.8745381832122803,-0.3024413585662842
1788965060553455900,7.995455810546875,0.17702430486679077,-3.116187334060669,-0.29123902320861816
1788965060563458000,8.0054580078125,0.13737677037715912,-3.2474253177642822,-0.2923245429992676
1788965060573460700,8.015460693359374,0.0952138677239418,-3.3067140579223633,-0.32319802045822144
1788965060583464000,8.0254638671875,0.04850388690829277,-3.27386474609375,-0.3846989572048187
1788965060593465900,8.0354658203125,0.00866086594760418,-3.1812832355499268,-0.4746575951576233
1788965060603468800,8.04546875,-0.020537232980132103,-3.082563638687134,-0.5785490870475769
1788965060613470700,8.055470703125,-0.009754626080393791,-2.983834981918335,-0.6974296569824219
1788965060623474000,8.065473876953124,0.027690483257174492,-2.8373050689697266,-0.7888892889022827
1788965060633475800,8.075475830078124,0.06740220636129379,-2.6402692794799805,-0.8356866240501404
1788965060643478800,8.085478759765625,0.07998884469270706,-2.442425489425659,-0.8747469186782837
1788965060653482000,8.09548193359375,0.07219909876585007,-2.3308591842651367,-0.914543867111206
1788965060663484000,8.10548388671875,0.05266507714986801,-2.086517572402954,-1.0598446130752563
1788965060673486800,8.11548681640625,0.05084560438990593,-1.7813128232955933,-1.2779346704483032
1788965060683488800,8.12548876953125,0.051355332136154175,-1.5933778285980225,-1.4683021306991577
1788965060693492000,8.135491943359375,0.016747554764151573,-1.5897278785705566,-1.608593463897705
1788965060703494000,8.145493896484375,-0.04965463653206825,-1.7049216032028198,-1.6609312295913696
1788965060713496800,8.155496826171875,-0.12408066540956497,-1.9147366285324097,-1.6513526439666748
1788965060723499800,8.165499755859376,-0.14838813245296478,-2.1344988346099854,-1.5923125743865967
1788965060733502000,8.175501953125,-0.12592411041259766,-2.330979347229004,-1.5193400382995605
1788965060743505000,8.1855048828125,-0.05619136616587639,-2.431946277618408,-1.4712576866149902
1788965060753506800,8.1955068359375,0.032112397253513336,-2.3870346546173096,-1.4713935852050781
1788965060763510000,8.205510009765625,0.07887990027666092,-2.362706422805786,-1.4716426134109497
1788965060773513000,8.215512939453125,0.06911435723304749,-2.370274066925049,-1.4241344928741455
1788965060783515000,8.225514892578126,0.08945238590240479,-2.2086479663848877,-1.3548786640167236
1788965060793517800,8.235517822265624,0.12626072764396667,-1.9421379566192627,-1.2377440929412842
1788965060803520000,8.24552001953125,0.15543167293071747,-1.6656335592269897,-1.1252124309539795
1788965060813522700,8.255522705078125,0.15076181292533875,-1.4631463289260864,-1.0460708141326904
1788965060823524900,8.26552490234375,0.0871700569987297,-1.311383605003357,-0.9825599789619446
1788965060833527800,8.27552783203125,0.0628008022904396,-1.1948317289352417,-0.9094322323799133
1788965060843531000,8.285531005859376,0.22634126245975494,-1.0635565519332886,-0.8454132676124573
1788965060853532700,8.29553271484375,0.38714906573295593,-1.0474859476089478,-0.8114590644836426
1788965060863535900,8.305535888671875,0.3906548321247101,-1.0442992448806763,-0.816055953502655
1788965060873537800,8.315537841796875,0.24923406541347504,-0.9337825775146484,-0.811061441898346
1788965060883541000,8.325541015625,0.098552405834198,-0.7682948112487793,-0.7236319780349731
1788965060893542700,8.335542724609375,0.04361671954393387,-0.6200845837593079,-0.5923248529434204
1788965060903545900,8.3455458984375,0.11382030695676804,-0.4517107307910919,-0.4700780212879181
1788965060913549000,8.355549072265624,0.18912331759929657,-0.3476080298423767,-0.374111533164978
1788965060923550700,8.36555078125,0.11986462026834488,-0.44623181223869324,-0.2888014316558838
1788965060933554000,8.375553955078125,-0.05618470907211304,-0.5393157005310059,-0.24680711328983307
1788965060943555800,8.385555908203125,-0.07965967804193497,-0.3190237879753113,-0.2145727574825287
1788965060953559000,8.39555908203125,-0.022471753880381584,-0.0638657957315445,-0.22286051511764526
1788965060963560700,8.405560791015626,0.003229881636798382,0.036980386823415756,-0.24422518908977509
1788965060973564000,8.41556396484375,-0.023685354739427567,0.07922318577766418,-0.20752470195293427
1788965060983567000,8.425567138671875,-0.10373412072658539,0.16971047222614288,-0.125283882021904
1788965060993569000,8.435569091796875,-0.22596469521522522,0.25764724612236023,-0.006923419889062643
1788965061003572000,8.445572021484375,-0.24258840084075928,0.392900675535202,0.14142823219299316
1788965061013574000,8.455573974609376,-0.1884322315454483,0.5511379837989807,0.2319093942642212
1788965061023577000,8.4655771484375,-0.11576841026544571,0.6422241926193237,0.25342559814453125
1788965061033579800,8.475579833984375,-0.06085323169827461,0.6535090804100037,0.252846896648407
1788965061043582000,8.48558203125,-0.052798498421907425,0.5701380372047424,0.28740888833999634
1788965061053585000,8.4955849609375,-0.13362836837768555,0.4984278976917267,0.34750470519065857
1788965061063587000,8.505587158203125,-0.249946728348732,0.5267162919044495,0.4154187738895416
1788965061073589800,8.51558984375,-0.30841535329818726,0.6518177390098572,0.47960415482521057
1788965061083592000,8.525592041015624,-0.2958572208881378,0.8156412839889526,0.5265498161315918
1788965061093595000,8.535594970703125,-0.21054844558238983,0.8701122403144836,0.5836226940155029
1788965061103597800,8.545597900390625,-0.0998070240020752,0.8213732242584229,0.6906793713569641
1788965061113600300,8.555600341796875,-0.08366666734218597,0.7496822476387024,0.8200455904006958
1788965061123603500,8.565603515625,-0.22433696687221527,0.7469849586486816,0.9270663261413574
1788965061133605000,8.575605224609374,-0.3707287907600403,0.9066073894500732,1.0104973316192627
1788965061143608300,8.5856083984375,-0.4085451662540436,1.165950059890747,1.0941879749298096
1788965061153611300,8.595611328125,-0.36915168166160583,1.3300271034240723,1.2046664953231812
1788965061163613400,8.605613525390625,-0.2924209535121918,1.3237955570220947,1.336548089981079
1788965061173616000,8.6156162109375,-0.1977735310792923,1.2668616771697998,1.4469337463378906
1788965061183618300,8.625618408203126,-0.11941241472959518,1.1813603639602661,1.5363150835037231
1788965061193621200,8.635621337890624,-0.05206320062279701,1.1237757205963135,1.593867540359497
1788965061203623200,8.645623046875,0.017247961834073067,1.1078619956970215,1.6081490516662598
1788965061213626000,8.655626220703125,0.09189663082361221,1.0731356143951416,1.595973253250122
1788965061223629300,8.66562939453125,0.1590905785560608,1.0228091478347778,1.5646185874938965
1788965061233631500,8.675631591796876,0.21463853120803833,0.9937186241149902,1.5243593454360962
1788965061243634200,8.68563427734375,0.26384708285331726,1.0846476554870605,1.431433081626892
1788965061253636400,8.69563623046875,0.6486062407493591,2.360847234725952,0.5073140859603882
1788965061263639300,8.705639404296875,0.4835805296897888,1.6311593055725098,0.7734174132347107
1788965061273641500,8.715641357421875,0.33922865986824036,1.5803120136260986,0.8360844850540161
1788965061283644200,8.72564404296875,0.10709050297737122,1.4405683279037476,1.0235153436660767
1788965061293647400,8.7356474609375,-0.17475290596485138,1.4091796875,1.326667308807373
1788965061303649300,8.745649169921874,-0.34811216592788696,1.6637251377105713,1.4916770458221436
1788965061313652200,8.75565234375,-0.44443097710609436,1.8281841278076172,1.65693199634552
1788965061323654100,8.765654052734375,-0.43251094222068787,2.087531328201294,1.6779617071151733
1788965061333657300,8.7756572265625,-0.3753392696380615,2.295644760131836,1.6950654983520508
1788965061343660300,8.785660400390626,-0.3159888684749603,2.4273102283477783,1.7278157472610474
1788965061353662200,8.795662109375,-0.23617897927761078,2.551852226257324,1.7078495025634766
1788965061363665400,8.80566552734375,-0.13424621522426605,2.687915086746216,1.6378751993179321
1788965061373667300,8.815667236328125,-0.008376440964639187,2.764106273651123,1.481208086013794
1788965061383670300,8.825670166015625,0.10426488518714905,2.8370628356933594,1.3301376104354858
1788965061393672200,8.835672119140625,0.2027706801891327,2.8407225608825684,1.1738097667694092
1788965061403675400,8.84567529296875,0.2735961377620697,2.7665512561798096,0.9921886324882507
1788965061413678000,8.855677978515626,0.2999989688396454,2.6592464447021484,0.8211414813995361
1788965061423680300,8.86568017578125,0.30226051807403564,2.5495665073394775,0.6705048680305481
1788965061433683200,8.87568310546875,0.30880311131477356,2.466615676879883,0.5254057049751282
1788965061443685400,8.885685302734375,0.32179322838783264,2.3202967643737793,0.39921849966049194
1788965061453688000,8.89568798828125,0.34211286902427673,2.181997060775757,0.2806284725666046
1788965061463691300,8.905691162109376,0.33823105692863464,2.136451482772827,0.18883463740348816
1788965061473693400,8.915693359375,0.30770057439804077,2.203270196914673,0.1253398060798645
1788965061483696000,8.925696044921875,0.2507837414741516,2.407151222229004,0.07619863003492355
1788965061493698300,8.9356982421875,0.16571013629436493,2.680872678756714,0.008251272141933441
1788965061503701200,8.945701171875,0.07891558855772018,2.9324734210968018,-0.08386453986167908
1788965061513703400,8.955703369140625,-0.0076363482512533665,3.045192003250122,-0.16720736026763916
1788965061523706000,8.9657060546875,-0.06573773175477982,2.987623453140259,-0.20621176064014435
1788965061533709300,8.975709228515624,-0.09249797463417053,2.7281641960144043,-0.1691887527704239
1788965061543711200,8.985711181640625,-0.057916827499866486,2.1273388862609863,-0.019063439220190048
1788965061553714200,8.995714111328125,0.0590132512152195,1.3913309574127197,0.22861453890800476
1788965061563716000,9.005716064453125,0.23945440351963043,0.6743888258934021,0.4982617199420929
1788965061573719300,9.01571923828125,0.397087424993515,0.033188313245773315,0.7096956968307495
1788965061583722200,9.02572216796875,0.505841076374054,-0.5474929213523865,0.8456037044525146
1788965061593724200,9.03572412109375,0.5813766121864319,-1.0850054025650024,0.9700625538825989
1788965061603727400,9.045727294921875,0.6403940916061401,-1.4907292127609253,1.0818593502044678
1788965061613729300,9.055729248046875,0.6430873274803162,-1.6060056686401367,1.1505426168441772
1788965061623732200,9.065732177734375,0.5785882472991943,-1.374791145324707,1.154241919517517
1788965061633734100,9.075734130859376,0.4508281648159027,-0.9563938975334167,1.0777599811553955
1788965061643737300,9.0857373046875,0.3335803747177124,-0.5276044607162476,0.9092881679534912
1788965061653740300,9.095740234375,0.24544864892959595,-0.2939980626106262,0.7140874862670898
1788965061663742200,9.1057421875,0.21025416254997253,-0.3395668864250183,0.5767312049865723
1788965061673745200,9.1157451171875,0.1846281737089157,-0.4516979455947876,0.4944472908973694
1788965061683747300,9.125747314453125,0.15732944011688232,-0.4827253818511963,0.4414040446281433
1788965061693750000,9.13575,0.12389478087425232,-0.5269879102706909,0.41223523020744324
1788965061703753200,9.145753173828124,0.10213808715343475,-0.5848597288131714,0.39412546157836914
1788965061713755400,9.15575537109375,0.10383904725313187,-0.5121898055076599,0.37125158309936523
1788965061723758300,9.16575830078125,0.08953680843114853,-0.3225429058074951,0.32475546002388
1788965061733760300,9.17576025390625,0.03268231078982353,-0.0778290182352066,0.24461427330970764
1788965061743763200,9.18576318359375,0.014595720916986465,0.0273224338889122,0.1140056625008583
1788965061753765400,9.195765380859376,-0.0018855180824175477,-0.07886765152215958,-0.027690216898918152
1788965061763768300,9.205768310546874,-0.08889684826135635,-0.30954694747924805,-0.11960309743881226
1788965061773771300,9.215771240234375,-0.206964373588562,-0.5373151302337646,-0.14880040287971497
1788965061783773200,9.225773193359375,-0.27410078048706055,-0.5292593240737915,-0.1180395558476448
1788965061793776400,9.2357763671875,-0.2612052261829376,-0.2516695261001587,-0.08603661507368088
1788965061803778000,9.245778076171876,-0.20153391361236572,0.12660162150859833,-0.08559266477823257
1788965061813781200,9.25578125,-0.19987688958644867,0.3051719069480896,-0.07460978627204895
1788965061823784400,9.265784423828125,-0.29411712288856506,0.2581005096435547,-0.01683676987886429
1788965061833786400,9.275786376953125,-0.4212108850479126,0.17682483792304993,0.061111290007829666
1788965061843789300,9.285789306640625,-0.5381777286529541,0.1805117130279541,0.1531221717596054
1788965061853791200,9.295791259765625,-0.6180472373962402,0.27172818779945374,0.22409434616565704
1788965061863794400,9.30579443359375,-0.6658589839935303,0.3709799349308014,0.20728766918182373
1788965061873797000,9.315797119140624,-0.7037400603294373,0.3831529915332794,0.08637350052595139
1788965061883799300,9.32579931640625,-0.733942449092865,0.30264055728912354,-0.08687683939933777
1788965061893802200,9.33580224609375,-0.7435740232467651,0.19133533537387848,-0.26631584763526917
1788965061903804400,9.345804443359375,-0.7218066453933716,0.10898400843143463,-0.41806915402412415
1788965061913807000,9.35580712890625,-0.6725834608078003,0.1431499719619751,-0.5425649881362915
1788965061923809300,9.365809326171876,-0.5965126752853394,0.2612212002277374,-0.6260268688201904
1788965061933812200,9.375812255859374,-0.5293605327606201,0.3805984854698181,-0.6556997895240784
1788965061943815200,9.385815185546875,-0.4817567765712738,0.44911283254623413,-0.6211522221565247
1788965061953817300,9.3958173828125,-0.4383741617202759,0.4604911804199219,-0.5520551800727844
1788965061963820300,9.4058203125,-0.37731027603149414,0.4205639958381653,-0.4810941815376282
1788965061973822500,9.415822509765626,-0.3049146234989166,0.3299214541912079,-0.42236801981925964
1788965061983825200,9.4258251953125,-0.1915483921766281,0.22316624224185944,-0.38759833574295044
1788965061993827300,9.435827392578124,-0.040163666009902954,0.11152919381856918,-0.3997167646884918
1788965062003830300,9.445830322265625,0.08238515257835388,0.0015190670965239406,-0.42616623640060425
1788965062013833200,9.455833251953125,0.17770501971244812,-0.07080359756946564,-0.44974344968795776
1788965062023835100,9.465835205078125,0.25800010561943054,-0.12696780264377594,-0.4466187655925751
1788965062033838300,9.47583837890625,0.3464362323284149,-0.16567817330360413,-0.4058079421520233
1788965062043840300,9.48584033203125,0.40950921177864075,-0.18175116181373596,-0.33633166551589966
1788965062053843200,9.49584326171875,0.40122705698013306,-0.14488501846790314,-0.2674442231655121
1788965062063846400,9.505846435546875,0.3180759847164154,-0.06796014308929443,-0.22415906190872192
1788965062073848300,9.515848388671875,0.2043001353740692,0.021336181089282036,-0.21274901926517487
1788965062083851300,9.525851318359376,0.13197214901447296,0.084618479013443,-0.21485105156898499
1788965062093853200,9.535853271484376,0.12434911727905273,0.08659401535987854,-0.2201307713985443
1788965062103856400,9.5458564453125,0.1414082646369934,0.05049779638648033,-0.22180722653865814
1788965062113859000,9.555859130859375,0.17074750363826752,-0.017055150121450424,-0.2112153023481369
1788965062123861000,9.565861083984375,0.18894435465335846,-0.025910425931215286,-0.21569021046161652
1788965062133864200,9.5758642578125,0.1596626341342926,0.057904843240976334,-0.24967028200626373
1788965062143866000,9.5858662109375,0.10976351797580719,0.18441778421401978,-0.2823004126548767
1788965062153869000,9.595869140625,0.07586467266082764,0.26337730884552,-0.2808503210544586
1788965062163871000,9.60587109375,0.0771765410900116,0.22033636271953583,-0.25338566303253174
1788965062173874200,9.615874267578125,0.10669875144958496,0.1175500676035881,-0.22544990479946136
1788965062183877000,9.625877197265625,0.13589045405387878,0.053820621222257614,-0.21508488059043884
1788965062193879000,9.635879150390625,0.14841850101947784,0.061268150806427,-0.20904402434825897
1788965062203882200,9.64588232421875,0.1560998558998108,0.06882886588573456,-0.16280728578567505
1788965062213884200,9.65588427734375,0.13627421855926514,-0.0010972223244607449,-0.06564904749393463
1788965062223887000,9.66588720703125,0.108602374792099,-0.09762456268072128,0.044670797884464264
1788965062233890000,9.67589013671875,0.09578405320644379,-0.13923591375350952,0.12675075232982635
1788965062243892200,9.685892333984375,0.06685040146112442,-0.13035188615322113,0.15194451808929443
1788965062253895200,9.695895263671876,0.024224113672971725,-0.1043248102068901,0.13059476017951965
1788965062263897000,9.70589697265625,0.012795690447092056,-0.07891931384801865,0.10427100956439972
1788965062273900000,9.715900146484374,0.030553648248314857,-0.051054127514362335,0.09446818381547928
1788965062283902200,9.725902099609375,0.03500139340758324,0.0210709311068058,0.06845948845148087
1788965062293905000,9.73590478515625,0.009459814056754112,0.09937159717082977,0.03296034783124924
1788965062303908000,9.745908203125,-0.017890583723783493,0.1578921675682068,0.0029851372819393873
1788965062313910300,9.75591015625,-0.03484879434108734,0.20593398809432983,-0.040104810148477554
1788965062323913200,9.765913330078124,-0.055808402597904205,0.2521462142467499,-0.08564672619104385
1788965062333915100,9.7759150390625,-0.06608022004365921,0.27974721789360046,-0.1168999895453453
1788965062343918000,9.78591796875,-0.05697886273264885,0.26577043533325195,-0.11697881668806076
1788965062353921300,9.79592138671875,-0.020425379276275635,0.1935841143131256,-0.07906046509742737
1788965062363923200,9.805923095703125,0.01498081348836422,0.09471932053565979,-0.013728328980505466
1788965062373926100,9.815926025390626,0.02617754228413105,0.0002002697146963328,0.0680975615978241
1788965062383928000,9.825927978515624,0.029931267723441124,-0.06254780292510986,0.17049956321716309
1788965062393931300,9.83593115234375,0.04364654794335365,-0.1167612373828888,0.2680618166923523
1788965062403934200,9.845934326171875,0.036138031631708145,-0.19228342175483704,0.3216896057128906
1788965062413936000,9.85593603515625,0.015860455110669136,-0.23867355287075043,0.31747356057167053
1788965062423939300,9.865939208984376,-0.000940095866099,-0.19845716655254364,0.28367218375205994
1788965062433941200,9.875941162109376,-0.030603183433413506,-0.09870287775993347,0.23526310920715332
1788965062443944200,9.885944091796874,-0.0726555585861206,0.022130070254206657,0.16978797316551208
1788965062453946000,9.895946044921875,-0.11192546784877777,0.1335655152797699,0.08780921250581741
1788965062463949300,9.90594921875,-0.13140861690044403,0.20492838323116302,-0.003552390495315194
1788965062473952000,9.915951904296875,-0.11160695552825928,0.2119673788547516,-0.058270763605833054
1788965062483954200,9.9259541015625,-0.06580457836389542,0.15518586337566376,-0.08353031426668167
1788965062493957000,9.93595703125,-0.045936066657304764,0.0827859565615654,-0.09542026370763779
1788965062503959300,9.945959228515624,-0.06595611572265625,0.053293582051992416,-0.09329932183027267
1788965062513962000,9.9559619140625,-0.11818656325340271,0.10894832015037537,-0.10504013299942017
1788965062523965200,9.965965087890625,-0.1744983047246933,0.16966572403907776,-0.13607394695281982
1788965062533967000,9.975967041015625,-0.21657651662826538,0.1807495355606079,-0.1479785442352295
1788965062543970000,9.985969970703126,-0.23139700293540955,0.11897671967744827,-0.10750781744718552
1788965062553972200,9.99597216796875,-0.1947212815284729,0.01985280029475689,-0.023205719888210297
1788965062563975200,10.00597509765625,-0.09833642095327377,-0.08636870980262756,0.0637049451470375
1788965062573977300,10.015977294921875,-0.008440623059868813,-0.1990550458431244,0.1309359073638916
1788965062583980000,10.02597998046875,0.027155987918376923,-0.28970053791999817,0.17466235160827637
1788965062593983200,10.035983154296876,0.015296664088964462,-0.3519812226295471,0.1807338297367096
1788965062603985200,10.045985107421876,0.0016330503858625889,-0.359129399061203,0.13267095386981964
1788965062613988000,10.055988037109374,-0.01353524997830391,-0.29502737522125244,0.06594466418027878
1788965062623990000,10.065989990234375,-0.057611629366874695,-0.21803991496562958,0.0395471416413784
1788965062633993200,10.0759931640625,-0.15877953171730042,-0.11494496464729309,0.09966880083084106
1788965062643996200,10.08599609375,-0.27183765172958374,0.07622339576482773,0.14431217312812805
1788965062653998000,10.095998046875,-0.34084972739219666,0.22772370278835297,0.08785981684923172
1788965062664001300,10.106001220703124,-0.2839779257774353,0.236515074968338,-0.01625247299671173
1788965062674003200,10.116003173828124,-0.14242079854011536,0.11257314682006836,-0.04701597988605499
1788965062684006100,10.126006103515625,-0.042455580085515976,-0.0659601092338562,0.025732792913913727
1788965062694009000,10.136009033203125,-0.05378466844558716,-0.11943584680557251,0.11362456530332565
1788965062704011300,10.14601123046875,-0.16222378611564636,-0.0749240443110466,0.12136184424161911
1788965062714014000,10.156013916015626,-0.3246760964393616,0.01853906363248825,0.04541195556521416
1788965062724016000,10.16601611328125,-0.39015868306159973,0.10661379247903824,-0.018849054351449013
1788965062734019000,10.17601904296875,-0.24360227584838867,0.08780042827129364,-0.03684163838624954
1788965062744021200,10.186021240234375,-0.049788061529397964,-0.040409207344055176,-0.0018008295446634293
1788965062754024000,10.19602392578125,0.0023345269728451967,-0.12388546019792557,0.06412173062562943
1788965062764027100,10.206027099609376,-0.1352883130311966,-0.016949422657489777,0.0957033559679985
1788965062774029000,10.216029052734376,-0.24613814055919647,0.18541273474693298,0.07797868549823761
1788965062784032000,10.226031982421874,-0.22066126763820648,0.22833862900733948,0.04031200334429741
1788965062794034200,10.2360341796875,-0.09067637473344803,0.036003272980451584,0.018870893865823746
1788965062804037000,10.246037109375,0.04996809363365173,-0.22576920688152313,0.03644988685846329
1788965062814040000,10.2560400390625,0.06562960892915726,-0.34216612577438354,0.08463872224092484
1788965062824042000,10.2660419921875,-0.07258392125368118,-0.27473941445350647,0.1376713067293167
1788965062834045200,10.276045166015624,-0.26953479647636414,-0.05464620143175125,0.1542297899723053
1788965062844047000,10.286047119140624,-0.3261842429637909,0.14405463635921478,0.10229893773794174
1788965062854050000,10.296050048828125,-0.21994274854660034,0.12200047075748444,0.010070477612316608
1788965062864053200,10.30605322265625,-0.0699218288064003,-0.057228934019804,-0.07595361769199371
1788965062874055200,10.31605517578125,0.010851049795746803,-0.17041566967964172,-0.10176470875740051
1788965062884058000,10.32605810546875,-0.06666451692581177,-0.11510635167360306,-0.045934733003377914
1788965062894060000,10.33606005859375,-0.19880443811416626,0.08399903029203415,0.02317136526107788
1788965062904063200,10.346063232421875,-0.30156251788139343,0.23746049404144287,0.01643330231308937
1788965062914066200,10.356066162109375,-0.27201688289642334,0.1934695988893509,-0.05654849857091904
1788965062924068000,10.366068115234375,-0.12719763815402985,0.04784954711794853,-0.12703518569469452
1788965062934071000,10.376071044921876,0.007095459848642349,-0.06637290120124817,-0.1659759283065796
1788965062944073200,10.3860732421875,0.004606203176081181,-0.05566725507378578,-0.156048983335495
1788965062954076200,10.396076171875,-0.05049193650484085,-0.015690013766288757,-0.05728992074728012
1788965062964078000,10.406078125,-0.10292904824018478,0.01540452241897583,0.062366437166929245
1788965062974081000,10.4160810546875,-0.08260566741228104,-0.048340100795030594,0.14015205204486847
1788965062984084200,10.426084228515625,0.07565401494503021,-0.25098881125450134,0.20536141097545624
1788965062994086100,10.436086181640626,0.2775948643684387,-0.5886331796646118,0.23183776438236237
1788965063004089000,10.446089111328124,0.36109188199043274,-0.8502677083015442,0.18457970023155212
1788965063014091000,10.456091064453124,0.31478750705718994,-0.8054783940315247,0.10238868743181229
1788965063024094200,10.46609423828125,0.12915559113025665,-0.469901978969574,0.004881307948380709
1788965063034097200,10.47609716796875,-0.16701428592205048,-0.00318886898458004,-0.09523384273052216
1788965063044099000,10.48609912109375,-0.33605045080184937,0.3733789026737213,-0.19551916420459747
1788965063054102300,10.496102294921876,-0.26802265644073486,0.47381389141082764,-0.28095629811286926
1788965063064104200,10.506104248046874,-0.11253293603658676,0.3109664022922516,-0.35983753204345703
1788965063074107100,10.516107177734375,-0.00666429428383708,0.1000155434012413,-0.41614261269569397
1788965063084110000,10.526110107421875,-0.022526348009705544,0.06666664779186249,-0.4235171675682068
1788965063094112300,10.5361123046875,-0.15494243800640106,0.1754208207130432,-0.39493346214294434
1788965063104115200,10.546115234375,-0.3386976420879364,0.27131274342536926,-0.35467153787612915
1788965063114117600,10.55611767578125,-0.4343695640563965,0.2716682553291321,-0.31665971875190735
1788965063124120600,10.56612060546875,-0.35062673687934875,0.13526222109794617,-0.20913085341453552
1788965063134122500,10.57612255859375,-0.0991329774260521,-0.14274223148822784,-0.0393090546131134
1788965063144125400,10.58612548828125,0.16867023706436157,-0.501868724822998,0.14789491891860962
1788965063154128600,10.596128662109376,0.3067636787891388,-0.7880096435546875,0.29917046427726746
1788965063164130600,10.606130615234376,0.2887180745601654,-0.8835550546646118,0.36403733491897583
1788965063174133500,10.616133544921874,0.20903098583221436,-0.8468407392501831,0.3529873490333557
1788965063184135400,10.626135498046875,0.11949604004621506,-0.7680372595787048,0.2883617579936981
1788965063194138600,10.636138671875,0.026821494102478027,-0.6684640645980835,0.21285687386989594
1788965063204141600,10.6461416015625,-0.06309428066015244,-0.5009421706199646,0.1398726850748062
1788965063214143500,10.6561435546875,-0.15992522239685059,-0.2484809160232544,0.08092787116765976
1788965063224146700,10.666146728515624,-0.2468864768743515,0.055687498301267624,0.0630042627453804
1788965063234148600,10.676148681640624,-0.2788132429122925,0.29590940475463867,0.05185414105653763
1788965063244151600,10.686151611328125,-0.2608414590358734,0.37427106499671936,-0.01333045307546854
1788965063254154500,10.696154541015625,-0.23727992177009583,0.3620983064174652,-0.1303529441356659
1788965063264156700,10.70615673828125,-0.24643827974796295,0.36092305183410645,-0.23759551346302032
1788965063274159400,10.716159423828126,-0.3008282780647278,0.3870491683483124,-0.29737362265586853
1788965063284161500,10.72616162109375,-0.3497084677219391,0.4077933430671692,-0.29823967814445496
1788965063294164700,10.736164794921875,-0.36151984333992004,0.4041315019130707,-0.2652580440044403
1788965063304167400,10.74616748046875,-0.3246361315250397,0.29050213098526,-0.2084570676088333
1788965063314169600,10.756169677734375,-0.33550795912742615,0.13623107969760895,-0.1551312655210495
1788965063324172500,10.766172607421876,-0.371046245098114,0.011411645449697971,-0.12948928773403168
1788965063334174700,10.7761748046875,-0.3456479609012604,-0.10517195612192154,-0.12780429422855377
1788965063344177400,10.786177490234374,-0.2495698779821396,-0.27602651715278625,-0.10766414552927017
1788965063354180600,10.7961806640625,-0.14385783672332764,-0.4512116611003876,-0.04898006096482277
1788965063364182500,10.8061826171875,-0.027518443763256073,-0.6701070070266724,0.0646468997001648
1788965063374185500,10.816185546875,0.04436160624027252,-0.8343502283096313,0.11382164061069489
1788965063384187400,10.8261875,-0.019266638904809952,-0.8160369992256165,0.08597269654273987
1788965063394190600,10.836190673828124,-0.11235050857067108,-0.7202020883560181,0.05610135197639465
1788965063404193500,10.846193603515625,-0.05775943771004677,-0.7031996846199036,0.04852066561579704
1788965063414195500,10.856195556640625,0.04830947518348694,-0.6933878064155579,0.027281954884529114
1788965063424198700,10.86619873046875,0.07173570245504379,-0.5478838682174683,-0.010704842396080494
1788965063434200600,10.87620068359375,0.0822213664650917,-0.377883642911911,-0.07968337833881378
1788965063444203500,10.88620361328125,0.03723658621311188,-0.31944698095321655,-0.19611971080303192
1788965063454205400,10.896205322265626,0.00618199585005641,-0.4028308093547821,-0.3155267834663391
1788965063464208600,10.906208740234375,0.05361795425415039,-0.5309224724769592,-0.3848142623901367
1788965063474211300,10.91621142578125,0.11400672793388367,-0.6233216524124146,-0.41912642121315
1788965063484213500,10.926213623046875,0.16141632199287415,-0.71564781665802,-0.4651719331741333
1788965063494216400,10.936216552734376,0.13150529563426971,-0.8098803162574768,-0.5471206307411194
1788965063504218600,10.946218505859376,0.09653745591640472,-0.9017931818962097,-0.6250599026679993
1788965063514221300,10.95622119140625,0.13811925053596497,-1.002321720123291,-0.6908255815505981
1788965063524224500,10.966224609375,0.19282351434230804,-1.0805448293685913,-0.748080849647522
1788965063534226700,10.976226806640625,0.16060592234134674,-1.1084632873535156,-0.7968207001686096
1788965063544229600,10.986229736328125,0.12391448765993118,-1.1577730178833008,-0.8287578821182251
1788965063554231600,10.9962314453125,0.1329181045293808,-1.3060435056686401,-0.8420411944389343
1788965063564234500,11.006234375,0.1710902601480484,-1.5547529458999634,-0.8228877186775208
1788965063574237700,11.01623779296875,0.2255369871854782,-1.8502458333969116,-0.7597753405570984
1788965063584239400,11.0262392578125,0.2857521176338196,-2.1681675910949707,-0.6718779802322388
1788965063594242600,11.03624267578125,0.33139097690582275,-2.439500093460083,-0.6070795655250549
1788965063604244500,11.046244384765625,0.3843277096748352,-2.636709213256836,-0.5937440395355225
1788965063614247700,11.05624755859375,0.44193533062934875,-2.713057279586792,-0.6514190435409546
1788965063624250600,11.066250732421874,0.5034378170967102,-2.6887505054473877,-0.7763727307319641
1788965063634252500,11.07625244140625,0.5586315989494324,-2.5890800952911377,-0.9201618432998657
1788965063644255700,11.086255859375,0.5953390002250671,-2.5142199993133545,-1.0071555376052856
1788965063654257400,11.09625732421875,0.6140197515487671,-2.5038063526153564,-1.0495784282684326
1788965063664260600,11.106260498046876,0.6109120845794678,-2.494844913482666,-1.1113325357437134
1788965063674262500,11.116262451171876,0.5898723602294922,-2.4693775177001953,-1.2167253494262695
1788965063684265700,11.126265625,0.5964247584342957,-2.5898799896240234,-1.2745273113250732
1788965063694268400,11.136268310546875,0.6370987296104431,-2.948615074157715,-1.2826495170593262
1788965063704270600,11.1462705078125,0.703772783279419,-3.3119843006134033,-1.2990779876708984
1788965063714273500,11.1562734375,0.7971932888031006,-3.3621604442596436,-1.454532265663147
1788965063724275700,11.166275634765626,0.9216668009757996,-2.9727580547332764,-1.7666054964065552
1788965063734278400,11.1762783203125,1.0404407978057861,-2.3159003257751465,-2.1654083728790283
1788965063744281600,11.186281494140625,1.179027795791626,-1.7698020935058594,-2.5397396087646484
1788965063754283800,11.19628369140625,1.3170289993286133,-1.647674560546875,-2.786363124847412
1788965063764286500,11.206286376953125,1.4284311532974243,-1.8361281156539917,-2.929368495941162
1788965063774288600,11.21628857421875,1.478667974472046,-2.0739638805389404,-2.9517874717712402
1788965063784291600,11.22629150390625,1.4571988582611084,-2.180999994277954,-2.8588242530822754
1788965063794294500,11.23629443359375,1.3353949785232544,-2.205461263656616,-2.6538312435150146
1788965063804296400,11.24629638671875,1.2062056064605713,-1.954972267150879,-2.4926536083221436
1788965063814299600,11.256299560546875,1.0423465967178345,-1.744192123413086,-2.2380661964416504
1788965063824301600,11.266301513671875,0.8891929984092712,-1.6097040176391602,-1.8375928401947021
1788965063834304500,11.276304443359376,0.8224299550056458,-1.3581956624984741,-1.4659225940704346
1788965063844307700,11.2863076171875,0.6663092970848083,-1.096478819847107,-1.106644868850708
1788965063854309600,11.2963095703125,0.35337749123573303,-0.9311697483062744,-0.6677260994911194
1788965063864312600,11.3063125,0.034090857952833176,-0.7111063599586487,-0.2656788229942322
1788965063874314500,11.316314453125,-0.23695822060108185,-0.40899336338043213,0.026068884879350662
1788965063884317700,11.326317626953125,-0.3963492214679718,-0.11387703567743301,0.22963185608386993
1788965063894320400,11.3363203125,-0.4405587315559387,0.09334539622068405,0.37519145011901855
1788965063904322600,11.346322509765624,-0.5040567517280579,0.1626211404800415,0.44935330748558044
1788965063914325500,11.356325439453125,-0.6147739291191101,0.2159069925546646,0.410425066947937
1788965063924327700,11.36632763671875,-0.6640453934669495,0.2791474759578705,0.28370416164398193
1788965063934330400,11.376330322265625,-0.6487225890159607,0.38497990369796753,0.06668475270271301
1788965063944333600,11.38633349609375,-0.5664551854133606,0.40637868642807007,-0.14389857649803162
1788965063954335500,11.39633544921875,-0.35929423570632935,0.3532957434654236,-0.30643877387046814
1788965063964338400,11.40633837890625,-0.09197040647268295,0.2520178556442261,-0.3852914869785309
1788965063974340400,11.41634033203125,0.056106943637132645,0.15761332213878632,-0.33537399768829346
1788965063984343600,11.426343505859375,0.07497251033782959,0.191070094704628,-0.14121279120445251
1788965063994345700,11.436345703125,0.06533026695251465,0.371827095746994,0.0937267616391182
1788965064004348400,11.446348388671876,0.12307612597942352,0.5901639461517334,0.3124806582927704
1788965064014351600,11.4563515625,0.17752498388290405,0.8040370941162109,0.5262270569801331
1788965064024353500,11.466353515625,0.1806637942790985,1.0189653635025024,0.7275068759918213
1788965064034356500,11.4763564453125,0.10660074651241302,1.1492879390716553,0.9224771857261658
1788965064044358400,11.4863583984375,-0.013067065738141537,1.1807217597961426,1.0666003227233887
1788965064054361600,11.496361572265625,-0.15302470326423645,1.2238903045654297,1.1435281038284302
1788965064064364500,11.506364501953126,-0.2858586609363556,1.319972038269043,1.158645510673523
1788965064074366500,11.516366455078124,-0.3491489291191101,1.3921639919281006,1.127328634262085
1788965064084369700,11.52636962890625,-0.3557703495025635,1.3737173080444336,1.0945712327957153
1788965064094371600,11.53637158203125,-0.38359400629997253,1.310685396194458,1.1072845458984375
1788965064104374500,11.54637451171875,-0.44768908619880676,1.3063018321990967,1.1960618495941162
1788965064114377500,11.55637744140625,-0.5126686096191406,1.4049394130706787,1.3339369297027588
1788965064124379600,11.566379638671876,-0.5589154958724976,1.54613196849823,1.4844824075698853
1788965064134382600,11.576382568359374,-0.5769751667976379,1.6395679712295532,1.6121344566345215
1788965064144384500,11.586384521484375,-0.582188069820404,1.6584476232528687,1.7197521924972534
1788965064154387500,11.596387451171875,-0.5964271426200867,1.6251740455627441,1.8021304607391357
1788965064164390700,11.606390625,-0.6456208229064941,1.5608177185058594,1.8755055665969849
1788965064174392600,11.616392578125,-0.6986515522003174,1.5082080364227295,1.91493558883667
1788965064184395500,11.6263955078125,-0.7374005317687988,1.4476418495178223,1.896405577659607
1788965064194397400,11.6363974609375,-0.749480128288269,1.4047282934188843,1.8306251764297485
1788965064204400600,11.646400634765625,-0.7400146722793579,1.4220569133758545,1.7424037456512451
1788965064214403600,11.656403564453125,-0.7081427574157715,1.4908902645111084,1.6579301357269287
1788965064224405500,11.666405517578125,-0.6824912428855896,1.544191837310791,1.5984612703323364
1788965064234408700,11.67640869140625,-0.6614218950271606,1.5538567304611206,1.5555928945541382
1788965064244410600,11.68641064453125,-0.6260913014411926,1.5485213994979858,1.5145360231399536
1788965064254413600,11.69641357421875,-0.569791853427887,1.5695585012435913,1.4766818284988403
1788965064264416500,11.70641650390625,-0.524219810962677,1.6232658624649048,1.426808476448059
1788965064274418700,11.716418701171875,-0.499340295791626,1.6908329725265503,1.367626428604126
1788965064284421400,11.72642138671875,-0.49764785170555115,1.7520257234573364,1.3108909130096436
1788965064294423600,11.736423583984376,-0.5093468427658081,1.806052803993225,1.2624659538269043
1788965064304426500,11.746426513671874,-0.5198961496353149,1.8742238283157349,1.2107867002487183
1788965064314429400,11.756429443359375,-0.5358980298042297,1.9299890995025635,1.1632181406021118
1788965064324431600,11.766431640625,-0.537957489490509,2.0102343559265137,1.1091759204864502
1788965064334434600,11.7764345703125,-0.5286608934402466,2.1415743827819824,1.0323346853256226
1788965064344436700,11.786436767578126,-0.4963149428367615,2.347050189971924,0.920672595500946
1788965064354439400,11.796439453125,-0.4503951370716095,2.6241774559020996,0.7804915308952332
1788965064364442600,11.806442626953125,-0.3768298327922821,2.9240832328796387,0.610287070274353
1788965064374444500,11.816444580078125,-0.2697286903858185,3.157052516937256,0.4045059382915497
1788965064384447500,11.826447509765625,-0.13542413711547852,3.3589770793914795,0.20916227996349335
1788965064394449400,11.836449462890625,-0.011084076017141342,3.54388165473938,0.05272925645112991
1788965064404452600,11.84645263671875,0.09276562184095383,3.5996549129486084,-0.10304249823093414
1788965064414455600,11.85645556640625,0.182012140750885,3.5327725410461426,-0.2433900237083435
1788965064424457500,11.86645751953125,0.2542349398136139,3.3935155868530273,-0.3470085561275482
1788965064434460700,11.876460693359375,0.2975965440273285,3.212575674057007,-0.4251193404197693
1788965064444462600,11.886462646484375,0.3196357786655426,3.13120698928833,-0.43860799074172974
1788965064454465500,11.896465576171876,0.34533023834228516,3.0923681259155273,-0.3348538875579834
1788965064464468500,11.906468505859374,0.37332698702812195,2.7069103717803955,-0.010004164651036263
1788965064474470700,11.916470703125,0.4878319799900055,1.7142709493637085,0.6126247644424438
1788965064484473300,11.926473388671875,0.7340047359466553,0.4910956919193268,1.3284870386123657
1788965064494475500,11.9364755859375,1.0288022756576538,-0.630455732345581,1.9259504079818726
1788965064504478500,11.946478515625,1.2375479936599731,-1.4525727033615112,2.2715981006622314
1788965064514481700,11.956481689453126,1.2906768321990967,-1.8733258247375488,2.337390422821045
1788965064524483300,11.9664833984375,1.2044439315795898,-1.9276143312454224,2.160841941833496
1788965064534486500,11.976486572265625,1.087296724319458,-1.7463973760604858,1.8144036531448364
1788965064544488400,11.986488525390625,0.9724138379096985,-1.5037389993667603,1.3596142530441284
1788965064554491400,11.996491455078125,0.868579626083374,-1.1682251691818237,0.8572039008140564
1788965064564494600,12.00649462890625,0.7498012781143188,-0.703771710395813,0.364586740732193
1788965064574496500,12.01649658203125,0.6030024886131287,-0.3766982853412628,-0.08827100694179535
1788965064584499700,12.026499755859374,0.46083950996398926,-0.31118425726890564,-0.41295960545539856
1788965064594501400,12.03650146484375,0.3820040822029114,-0.34428441524505615,-0.5218983292579651
1788965064604504600,12.046504638671875,0.3688832223415375,-0.4379001259803772,-0.45981287956237793
1788965064614507500,12.056507568359375,0.3643673062324524,-0.5122510194778442,-0.3623094856739044
1788965064624509700,12.066509765625,0.2843624949455261,-0.5580781698226929,-0.31529244780540466
1788965064634512600,12.0765126953125,0.13450294733047485,-0.5748470425605774,-0.2954249978065491
1788965064644514600,12.0865146484375,-0.033070337027311325,-0.44628268480300903,-0.2667483389377594
1788965064654517800,12.096517822265625,-0.14766108989715576,-0.06608394533395767,-0.23592545092105865
1788965064664520400,12.1065205078125,-0.23898515105247498,0.317546546459198,-0.2310982048511505
1788965064674522600,12.116522705078125,-0.31664878129959106,0.5625946521759033,-0.24028290808200836
1788965064684525600,12.126525634765626,-0.39001354575157166,0.6566234230995178,-0.25473374128341675
1788965064694527700,12.13652783203125,-0.46684175729751587,0.6297454237937927,-0.25720036029815674
1788965064704530400,12.146530517578125,-0.5385358929634094,0.5302247405052185,-0.2782915532588959
1788965064714533600,12.15653369140625,-0.6191447377204895,0.4513048529624939,-0.32302653789520264
1788965064724535600,12.16653564453125,-0.7081286907196045,0.44436708092689514,-0.36887043714523315
1788965064734538500,12.17653857421875,-0.7981187701225281,0.5238597393035889,-0.4241592586040497
1788965064744540400,12.18654052734375,-0.8803710341453552,0.6634408235549927,-0.5001184940338135
1788965064754543600,12.196543701171874,-0.9455870389938354,0.8200493454933167,-0.5934377908706665
1788965064764546600,12.206546630859375,-0.9880663156509399,0.9676957726478577,-0.6926775574684143
1788965064774548500,12.216548583984375,-1.03446626663208,1.1009949445724487,-0.7879737019538879
1788965064784551700,12.2265517578125,-1.08588445186615,1.1819382905960083,-0.862157940864563
1788965064794553600,12.2365537109375,-1.1306215524673462,1.1940066814422607,-0.9205375909805298
1788965064804556500,12.246556640625,-1.1337324380874634,1.148093819618225,-0.9632403254508972
1788965064814559500,12.2565595703125,-1.065339207649231,1.0556468963623047,-1.0437921285629272
1788965064824561700,12.266561767578125,-0.9248244762420654,0.8943829536437988,-1.1579155921936035
1788965064834564400,12.276564453125,-0.7319647669792175,0.6086832880973816,-1.2770164012908936
1788965064844566500,12.28656640625,-0.48504844307899475,0.22564324736595154,-1.3730847835540771
1788965064854569500,12.296569580078126,-0.27932217717170715,-0.14772900938987732,-1.4286476373672485
1788965064864572400,12.306572509765624,-0.09184549748897552,-0.44641584157943726,-1.3816109895706177
1788965064874574600,12.31657470703125,0.08773890882730484,-0.6647329926490784,-1.2314398288726807
1788965064884577500,12.32657763671875,0.20823974907398224,-0.8549618124961853,-1.0363044738769531
1788965064894579700,12.336579833984375,0.26027393341064453,-1.116798996925354,-0.8592699766159058
1788965064904582400,12.34658251953125,0.25907257199287415,-1.4545844793319702,-0.7300459742546082
1788965064914585600,12.356585693359374,0.21356074512004852,-1.8708746433258057,-0.6554814577102661
1788965064924587500,12.36658740234375,0.1833687573671341,-2.3660058975219727,-0.6084510684013367
1788965064934590500,12.376590576171875,0.20263592898845673,-2.8831615447998047,-0.5814980268478394
1788965064944593400,12.386593505859375,0.2597127854824066,-3.382674217224121,-0.5659249424934387
1788965064954595600,12.396595703125,0.3364669680595398,-3.8167874813079834,-0.5754119157791138
1788965064964598500,12.4065986328125,0.4098748564720154,-4.153913497924805,-0.6148027181625366
1788965064974600400,12.416600341796874,0.46512266993522644,-4.31395149230957,-0.6797569394111633
1788965064984603600,12.426603759765625,0.48824024200439453,-4.295925140380859,-0.7674516439437866
1788965064994605600,12.43660546875,0.4869992136955261,-4.147831916809082,-0.8560233116149902
1788965065004608500,12.4466083984375,0.49392157793045044,-3.920893669128418,-0.8923248648643494
1788965065014611500,12.456611572265626,0.5193063020706177,-3.634082555770874,-0.8995563983917236
