time,seconds_elapsed,z,y,x
1788848420197606700,0.092606689453125,-0.5049784183502197,0.42547547817230225,-0.3905479907989502
1788848420207639600,0.1026396484375,-0.5238929986953735,0.2505905032157898,-0.3162338137626648
1788848420217672700,0.112672607421875,-0.5269486308097839,0.09116457402706146,-0.24585570394992828
1788848420227704600,0.12270458984375,-0.535308837890625,-0.019044488668441772,-0.16267931461334229
1788848420237737700,0.13273779296875,-0.5644895434379578,-0.04319124296307564,-0.08958770334720612
1788848420247770600,0.1427705078125,-0.5826972723007202,-0.025777366012334824,-0.11843053996562958
1788848420257803500,0.152803466796875,-0.5319421887397766,0.07349639385938644,-0.24246619641780853
1788848420267836700,0.162836669921875,-0.3885727822780609,0.2564640939235687,-0.44295695424079895
1788848420277869600,0.17286962890625,-0.24853482842445374,0.3594317138195038,-0.6723918914794922
1788848420287902700,0.18290283203125,-0.1136888638138771,0.26978012919425964,-0.8645849823951721
1788848420297934600,0.1929345703125,-0.018242763355374336,0.14487440884113312,-0.9176226854324341
1788848420307967700,0.2029677734375,-0.009615452960133553,-0.003924658056348562,-0.8600890636444092
1788848420318000600,0.213000732421875,-0.05933596193790436,-0.22043702006340027,-0.6779664754867554
1788848420328033500,0.223033447265625,-0.1472221314907074,-0.510392427444458,-0.438716322183609
1788848420338066700,0.233066650390625,-0.29405704140663147,-0.6802957057952881,-0.2065005749464035
1788848420348099600,0.243099609375,-0.40850743651390076,-0.6924389004707336,-0.004545079544186592
1788848420358132500,0.253132568359375,-0.4506756663322449,-0.6885156035423279,0.15436257421970367
1788848420368164600,0.26316455078125,-0.4487685561180115,-0.6312970519065857,0.26319876313209534
1788848420378197800,0.27319775390625,-0.39226311445236206,-0.5190616846084595,0.3259860575199127
1788848420388230700,0.283230712890625,-0.23150141537189484,-0.34331387281417847,0.33899667859077454
1788848420398263600,0.293263671875,-0.01770780421793461,-0.17885179817676544,0.24288678169250488
1788848420408296700,0.303296630859375,0.13620638847351074,-0.05257321894168854,0.05202148109674454
1788848420418329600,0.31332958984375,0.28252241015434265,-0.059453025460243225,-0.1959666758775711
1788848420428362500,0.323362548828125,0.4193654954433441,-0.23887018859386444,-0.4324135482311249
1788848420438394600,0.33339453125,0.5518068671226501,-0.4614769220352173,-0.5315843820571899
1788848420448427800,0.343427734375,0.6504048109054565,-0.44143450260162354,-0.34691333770751953
1788848420458460700,0.353460693359375,0.5150566101074219,-0.24686387181282043,-0.007537853438407183
1788848420468493600,0.36349365234375,0.1323646754026413,-0.17441603541374207,0.29353782534599304
1788848420478526700,0.373526611328125,-0.21277104318141937,-0.1837264746427536,0.5119802951812744
1788848420488559400,0.383559326171875,-0.4231860637664795,-0.15870819985866547,0.6441710591316223
1788848420498592500,0.393592529296875,-0.521414041519165,-0.0038115940988063812,0.6743180751800537
1788848420508624600,0.403624755859375,-0.5085408687591553,0.23360148072242737,0.5994542241096497
1788848420518657500,0.413657470703125,-0.44921571016311646,0.35153982043266296,0.43673276901245117
1788848420528690700,0.423690673828125,-0.26708877086639404,0.445973664522171,0.3515193462371826
1788848420538723600,0.4337236328125,-0.0810169130563736,0.4469214677810669,0.3171943724155426
1788848420548756500,0.443756591796875,0.014456342905759811,0.18719376623630524,0.22109048068523407
1788848420558789400,0.453789306640625,0.003722734283655882,-0.04384522885084152,0.06165660172700882
1788848420568822500,0.463822509765625,-0.053660131990909576,0.0052450839430093765,-0.03668541461229324
1788848420578854700,0.473854736328125,-0.10230062901973724,0.24376294016838074,-0.08598105609416962
1788848420588887600,0.483887451171875,-0.10530361533164978,0.43352994322776794,-0.148624986410141
1788848420598920700,0.493920654296875,-0.06947556883096695,0.5384668707847595,-0.15552763640880585
1788848420608953600,0.50395361328125,-0.042386434972286224,0.5237206816673279,-0.0749848484992981
1788848420618986500,0.513986572265625,-0.07524195313453674,0.2915664613246918,0.14388293027877808
1788848420629019400,0.524019287109375,-0.20142225921154022,-0.24218323826789856,0.3340475261211395
1788848420639052500,0.534052490234375,-0.46579471230506897,-0.8655206561088562,0.37689095735549927
1788848420649084700,0.544084716796875,-0.7197505831718445,-1.3753575086593628,0.33566948771476746
1788848420659117600,0.55411767578125,-0.8995721936225891,-1.7054229974746704,0.2822577655315399
1788848420669150500,0.564150390625,-1.0451812744140625,-1.8872308731079102,0.20225825905799866
1788848420679183400,0.574183349609375,-1.1961753368377686,-1.8432998657226562,0.06277503818273544
1788848420689216500,0.584216552734375,-1.3171507120132446,-1.5949989557266235,-0.08133180439472198
1788848420699249400,0.59424951171875,-1.4098238945007324,-1.297142505645752,-0.22191697359085083
1788848420709282600,0.604282470703125,-1.4972858428955078,-0.9537979960441589,-0.3333747982978821
1788848420719314700,0.614314697265625,-1.588212490081787,-0.5508101582527161,-0.40872636437416077
1788848420729347600,0.62434765625,-1.663687825202942,-0.1604311764240265,-0.4475560486316681
1788848420739380500,0.63438037109375,-1.6709016561508179,-0.036838509142398834,-0.4458257555961609
1788848420749413400,0.644413330078125,-1.5587490797042847,-0.07201673835515976,-0.39460837841033936
1788848420759446500,0.654446533203125,-1.167614221572876,-0.16849179565906525,-0.2485184222459793
1788848420769479400,0.6644794921875,-0.519219160079956,-0.2611277103424072,-0.011865400709211826
1788848420779512600,0.6745126953125,0.01794063299894333,-0.29912155866622925,0.20145638287067413
1788848420789545500,0.68454541015625,0.06492838263511658,-0.4331536591053009,0.18620125949382782
1788848420799577600,0.69457763671875,-0.0927911251783371,-0.608251690864563,0.066318079829216
1788848420809610500,0.704610595703125,-0.18419933319091797,-0.5789079070091248,0.022289903834462166
1788848420819643400,0.714643310546875,-0.19276770949363708,-0.44561395049095154,-0.015708528459072113
1788848420829676500,0.724676513671875,-0.1439802050590515,-0.4497913718223572,-0.11788363009691238
1788848420839709400,0.73470947265625,-0.08342903852462769,-0.4853349030017853,-0.2179786115884781
1788848420849742600,0.74474267578125,-0.05794071778655052,-0.43034568428993225,-0.2822667956352234
1788848420859774500,0.7547744140625,-0.10003037750720978,-0.2976205348968506,-0.23205339908599854
1788848420869807400,0.764807373046875,-0.1492309421300888,-0.25454309582710266,-0.09926287084817886
1788848420879840500,0.774840576171875,-0.06276771426200867,-0.1858922839164734,0.12089929729700089
1788848420889873400,0.784873291015625,0.07911698520183563,-0.12510430812835693,0.35848575830459595
1788848420899906600,0.794906494140625,0.1484135240316391,-0.11253822594881058,0.5174975395202637
1788848420909939500,0.804939453125,0.15614894032478333,-0.12035620212554932,0.590535044670105
1788848420919972600,0.81497265625,0.13311205804347992,-0.1379837691783905,0.5783949494361877
1788848420930005500,0.825005615234375,0.09122638404369354,-0.137871652841568,0.5215697884559631
1788848420940037400,0.835037353515625,0.03321492299437523,-0.08921821415424347,0.46660149097442627
1788848420950070500,0.845070556640625,-0.05151380971074104,-0.05256566405296326,0.43727797269821167
1788848420960103400,0.855103515625,-0.18551190197467804,-0.06673171371221542,0.4560561180114746
1788848420970136600,0.865136474609375,-0.3180544972419739,-0.162820965051651,0.4999665915966034
1788848420980169500,0.87516943359375,-0.3348916471004486,-0.3362789452075958,0.5445961952209473
1788848420990202600,0.88520263671875,-0.29715704917907715,-0.42474278807640076,0.5547561645507812
1788848421000234500,0.895234375,-0.1948992908000946,-0.40439504384994507,0.5310549139976501
1788848421010267400,0.905267333984375,-0.060241349041461945,-0.2955061197280884,0.4704422056674957
1788848421020300500,0.915300537109375,0.02153191901743412,-0.12123113870620728,0.41689977049827576
1788848421030333400,0.92533349609375,0.030471619218587875,0.07170502841472626,0.3982509672641754
1788848421040366600,0.93536669921875,-0.022968892008066177,0.2408648431301117,0.40861526131629944
1788848421050399500,0.9453994140625,-0.09904502332210541,0.4004925787448883,0.37202873826026917
1788848421060432600,0.9554326171875,-0.17830237746238708,0.40457314252853394,0.2650587856769562
1788848421070465500,0.965465576171875,-0.277309387922287,0.28255748748779297,0.09837394952774048
1788848421080497400,0.975497314453125,-0.30878838896751404,0.20477412641048431,-0.08063939958810806
1788848421090530600,0.985530517578125,-0.2571480870246887,0.10833226889371872,-0.22381173074245453
1788848421100563500,0.9955634765625,-0.19826249778270721,-0.027159184217453003,-0.27114391326904297
1788848421110596600,1.0055966796875,-0.16500067710876465,-0.2669004201889038,-0.2173517942428589
1788848421120629500,1.01562939453125,-0.1579591929912567,-0.38353466987609863,-0.07489442825317383
1788848421130662400,1.025662353515625,-0.1491268277168274,-0.4187520444393158,0.07541625201702118
1788848421140695600,1.035695556640625,-0.016114534810185432,-0.4176091253757477,0.11295715719461441
1788848421150727400,1.0457275390625,0.22065193951129913,-0.3824079930782318,0.04591074213385582
1788848421160760600,1.055760498046875,0.3827161192893982,-0.325035035610199,-0.07103168964385986
1788848421170793500,1.06579345703125,0.4288894832134247,-0.137677401304245,-0.1362551748752594
1788848421180826600,1.07582666015625,0.3549785614013672,-0.06483469903469086,-0.11251514405012131
1788848421190859500,1.085859619140625,0.1976163685321808,-0.05942768603563309,-0.03869178518652916
1788848421200893000,1.095892822265625,0.08595120906829834,-0.09034813940525055,0.006695786025375128
1788848421210926000,1.105926025390625,0.04835056513547897,-0.14068801701068878,0.014025869779288769
1788848421220958000,1.1159580078125,0.0028381175361573696,-0.15430158376693726,-0.007886975072324276
1788848421230991000,1.1259912109375,-0.05124003067612648,-0.1887921839952469,-0.014624773524701595
1788848421241024000,1.13602392578125,-0.08382114768028259,-0.18467280268669128,0.01992734521627426
1788848421251057000,1.146056884765625,-0.08699722588062286,-0.17172904312610626,0.08201734721660614
1788848421261090000,1.156090087890625,-0.015108926221728325,-0.1860782653093338,0.13501477241516113
1788848421271123000,1.166123046875,0.0023054825142025948,-0.2156289666891098,0.1162078008055687
1788848421281156000,1.176156005859375,-0.02980806678533554,-0.2445189654827118,0.0349099263548851
1788848421291188000,1.18618798828125,-0.07787866145372391,-0.23280398547649384,0.04356466606259346
1788848421301221000,1.19622119140625,-0.17151574790477753,-0.13538753986358643,0.16348299384117126
1788848421311254000,1.20625390625,-0.27675244212150574,-0.0039743962697684765,0.2722227871417999
1788848421321287000,1.216286865234375,-0.30460473895072937,0.11790791153907776,0.3026346266269684
1788848421331320000,1.226320068359375,-0.27694272994995117,0.18850217759609222,0.2297705113887787
1788848421341353000,1.23635302734375,-0.26847487688064575,0.17988333106040955,0.11775964498519897
1788848421351386000,1.24638623046875,-0.28270387649536133,0.10403250902891159,0.045749105513095856
1788848421361418000,1.25641796875,-0.30683788657188416,-0.057481732219457626,0.04212700203061104
1788848421371451000,1.266450927734375,-0.3371284306049347,-0.19408831000328064,0.0898204892873764
1788848421381484000,1.276484130859375,-0.32140910625457764,-0.24032938480377197,0.15701231360435486
1788848421391517000,1.286516845703125,-0.2757454812526703,-0.2874090373516083,0.18488521873950958
1788848421401550000,1.296550048828125,-0.23666448891162872,-0.32122766971588135,0.19420592486858368
1788848421411583000,1.3065830078125,-0.20607249438762665,-0.3209909200668335,0.19097870588302612
1788848421421616000,1.3166162109375,-0.2213011533021927,-0.3638570308685303,0.22328773140907288
1788848421431648000,1.32664794921875,-0.26390719413757324,-0.3867141306400299,0.25689736008644104
1788848421441681000,1.336680908203125,-0.2799001932144165,-0.32206854224205017,0.24234940111637115
1788848421451714000,1.346714111328125,-0.2834613621234894,-0.2470094859600067,0.1865931898355484
1788848421461747000,1.356746826171875,-0.25590625405311584,-0.15364941954612732,0.1069536954164505
1788848421471780000,1.366780029296875,-0.19294141232967377,-0.0624135285615921,0.010227948427200317
1788848421481813000,1.37681298828125,-0.14606516063213348,-0.07626747339963913,-0.055209580808877945
1788848421491846100,1.38684619140625,-0.12817591428756714,-0.15125435590744019,-0.03689848631620407
1788848421501878000,1.3968779296875,-0.08218469470739365,-0.19597291946411133,0.0065287090837955475
1788848421511911000,1.406910888671875,-0.0480554923415184,-0.30946141481399536,0.02321021631360054
1788848421521944000,1.416944091796875,-0.05049284175038338,-0.3330393433570862,0.05437709763646126
1788848421531977000,1.42697705078125,-0.07958362251520157,-0.41265612840652466,0.04122268036007881
1788848421542010000,1.437010009765625,-0.056510262191295624,-0.4456491768360138,-0.018662232905626297
1788848421552043000,1.44704296875,0.003576246788725257,-0.4325072765350342,-0.08184333145618439
1788848421562076200,1.457076171875,0.08241575211286545,-0.3709337115287781,-0.12788929045200348
1788848421572109000,1.467109130859375,0.13846224546432495,-0.2584537863731384,-0.14806273579597473
1788848421582141000,1.477140869140625,0.1635766327381134,-0.20194624364376068,-0.12289641797542572
1788848421592174000,1.487174072265625,0.11163115501403809,-0.12102209776639938,-0.05200013890862465
1788848421602207000,1.49720703125,0.009048976004123688,-0.02431672066450119,-0.003822335507720709
1788848421612240100,1.507240234375,-0.062376998364925385,0.04210251569747925,0.035600703209638596
1788848421622273000,1.51727294921875,-0.08797887712717056,0.08433955162763596,0.04613656923174858
1788848421632306200,1.52730615234375,-0.059762682765722275,0.08511053770780563,-0.0000924456981010735
1788848421642339000,1.537339111328125,0.0035896566696465015,0.08159942924976349,-0.07423777878284454
1788848421652371000,1.547370849609375,0.04190162569284439,0.035528868436813354,-0.11728378385305405
1788848421662404000,1.557404052734375,0.047404784709215164,-0.04056553542613983,-0.1279958188533783
1788848421672437000,1.56743701171875,0.043922167271375656,-0.14913409948349,-0.10824821144342422
1788848421682470100,1.57747021484375,0.08415145426988602,-0.21849851310253143,-0.0688825398683548
1788848421692503000,1.5875029296875,0.132561594247818,-0.25073716044425964,-0.04346586763858795
1788848421702536200,1.5975361328125,0.17766191065311432,-0.2263738065958023,-0.02873947285115719
1788848421712569000,1.607569091796875,0.19384407997131348,-0.1974998116493225,-0.00040929942042566836
1788848421722601000,1.61760107421875,0.18046456575393677,-0.08234280347824097,0.02771868370473385
1788848421732634000,1.627634033203125,0.15191122889518738,-0.014145647175610065,0.03255525231361389
1788848421742667000,1.6376669921875,0.12865731120109558,-0.0013031400740146637,0.04734807461500168
1788848421752700200,1.6477001953125,0.13760340213775635,-0.04005319997668266,0.09952579438686371
1788848421762733000,1.657733154296875,0.15036553144454956,-0.07499459385871887,0.14095444977283478
1788848421772766200,1.66776611328125,0.1560625582933426,-0.11709970235824585,0.1499175876379013
1788848421782799000,1.677799072265625,0.1698102355003357,-0.12400738894939423,0.15533700585365295
1788848421792832000,1.68783203125,0.18989606201648712,-0.16560889780521393,0.14393042027950287
1788848421802864000,1.697864013671875,0.1693291813135147,-0.22071611881256104,0.1855778992176056
1788848421812897000,1.70789697265625,0.1434088945388794,-0.24636316299438477,0.27709370851516724
1788848421822930200,1.71793017578125,0.16579225659370422,-0.19631227850914001,0.28062617778778076
1788848421832963000,1.727963134765625,0.1619117558002472,-0.06526105105876923,0.1994253247976303
1788848421842996200,1.737996337890625,0.13111983239650726,0.09709738940000534,0.07894928753376007
1788848421853029000,1.748029052734375,0.09390907734632492,0.16879421472549438,0.0015935113187879324
1788848421863062000,1.75806201171875,0.0571996308863163,0.14318221807479858,0.03209667280316353
1788848421873094100,1.76809423828125,0.051461316645145416,0.03797270357608795,0.12237729877233505
1788848421883127000,1.778126953125,0.08527732640504837,-0.17374178767204285,0.2423231154680252
1788848421893160200,1.78816015625,0.1129467710852623,-0.35851243138313293,0.3397138714790344
1788848421903193000,1.798193115234375,0.13070057332515717,-0.3984816372394562,0.3557187616825104
1788848421913226200,1.808226318359375,0.14534716308116913,-0.3304668962955475,0.2514647841453552
1788848421923259100,1.818259033203125,0.1254764050245285,-0.2621696889400482,0.11251051723957062
1788848421933292000,1.8282919921875,0.06995855271816254,-0.19925275444984436,0.063092902302742
1788848421943324200,1.83832421875,0.030235737562179565,-0.12258616834878922,0.09042609483003616
1788848421953357000,1.848357177734375,-0.022041846066713333,-0.05209628865122795,0.10321059823036194
1788848421963390200,1.85839013671875,-0.1286456286907196,0.006184443831443787,0.06745968759059906
1788848421973423000,1.868423095703125,-0.22662970423698425,-0.06029045209288597,0.008195030502974987
1788848421983456300,1.878456298828125,-0.26752227544784546,-0.22444064915180206,-0.028711838647723198
1788848421993489200,1.8884892578125,-0.276222825050354,-0.30906179547309875,-0.04839419946074486
1788848422003521800,1.898521728515625,-0.2220005840063095,-0.3424265682697296,-0.04517547786235809
1788848422013555000,1.908554931640625,-0.11669918894767761,-0.33417394757270813,-0.03006363846361637
1788848422023587000,1.918587158203125,-0.06259771436452866,-0.1992977112531662,-0.03005683422088623
1788848422033620200,1.9286201171875,-0.04481951892375946,-0.015912707895040512,-0.001607083948329091
1788848422043653000,1.938653076171875,-0.03816213831305504,0.26806914806365967,0.02778889611363411
1788848422053686000,1.94868603515625,-0.022429782897233963,0.4662826359272003,0.036121927201747894
1788848422063719000,1.958718994140625,-0.029445871710777283,0.5020081996917725,0.042374517768621445
1788848422073751800,1.968751708984375,-0.012859173119068146,0.28067266941070557,0.03878537565469742
1788848422083785000,1.978784912109375,0.06026271730661392,-0.1321619302034378,0.026676274836063385
1788848422093817900,1.98881787109375,0.11118023097515106,-0.49441656470298767,0.08141195774078369
1788848422103850200,1.998850341796875,0.18597829341888428,-0.687168300151825,0.18030735850334167
1788848422113883100,2.008883056640625,0.24246154725551605,-0.6121236085891724,0.2219376266002655
1788848422123916000,2.018916015625,0.24329979717731476,-0.3653031587600708,0.2300601303577423
1788848422133949000,2.028948974609375,0.2627331614494324,0.11463149636983871,0.19589737057685852
1788848422143981800,2.03898193359375,0.25090137124061584,0.4868905544281006,0.06788922101259232
1788848422154015000,2.049014892578125,0.22950047254562378,0.7117186188697815,-0.012898039072751999
1788848422164048000,2.0590478515625,0.19363772869110107,0.7500103116035461,-0.026169726625084877
1788848422174081000,2.0690810546875,0.092952661216259,0.4693288505077362,-0.04337907209992409
1788848422184113200,2.079113037109375,-0.01968379132449627,0.1341867297887802,-0.07789117842912674
1788848422194145800,2.089145751953125,0.009518835693597794,-0.010789637453854084,-0.1569574922323227
1788848422204178700,2.0991787109375,0.0970497578382492,-0.011632603593170643,-0.2537069320678711
1788848422214211600,2.109211669921875,0.1332745999097824,0.03227919340133667,-0.34469327330589294
1788848422224244700,2.11924462890625,0.06579428166151047,0.10933180898427963,-0.3705318868160248
1788848422234277600,2.129277587890625,-0.009360387921333313,0.3122071623802185,-0.34179824590682983
1788848422244310800,2.139310791015625,-0.012619595974683762,0.47049933671951294,-0.3214397728443146
1788848422254343700,2.14934375,0.004138345364481211,0.4950459599494934,-0.3328796327114105
1788848422264375800,2.159375732421875,-0.017242029309272766,0.40463966131210327,-0.32740017771720886
1788848422274408700,2.16940869140625,-0.033188238739967346,0.3199884295463562,-0.33999398350715637
1788848422284441600,2.179441650390625,-0.02494104951620102,0.38006991147994995,-0.4294544458389282
1788848422294474800,2.189474853515625,0.013840701431035995,0.6267798542976379,-0.5627099275588989
1788848422304507600,2.199507568359375,0.07401109486818314,0.8824376463890076,-0.6570370197296143
1788848422314540800,2.209540771484375,0.1203993633389473,1.0392192602157593,-0.6346054673194885
1788848422324573700,2.21957373046875,0.16220487654209137,1.1527963876724243,-0.5210088491439819
1788848422334606600,2.229606689453125,0.20263619720935822,1.1622873544692993,-0.37581172585487366
1788848422344638700,2.239638671875,0.23420068621635437,1.1085883378982544,-0.23441286385059357
1788848422354671600,2.249671630859375,0.2030283808708191,0.968685507774353,-0.151574969291687
1788848422364704800,2.259704833984375,0.1498088389635086,0.7706183195114136,-0.10630630701780319
1788848422374737700,2.269737548828125,0.10321123898029327,0.4647931456565857,-0.07279122620820999
1788848422384770800,2.279770751953125,0.07803941518068314,0.14353272318840027,-0.06683359295129776
1788848422394803700,2.2898037109375,0.09929516911506653,-0.22811193764209747,-0.03483464568853378
1788848422404836600,2.299836669921875,0.10352566093206406,-0.5539873838424683,0.000715114816557616
1788848422414868700,2.30986865234375,0.13028484582901,-0.7425128221511841,0.0611686035990715
1788848422424901600,2.319901611328125,0.20921996235847473,-0.8569769859313965,0.12261180579662323
1788848422434934800,2.329934814453125,0.22556564211845398,-0.9540071487426758,0.15322111546993256
1788848422444967700,2.3399677734375,0.15162955224514008,-1.0523325204849243,0.12834765017032623
1788848422455000800,2.350000732421875,0.10691986978054047,-1.1250277757644653,0.07170860469341278
1788848422465033700,2.36003369140625,-0.09947945922613144,-0.6261545419692993,-0.2735743224620819
1788848422475066600,2.370066650390625,-0.0333624966442585,-0.464539498090744,-0.8248243927955627
1788848422485099800,2.380099853515625,0.13793246448040009,-0.23958459496498108,-1.1960108280181885
1788848422495131600,2.390131591796875,0.32543444633483887,0.052665647119283676,-1.4355440139770508
1788848422505164800,2.400164794921875,0.41314560174942017,0.014164891093969345,-1.6461678743362427
1788848422515197700,2.41019775390625,0.43760165572166443,-0.3141661286354065,-1.7922343015670776
1788848422525230800,2.42023095703125,0.44872045516967773,-0.6119439005851746,-1.8394927978515625
1788848422535263700,2.430263671875,0.44686928391456604,-0.6442543864250183,-1.764753818511963
1788848422545296600,2.440296630859375,0.43900150060653687,-0.5533061027526855,-1.5675721168518066
1788848422555329800,2.450329833984375,0.3773922026157379,-0.3518129885196686,-1.3200699090957642
1788848422565362700,2.46036279296875,0.2631152272224426,-0.1269465982913971,-1.0902718305587769
1788848422575394800,2.470394775390625,0.1740732491016388,0.001133078709244728,-0.8901515603065491
1788848422585427700,2.480427734375,0.12273301929235458,0.07142429053783417,-0.7378275394439697
1788848422595460600,2.490460693359375,0.08582346886396408,0.1791427731513977,-0.6511688232421875
1788848422605493800,2.50049365234375,0.05318622291088104,0.24276234209537506,-0.6200577020645142
1788848422615526700,2.510526611328125,0.03151767700910568,0.2449655681848526,-0.6329708695411682
1788848422625559800,2.520559814453125,0.02484380453824997,0.19908130168914795,-0.6704407334327698
1788848422635592700,2.5305927734375,0.010242491960525513,0.131608247756958,-0.6926421523094177
1788848422645624800,2.540624755859375,-0.02145746722817421,0.09107738733291626,-0.6073049902915955
1788848422655657700,2.55065771484375,-0.05120577663183212,0.10098621249198914,-0.3960483968257904
1788848422665690600,2.560690673828125,-0.05658792331814766,0.18834133446216583,-0.11247756332159042
1788848422675723800,2.570723876953125,-0.08675461262464523,0.249674454331398,0.17596009373664856
1788848422685756700,2.580756591796875,-0.11520180106163025,0.2379613071680069,0.3758443295955658
1788848422695789800,2.590789794921875,-0.15003301203250885,0.1346578150987625,0.4745040833950043
1788848422705822700,2.60082275390625,-0.15890994668006897,0.05062386766076088,0.5001919865608215
1788848422715856000,2.61085595703125,-0.13262933492660522,-0.009473557583987713,0.431292861700058
1788848422725887700,2.6208876953125,-0.1193590834736824,-0.021837644279003143,0.22345657646656036
1788848422735920600,2.630920654296875,-0.09232853353023529,0.08430902659893036,-0.04700580984354019
1788848422745953800,2.640953857421875,-0.08212869614362717,0.18394482135772705,-0.29338183999061584
1788848422755986700,2.650986572265625,-0.11248766630887985,0.16748222708702087,-0.46211573481559753
1788848422766019800,2.661019775390625,-0.1641557514667511,-0.00008552055805921555,-0.5408998131752014
1788848422776052700,2.671052734375,-0.23858816921710968,-0.1241997480392456,-0.572385847568512
1788848422786086000,2.6810859375,-0.336957186460495,-0.11303849518299103,-0.5577186346054077
1788848422796118800,2.691118896484375,-0.3965906798839569,-0.13182789087295532,-0.5164883732795715
1788848422806150700,2.701150634765625,-0.39805275201797485,-0.14845557510852814,-0.43675515055656433
1788848422816183800,2.711183837890625,-0.32390716671943665,-0.14529867470264435,-0.30864059925079346
1788848422826216700,2.721216796875,-0.23827359080314636,-0.1540391445159912,-0.11134335398674011
1788848422836249900,2.731249755859375,-0.2190956175327301,-0.1829639971256256,0.13811440765857697
1788848422846282800,2.74128271484375,-0.28348445892333984,-0.250641405582428,0.35473912954330444
1788848422856316000,2.75131591796875,-0.3587816059589386,-0.2746628522872925,0.424742192029953
1788848422866348800,2.761348876953125,-0.3828599452972412,-0.18302328884601593,0.3642882704734802
1788848422876380700,2.771380615234375,-0.37248000502586365,-0.01756029948592186,0.25186824798583984
1788848422886413800,2.781413818359375,-0.3711906969547272,0.14212526381015778,0.1654069721698761
1788848422896446700,2.79144677734375,-0.38352084159851074,0.2756154239177704,0.12991581857204437
1788848422906479900,2.80147998046875,-0.40850725769996643,0.3766861855983734,0.16564308106899261
1788848422916512800,2.8115126953125,-0.4702126979827881,0.44438108801841736,0.2656514346599579
1788848422926546000,2.8215458984375,-0.5347048044204712,0.39830175042152405,0.41370680928230286
1788848422936578800,2.831578857421875,-0.5498374104499817,0.27150464057922363,0.5300989151000977
1788848422946612000,2.841612060546875,-0.4771934747695923,0.16238544881343842,0.5743026733398438
1788848422956643800,2.851643798828125,-0.359423965215683,0.08573673665523529,0.5742030739784241
1788848422966676700,2.8616767578125,-0.26411545276641846,0.06224147230386734,0.5414840579032898
1788848422976710000,2.8717099609375,-0.2719683349132538,0.18028955161571503,0.5094896554946899
1788848422986742800,2.88174267578125,-0.33136558532714844,0.27051490545272827,0.5181585550308228
1788848422996776000,2.89177587890625,-0.38845792412757874,0.3438442349433899,0.5371631383895874
1788848423006808800,2.901808837890625,-0.41729748249053955,0.37049251794815063,0.5413792133331299
1788848423016841700,2.911841796875,-0.43166497349739075,0.35927820205688477,0.49555128812789917
1788848423026875000,2.921875,-0.44403594732284546,0.3253871202468872,0.38634008169174194
1788848423036906800,2.93190673828125,-0.45055562257766724,0.2688386142253876,0.2578185796737671
1788848423046940000,2.94193994140625,-0.424903005361557,0.19987429678440094,0.15239813923835754
1788848423056972800,2.951972900390625,-0.39392325282096863,0.08543984591960907,0.0670267790555954
1788848423067006000,2.962005859375,-0.36891672015190125,-0.009496918879449368,0.04715024307370186
1788848423077038800,2.972038818359375,-0.3077428340911865,-0.12979111075401306,0.08852537721395493
1788848423087071700,2.98207177734375,-0.2277737259864807,-0.25318488478660583,0.1590234935283661
1788848423097105000,2.99210498046875,-0.12786497175693512,-0.3726921081542969,0.24275808036327362
1788848423107136800,3.00213671875,-0.06430789083242416,-0.628084659576416,0.3196677267551422
1788848423117170000,3.012169921875,-0.04866421967744827,-1.022666096687317,0.35193297266960144
1788848423127202800,3.022202880859375,-0.053878068923950195,-1.3852670192718506,0.319247305393219
1788848423137236000,3.032236083984375,-0.06278713792562485,-1.6597981452941895,0.23333266377449036
1788848423147268900,3.042268798828125,-0.10360603779554367,-1.9998133182525635,0.11009371280670166
1788848423157301800,3.0523017578125,-0.15227477252483368,-2.4400992393493652,-0.027356557548046112
1788848423167335000,3.0623349609375,-0.10744942724704742,-2.9346506595611572,-0.15942928194999695
1788848423177367800,3.072367919921875,0.02808656170964241,-3.5074379444122314,-0.3183417022228241
1788848423187400000,3.08239990234375,0.1824832558631897,-4.081806182861328,-0.50083327293396
1788848423197433000,3.09243310546875,0.2794729173183441,-4.358635425567627,-0.6946293711662292
1788848423207466000,3.102466064453125,0.24330948293209076,-4.057506084442139,-0.7984514832496643
1788848423217499100,3.1124990234375,0.16017891466617584,-3.5447614192962646,-0.8137987852096558
1788848423227532000,3.122531982421875,0.0852356106042862,-2.9393465518951416,-0.7360116243362427
1788848423237565000,3.13256494140625,0.008237499743700027,-2.293731451034546,-0.6371617317199707
1788848423247597800,3.142597900390625,-0.05310025438666344,-1.689684510231018,-0.5752822756767273
1788848423257630700,3.152630615234375,-0.020128455013036728,-1.2926031351089478,-0.5783395767211914
1788848423267663000,3.1626630859375,0.13554877042770386,-0.9823547601699829,-0.5810306668281555
1788848423277696000,3.172696044921875,0.3953244090080261,-0.7350594997406006,-0.5674242973327637
1788848423287729200,3.182729248046875,0.6368730068206787,-0.7163410186767578,-0.5969610214233398
1788848423297761800,3.19276171875,0.803182065486908,-0.7058279514312744,-0.6158140897750854
1788848423307795000,3.202794921875,0.8756392002105713,-0.6672978401184082,-0.5860216021537781
1788848423317827800,3.212827880859375,0.8691908717155457,-0.5922204256057739,-0.5107870101928711
1788848423327860700,3.22286083984375,0.7780981063842773,-0.37271302938461304,-0.3961249887943268
1788848423337893000,3.23289306640625,0.6338059306144714,-0.1169624775648117,-0.26533636450767517
1788848423347926000,3.242926025390625,0.5040731430053711,0.02652166411280632,-0.1882086545228958
1788848423357959000,3.252958984375,0.41861552000045776,0.08081792294979095,-0.17810168862342834
1788848423367991800,3.26299169921875,0.3454083204269409,0.01565619930624962,-0.21512876451015472
1788848423378024700,3.273024658203125,0.2710403501987457,-0.22316916286945343,-0.2890687584877014
1788848423388057900,3.283057861328125,0.20876847207546234,-0.5488439798355103,-0.3718898892402649
1788848423398090800,3.2930908203125,0.1738794595003128,-0.8215692639350891,-0.43846383690834045
1788848423408124000,3.3031240234375,0.17214645445346832,-1.0163599252700806,-0.48786818981170654
1788848423418156000,3.313156005859375,0.14418460428714752,-1.1538554430007935,-0.5393120050430298
1788848423428189000,3.32318896484375,0.06521742045879364,-1.3733792304992676,-0.6051106452941895
1788848423438221800,3.333221923828125,-0.023688487708568573,-1.6040453910827637,-0.6402760744094849
1788848423448254700,3.343254638671875,-0.05871784687042236,-1.8436734676361084,-0.6284040212631226
1788848423458287900,3.353287841796875,-0.012589764781296253,-2.0291993618011475,-0.6241540908813477
1788848423468320800,3.36332080078125,0.10763075947761536,-2.165693998336792,-0.648003876209259
1788848423478354000,3.37335400390625,0.24322080612182617,-2.3494348526000977,-0.7913094162940979
1788848423488386800,3.38338671875,0.3497498333454132,-2.46067214012146,-0.9917874336242676
1788848423498419000,3.3934189453125,0.4211619794368744,-2.5436813831329346,-1.1255409717559814
1788848423508451800,3.403451904296875,0.5005053877830505,-2.9435298442840576,-1.0782651901245117
1788848423518484700,3.413484619140625,0.658420979976654,-3.388546943664551,-0.8190006017684937
1788848423528518000,3.423517822265625,0.7403994202613831,-3.4829037189483643,-0.5842965841293335
1788848423538550800,3.43355078125,0.7152876853942871,-3.174107074737549,-0.40323758125305176
1788848423548584000,3.443583984375,0.7162270545959473,-2.924455404281616,-0.24921812117099762
1788848423558616800,3.453616943359375,0.825264036655426,-3.079728364944458,-0.004567363765090704
1788848423568648700,3.463648681640625,1.095198392868042,-3.2391576766967773,0.3172805905342102
1788848423578681900,3.473681884765625,1.457868218421936,-3.188021421432495,0.6998396515846252
1788848423588714800,3.48371484375,1.7077865600585938,-3.1227152347564697,1.1081360578536987
1788848423598748000,3.493747802734375,1.75035560131073,-2.823207139968872,1.3845551013946533
1788848423608780800,3.50378076171875,1.5529149770736694,-2.3245856761932373,1.5287690162658691
1788848423618814000,3.51381396484375,1.2791577577590942,-1.8878953456878662,1.5166864395141602
1788848423628846800,3.523846923828125,1.0274797677993774,-1.4624319076538086,1.341571569442749
1788848423638880000,3.5338798828125,0.8148108720779419,-1.148424744606018,1.053608775138855
1788848423648912000,3.543911865234375,0.6408671140670776,-0.9686195850372314,0.6879895925521851
1788848423658944800,3.55394482421875,0.5332199931144714,-0.9015480875968933,0.3179799020290375
1788848423668978000,3.56397802734375,0.4684477150440216,-0.8665239810943604,0.0249211173504591
1788848423679010800,3.5740107421875,0.41479405760765076,-0.8382800817489624,-0.178832545876503
1788848423689044000,3.5840439453125,0.3596377670764923,-0.7848403453826904,-0.3139670193195343
1788848423699076900,3.594076904296875,0.3188368082046509,-0.7115410566329956,-0.4043496549129486
1788848423709110000,3.604110107421875,0.3367166817188263,-0.6092867851257324,-0.4482617974281311
1788848423719142000,3.614141845703125,0.3930286765098572,-0.4487392008304596,-0.41946664452552795
1788848423729174800,3.6241748046875,0.4555831253528595,-0.30672746896743774,-0.3182435929775238
1788848423739208000,3.6342080078125,0.5123414397239685,-0.28526800870895386,-0.16637791693210602
1788848423749240800,3.64424072265625,0.5325742363929749,-0.3767741024494171,0.005975966341793537
1788848423759274000,3.65427392578125,0.521655261516571,-0.4928474724292755,0.11538581550121307
1788848423769307000,3.664306884765625,0.5046833157539368,-0.5925880670547485,0.16258534789085388
1788848423779340000,3.674340087890625,0.4829772114753723,-0.7065020799636841,0.17028693854808807
1788848423789373000,3.684373046875,0.4699714779853821,-0.8441103100776672,0.15529397130012512
1788848423799404800,3.69440478515625,0.48770415782928467,-1.05008864402771,0.1387392282485962
1788848423809438000,3.70443798828125,0.5452801585197449,-1.3408644199371338,0.15653160214424133
1788848423819470800,3.714470947265625,0.6530713438987732,-1.708169937133789,0.2299184650182724
1788848423829504000,3.72450390625,0.8371451497077942,-2.025700330734253,0.3832167685031891
1788848423839537000,3.734536865234375,1.061105489730835,-2.204246997833252,0.5945154428482056
1788848423849570000,3.744570068359375,1.2817010879516602,-2.294018507003784,0.8469550609588623
1788848423859603000,3.75460302734375,1.4872796535491943,-2.3888633251190186,1.093617558479309
1788848423869635800,3.7646357421875,1.686492919921875,-2.444178819656372,1.2799296379089355
1788848423879668000,3.77466796875,1.8616511821746826,-2.542868137359619,1.3893671035766602
1788848423889700900,3.784700927734375,1.9989573955535889,-2.6534676551818848,1.4020633697509766
1788848423899734000,3.794734130859375,2.097475051879883,-2.71647572517395,1.3193775415420532
1788848423909767000,3.804766845703125,2.165335178375244,-2.7797083854675293,1.2215439081192017
1788848423919800000,3.814800048828125,2.2012457847595215,-2.798077344894409,1.1777371168136597
1788848423929833000,3.8248330078125,2.2083044052124023,-2.6839256286621094,1.1292973756790161
1788848423939865900,3.834865966796875,2.1543936729431152,-2.5624704360961914,1.0369629859924316
1788848423949899000,3.84489892578125,2.0782310962677,-2.458639144897461,0.9023701548576355
1788848423959931000,3.854930908203125,2.09557843208313,-2.270650625228882,0.7191479206085205
1788848423969964000,3.864964111328125,2.217122793197632,-2.233570098876953,0.5618576407432556
1788848423979997000,3.874996826171875,2.323192596435547,-2.512927770614624,0.5786592960357666
1788848423990030000,3.885030029296875,2.3678715229034424,-2.2905099391937256,0.6354270577430725
1788848424000063000,3.89506298828125,2.4074714183807373,-1.4291938543319702,0.5936782956123352
1788848424010095900,3.905095947265625,2.3816938400268555,-0.8959038257598877,0.6763540506362915
1788848424020129000,3.91512890625,2.254544973373413,-0.4274245500564575,0.8737853765487671
1788848424030161000,3.925160888671875,2.1081082820892334,0.39841926097869873,0.9629976153373718
1788848424040194000,3.935194091796875,2.1152873039245605,1.174317717552185,0.8251734375953674
1788848424050227000,3.94522705078125,2.314939022064209,1.9865033626556396,0.40183618664741516
1788848424060259800,3.955259765625,2.587252378463745,2.7528698444366455,-0.19954580068588257
1788848424070293000,3.96529296875,2.8680248260498047,3.13478946685791,-0.7349158525466919
1788848424080326000,3.975325927734375,2.979236602783203,2.995103359222412,-1.0216144323349
1788848424090359000,3.985359130859375,2.8633499145507812,2.6195552349090576,-0.8916682004928589
1788848424100392000,3.995391845703125,2.6561830043792725,1.9110454320907593,-0.41082698106765747
1788848424110424000,4.005424072265625,2.425786256790161,1.2503471374511719,0.0692739486694336
1788848424120457000,4.01545703125,2.0878713130950928,0.8849071264266968,0.3085336685180664
1788848424130489900,4.02548974609375,1.6577750444412231,0.5661936402320862,0.31103843450546265
1788848424140523000,4.03552294921875,1.284067988395691,0.33722707629203796,0.20498205721378326
1788848424150556000,4.045555908203125,1.1696405410766602,0.18205304443836212,0.08080791682004929
1788848424160589000,4.055589111328125,1.35524582862854,0.2785835862159729,-0.017018508166074753
1788848424170622000,4.0656220703125,2.171088457107544,0.3818318545818329,-0.042813532054424286
1788848424180654000,4.075654052734375,2.9554548263549805,0.46847355365753174,-0.1186867281794548
1788848424190687000,4.08568701171875,3.2309975624084473,0.5677811503410339,0.0988105982542038
1788848424200719400,4.09571923828125,2.873706102371216,0.5329675078392029,0.49323007464408875
1788848424210752300,4.105752197265625,2.154407501220703,0.24832046031951904,0.871511697769165
1788848424220785400,4.115785400390625,1.4256256818771362,-0.34394070506095886,1.138031005859375
1788848424230818300,4.125818359375,1.0211536884307861,-0.7358075976371765,1.1627353429794312
1788848424240851500,4.1358515625,0.9045249223709106,-0.2230105847120285,1.1993874311447144
1788848424250883300,4.14588330078125,1.0690323114395142,1.1948448419570923,1.2045726776123047
1788848424260916200,4.155916259765625,0.9061192274093628,0.804078996181488,0.7904714345932007
1788848424270949400,4.165949462890625,0.5375488996505737,0.28544074296951294,0.9132844805717468
1788848424280982300,4.175982177734375,0.11550795286893845,-0.21870869398117065,0.9788296818733215
1788848424291015400,4.186015380859375,0.1047133356332779,-0.508793294429779,0.8317754864692688
1788848424301048300,4.19604833984375,0.0906105637550354,-0.645910918712616,0.3543876111507416
1788848424311081500,4.20608154296875,0.09129783511161804,-0.9976859092712402,0.05419039726257324
1788848424321114400,4.2161142578125,0.381201833486557,-0.5853071808815002,0.14917150139808655
1788848424331146200,4.226146240234375,0.8003097772598267,0.15011021494865417,0.05637809634208679
1788848424341179400,4.236179443359375,0.836076021194458,-0.26768913865089417,-0.3815752863883972
1788848424351212300,4.24621240234375,0.4268217980861664,-0.3565809726715088,0.004395951516926289
1788848424361245400,4.256245361328125,0.33949434757232666,-0.6689663529396057,0.6836577653884888
1788848424371278300,4.2662783203125,0.2980938255786896,-2.4907991886138916,0.3742964267730713
1788848424381311500,4.2763115234375,0.06291458755731583,-3.310222625732422,1.0476678609848022
1788848424391344400,4.286344482421875,-0.02820741757750511,-3.1053578853607178,1.895974040031433
1788848424401376300,4.296376220703125,0.23112961649894714,-2.638087749481201,1.789048671722412
1788848424411409400,4.306409423828125,1.195578932762146,-1.362414836883545,1.171745777130127
1788848424421442300,4.3164423828125,1.1052371263504028,-0.43065738677978516,0.8056259155273438
1788848424431475500,4.326475341796875,0.8322880268096924,-0.6184720993041992,0.28110557794570923
1788848424441508400,4.33650830078125,0.6400775909423828,-1.71705961227417,0.07655961811542511
1788848424451541500,4.34654150390625,0.4184897243976593,-2.4531147480010986,0.8559344410896301
1788848424461574400,4.356574462890625,0.1798800826072693,-2.7506299018859863,1.601631760597229
1788848424471607300,4.366607177734375,0.21027004718780518,-2.192941427230835,1.5647140741348267
1788848424481639400,4.376639404296875,0.49665892124176025,-1.0647814273834229,1.4896416664123535
1788848424491672300,4.38667236328125,0.8763781189918518,-0.40177908539772034,1.5222580432891846
1788848424501705500,4.39670556640625,1.0750230550765991,-0.4184417128562927,1.5074255466461182
1788848424511738400,4.40673828125,1.0584979057312012,-0.8674229979515076,0.9110391139984131
1788848424521771300,4.416771240234375,0.8725687265396118,-1.2342216968536377,0.7194965481758118
1788848424531804400,4.426804443359375,0.7048561573028564,-1.7232897281646729,0.886374294757843
1788848424541837300,4.43683740234375,0.471024751663208,-1.8824999332427979,1.1566917896270752
1788848424551869400,4.446869384765625,0.3852502107620239,-1.990470290184021,1.4852890968322754
1788848424561902300,4.45690234375,0.3376041352748871,-2.159665107727051,2.544395923614502
1788848424571935500,4.466935546875,0.5941413640975952,-1.4358805418014526,3.5537338256835938
1788848424581968400,4.476968505859375,1.0197230577468872,-1.0062812566757202,1.5021244287490845
1788848424592001300,4.487001220703125,1.2820549011230469,0.5110792517662048,0.4940081834793091
1788848424602034400,4.497034423828125,1.4606730937957764,0.7295337915420532,1.1434921026229858
1788848424612067300,4.5070673828125,1.1557047367095947,-0.31024369597435,0.5144421458244324
1788848424622099500,4.517099365234375,0.7011678814888,-0.2996882498264313,-0.10663789510726929
1788848424632132400,4.52713232421875,0.5746933221817017,-0.7794450521469116,0.19733726978302002
1788848424642165500,4.53716552734375,0.3807039260864258,-1.0690935850143433,0.3991023600101471
1788848424652198400,4.547198486328125,0.2740730941295624,-0.9759678840637207,0.3271901309490204
1788848424662231300,4.557231201171875,0.32570114731788635,-0.633433997631073,0.19437161087989807
1788848424672264400,4.567264404296875,0.4375188946723938,-0.3612915277481079,0.023803189396858215
1788848424682297300,4.57729736328125,0.553768515586853,-0.24000504612922668,-0.07693087309598923
1788848424692329500,4.58732958984375,0.5860434770584106,-0.2803582549095154,-0.11034997552633286
1788848424702362400,4.5973623046875,0.537594199180603,-0.45807498693466187,-0.1473010629415512
1788848424712395300,4.607395263671875,0.5048869252204895,-0.6702463030815125,-0.2974843680858612
1788848424722428400,4.617428466796875,0.41542550921440125,-0.8963679075241089,-0.4963093101978302
1788848424732461300,4.62746142578125,0.06177856773138046,-1.0383912324905396,-0.620629608631134
1788848424742494500,4.637494384765625,-0.25426754355430603,-1.0918374061584473,-0.5603929162025452
1788848424752527400,4.64752734375,-0.5196215510368347,-1.2527486085891724,-0.513833224773407
1788848424762560300,4.657560302734375,-0.7245307564735413,-1.2207670211791992,-0.6686033606529236
1788848424772592400,4.66759228515625,-0.9238734245300293,-1.1262755393981934,-0.8772262334823608
1788848424782625300,4.677625244140625,-1.1023696660995483,-0.9086501598358154,-1.0285966396331787
1788848424792658400,4.687658447265625,-1.2739953994750977,-0.6697400212287903,-1.0713307857513428
1788848424802691300,4.69769140625,-1.4660741090774536,-0.5234792232513428,-0.8798947334289551
1788848424812724200,4.70772412109375,-1.5898778438568115,-0.3716132640838623,-0.6783853769302368
1788848424822757000,4.717757080078125,-1.5307058095932007,-0.136312335729599,-0.6055333018302917
1788848424832790300,4.727790283203125,-1.3169441223144531,0.2073937952518463,-0.7873058319091797
1788848424842822400,4.737822509765625,-0.9026944637298584,0.5555965304374695,-0.9106326103210449
1788848424852855300,4.747855224609375,-0.40287795662879944,0.6891652345657349,-0.9719933271408081
1788848424862888400,4.757888427734375,0.46237561106681824,0.8142059445381165,-0.7549603581428528
1788848424872921300,4.76792138671875,1.566628098487854,1.1303527355194092,-0.2500128149986267
1788848424882954200,4.777954345703125,2.5873780250549316,1.249902606010437,0.0025169076398015022
1788848424892987100,4.787987060546875,3.4764976501464844,1.1767128705978394,0.26798444986343384
1788848424903020300,4.798020263671875,3.7925944328308105,0.5762105584144592,0.5381816029548645
1788848424913053200,4.80805322265625,3.65537166595459,-0.46162596344947815,0.9006153345108032
1788848424923085300,4.818085205078125,2.9874391555786133,-0.43761488795280457,1.0712323188781738
1788848424933118500,4.828118408203125,2.0934829711914062,0.12726113200187683,0.7325818538665771
1788848424943151400,4.8381513671875,1.6890463829040527,0.8349884152412415,0.31773433089256287
1788848424953184300,4.848184326171875,1.3166632652282715,1.8788363933563232,0.0571659617125988
1788848424963217200,4.858217041015625,0.741762638092041,2.4998533725738525,0.16670337319374084
1788848424973250300,4.868250244140625,-0.09466812014579773,2.55607271194458,0.3361000418663025
1788848424983283200,4.878283203125,-0.916066586971283,2.2086257934570312,0.39036086201667786
1788848424993316400,4.88831640625,-1.094771385192871,1.7432650327682495,0.4195699691772461
1788848425003348200,4.89834814453125,-0.8400002717971802,1.4614219665527344,0.410084068775177
1788848425013381000,4.908381103515625,-0.9383786916732788,1.3827009201049805,0.3415551483631134
1788848425023414300,4.918414306640625,-1.490823745727539,1.4042136669158936,0.16808749735355377
1788848425033447200,4.928447265625,-1.9229782819747925,1.6329431533813477,0.05374956503510475
1788848425043480300,4.938480224609375,-2.0448074340820312,1.7341779470443726,-0.1270814687013626
1788848425053513200,4.94851318359375,-1.93624746799469,1.568570613861084,-0.21641962230205536
1788848425063546400,4.95854638671875,-1.6785959005355835,1.1448755264282227,-0.09322044998407364
1788848425073579300,4.968579345703125,-1.460593342781067,0.6840983033180237,0.274797260761261
1788848425083611100,4.978611083984375,-1.451025128364563,0.19876644015312195,0.7040982842445374
1788848425093644300,4.988644287109375,-1.4308862686157227,-0.5169066786766052,1.251060962677002
1788848425103677200,4.99867724609375,-1.0632611513137817,-0.8298371434211731,1.5903849601745605
1788848425113710300,5.00871044921875,-0.6963911056518555,-0.9753342866897583,1.7706588506698608
1788848425123743200,5.0187431640625,-0.44321662187576294,-0.9310656785964966,1.7985408306121826
1788848425133776400,5.0287763671875,-0.4243282973766327,-0.5759906768798828,1.6466964483261108
1788848425143809300,5.038809326171875,-0.644442081451416,-0.5480754375457764,1.5765445232391357
1788848425153842200,5.04884228515625,-1.0001122951507568,-0.642648458480835,1.6708436012268066
1788848425163874300,5.058874267578125,-1.218273401260376,-0.6141533851623535,1.612300992012024
1788848425173907200,5.0689072265625,-1.1533855199813843,-0.3308125138282776,1.1947399377822876
1788848425183940400,5.0789404296875,-0.9651982188224792,0.07418395578861237,0.8376443982124329
1788848425193973200,5.08897314453125,-0.6812959909439087,0.3352866470813751,0.6550118923187256
1788848425204006400,5.09900634765625,-0.41632744669914246,0.3518616259098053,0.5560991764068604
1788848425214039600,5.10903955078125,-0.22502921521663666,0.06386445462703705,0.47845834493637085
1788848425224072400,5.119072509765625,-0.09880949556827545,-0.36079761385917664,0.4962719678878784
1788848425234105600,5.129105712890625,-0.09851017594337463,-0.5867330431938171,0.40552234649658203
1788848425244137500,5.139137451171875,-0.18938255310058594,-0.7468100786209106,0.16403089463710785
1788848425254170400,5.14917041015625,-0.18391187489032745,-0.8416144847869873,-0.08749773353338242
1788848425264203500,5.15920361328125,-0.10665570199489594,-0.7587723731994629,-0.3709757924079895
1788848425274236400,5.169236328125,0.057562604546546936,-0.5259439945220947,-0.6230191588401794
1788848425284269600,5.17926953125,0.07910491526126862,-0.3173803985118866,-0.8024871945381165
1788848425294302500,5.189302490234375,0.0028652744367718697,-0.46045807003974915,-0.8804647922515869
1788848425304335600,5.199335693359375,-0.29657840728759766,-0.7084385752677917,-0.9799333214759827
1788848425314367500,5.209367431640625,-0.2580879330635071,-1.062551736831665,-0.8350793123245239
1788848425324400400,5.219400390625,0.2842467129230499,-0.8450322151184082,-1.0333138704299927
1788848425334433500,5.22943359375,0.7227068543434143,-0.7281757593154907,-1.1833133697509766
1788848425344466400,5.239466552734375,0.8740774989128113,-0.5835890173912048,-0.8970439434051514
1788848425354499600,5.24949951171875,0.7158909440040588,-0.2801887094974518,-0.8676762580871582
1788848425364532500,5.259532470703125,0.9035218358039856,0.1040726825594902,-1.043030023574829
1788848425374565600,5.269565673828125,1.1991724967956543,0.10791978985071182,-1.1682186126708984
1788848425384598500,5.2795986328125,1.4666422605514526,-0.11180591583251953,-1.2786012887954712
1788848425394630400,5.28963037109375,1.905228853225708,-0.33418652415275574,-1.2271153926849365
1788848425404663600,5.29966357421875,2.1698527336120605,-0.5679559111595154,-0.978775680065155
1788848425414696400,5.309696533203125,2.264031171798706,-0.8728976845741272,-0.8214370012283325
1788848425424729600,5.3197294921875,2.127662420272827,-1.2112663984298706,-0.7605909705162048
1788848425434762500,5.329762451171875,1.6206823587417603,-1.5381371974945068,-0.6043508052825928
1788848425444795600,5.339795654296875,1.1544419527053833,-1.5252257585525513,-0.34107285737991333
1788848425454828500,5.34982861328125,1.099089503288269,-1.04583740234375,-0.20824004709720612
1788848425464861700,5.35986181640625,1.1143978834152222,-0.7054696679115295,-0.06740329414606094
1788848425474893600,5.3698935546875,1.1372194290161133,-0.6461105942726135,0.09697487950325012
1788848425484926500,5.379926513671875,1.1686948537826538,-0.785122811794281,0.2421877384185791
1788848425494959600,5.389959716796875,1.1513340473175049,-0.8853229284286499,0.2972566783428192
1788848425504992500,5.399992431640625,1.059583067893982,-0.865425705909729,0.23457862436771393
1788848425515025700,5.410025634765625,0.885780394077301,-0.855518102645874,0.07792086899280548
1788848425525058600,5.42005859375,0.6792674660682678,-0.9064955711364746,-0.08372022956609726
1788848425535091500,5.430091552734375,0.6221759915351868,-1.0949424505233765,-0.1638418734073639
1788848425545124600,5.44012451171875,0.7212525010108948,-1.2182971239089966,-0.26777225732803345
1788848425555157500,5.450157470703125,0.7844110727310181,-1.1654399633407593,-0.45557910203933716
1788848425565189600,5.460189697265625,0.7644069790840149,-1.1584665775299072,-0.5445412397384644
1788848425575222500,5.470222412109375,0.6391202211380005,-1.3468408584594727,-0.4548723101615906
1788848425585255700,5.480255615234375,0.5505003333091736,-1.5380268096923828,-0.3716639578342438
1788848425595288600,5.49028857421875,0.5275008678436279,-1.3762950897216797,-0.2917729318141937
1788848425605321500,5.500321533203125,0.5182458758354187,-1.4176095724105835,-0.23301109671592712
1788848425615354600,5.510354736328125,0.596657395362854,-1.4869585037231445,-0.13359707593917847
1788848425625387500,5.520387451171875,0.5726497769355774,-1.6012568473815918,-0.12145812064409256
1788848425635420700,5.530420654296875,0.3891420364379883,-1.6725376844406128,-0.12340037524700165
1788848425645452500,5.54045263671875,0.12352074682712555,-1.9616801738739014,-0.27739498019218445
1788848425655485700,5.550485595703125,-0.45563653111457825,-2.1053011417388916,-0.3742450177669525
1788848425665518600,5.5605185546875,-0.975946843624115,-2.0651206970214844,-0.32063132524490356
1788848425675551500,5.570551513671875,-1.1671490669250488,-1.81355881690979,-0.2803196609020233
1788848425685584600,5.580584716796875,-1.0658611059188843,-1.146807074546814,-0.3334534466266632
1788848425695617500,5.590617431640625,-1.1149146556854248,-0.7888723015785217,-0.35501307249069214
1788848425705650700,5.600650634765625,-1.1090296506881714,-0.6662204265594482,-0.19065611064434052
1788848425715683600,5.61068359375,-1.0573585033416748,-0.5327985882759094,-0.09238686412572861
1788848425725716500,5.620716552734375,-1.1150771379470825,-0.23128798604011536,-0.21023547649383545
1788848425735748600,5.63074853515625,-1.3062316179275513,-0.14524416625499725,-0.33546680212020874
1788848425745781500,5.640781494140625,-1.388090968132019,-0.05778169259428978,-0.36164674162864685
1788848425755814700,5.650814697265625,-1.5553035736083984,0.13185590505599976,-0.3803160488605499
1788848425765847600,5.66084765625,-1.7894481420516968,0.26098406314849854,-0.46133020520210266
1788848425775880400,5.67088037109375,-1.9041264057159424,0.16338732838630676,-0.45947974920272827
1788848425785913300,5.680913330078125,-1.6755539178848267,0.3590327203273773,-0.4331599771976471
1788848425795946500,5.690946533203125,-1.2764127254486084,0.3836875855922699,-0.41406741738319397
1788848425805979400,5.7009794921875,-0.9395527839660645,0.40765976905822754,-0.43116652965545654
1788848425816011500,5.711011474609375,-0.7471446990966797,0.4329884648323059,-0.45159801840782166
1788848425826044700,5.721044677734375,-0.49998044967651367,0.23988957703113556,-0.4367746114730835
1788848425836077600,5.73107763671875,-0.2700543999671936,0.20060597360134125,-0.36244505643844604
1788848425846110500,5.7411103515625,-0.23045159876346588,0.027043770998716354,-0.2913453280925751
1788848425856143400,5.751143310546875,-0.40020114183425903,-0.19383524358272552,-0.16896340250968933
1788848425866176500,5.761176513671875,-0.5404176115989685,0.07866046577692032,-0.12265636771917343
1788848425876209400,5.77120947265625,-0.4149235188961029,0.45351749658584595,-0.1440741866827011
1788848425886242600,5.78124267578125,0.21173478662967682,0.7657411694526672,-0.059913765639066696
1788848425896274700,5.791274658203125,1.1000251770019531,1.0002206563949585,0.12089512497186661
1788848425906307600,5.8013076171875,1.8872114419937134,1.2889599800109863,0.21549780666828156
1788848425916340500,5.811340576171875,2.4731273651123047,1.4548859596252441,0.14952509105205536
1788848425926373400,5.821373291015625,3.0500335693359375,1.4867839813232422,0.29495152831077576
1788848425936406500,5.831406494140625,3.137885332107544,1.3298652172088623,0.47539880871772766
1788848425946439400,5.841439453125,3.04510498046875,1.5091221332550049,0.6325867772102356
1788848425956472600,5.85147265625,2.998183488845825,1.3013643026351929,0.47099170088768005
1788848425966504400,5.86150439453125,2.7824478149414062,0.943518877029419,0.15366166830062866
1788848425976537300,5.871537353515625,2.6458675861358643,0.41791272163391113,-0.12310872226953506
1788848425986570500,5.881570556640625,2.7834436893463135,-0.4512026906013489,-1.6446770429611206
1788848425996603400,5.891603271484375,3.3275957107543945,-2.6372151374816895,-3.672494411468506
1788848426006636500,5.901636474609375,4.6425347328186035,-4.106551647186279,-3.3241353034973145
1788848426016669400,5.91166943359375,5.887484073638916,-5.2503581047058105,-2.102121353149414
1788848426026702300,5.921702392578125,6.08963680267334,-4.342144012451172,-0.8306784629821777
1788848426036735500,5.931735595703125,6.326207160949707,-3.4090216159820557,-0.18193237483501434
1788848426046767400,5.941767333984375,5.796069145202637,-1.2241400480270386,0.8296890258789062
1788848426056800500,5.951800537109375,2.8248047828674316,0.1773383915424347,1.6754647493362427
1788848426066833400,5.96183349609375,-0.9676278233528137,0.8447217345237732,1.6044925451278687
1788848426076866600,5.971866455078125,-2.2882556915283203,0.8279061317443848,0.2934496998786926
1788848426086899500,5.9818994140625,-2.442530870437622,1.1755107641220093,-0.6045016646385193
1788848426096932400,5.991932373046875,-2.9184176921844482,2.1428096294403076,-0.571253776550293
1788848426106965500,6.001965576171875,-3.6060566902160645,3.5421366691589355,-0.3761948049068451
1788848426116998400,6.011998291015625,-3.3027493953704834,4.911494731903076,0.15180625021457672
1788848426127030500,6.022030517578125,-1.6028953790664673,6.006856441497803,0.775871217250824
1788848426137063400,6.0320634765625,0.3424280881881714,7.61236572265625,0.5868114233016968
1788848426147096600,6.0420966796875,1.2461291551589966,7.6450300216674805,0.30840563774108887
1788848426157129500,6.05212939453125,0.31775015592575073,5.474024295806885,0.15561184287071228
1788848426167162400,6.062162353515625,-0.6950148344039917,2.6021366119384766,0.10458806157112122
1788848426177195500,6.072195556640625,-1.1788041591644287,1.447124719619751,0.25293228030204773
1788848426187228400,6.082228515625,-1.3085004091262817,1.508160948753357,0.26659348607063293
1788848426197261600,6.092261474609375,-1.2574057579040527,1.4408011436462402,0.18554024398326874
1788848426207295000,6.102294921875,-1.0626962184906006,1.408770203590393,0.014308309182524681
1788848426217327000,6.1123271484375,-0.8622061610221863,1.4571884870529175,-0.22608432173728943
1788848426227360000,6.122360107421875,-0.8836027979850769,1.5429006814956665,-0.3976994752883911
1788848426237393000,6.132392822265625,-0.9101043343544006,1.5383691787719727,-0.45566174387931824
1788848426247426000,6.142426025390625,-0.6636117100715637,1.30718994140625,-0.3609887659549713
1788848426257459000,6.152458984375,-0.401425302028656,1.1091569662094116,-0.20753943920135498
1788848426267492000,6.1624921875,-0.1620771437883377,0.8864666819572449,-0.02108754590153694
1788848426277525000,6.17252490234375,-0.15918967127799988,0.6015475988388062,0.13318732380867004
1788848426287557000,6.18255712890625,-0.3184395134449005,0.3704736530780792,0.33279895782470703
1788848426297590000,6.192590087890625,-0.3773624002933502,-0.18945373594760895,0.652203381061554
1788848426307623000,6.202622802734375,-0.4102311432361603,-0.9596174955368042,0.7727194428443909
1788848426317656000,6.212656005859375,-0.518574595451355,-1.3662142753601074,0.8102391958236694
1788848426327689000,6.22268896484375,-0.6829606294631958,-1.4790138006210327,0.8421563506126404
1788848426337722000,6.23272216796875,-0.8900931477546692,-1.3482117652893066,1.1112697124481201
1788848426347755000,6.242755126953125,-1.3615792989730835,-0.9336963891983032,2.4826931953430176
1788848426357787100,6.252787109375,-2.2642369270324707,0.10916824638843536,3.872433662414551
1788848426367820000,6.262820068359375,-1.152169108390808,0.9400630593299866,1.808973789215088
1788848426377853000,6.27285302734375,0.21615464985370636,0.9439096450805664,0.5296947360038757
1788848426387886000,6.282885986328125,0.6915140151977539,0.35884565114974976,0.6661303043365479
1788848426397919000,6.2929189453125,0.7055628895759583,-0.4141295254230499,0.8540517091751099
1788848426407952100,6.3029521484375,0.6361383199691772,-0.9310328364372253,0.7885115742683411
1788848426417985000,6.312985107421875,0.4714583158493042,-1.0269238948822021,0.6010248064994812
1788848426428018200,6.32301806640625,0.3482207953929901,-0.8641616702079773,0.20743195712566376
1788848426438050000,6.333050048828125,0.19940967857837677,-0.6405144333839417,0.008949956856667995
1788848426448083000,6.3430830078125,-0.041776321828365326,-0.48445558547973633,-0.0030313385650515556
1788848426458116000,6.3531162109375,-0.18274426460266113,-0.36186325550079346,-0.1112152487039566
1788848426468149000,6.36314892578125,-0.1513674408197403,-0.3137899935245514,-0.2330399453639984
1788848426478182100,6.37318212890625,-0.11575567722320557,-0.5162066221237183,-0.24153810739517212
1788848426488215000,6.383215087890625,-0.1286243349313736,-0.8993892073631287,-0.2851282060146332
1788848426498248200,6.393248291015625,-0.23582319915294647,-1.0784804821014404,-0.4571268558502197
1788848426508281000,6.403281005859375,-0.40563514828681946,-0.9681392908096313,-0.6484068036079407
1788848426518313000,6.41331298828125,-0.723926842212677,-0.7304308414459229,-0.9221851229667664
1788848426528346000,6.42334619140625,-0.864093005657196,-0.6314219236373901,-1.1290868520736694
1788848426538379000,6.43337890625,-0.6211817860603333,-0.7374544143676758,-1.1067498922348022
1788848426548412200,6.443412109375,-0.35975179076194763,-0.752901017665863,-1.0719690322875977
1788848426558445000,6.453445068359375,-0.30658045411109924,-0.611673891544342,-1.075855016708374
1788848426568478200,6.463478271484375,-0.23435738682746887,-0.6201376914978027,-1.0300912857055664
1788848426578511000,6.473510986328125,-0.12512251734733582,-0.7482779026031494,-0.8876100778579712
1788848426588543000,6.48354296875,0.03181329369544983,-0.6827633380889893,-0.6655863523483276
1788848426598576000,6.493576171875,-0.08436932414770126,-0.743453323841095,-0.4586816728115082
1788848426608609000,6.503609130859375,-0.1427396833896637,-0.8350061774253845,-0.18523310124874115
1788848426618642200,6.51364208984375,-0.1330546736717224,-0.6766812205314636,0.1041000634431839
1788848426628675000,6.523675048828125,-0.20841307938098907,-0.5254632234573364,0.1740059107542038
1788848426638708200,6.533708251953125,-0.5871569514274597,-0.49775147438049316,0.1358867585659027
1788848426648741000,6.5437412109375,-1.0484927892684937,-0.5486633777618408,0.034908488392829895
1788848426658773000,6.55377294921875,-1.3985170125961304,-0.6919682621955872,-0.11475148797035217
1788848426668806100,6.56380615234375,-1.4558695554733276,-0.7158634662628174,-0.2761305272579193
1788848426678839000,6.573839111328125,-1.3566120862960815,-0.5003973841667175,-0.4191732406616211
1788848426688872200,6.5838720703125,-1.3908430337905884,-0.45342373847961426,-0.5443516373634338
1788848426698905000,6.593905029296875,-1.6475896835327148,-0.8664734363555908,-0.559399425983429
1788848426708938200,6.603938232421875,-1.9526987075805664,-1.1917269229888916,-0.46603620052337646
1788848426718971100,6.61397119140625,-2.2960433959960938,-1.5514090061187744,-0.27429577708244324
1788848426729004000,6.624004150390625,-2.079547882080078,-1.8645974397659302,-0.12045429646968842
1788848426739036200,6.6340361328125,-1.507093071937561,-1.8052024841308594,-0.10911650955677032
1788848426749069000,6.644069091796875,-1.0432660579681396,-1.3853108882904053,-0.24752631783485413
1788848426759102200,6.654102294921875,-0.6792664527893066,-1.14702570438385,-0.34045588970184326
1788848426769135000,6.664135009765625,-0.512256920337677,-1.079638957977295,-0.2996506690979004
1788848426779168300,6.674168212890625,-0.4909108877182007,-1.0283236503601074,-0.17894211411476135
1788848426789201000,6.684200927734375,-0.5236166715621948,-0.7573557496070862,-0.061904165893793106
1788848426799233800,6.69423388671875,-0.6425649523735046,-0.731282114982605,0.0580008439719677
1788848426809267000,6.704266845703125,-0.9654961228370667,-0.7031570076942444,0.2213578075170517
1788848426819299000,6.714299072265625,-1.3528459072113037,-0.5093787908554077,0.3134673237800598
1788848426829332200,6.724332275390625,-1.7399369478225708,-0.2707177698612213,0.34920695424079895
1788848426839365000,6.734365234375,-1.8749537467956543,-0.3395557403564453,0.574905276298523
1788848426849398000,6.74439794921875,-1.1553634405136108,-0.6357905864715576,0.6649265289306641
1788848426859431000,6.754430908203125,-0.09996508806943893,-0.6377439498901367,0.3883177638053894
1788848426869463800,6.7644638671875,0.023158177733421326,-0.2462286353111267,0.2010008692741394
1788848426879497000,6.7744970703125,-0.09868736565113068,-0.3307720720767975,0.28873783349990845
1788848426889529000,6.784529052734375,-0.08539579808712006,-0.5513619780540466,0.37260743975639343
1788848426899562200,6.794562255859375,-0.017585156485438347,-0.6719408631324768,0.33037492632865906
1788848426909595100,6.80459521484375,0.12609638273715973,-0.6095206141471863,0.23974542319774628
1788848426919628000,6.8146279296875,0.45331722497940063,-0.6220348477363586,0.17970827221870422
1788848426929661000,6.824660888671875,0.8563166260719299,-0.9722559452056885,0.2696525454521179
1788848426939693800,6.83469384765625,1.2748513221740723,-1.3931105136871338,0.5096254944801331
1788848426949727000,6.84472705078125,2.0599803924560547,-1.3406620025634766,0.7981377243995667
1788848426959760000,6.854759765625,3.182804822921753,-0.5066163539886475,0.9649132490158081
1788848426969792000,6.8647919921875,4.188405513763428,0.5588973164558411,1.1063958406448364
1788848426979825000,6.874824951171875,5.267782211303711,1.1189229488372803,1.158772587776184
1788848426989857800,6.88485791015625,6.104151248931885,1.180201768875122,1.4249640703201294
1788848426999891000,6.894890869140625,6.096843719482422,0.830435574054718,1.6451420783996582
1788848427009923800,6.904923828125,5.001756191253662,0.3735198974609375,1.630808711051941
1788848427019957000,6.91495703125,3.8694870471954346,0.17768454551696777,1.6434165239334106
1788848427029990000,6.924989990234375,2.797966480255127,0.6266564726829529,1.284997582435608
1788848427040023000,6.93502294921875,1.7663778066635132,0.9728924632072449,0.9223570823669434
1788848427050056000,6.945055908203125,0.905940055847168,1.2524505853652954,0.5528286099433899
1788848427060087800,6.955087890625,0.3389246463775635,1.3926268815994263,0.3119441568851471
1788848427070121000,6.965120849609375,0.09546458721160889,1.3758695125579834,0.22667454183101654
1788848427080153900,6.97515380859375,0.2453615963459015,0.4395338296890259,0.1057933047413826
1788848427090187000,6.98518701171875,0.16244648396968842,-0.8537920117378235,0.010727775283157825
1788848427100220000,6.995219970703125,-0.037210434675216675,-1.3005181550979614,-0.047967225313186646
1788848427110253000,7.005253173828125,0.09064286947250366,-1.0260876417160034,-0.10426618158817291
1788848427120286000,7.015285888671875,0.19263429939746857,-0.8876752257347107,-0.1528155356645584
1788848427130319000,7.025319091796875,0.12379291653633118,-0.9473699927330017,-0.27183884382247925
1788848427140352000,7.03535205078125,-0.033459026366472244,-0.7839918732643127,-0.4557085335254669
1788848427150383900,7.0453837890625,-0.1514384001493454,-0.24046707153320312,-0.6636684536933899
1788848427160417000,7.0554169921875,-0.3091408312320709,0.553780198097229,-0.6116266846656799
1788848427170450000,7.065449951171875,-0.6810049414634705,0.5756546258926392,-0.4657917022705078
1788848427180483000,7.075483154296875,-0.8919234871864319,-0.11490415781736374,-0.0981379821896553
1788848427190516000,7.085515869140625,-0.9077743887901306,-0.843274712562561,0.05989479273557663
1788848427200548400,7.09554833984375,-0.705102801322937,-1.6572803258895874,0.21710988879203796
1788848427210581200,7.105581298828125,-0.5724851489067078,-2.2647314071655273,0.19873647391796112
1788848427220614100,7.1156142578125,-0.8631711602210999,-2.4765536785125732,0.02344464138150215
1788848427230646300,7.125646240234375,-1.0857303142547607,-2.44600248336792,-0.3828706443309784
1788848427240679200,7.13567919921875,-0.9678084254264832,-2.1588704586029053,-0.747717022895813
1788848427250712300,7.14571240234375,-0.8900987505912781,-1.4651833772659302,-1.0355632305145264
1788848427260745200,7.1557451171875,-1.0367615222930908,-0.6151597499847412,-1.7851433753967285
1788848427270778400,7.1657783203125,-2.0605475902557373,0.47814643383026123,-1.781916618347168
1788848427280811300,7.175811279296875,-2.340470790863037,0.613129198551178,-1.3315341472625732
1788848427290844200,7.18584423828125,-3.2380053997039795,0.4365943670272827,-1.0447710752487183
1788848427300877300,7.195877197265625,-3.0603833198547363,0.13863328099250793,-0.5414461493492126
1788848427310909200,7.2059091796875,-1.6046313047409058,-0.32115986943244934,-0.05149644985795021
1788848427320942300,7.2159423828125,-1.3974076509475708,-0.6702581644058228,-0.03181755542755127
1788848427330975200,7.225975341796875,-1.3762915134429932,-0.48213455080986023,-0.142232745885849
1788848427341008400,7.23600830078125,-1.2047253847122192,-0.3175712525844574,-0.07742392271757126
1788848427351041300,7.246041259765625,-0.7743467688560486,0.0010517165064811707,-0.046053215861320496
1788848427361074200,7.25607421875,-0.7388344407081604,0.42199549078941345,-0.11574184149503708
1788848427371107300,7.266107421875,-0.7003493309020996,0.6525331139564514,-0.17151802778244019
1788848427381139200,7.27613916015625,-0.45024824142456055,0.7462034225463867,-0.2109091877937317
1788848427391172400,7.28617236328125,-0.23015716671943665,0.8098657727241516,-0.3040396571159363
1788848427401205200,7.296205322265625,-0.25220787525177,0.8738705515861511,-0.42043256759643555
1788848427411238100,7.306238037109375,-0.3137979805469513,0.9118349552154541,-0.48156118392944336
1788848427421271300,7.316271240234375,-0.5185327529907227,1.0721548795700073,-0.4476791024208069
1788848427431304200,7.32630419921875,-0.9637632369995117,1.2348114252090454,-0.40473857522010803
1788848427441337300,7.33633740234375,-1.3009662628173828,1.4489351511001587,-0.2619265615940094
1788848427451370200,7.346370361328125,-1.4512710571289062,1.596462368965149,0.041975539177656174
1788848427461402400,7.35640234375,-1.748960018157959,2.12031888961792,0.3000262677669525
1788848427471435300,7.366435302734375,-1.8980050086975098,2.5997092723846436,0.6011620759963989
1788848427481468200,7.37646826171875,-1.899971604347229,2.5125489234924316,0.8232696652412415
1788848427491501300,7.386501220703125,-2.021174669265747,2.409525156021118,1.0354421138763428
1788848427501534200,7.3965341796875,-2.013596534729004,2.095609426498413,0.9618952870368958
1788848427511567400,7.4065673828125,-2.534564971923828,1.9041273593902588,0.8645095825195312
1788848427521600300,7.416600341796875,-2.4769458770751953,1.129098892211914,0.602590799331665
1788848427531632400,7.42663232421875,-2.080052614212036,0.611678421497345,0.05845162272453308
1788848427541665300,7.436665283203125,-1.6247804164886475,0.6076961159706116,-0.7480670213699341
1788848427551698200,7.4466982421875,-1.0217417478561401,0.6184813976287842,-1.2786169052124023
1788848427561731300,7.4567314453125,-0.8167977333068848,0.48769858479499817,-1.440521478652954
1788848427571764200,7.46676416015625,-0.7649084329605103,0.3567373752593994,-1.2940380573272705
1788848427581797400,7.47679736328125,-0.663182258605957,0.18177230656147003,-0.9391084313392639
1788848427591830300,7.486830322265625,-0.4263223707675934,-0.001187116838991642,-0.6578786373138428
1788848427601862100,7.496862060546875,-0.2096715122461319,-0.39197424054145813,-0.5909909605979919
1788848427611895300,7.506895263671875,-0.03347597271203995,-1.0862501859664917,-0.7042085528373718
1788848427621928200,7.51692822265625,-0.008937332779169083,-1.7939198017120361,-0.9311152100563049
1788848427631961300,7.52696142578125,-0.008387389592826366,-2.0904130935668945,-1.0093709230422974
1788848427641994200,7.536994140625,-0.03408157825469971,-1.7771832942962646,-0.7752239108085632
1788848427652027400,7.54702734375,0.23759706318378448,-1.0695161819458008,-0.20612101256847382
1788848427662060300,7.557060302734375,0.5525829792022705,-0.4765007495880127,0.13094277679920197
1788848427672092200,7.567092041015625,0.8875095844268799,-0.5915319919586182,0.07812324166297913
1788848427682125300,7.577125244140625,0.9685012102127075,-0.7838902473449707,0.028498781844973564
1788848427692158200,7.587158203125,0.7776193618774414,-0.8628931641578674,0.08173483610153198
1788848427702191400,7.59719140625,0.5925032496452332,-0.7983633875846863,0.145156592130661
1788848427712224300,7.607224365234375,0.5082136392593384,-0.5886785984039307,0.09036765247583389
1788848427722257400,7.61725732421875,0.5848426818847656,-0.6659076809883118,0.010397008620202541
1788848427732290300,7.627290283203125,0.74500972032547,-0.738283097743988,-0.007925805635750294
1788848427742322200,7.637322265625,0.9288367629051208,-0.7863792181015015,-0.03627336770296097
1788848427752355300,7.647355224609375,1.0339834690093994,-0.7849128842353821,-0.01733483001589775
1788848427762388200,7.65738818359375,1.2053776979446411,-0.7058333158493042,-0.07957273721694946
1788848427772421400,7.66742138671875,1.493568778038025,-0.27358952164649963,-0.10390044748783112
1788848427782454300,7.677454345703125,1.995481252670288,0.4351540207862854,-0.16312791407108307
1788848427792487400,7.6874873046875,2.8253164291381836,1.198704481124878,-0.1989881694316864
1788848427802520300,7.697520263671875,3.629423141479492,2.362985849380493,-0.2956598401069641
1788848427812552200,7.70755224609375,4.05759334564209,3.087355852127075,-0.3919834494590759
1788848427822585300,7.71758544921875,4.083487510681152,3.2765891551971436,-0.3966228663921356
1788848427832618200,7.7276181640625,3.6215834617614746,2.7144246101379395,-0.40008124709129333
1788848427842651400,7.7376513671875,2.8238437175750732,2.1211371421813965,-0.5062416195869446
1788848427852684300,7.747684326171875,1.9426900148391724,1.767159342765808,-0.691879391670227
1788848427862717400,7.757717529296875,1.2141250371932983,1.530129075050354,-0.6916165351867676
1788848427872750300,7.767750244140625,0.7974929213523865,0.9936202168464661,-0.5962101221084595
1788848427882783500,7.777783447265625,0.621453046798706,0.45002371072769165,-0.3417987525463104
1788848427892815400,7.7878154296875,0.5355714559555054,0.009588537737727165,-0.17958775162696838
1788848427902848300,7.79784814453125,0.31214454770088196,-0.18671908974647522,-0.1188497468829155
1788848427912881400,7.80788134765625,0.16228260099887848,-0.1272009015083313,-0.13532114028930664
1788848427922914300,7.817914306640625,0.11565572023391724,-0.3059788942337036,-0.2007342278957367
1788848427932947500,7.827947509765625,-0.040683019906282425,-0.6326209306716919,-0.09999936074018478
1788848427942980400,7.83798046875,-0.1398371309041977,-0.8630099892616272,-0.12876345217227936
1788848427953013500,7.848013427734375,-0.4738025665283203,-0.9298388361930847,-0.2095469832420349
1788848427963045400,7.85804541015625,-1.1077156066894531,-0.7064302563667297,-0.39222410321235657
1788848427973078300,7.868078369140625,-1.7935596704483032,-0.5812827348709106,-0.40633195638656616
1788848427983111400,7.878111328125,-1.987699270248413,-0.39777880907058716,-0.2768753468990326
1788848427993144300,7.888144287109375,-1.8905549049377441,-0.22788113355636597,-0.21185612678527832
1788848428003177500,7.898177490234375,-1.7289232015609741,-0.3080299496650696,-0.03708644211292267
1788848428013210400,7.90821044921875,-1.4213331937789917,-0.02359609119594097,0.08083166927099228
1788848428023243500,7.918243408203125,-0.7050459384918213,0.17904368042945862,0.2507806718349457
1788848428033276400,7.9282763671875,0.32031503319740295,0.04549761116504669,0.48322057723999023
1788848428043308300,7.938308349609375,0.6534208655357361,0.2887842655181885,0.6570417284965515
1788848428053341400,7.948341552734375,0.7248542904853821,0.009245842695236206,0.6324224472045898
1788848428063374300,7.958374267578125,0.711542010307312,-0.5188682079315186,0.6385303735733032
1788848428073407500,7.968407470703125,0.592585027217865,-0.9899536967277527,0.6644179224967957
1788848428083440400,7.9784404296875,0.48604345321655273,-1.1260550022125244,0.5822620987892151
1788848428093473300,7.988473388671875,0.30773285031318665,-0.7469574213027954,0.3779870271682739
1788848428103506400,7.99850634765625,0.09691859781742096,-0.3292481005191803,0.3971939980983734
1788848428113538300,8.008538330078125,-0.10162672400474548,-0.0834103673696518,0.5182524919509888
1788848428123571500,8.018571533203126,-0.3865455389022827,-0.04035460203886032,0.5342668890953064
1788848428133604400,8.028604248046875,-0.6546885967254639,0.04304468631744385,0.569281816482544
1788848428143637500,8.038637451171875,-0.869998037815094,0.11235593259334564,0.43771791458129883
1788848428153670400,8.04867041015625,-1.0151456594467163,-0.00931883230805397,0.31574511528015137
1788848428163703300,8.058703369140625,-1.1556764841079712,-0.10945843905210495,0.2812424600124359
1788848428173736400,8.068736328125,-1.2522698640823364,-0.20618578791618347,0.25968867540359497
1788848428183768300,8.078768310546875,-1.1612030267715454,-0.10542476177215576,0.23254556953907013
1788848428193801500,8.088801513671875,-1.0000660419464111,0.13495029509067535,0.1107456311583519
1788848428203834400,8.09883447265625,-0.8974343538284302,0.15850506722927094,-0.1637665331363678
1788848428213867500,8.108867431640626,-0.7297641634941101,-0.322915643453598,-0.38524752855300903
1788848428223900400,8.118900390625,-0.39101502299308777,-0.260141521692276,-0.43232840299606323
1788848428233933600,8.12893359375,-0.18976926803588867,-0.055157750844955444,-0.41723039746284485
1788848428243966500,8.138966552734376,-0.18599361181259155,0.11073336750268936,-0.43544846773147583
1788848428253998300,8.148998291015625,-0.16181743144989014,0.49321600794792175,-0.31996527314186096
1788848428264031500,8.159031494140624,-0.09266383945941925,0.4570148289203644,-0.16027912497520447
1788848428274064400,8.169064453125,-0.07086692750453949,-0.05311315134167671,0.00961324293166399
1788848428284097500,8.17909765625,-0.10782549530267715,-0.4149574935436249,0.10831185430288315
1788848428294130400,8.18913037109375,-0.191695898771286,-0.4976326823234558,0.10895553976297379
1788848428304163300,8.199163330078125,-0.30671781301498413,-0.44569817185401917,0.038919463753700256
1788848428314196200,8.2091962890625,-0.39429983496665955,-0.2976599931716919,-0.0366317518055439
1788848428324228400,8.219228271484376,-0.37627992033958435,0.10744104534387589,-0.07744105905294418
1788848428334261500,8.229261474609375,-0.23922514915466309,0.43238744139671326,-0.12310441583395004
1788848428344294400,8.23929443359375,-0.16089420020580292,1.0691900253295898,-0.24631857872009277
1788848428354327600,8.24932763671875,-0.17808464169502258,1.3046963214874268,-0.506103515625
1788848428364360400,8.2593603515625,-0.1831938475370407,1.5486563444137573,-0.6339295506477356
1788848428374393300,8.269393310546874,-0.2478407472372055,1.3291082382202148,-0.6456913948059082
1788848428384426200,8.27942626953125,-0.43515291810035706,-0.00768438633531332,-1.1184604167938232
1788848428394458400,8.289458251953125,-0.2892836034297943,-0.5883610844612122,-1.333451271057129
1788848428404491500,8.299491455078124,0.060769472271203995,-0.9940829277038574,-0.9612857103347778
1788848428414524400,8.3095244140625,0.405863493680954,-0.9136639833450317,-0.5704089999198914
1788848428424557600,8.3195576171875,0.6949160695075989,-0.6284323334693909,-0.1288854330778122
1788848428434590500,8.329590576171874,0.897832989692688,-0.3039546608924866,0.2749302387237549
1788848428444623400,8.339623291015625,0.8019695281982422,0.01108821015805006,0.6279191374778748
1788848428454656300,8.34965625,0.23013213276863098,0.3425612151622772,0.8122149705886841
1788848428464688400,8.3596884765625,-0.4301244914531708,0.4257408678531647,0.5610254406929016
1788848428474721500,8.369721435546875,-1.4610706567764282,0.6379106044769287,-0.016723372042179108
1788848428484754400,8.37975439453125,-1.93744957447052,0.4095255136489868,-0.31157639622688293
1788848428494787300,8.389787353515626,-2.1509790420532227,1.5688250064849854,-0.5477306246757507
1788848428504820200,8.3998203125,-1.6103508472442627,1.6389278173446655,-0.4046328365802765
1788848428514853400,8.409853271484375,-0.8658100366592407,0.9427043795585632,-0.17536157369613647
1788848428524886300,8.41988623046875,-0.2520669102668762,0.7848820090293884,-0.0426495224237442
1788848428534918400,8.42991845703125,-0.18248091638088226,0.9440117478370667,-0.08391892910003662
1788848428544951600,8.43995166015625,-0.2743231952190399,1.1156039237976074,-0.1188817098736763
1788848428554984400,8.449984375,-0.21802425384521484,1.156278133392334,-0.09354519098997116
1788848428565017300,8.460017333984375,-0.1568300575017929,0.4433537423610687,-0.0864778682589531
1788848428575050200,8.47005029296875,-0.26293304562568665,0.04577655345201492,-0.17353101074695587
1788848428585083400,8.48008349609375,-0.2756649851799011,0.1352834701538086,-0.04755141958594322
1788848428595116300,8.4901162109375,-0.07460354268550873,0.17216478288173676,0.06767556816339493
1788848428605149400,8.5001494140625,0.15500755608081818,0.1205889955163002,-0.08657924085855484
1788848428615181600,8.510181640625,0.2692958116531372,0.23572969436645508,-0.14947032928466797
1788848428625214500,8.52021435546875,0.3153952956199646,0.29428234696388245,-0.05948939546942711
1788848428635247400,8.530247314453124,0.3336502015590668,0.375426709651947,-0.03448843955993652
1788848428645280300,8.5402802734375,0.3049300014972687,0.39447492361068726,-0.02703380584716797
1788848428655313400,8.5503134765625,0.24105437099933624,0.3734157085418701,-0.10849271714687347
1788848428665346300,8.56034619140625,0.20069745182991028,0.34784460067749023,-0.19929763674736023
1788848428675378400,8.57037841796875,0.19872911274433136,0.38551127910614014,-0.177256241440773
1788848428685411300,8.580411376953125,0.20298919081687927,0.3926260471343994,-0.16077357530593872
1788848428695444200,8.5904443359375,0.18156512081623077,0.3419828414916992,-0.21613003313541412
1788848428705477400,8.600477294921875,0.19523495435714722,0.319338321685791,-0.22574210166931152
1788848428715510300,8.61051025390625,0.1750820130109787,0.31568580865859985,-0.18817901611328125
1788848428725543400,8.62054345703125,0.13235148787498474,0.28312620520591736,-0.15023890137672424
1788848428735576300,8.630576416015625,0.106220543384552,0.2309889793395996,-0.07972931861877441
1788848428745609200,8.640609130859374,0.15553884208202362,0.20320303738117218,-0.020136307924985886
1788848428755641300,8.650641357421875,0.23605473339557648,0.24279092252254486,-0.08164467662572861
1788848428765674200,8.66067431640625,0.4426647424697876,0.2464035451412201,-0.15288680791854858
1788848428775707400,8.670707275390624,0.6654570698738098,0.24697640538215637,-0.15063457190990448
1788848428785740300,8.680740234375,1.009966254234314,0.2551306486129761,-0.14238294959068298
1788848428795773400,8.6907734375,1.393234372138977,0.18747703731060028,-0.2060767114162445
1788848428805806300,8.700806396484374,1.6193736791610718,-0.09070282429456711,-0.17322847247123718
1788848428815838500,8.71083837890625,1.808099627494812,-0.42997995018959045,-0.19378115236759186
1788848428825871400,8.720871337890625,1.972925066947937,-0.7790349125862122,-0.22184891998767853
1788848428835904300,8.730904296875,1.9643057584762573,-0.5786184668540955,-0.22884264588356018
1788848428845937400,8.7409375,1.8589437007904053,-0.44349727034568787,-0.26880648732185364
1788848428855970300,8.75097021484375,1.668658971786499,-0.478867769241333,-0.3312285840511322
1788848428866003200,8.761003173828126,1.3875776529312134,-0.48562464118003845,-0.3345320522785187
1788848428876036400,8.771036376953125,1.0455654859542847,-0.37415963411331177,-0.30799952149391174
1788848428886068200,8.781068115234374,0.7309495210647583,-0.3045227527618408,-0.2955310642719269
1788848428896101400,8.791101318359376,0.6752761602401733,-0.5664339661598206,-0.16128720343112946
1788848428906134300,8.80113427734375,0.5102996230125427,-0.47582167387008667,-0.04020162299275398
1788848428916167400,8.81116748046875,0.34430819749832153,-0.30782201886177063,0.01492634229362011
1788848428926200300,8.821200439453126,0.2522551715373993,-0.08327636122703552,0.0650397539138794
1788848428936233200,8.831233154296875,0.20531882345676422,0.08219302445650101,0.050409410148859024
1788848428946266400,8.841266357421874,0.08991305530071259,0.17082159221172333,0.05144022777676582
1788848428956298200,8.85129833984375,-0.008468376472592354,0.2541758716106415,0.009195304475724697
1788848428966331400,8.861331298828125,-0.054360948503017426,0.258962482213974,-0.05042053386569023
1788848428976364300,8.8713642578125,-0.04826417565345764,0.17059558629989624,-0.09606178849935532
1788848428986397400,8.8813974609375,-0.021867968142032623,0.07760268449783325,-0.14173980057239532
1788848428996430300,8.891430419921875,0.0473015159368515,-0.024262694641947746,-0.20502609014511108
1788848429006463200,8.901463134765624,0.13830597698688507,-0.14372336864471436,-0.2875010073184967
1788848429016496400,8.911496337890625,0.22179767489433289,-0.21556852757930756,-0.3449706733226776
1788848429026528300,8.9215283203125,0.2409576177597046,-0.25326016545295715,-0.3473394513130188
1788848429036561400,8.9315615234375,0.3114067614078522,-0.24506108462810516,-0.3592485785484314
1788848429046594300,8.94159423828125,0.35747089982032776,-0.24571050703525543,-0.371564656496048
1788848429056627200,8.951627197265625,0.3685277998447418,-0.26819929480552673,-0.38753271102905273
1788848429066660400,8.961660400390626,0.346591055393219,-0.22198732197284698,-0.3800145387649536
1788848429076693200,8.971693359375,0.2710457146167755,-0.23630714416503906,-0.31399452686309814
1788848429086726400,8.981726318359375,0.16371040046215057,-0.29471877217292786,-0.2668074071407318
1788848429096758300,8.99175830078125,0.13757599890232086,-0.36858659982681274,-0.28235894441604614
1788848429106791400,9.00179150390625,0.231051966547966,-0.5004858374595642,-0.32070624828338623
1788848429116824300,9.01182421875,0.12705844640731812,-0.1800956130027771,-0.14189894497394562
1788848429126857200,9.021857177734375,0.16007962822914124,-0.46975281834602356,-0.16019399464130402
1788848429136890400,9.031890380859375,-0.003281072247773409,-0.2062617838382721,-0.10990632325410843
1788848429146923300,9.04192333984375,-0.15096436440944672,-0.13681352138519287,-0.0850420668721199
1788848429156956400,9.051956298828125,-0.3772158920764923,0.17781499028205872,0.057145435363054276
1788848429166988300,9.06198828125,-1.0914952754974365,1.3353426456451416,0.3912241458892822
1788848429177021400,9.072021484375,-2.7481682300567627,3.614136219024658,0.5396663546562195
1788848429187054300,9.082054443359375,-0.7762581706047058,-0.03348510339856148,-0.45399197936058044
1788848429197087200,9.092087158203125,0.1492486298084259,-0.1421748399734497,-0.14853057265281677
1788848429207120600,9.10212060546875,0.1690721958875656,-0.09921523928642273,0.06818398088216782
1788848429217153800,9.11215380859375,0.12398329377174377,-0.14137253165245056,0.15246185660362244
1788848429227186700,9.122186767578125,0.1260633021593094,-0.05683428794145584,0.09045077115297318
1788848429237218800,9.13221875,0.13830505311489105,-0.16848306357860565,0.034299083054065704
1788848429247251700,9.142251708984375,0.0032554578501731157,-0.009485283866524696,-0.00021007563918828964
1788848429257284900,9.152284912109375,-0.17802777886390686,0.14224645495414734,-0.033721961081027985
1788848429267317800,9.16231787109375,-0.24933332204818726,0.19168484210968018,-0.12057074159383774
1788848429277350700,9.1723505859375,-0.3056202828884125,0.15737959742546082,-0.22769346833229065
1788848429287383800,9.1823837890625,-0.37668097019195557,0.2012973576784134,-0.3468433916568756
1788848429297416700,9.192416748046876,-0.26909005641937256,0.18279744684696198,-0.37254688143730164
1788848429307448800,9.20244873046875,-0.08306469023227692,0.2737029790878296,-0.3574727773666382
1788848429317481700,9.212481689453124,0.04418407380580902,0.35765114426612854,-0.3817509412765503
1788848429327514600,9.2225146484375,0.08558929711580276,0.42560434341430664,-0.3924137353897095
1788848429337547800,9.2325478515625,0.04454972222447395,0.720353901386261,-0.259604275226593
1788848429347580700,9.24258056640625,-0.019579822197556496,1.127663493156433,0.10254213958978653
1788848429357613800,9.25261376953125,-0.11143118143081665,1.461944818496704,0.2942740321159363
1788848429367646700,9.262646728515625,-0.2585686147212982,1.1521633863449097,0.39240363240242004
1788848429377678800,9.272678955078124,-0.40507736802101135,0.995697557926178,0.31124964356422424
1788848429387711700,9.282711669921875,-0.48857465386390686,0.8711425065994263,0.09237907081842422
1788848429397744600,9.29274462890625,-0.6950452327728271,0.5300458669662476,0.21029132604599
1788848429407777800,9.30277783203125,-1.058280348777771,0.6538474559783936,0.5105665922164917
1788848429417810700,9.312810791015625,-1.0459160804748535,0.6126646399497986,0.5017581582069397
1788848429427843800,9.32284375,-0.6949548721313477,0.7135363817214966,0.1417054384946823
1788848429437875700,9.332875732421876,-0.12848509848117828,0.7615188360214233,-0.3478347063064575
1788848429447908900,9.342908935546875,0.559867262840271,1.2914100885391235,-0.6161758899688721
1788848429457941800,9.352941650390624,1.1678950786590576,2.136746406555176,-0.6427355408668518
1788848429467974700,9.362974609375,1.7526005506515503,2.2037606239318848,-0.6950539350509644
1788848429478007800,9.3730078125,2.002467632293701,1.3381497859954834,-0.6133377552032471
1788848429488040700,9.383040771484374,2.105830192565918,0.7438516020774841,-0.3725740313529968
1788848429498072800,9.39307275390625,1.9304516315460205,0.28403177857398987,-0.23936964571475983
1788848429508105700,9.403105712890625,1.5681906938552856,0.03948555141687393,-0.13761161267757416
1788848429518139000,9.413138916015624,1.0371127128601074,0.08087693154811859,-0.07459243386983871
1788848429528171800,9.423171875,0.26958930492401123,0.1422281265258789,-0.04281008243560791
1788848429538204700,9.43320458984375,-0.23505733907222748,0.3559960424900055,-0.036934882402420044
1788848429548237800,9.44323779296875,-0.25771862268447876,0.5839561223983765,-0.03642692044377327
1788848429558270700,9.453270751953125,-0.10671792179346085,0.5842874050140381,-0.06068858131766319
1788848429568302800,9.463302734375,0.09239917993545532,0.433428555727005,-0.11119890958070755
1788848429578335700,9.473335693359376,0.28877294063568115,0.16365781426429749,-0.14361543953418732
1788848429588368600,9.48336865234375,0.4718500077724457,-0.1522376388311386,-0.13861572742462158
1788848429598401800,9.49340185546875,0.6417136192321777,-0.35826990008354187,-0.08890382200479507
1788848429608434700,9.5034345703125,0.7905282974243164,-0.33647483587265015,-0.00938377808779478
1788848429618467800,9.5134677734375,0.9327757358551025,-0.2747832238674164,0.05297227203845978
1788848429628499700,9.523499755859374,1.0992405414581299,-0.28253549337387085,0.03330192342400551
1788848429638532900,9.533532958984376,1.2214258909225464,-0.36874920129776,-0.022268394008278847
1788848429648565800,9.543565673828125,1.2780932188034058,-0.7333675026893616,-0.0294942669570446
1788848429658598700,9.5535986328125,1.5235178470611572,-0.8318341970443726,0.06769779324531555
1788848429668631800,9.5636318359375,1.8995252847671509,-0.3352930545806885,0.3636537492275238
1788848429678664700,9.573664794921875,2.259565591812134,0.341314435005188,0.46539583802223206
1788848429688696800,9.58369677734375,2.522312879562378,0.6622525453567505,0.4334346652030945
1788848429698729700,9.593729736328125,2.45922589302063,0.013952361419796944,0.3864698112010956
1788848429708763000,9.603762939453125,1.9153650999069214,-1.0179760456085205,0.22297082841396332
1788848429718795800,9.613795654296876,1.6788599491119385,-1.8149046897888184,0.06652343273162842
1788848429728828700,9.62382861328125,1.6614183187484741,-2.319608688354492,-0.03919963166117668
1788848429738861800,9.63386181640625,0.8957198262214661,-2.0257129669189453,-0.23249027132987976
1788848429748893700,9.643893798828126,-0.2706271708011627,-0.7406578660011292,-0.49384787678718567
1788848429758926800,9.6539267578125,-0.4276205003261566,-0.43153566122055054,-0.622829020023346
1788848429768959700,9.663959716796874,-0.7693447470664978,-0.36329251527786255,-0.5930558443069458
1788848429778992600,9.67399267578125,-1.5405263900756836,-0.6464685797691345,-0.5974870920181274
1788848429789025800,9.68402587890625,-1.352335810661316,-0.11241614818572998,-0.4645824134349823
1788848429799058700,9.69405859375,-0.47605276107788086,0.6887934803962708,-0.22407366335391998
1788848429809090800,9.7040908203125,-0.0007413406856358051,0.17678897082805634,0.28767266869544983
1788848429819123700,9.714123779296875,0.2635800540447235,-0.7560708522796631,0.5219371318817139
1788848429829156900,9.724156982421874,0.6812178492546082,-0.06570373475551605,-0.10708944499492645
1788848429839189800,9.734189697265625,0.5192497372627258,-0.049659259617328644,-0.14543922245502472
1788848429849222700,9.74422265625,0.3384369909763336,-0.2374701052904129,-0.07445941865444183
1788848429859255800,9.754255859375,0.29018130898475647,-0.09133393317461014,-0.061292752623558044
1788848429869287700,9.76428759765625,0.2987659275531769,0.04129598289728165,0.0011700066970661283
1788848429879320800,9.77432080078125,0.25564509630203247,0.015910997986793518,-0.03192776069045067
1788848429889353700,9.784353759765626,0.1032077744603157,-0.04931527376174927,-0.16055026650428772
1788848429899387000,9.794386962890625,0.026637103408575058,-0.029442500323057175,-0.126139834523201
1788848429909419800,9.804419677734375,0.04186258092522621,-0.015778791159391403,-0.002226778771728277
1788848429919452700,9.81445263671875,0.10875985026359558,-0.32518404722213745,0.2120564877986908
1788848429929484800,9.82448486328125,0.2428911030292511,-0.23426924645900726,0.0589996762573719
1788848429939517700,9.834517578125,0.2592908442020416,-0.08693119138479233,-0.013519532047212124
1788848429949550800,9.84455078125,0.22302250564098358,-0.058281201869249344,0.01324807945638895
1788848429959583700,9.854583740234375,0.27463456988334656,-0.09836416691541672,0.07592850923538208
1788848429969616600,9.86461669921875,0.4246085286140442,-0.32617393136024475,0.16652116179466248
1788848429979649800,9.87464990234375,0.7861438393592834,-0.6305034756660461,0.20304615795612335
1788848429989681700,9.884681640625,1.1146302223205566,-0.6130660772323608,0.07369259744882584
1788848429999714800,9.89471484375,0.997279942035675,-0.6059908866882324,-0.11948857456445694
1788848430009747700,9.904747802734375,0.4360460937023163,-0.03339872881770134,-0.2800021767616272
1788848430019780900,9.91478076171875,0.01891118660569191,0.11825151741504669,-0.13779312372207642
1788848430029813800,9.924813720703124,-0.1591874361038208,0.2341635823249817,-0.48447945713996887
1788848430039846700,9.9348466796875,-0.0352894626557827,-0.02009081281721592,-0.46641284227371216
1788848430049879800,9.9448798828125,0.32731038331985474,-0.28626540303230286,-0.01884932816028595
1788848430059911700,9.95491162109375,0.352654367685318,-0.4750558137893677,0.16503742337226868
1788848430069944800,9.96494482421875,0.46151986718177795,-0.4787517488002777,0.22197340428829193
1788848430079977700,9.974977783203125,0.7777297496795654,-0.4022220969200134,0.22935356199741364
1788848430090011000,9.985010986328126,1.1805659532546997,-0.5384743809700012,0.14934532344341278
1788848430100043800,9.995043701171875,1.4469435214996338,-0.5838404893875122,-0.1279030591249466
1788848430110075600,10.00507568359375,1.2598596811294556,-0.2791321575641632,-0.2923945486545563
1788848430120108800,10.01510888671875,0.7772951126098633,0.05288173630833626,-0.22932639718055725
1788848430130141700,10.0251416015625,0.4083864092826843,-0.06876972317695618,0.05981820821762085
1788848430140174800,10.0351748046875,0.1599094718694687,-0.0621136799454689,0.08892469853162766
1788848430150207700,10.045207763671876,0.098903127014637,0.08010726422071457,-0.055092982947826385
1788848430160240600,10.05524072265625,0.10626676678657532,0.5594738721847534,0.01459501963108778
1788848430170272800,10.065272705078126,0.0002501513808965683,0.5140316486358643,0.3631187379360199
1788848430180305700,10.0753056640625,-0.23433998227119446,-0.007959414273500443,0.36954227089881897
1788848430190338800,10.0853388671875,-0.34303584694862366,-0.07249825447797775,0.23753154277801514
1788848430200371700,10.095371826171874,-0.37399348616600037,-0.2488972544670105,0.08060529828071594
1788848430210405000,10.105405029296875,-0.279712438583374,-0.5316587686538696,0.09617715328931808
1788848430220438300,10.115438232421875,-0.12014488875865936,-0.4523857831954956,0.044190648943185806
1788848430230470100,10.12547021484375,0.18957246840000153,-0.25024333596229553,-0.031954921782016754
1788848430240503000,10.1355029296875,0.33572834730148315,-0.1428537666797638,0.009258026257157326
1788848430250536200,10.1455361328125,0.28195205330848694,-0.12353318184614182,0.05878989398479462
1788848430260569000,10.155569091796876,0.18409232795238495,-0.14742067456245422,0.09019362181425095
1788848430270602200,10.165602294921875,0.22076164186000824,-0.3858208656311035,0.18246260285377502
1788848430280635100,10.17563525390625,0.1581358164548874,-0.5013647675514221,0.20222432911396027
1788848430290667000,10.1856669921875,0.08034133166074753,-0.6097606420516968,0.19097130000591278
1788848430300700200,10.1957001953125,0.022013578563928604,-0.6609635949134827,0.10642793029546738
1788848430310733000,10.205733154296874,-0.04553014039993286,-0.5421314835548401,-0.0030967711936682463
1788848430320766200,10.21576611328125,-0.0721215307712555,-0.40132665634155273,0.002883623354136944
1788848430330799000,10.225799072265625,-0.053574033081531525,-0.11205554753541946,-0.058520182967185974
1788848430340831000,10.2358310546875,-0.02237590402364731,0.318962961435318,-0.1766635924577713
1788848430350864100,10.245864013671875,0.028428582474589348,0.45896968245506287,-0.046697378158569336
1788848430360897000,10.25589697265625,0.08930151909589767,0.14344927668571472,0.17323260009288788
1788848430370930200,10.26593017578125,0.06236782670021057,-0.22198951244354248,0.2605239450931549
1788848430380963000,10.275963134765625,-0.025440853089094162,-0.42050740122795105,0.15361055731773376
1788848430390996200,10.285996337890625,0.013541433960199356,-0.38113176822662354,0.14255550503730774
1788848430401028000,10.296028076171876,-0.03499583527445793,-0.46786314249038696,0.1283288300037384
1788848430411061000,10.30606103515625,-0.11810643970966339,-0.6075875759124756,0.03326011821627617
1788848430421094100,10.31609423828125,-0.10179990530014038,-0.5852364897727966,-0.029763324186205864
1788848430431127000,10.326126953125,-0.08391368389129639,-0.5587278008460999,-0.009671659208834171
1788848430441160200,10.33616015625,-0.12912537157535553,-0.48471060395240784,0.06422759592533112
1788848430451192000,10.346192138671874,0.07636895775794983,-0.2357584536075592,-0.32970595359802246
1788848430461225000,10.356224853515625,0.28417807817459106,-0.12848924100399017,-0.32653680443763733
1788848430471258000,10.366258056640625,0.3049255907535553,-0.20754075050354004,0.32878294587135315
1788848430481291000,10.376291015625,0.45880037546157837,0.0048277052119374275,0.2590304911136627
1788848430491324200,10.38632421875,0.49897322058677673,-0.2500063478946686,0.046825066208839417
1788848430501357000,10.396357177734375,0.42574718594551086,-0.3663625121116638,-0.17958249151706696
1788848430511389200,10.40638916015625,0.31228089332580566,-0.38550037145614624,-0.22397086024284363
1788848430521422000,10.416422119140625,0.16256330907344818,-0.4268946945667267,-0.09168020635843277
1788848430531455000,10.426455078125,0.06629421561956406,-0.4900200366973877,0.073700912296772
1788848430541488000,10.436488037109376,-0.024238618090748787,-0.5168649554252625,0.13727563619613647
1788848430551521000,10.44652099609375,-0.1587071269750595,-0.615938663482666,0.21887260675430298
1788848430561554200,10.45655419921875,-0.3601377010345459,-0.7304407358169556,0.28227582573890686
1788848430571586000,10.4665859375,-0.5566756725311279,-0.5809125304222107,0.1664966195821762
1788848430581619000,10.476618896484375,-0.6407215595245361,-0.31750544905662537,0.06151454895734787
1788848430591652000,10.486652099609374,-0.8753644227981567,0.06693752110004425,0.10996682196855545
1788848430601685000,10.49668505859375,-1.149711012840271,0.2992847263813019,0.16641810536384583
1788848430611718100,10.50671826171875,-1.2138341665267944,-0.22695335745811462,0.07550399005413055
1788848430621750000,10.51675,-1.6774370670318604,-0.48090359568595886,0.2607119381427765
1788848430631783200,10.526783203125,-2.3014156818389893,-0.3332478106021881,0.496238648891449
1788848430641816000,10.536816162109375,-2.6292848587036133,-0.33385100960731506,0.6111894845962524
1788848430651849000,10.546848876953124,-2.577756643295288,-0.1830299198627472,0.5686185956001282
1788848430661882000,10.556882080078125,-2.0879011154174805,0.10495500266551971,0.4669569432735443
1788848430671915000,10.5669150390625,-1.5486208200454712,0.39627811312675476,0.4538933038711548
1788848430681947100,10.576947021484376,-0.9288784861564636,0.35730117559432983,0.4411407709121704
1788848430691980000,10.58697998046875,-0.41387203335762024,0.17051587998867035,0.334199458360672
1788848430702013200,10.59701318359375,-0.3237341642379761,0.19026881456375122,0.3183978497982025
1788848430712046000,10.607046142578126,-0.21426261961460114,0.2728572487831116,0.3203762173652649
1788848430722079000,10.617078857421875,-0.11393734812736511,0.2979588508605957,0.2898832857608795
1788848430732112100,10.627112060546875,-0.03989535942673683,0.14391233026981354,0.2070515900850296
1788848430742144000,10.63714404296875,-0.15759588778018951,-0.047997184097766876,0.12927290797233582
1788848430752177200,10.64717724609375,-0.2646290361881256,-0.0671917274594307,0.026381170377135277
1788848430762210000,10.6572099609375,-0.276070237159729,-0.047401245683431625,-0.0038278629072010517
1788848430772243000,10.667242919921875,-0.23846925795078278,0.02880221977829933,0.06078005209565163
1788848430782276000,10.677276123046875,-0.09453605115413666,0.09104082733392715,0.13034553825855255
1788848430792308000,10.687307861328126,0.07533881813287735,0.23236790299415588,0.13284100592136383
1788848430802341000,10.697341064453125,0.26088231801986694,0.5249243974685669,0.06698743253946304
1788848430812374000,10.7073740234375,0.4708896279335022,0.7373684644699097,0.026442935690283775
1788848430822407200,10.7174072265625,0.6440062522888184,0.7570798397064209,0.07555508613586426
1788848430832440000,10.727440185546875,0.5542149543762207,0.3021278977394104,0.07297185063362122
1788848430842473000,10.737472900390625,0.6660328507423401,-0.17311213910579681,0.049211662262678146
1788848430852505000,10.747505126953126,0.6875734329223633,-0.5635250806808472,0.06139235943555832
1788848430862538000,10.7575380859375,0.49041059613227844,-0.7604565620422363,0.04134408012032509
1788848430872571100,10.767571044921874,0.346189945936203,-0.6826967597007751,0.04510897397994995
1788848430882604000,10.77760400390625,0.21854835748672485,-0.665367841720581,0.04308018088340759
1788848430892637200,10.78763720703125,0.021256674081087112,-0.46306872367858887,-0.007020984310656786
1788848430902669300,10.79766943359375,-0.09741191565990448,-0.2461358606815338,0.023148104548454285
1788848430912702200,10.8077021484375,-0.06966452300548553,-0.199024498462677,0.0516863651573658
1788848430922735000,10.817735107421875,-0.03230356425046921,-0.14836052060127258,0.0813680961728096
1788848430932768000,10.82776806640625,0.030759284272789955,-0.07443156093358994,0.08411039412021637
1788848430942801200,10.83780126953125,-0.015368795022368431,0.05910945683717728,0.04841231182217598
1788848430952834000,10.847833984375,0.02403532899916172,0.24757440388202667,0.07382421940565109
1788848430962866200,10.8578662109375,0.11181338876485825,0.3196702003479004,0.10171391069889069
1788848430972899000,10.867899169921875,0.22322602570056915,0.2537675201892853,0.11961658298969269
1788848430982932000,10.877931884765625,0.36155059933662415,0.15932437777519226,0.13710741698741913
1788848430992965000,10.887965087890626,0.28928342461586,0.048335615545511246,0.14062054455280304
1788848431002998000,10.897998046875,0.18710272014141083,-0.013597792014479637,0.10752756148576736
1788848431013030100,10.908030029296874,0.00012751063331961632,-0.013392768800258636,0.0742286741733551
1788848431023063300,10.918063232421876,0.05606294795870781,0.0644756630063057,0.07925032824277878
1788848431033096200,10.92809619140625,0.17411716282367706,0.03234199434518814,0.053885020315647125
1788848431043129000,10.938129150390624,0.2722538411617279,-0.06754199415445328,0.034641019999980927
1788848431053162000,10.948161865234376,0.3332009017467499,-0.09701330214738846,0.02519247680902481
1788848431063194000,10.958194091796875,0.27360522747039795,-0.052454620599746704,-0.005780086386948824
1788848431073227300,10.968227294921874,0.13893680274486542,-0.1532301902770996,-0.028637532144784927
1788848431083260200,10.97826025390625,0.034735821187496185,-0.28460952639579773,-0.07105476409196854
1788848431093293300,10.988293212890625,0.01397115457803011,-0.35126590728759766,-0.12967732548713684
1788848431103326200,10.998326171875,0.08639529347419739,-0.34864455461502075,-0.10399672389030457
1788848431113359000,11.008359130859375,0.15071941912174225,-0.30434855818748474,-0.03798200935125351
1788848431123391200,11.01839111328125,0.16316837072372437,-0.12690424919128418,0.06105455756187439
1788848431133424000,11.028424072265626,0.19149541854858398,-0.0352633036673069,0.11645644903182983
1788848431143457300,11.038457275390625,0.09558593481779099,-0.8403627276420593,-0.048406004905700684
1788848431153490200,11.048490234375,0.6802341341972351,-4.627445220947266,-0.995962381362915
1788848431163523000,11.058523193359376,0.8485293984413147,-3.2002365589141846,-1.1385560035705566
1788848431173555200,11.06855517578125,0.4326494634151459,-0.6186266541481018,-0.36707037687301636
1788848431183588000,11.078588134765624,0.13972678780555725,0.15926356613636017,0.3222699761390686
1788848431193621200,11.088621337890626,0.22920365631580353,0.04284454509615898,0.39826497435569763
1788848431203654000,11.09865380859375,0.4620824456214905,-0.10892234742641449,0.23239237070083618
1788848431213687000,11.10868701171875,0.8511990308761597,-0.43944787979125977,0.1785607486963272
1788848431223719000,11.118718994140625,0.7881763577461243,-0.46811148524284363,0.29681310057640076
1788848431233751800,11.128751708984375,0.6846598982810974,-0.39520660042762756,0.2244436889886856
1788848431243785000,11.138784912109376,0.7755711674690247,-0.12789075076580048,0.13236570358276367
1788848431253817900,11.14881787109375,0.9994189143180847,-0.007298018783330917,0.02482752501964569
1788848431263851000,11.15885107421875,1.1345088481903076,0.11981678009033203,-0.058259639889001846
1788848431273884000,11.1688837890625,1.1291394233703613,0.19705955684185028,-0.20412202179431915
1788848431283916000,11.178916015625,0.9752843379974365,0.26508814096450806,-0.32300445437431335
1788848431293949000,11.188948974609374,0.7256402969360352,0.4335257112979889,-0.30582907795906067
1788848431303981800,11.19898193359375,0.5750241279602051,0.31216999888420105,-0.4051114618778229
1788848431314015000,11.209014892578125,0.4143611788749695,0.11423660814762115,-0.5121170282363892
1788848431324048000,11.2190478515625,0.33561041951179504,-0.04462228715419769,-0.5610851049423218
1788848431334080000,11.229080078125,0.35926276445388794,-0.17392238974571228,-0.5692474842071533
1788848431344113000,11.23911279296875,0.5213579535484314,-0.1904236078262329,-0.5291022062301636
1788848431354146000,11.24914599609375,0.5446808338165283,-0.10118173807859421,-0.3857562243938446
1788848431364179000,11.259178955078125,0.49286583065986633,-0.01497628353536129,-0.19577032327651978
1788848431374211800,11.2692119140625,0.28708720207214355,-0.007310371845960617,-0.11076263338327408
1788848431384244000,11.279243896484376,-0.0012955977581441402,-0.002563820220530033,-0.024515096098184586
1788848431394276900,11.28927685546875,0.005426300223916769,-0.08357369899749756,-0.10470825433731079
1788848431404310000,11.29931005859375,0.2519977390766144,-0.2789858281612396,-0.2750062048435211
1788848431414343000,11.309343017578126,0.07571688294410706,-0.28923943638801575,-0.2064216583967209
1788848431424375800,11.319375732421875,-0.02382488362491131,-0.2254844307899475,-0.14364589750766754
1788848431434408000,11.329407958984374,0.0988740548491478,-0.4092918634414673,-0.23480501770973206
1788848431444440800,11.33944091796875,0.14522451162338257,-0.40088027715682983,-0.22689887881278992
1788848431454474000,11.349473876953125,0.10574864596128464,-0.24522627890110016,-0.19581878185272217
1788848431464507000,11.3595068359375,0.07325541228055954,-0.06290947645902634,-0.1424218714237213
1788848431474540000,11.3695400390625,0.03314688429236412,-0.01550268568098545,-0.15609697997570038
1788848431484572000,11.379572021484375,-0.02781473658978939,0.005508589558303356,-0.1839454025030136
1788848431494604800,11.389604736328126,-0.16947989165782928,0.03933805599808693,-0.24133937060832977
1788848431504638000,11.399637939453125,-0.4441942870616913,0.17053735256195068,-0.22179736196994781
1788848431514670800,11.4096708984375,-0.8375903964042664,0.37090542912483215,-0.12118210643529892
1788848431524704000,11.4197041015625,-1.2181155681610107,0.7982581257820129,0.19607041776180267
1788848431534736000,11.42973583984375,-1.2550058364868164,1.2865453958511353,0.27311718463897705
1788848431544768800,11.439768798828124,-0.6060121059417725,0.9662404656410217,-0.1776694357395172
1788848431554802000,11.449802001953126,-0.32644209265708923,0.6300329566001892,-0.5291143655776978
1788848431564834800,11.459834716796875,-0.2867492735385895,0.4203828275203705,-0.46609222888946533
1788848431574868000,11.469867919921874,-0.2857063114643097,0.27750253677368164,-0.40386340022087097
1788848431584899800,11.47989990234375,-0.26846179366111755,0.27148300409317017,-0.4137682318687439
1788848431594932700,11.4899326171875,-0.27111706137657166,0.3960862457752228,-0.44537416100502014
1788848431604966000,11.4999658203125,-0.2625499367713928,0.47575923800468445,-0.47804874181747437
1788848431614998800,11.509998779296875,-0.2081470489501953,0.49878671765327454,-0.4778941869735718
1788848431625032000,11.520031982421875,-0.15705323219299316,0.47221052646636963,-0.47403448820114136
1788848431635063800,11.530063720703126,-0.12347318232059479,0.4352489113807678,-0.4539708197116852
1788848431645096700,11.5400966796875,-0.11330495774745941,0.3988903760910034,-0.43466851115226746
1788848431655129900,11.5501298828125,-0.1394987553358078,0.4440940320491791,-0.4764076769351959
1788848431665162800,11.560162841796876,-0.20019592344760895,0.5500420331954956,-0.5389528274536133
1788848431675196000,11.57019580078125,-0.23777320981025696,0.4738868772983551,-0.6010261178016663
1788848431685227800,11.580227783203124,-0.23770956695079803,0.371455579996109,-0.6087431907653809
1788848431695261000,11.590260986328126,-0.2267589122056961,0.31418174505233765,-0.5513861775398254
1788848431705293800,11.6002939453125,-0.2130926251411438,0.2709439992904663,-0.5147820711135864
1788848431715326700,11.61032666015625,-0.1887815147638321,0.24386928975582123,-0.5093088150024414
1788848431725359900,11.62035986328125,-0.18951734900474548,0.23154684901237488,-0.5354666709899902
1788848431735391700,11.630391845703125,-0.21080844104290009,0.20093734562397003,-0.5713675618171692
1788848431745425000,11.6404248046875,-0.2501619756221771,0.16925771534442902,-0.5881412029266357
1788848431755457800,11.650457763671875,-0.31936031579971313,0.19370630383491516,-0.5836503505706787
1788848431765491000,11.660490966796875,-0.39750945568084717,0.21742814779281616,-0.5991542339324951
1788848431775523800,11.67052392578125,-0.4753358066082001,0.25295621156692505,-0.6437506675720215
1788848431785555700,11.6805556640625,-0.5246859788894653,0.3600720167160034,-0.6865919232368469
1788848431795588900,11.6905888671875,-0.5008241534233093,0.2935798764228821,-0.7918867468833923
1788848431805621800,11.700621826171876,-0.515789270401001,0.3170210123062134,-0.8312346935272217
1788848431815655000,11.710655029296875,-0.5391703248023987,0.3602759540081024,-0.8186843395233154
1788848431825687800,11.720687744140625,-0.5624791383743286,0.3447936773300171,-0.8002563714981079
1788848431835720000,11.730719970703126,-0.5719848871231079,0.19665417075157166,-0.7984403371810913
1788848431845752800,11.7407529296875,-0.6040496826171875,0.17408467829227448,-0.7478320002555847
1788848431855785700,11.75078564453125,-0.6323136687278748,0.1639791578054428,-0.7111697793006897
1788848431865819000,11.76081884765625,-0.6500951051712036,0.06030230224132538,-0.7400125861167908
1788848431875851800,11.770851806640625,-0.6634501814842224,-0.014467834495007992,-0.7833423018455505
1788848431885884000,11.7808837890625,-0.647330641746521,-0.10675249248743057,-0.8633772134780884
1788848431895917000,11.7909169921875,-0.6444686651229858,-0.11502707004547119,-0.898235023021698
1788848431905950000,11.800949951171875,-0.6239093542098999,-0.15518060326576233,-0.9259862303733826
1788848431915982800,11.81098291015625,-0.6091060042381287,-0.213751420378685,-0.9754388928413391
1788848431926015700,11.821015625,-0.5882116556167603,-0.24121180176734924,-1.0032864809036255
1788848431936047900,11.8310478515625,-0.5687339305877686,-0.22562359273433685,-0.9781286716461182
1788848431946081000,11.8410810546875,-0.543672502040863,-0.2334146648645401,-0.9656097292900085
1788848431956114000,11.851114013671875,-0.47730058431625366,-0.2898556590080261,-1.0138418674468994
1788848431966147000,11.86114697265625,-0.43819740414619446,-0.2551911771297455,-1.0428510904312134
1788848431976179700,11.8711796875,-0.44099754095077515,-0.16911503672599792,-1.0214722156524658
1788848431986211800,11.8812119140625,-0.4541202485561371,-0.0535476952791214,-0.9494621753692627
1788848431996245000,11.891244873046874,-0.42343759536743164,0.02039918303489685,-0.9353379011154175
1788848432006278000,11.90127783203125,-0.42026764154434204,0.13409459590911865,-0.9283601641654968
1788848432016311000,11.91131103515625,-0.4751003682613373,0.3061877489089966,-0.868380606174469
1788848432026344000,11.921343994140624,-0.48619750142097473,0.29414892196655273,-0.8825635313987732
1788848432036376000,11.9313759765625,-0.5094525218009949,0.37063685059547424,-0.9494745135307312
1788848432046409000,11.941408935546875,-0.6391884684562683,0.6592808961868286,-1.0214667320251465
1788848432056441900,11.95144189453125,-0.7408192753791809,0.6813308000564575,-1.1203621625900269
1788848432066475000,11.96147509765625,-0.8725445866584778,0.5943107008934021,-1.0268206596374512
1788848432076508000,11.9715078125,-1.002625823020935,0.4996313750743866,-0.7960758805274963
1788848432086540000,11.9815400390625,-0.9827415943145752,0.29249605536460876,-0.6270242929458618
1788848432096573000,11.991572998046875,-0.828079342842102,-0.059359125792980194,-0.5322617888450623
1788848432106606000,12.001606201171874,-0.7158955931663513,-0.2237001359462738,-0.5250941514968872
1788848432116639000,12.011638916015626,-0.6761084794998169,-0.26428791880607605,-0.4627791941165924
1788848432126672000,12.021671875,-0.6582857966423035,-0.22717861831188202,-0.3409305214881897
1788848432136705000,12.031705078125,-0.5937373638153076,-0.13389445841312408,-0.2155243158340454
1788848432146737000,12.04173681640625,-0.49635279178619385,-0.008154105395078659,-0.0700126439332962
1788848432156770000,12.05177001953125,-0.42213693261146545,0.07036670297384262,0.10104580968618393
1788848432166803000,12.061802978515624,-0.3507080376148224,0.07673484832048416,0.2629220485687256
1788848432176835800,12.0718359375,-0.27743032574653625,0.032643597573041916,0.38947632908821106
1788848432186868000,12.081867919921875,-0.19614002108573914,0.01817757450044155,0.47724559903144836
1788848432196900900,12.09190087890625,-0.12597860395908356,0.026779815554618835,0.5722090005874634
1788848432206934000,12.10193408203125,-0.059800371527671814,0.072231724858284,0.6323949098587036
1788848432216967200,12.11196728515625,0.027386104688048363,0.071879081428051,0.6149718761444092
1788848432227000000,12.122,0.1251467615365982,0.05134104937314987,0.5997902750968933
1788848432237032000,12.132031982421875,0.22420088946819305,0.02901713363826275,0.5821265578269958
1788848432247065000,12.142065185546874,0.3125379681587219,-0.00016605108976364136,0.6121821999549866
1788848432257098000,12.152097900390626,0.3857766389846802,-0.025594912469387054,0.6560621857643127
1788848432267131100,12.162131103515625,0.45515012741088867,-0.030343595892190933,0.6732675433158875
1788848432277164000,12.1721640625,0.515385627746582,-0.0684942975640297,0.6881704926490784
1788848432287196000,12.18219580078125,0.5807635188102722,-0.11576008051633835,0.7036623358726501
1788848432297229000,12.19222900390625,0.6477330923080444,-0.17140167951583862,0.6853927969932556
1788848432307262000,12.202261962890624,0.7283437252044678,-0.2134828269481659,0.6781806945800781
1788848432317295000,12.212295166015625,0.8260983228683472,-0.21811270713806152,0.689408004283905
1788848432327328000,12.222327880859375,0.9156782627105713,-0.21909861266613007,0.7017821669578552
1788848432337360000,12.23235986328125,0.9964783787727356,-0.22631435096263885,0.7218880653381348
1788848432347393000,12.24239306640625,1.0736479759216309,-0.24488244950771332,0.7891366481781006
1788848432357426000,12.252426025390625,1.140536904335022,-0.1885111927986145,0.8711336851119995
1788848432367459000,12.262458984375,1.2176347970962524,-0.1943131536245346,0.9216363430023193
1788848432377492000,12.272491943359375,1.3114901781082153,-0.16870351135730743,0.9564517140388489
1788848432387524000,12.282524169921874,1.4249054193496704,-0.17829649150371552,0.9310960173606873
1788848432397557000,12.292556884765625,1.5148966312408447,-0.2304150015115738,0.886243999004364
1788848432407590000,12.30258984375,1.5667212009429932,-0.2656062841415405,0.8580126762390137
1788848432417623000,12.312623046875,1.5895967483520508,-0.23469336330890656,0.7729163765907288
1788848432427656000,12.322656005859375,1.6094075441360474,-0.20405928790569305,0.6402155756950378
1788848432437688000,12.33268798828125,1.6395230293273926,-0.2210157960653305,0.5476834774017334
1788848432447721000,12.342720947265626,1.6771646738052368,-0.2731596827507019,0.4889298975467682
1788848432457754000,12.352754150390625,1.7158312797546387,-0.2631658911705017,0.43227219581604004
1788848432467787000,12.362787109375,1.7452831268310547,-0.2682437598705292,0.3962564170360565
1788848432477819000,12.37281884765625,1.7250221967697144,-0.2628357410430908,0.41077274084091187
1788848432487852000,12.38285205078125,1.7001605033874512,-0.2190363109111786,0.39837411046028137
1788848432497885000,12.392885009765624,1.6894211769104004,-0.24056226015090942,0.41533172130584717
1788848432507918000,12.40291796875,1.658968210220337,-0.1875179558992386,0.5520658493041992
1788848432517951000,12.412950927734375,1.604799747467041,-0.14663159847259521,0.6817543506622314
1788848432527982800,12.42298291015625,1.5318573713302612,-0.07637528330087662,0.7421399354934692
1788848432538016000,12.43301611328125,1.4212979078292847,0.011958898045122623,0.7370539903640747
1788848432548049000,12.443048828125,1.306141972541809,0.0508466437458992,0.74038165807724
1788848432558082000,12.45308203125,1.1983426809310913,0.04713703319430351,0.7910164594650269
1788848432568115000,12.463114990234375,1.084045171737671,0.05505647510290146,0.8668009638786316
1788848432578146800,12.473146728515625,0.9949964880943298,0.01408326718956232,0.8940798044204712
1788848432588180000,12.483179931640626,0.9378421306610107,-0.019963648170232773,0.8769018650054932
1788848432598212900,12.493212890625,0.9023169875144958,-0.07286973297595978,0.8303028345108032
