time,seconds_elapsed,z,y,x
1789323903004585500,0.17258544921875,0,0,0
1789323903023436300,0.191436279296875,0.0028886795043945312,-0.016567707061767578,0.136013925075531
1789323903042287000,0.210287109375,-0.11240482330322266,0.05973529815673828,0.2255832850933075
1789323903061138000,0.229137939453125,-0.1594991683959961,0.053845882415771484,0.33415883779525757
1789323903079988700,0.24798876953125,0.0634298324584961,0.12995672225952148,0.29138147830963135
1789323903098839600,0.266839599609375,0.049030303955078125,0.24835586547851562,0.07357215136289597
1789323903117690400,0.2856904296875,-0.22642803192138672,0.1573624610900879,0.3545057773590088
1789323903136541000,0.304541015625,-0.26519250869750977,0.07585573196411133,0.4762697219848633
1789323903193093400,0.36109326171875,0.8475551605224609,0.2090773582458496,0.3777138590812683
1789323903211944200,0.379944091796875,0.5299844741821289,0.07698297500610352,0.4683080315589905
1789323903240220400,0.408220458984375,0.7344121932983398,-0.08086824417114258,0.35329893231391907
1789323903259071200,0.4270712890625,0.8394842147827148,-0.17374467849731445,0.16997800767421722
1789323903277922000,0.445922119140625,0.8837547302246094,-0.2048358917236328,0.27939876914024353
1789323903296772900,0.46477294921875,0.7588176727294922,-0.27715635299682617,0.497877299785614
1789323903315623700,0.483623779296875,0.7987155914306641,-0.16091442108154297,0.5131277441978455
1789323903334474500,0.502474609375,0.5439157485961914,-0.1570444107055664,0.3371914029121399
1789323903353325300,0.5213251953125,0.002655029296875,-0.3549213409423828,0.3167319893836975
1789323903372176100,0.540176025390625,-0.546597957611084,-0.3284626007080078,0.3082145154476166
1789323903391027000,0.55902685546875,-0.6960153579711914,-0.01630544662475586,0.11002129316329956
1789323903409877800,0.577877685546875,-0.6810131072998047,0.2961411476135254,-0.27137571573257446
1789323903428728300,0.596728271484375,-0.6637482643127441,0.20512676239013672,-0.436079740524292
1789323903447579400,0.615579345703125,-0.7589435577392578,0.09382963180541992,-0.43328821659088135
1789323903466430000,0.634429931640625,-0.880821704864502,0.10168743133544922,-0.16139602661132812
1789323903485280800,0.65328076171875,-0.8629851341247559,0.11701488494873047,-0.1409907341003418
1789323903504131600,0.672131591796875,-0.7080593109130859,0.17382144927978516,-0.28580451011657715
1789323903522982400,0.690982421875,-0.458770751953125,0.1534423828125,-0.44042861461639404
1789323903541833200,0.709833251953125,-0.3451709747314453,0.1766815185546875,-0.5311613082885742
1789323903560684000,0.72868408203125,-0.41599416732788086,0.3442678451538086,-0.46894967555999756
1789323903579534800,0.747534912109375,-0.21697616577148438,0.47278261184692383,-0.47522878646850586
1789323903598385700,0.7663857421875,-0.04620170593261719,0.4885997772216797,-0.5674761533737183
1789323903617236500,0.785236572265625,-0.01463937759399414,0.44919633865356445,-0.5705599784851074
1789323903636087300,0.80408740234375,-0.13707828521728516,0.4476017951965332,-0.5546475648880005
1789323903654938000,0.822938232421875,0.00839853286743164,0.46790170669555664,-0.5185565948486328
1789323903673789000,0.841788818359375,0.2063593864440918,0.49123287200927734,-0.5094417333602905
1789323903692639700,0.8606396484375,0.17768287658691406,0.3848609924316406,-0.41488516330718994
1789323903711490600,0.879490478515625,-0.022025585174560547,0.30559778213500977,-0.45752179622650146
1789323903730341400,0.89834130859375,-0.13388538360595703,0.29846858978271484,-0.5649569034576416
1789323903749192200,0.917192138671875,-0.17629480361938477,0.2721433639526367,-0.5772436857223511
1789323903768043000,0.93604296875,-0.044489383697509766,0.17515230178833008,-0.507489800453186
1789323903786893800,0.954893798828125,0.21865034103393555,0.13308382034301758,-0.5303385257720947
1789323903805744600,0.97374462890625,0.4270038604736328,0.07241392135620117,-0.48771584033966064
1789323903824595500,0.992595458984375,0.17473268508911133,0.11937808990478516,-0.496044397354126
1789323903843446500,1.011446533203125,-0.027137279510498047,0.24981212615966797,-0.6189501285552979
1789323903862297000,1.030297119140625,0.1167440414428711,0.21223974227905273,-0.6989736557006836
1789323903881148000,1.04914794921875,0.2857651710510254,0.17580556869506836,-0.6599611043930054
1789323903899999000,1.0679990234375,0.19763803482055664,0.26626014709472656,-0.4872710704803467
1789323903918849800,1.086849853515625,0.08246803283691406,0.48560380935668945,-0.47949957847595215
1789323903937700600,1.10570068359375,0.0937509536743164,0.6460394859313965,-0.6454488039016724
1789323903956551400,1.124551513671875,0.08873891830444336,0.7564544677734375,-0.7437573671340942
1789323903975402200,1.14340234375,0.012436389923095703,0.7922592163085938,-0.5576480627059937
1789323903994253000,1.162253173828125,-0.05081510543823242,0.8708744049072266,-0.11529052257537842
1789323904013103900,1.181103759765625,0.030809402465820312,0.8567790985107422,0.20335447788238525
1789323904031954700,1.19995458984375,0.23127460479736328,0.7387356758117676,0.13575124740600586
1789323904050805500,1.218805419921875,0.36489009857177734,0.5847382545471191,-0.01419222354888916
1789323904069656300,1.23765625,0.4435539245605469,0.5089783668518066,0.0015995502471923828
1789323904088507100,1.256507080078125,0.3578987121582031,0.43445777893066406,0.1174706220626831
1789323904107358000,1.27535791015625,0.22315502166748047,0.3878359794616699,0.0822286605834961
1789323904126208800,1.294208740234375,0.026536941528320312,0.20277023315429688,0.08244264125823975
1789323904145059600,1.3130595703125,-0.15271663665771484,0.08822202682495117,0.03280484676361084
1789323904163910700,1.33191064453125,0.06724357604980469,0.003977775573730469,0.11772871017456055
1789323904182761500,1.350761474609375,0.28467845916748047,-0.1380019187927246,0.28203511238098145
1789323904201612300,1.3696123046875,0.20077133178710938,-0.20171451568603516,0.32874590158462524
1789323904220463000,1.388463134765625,-0.09089279174804688,-0.29753541946411133,0.3053632974624634
1789323904239314000,1.40731396484375,-0.1552891731262207,-0.3572354316711426,0.37786900997161865
1789323904258164700,1.426164794921875,0.13731050491333008,-0.42597484588623047,0.5078662633895874
1789323904277015600,1.445015625,0.37258434295654297,-0.40499162673950195,0.4507251977920532
1789323904295866400,1.463866455078125,0.39595556259155273,-0.45743751525878906,0.4835706353187561
1789323904314717400,1.482717529296875,0.3333292007446289,-0.37270307540893555,0.6219797134399414
1789323904333568300,1.501568359375,0.5529341697692871,-0.33202362060546875,0.5615142583847046
1789323904352419000,1.520419189453125,0.6764583587646484,-0.4015364646911621,0.41401997208595276
1789323904371270000,1.539269775390625,0.3943624496459961,-0.7988266944885254,0.45470964908599854
1789323904399546000,1.567546142578125,-0.31083106994628906,-0.6391029357910156,0.21241360902786255
1789323904437247700,1.605247802734375,-0.6984748840332031,-0.4654121398925781,-0.013420343399047852
1789323904456098800,1.624098876953125,-0.9204416275024414,-0.5003008842468262,0.12541431188583374
1789323904474949600,1.64294970703125,-1.1208348274230957,-0.46575498580932617,0.16140830516815186
1789323904493800400,1.661800537109375,-1.225792407989502,-0.34789180755615234,0.39744138717651367
1789323904512651300,1.6806513671875,-1.348865032196045,-0.5020842552185059,0.7612974643707275
1789323904531502000,1.699502197265625,-1.3299150466918945,-0.8457546234130859,1.0991888046264648
1789323904550353200,1.718353271484375,-1.1271181106567383,-1.346510410308838,1.3924469947814941
1789323904569204000,1.737203857421875,-0.7558751106262207,-1.8181605339050293,2.115792751312256
1789323904588054800,1.7560546875,-0.9861822128295898,-2.3484294414520264,2.595442056655884
1789323904606905600,1.774905517578125,-1.4836230278015137,-3.026055335998535,2.637722969055176
1789323904625756400,1.79375634765625,-1.8193607330322266,-3.2481749057769775,2.959094524383545
1789323904644607200,1.812607177734375,-1.8523578643798828,-3.7595672607421875,3.460700750350952
1789323904663458300,1.831458251953125,-1.6938576698303223,-3.2520065307617188,3.168142318725586
1789323904682309000,1.85030908203125,-1.8778295516967773,-2.6421923637390137,2.7743566036224365
1789323904701160000,1.869159912109375,-2.8710503578186035,-2.4493463039398193,2.5615508556365967
1789323904720010800,1.8880107421875,-2.4728264808654785,-2.5660016536712646,3.019599437713623
1789323904738861800,1.90686181640625,-2.3494691848754883,-2.9972739219665527,3.3182480335235596
1789323904757712600,1.925712646484375,-1.2901201248168945,-3.396350145339966,3.764686346054077
1789323904776563500,1.9445634765625,-0.7906384468078613,-4.139316082000732,4.219759941101074
1789323904804839700,1.972839599609375,-0.21009445190429688,-4.450685501098633,3.4396426677703857
1789323904823690800,1.991690673828125,-0.4746246337890625,-4.136145114898682,1.8835774660110474
1789323904842541600,2.01054150390625,0.05603599548339844,-4.262049674987793,0.33507204055786133
1789323904861392400,2.029392333984375,0.7561149597167969,-4.262782096862793,-1.1774086952209473
1789323904880243200,2.0482431640625,2.3216710090637207,-3.728196144104004,-2.159418821334839
1789323904899094300,2.06709423828125,3.59157133102417,-3.7264766693115234,-3.3169901371002197
1789323904917945000,2.085945068359375,3.6215105056762695,-3.0819430351257324,-5.137630462646484
1789323904936796000,2.1047958984375,4.324482440948486,-2.2428784370422363,-6.6444621086120605
1789323904955646700,2.123646728515625,6.452348709106445,-1.3859777450561523,-7.679768085479736
1789323904974497500,2.14249755859375,7.544430255889893,-0.3991355895996094,-8.67105484008789
1789323904993348600,2.1613486328125,8.628120422363281,0.974459171295166,-9.550131797790527
1789323905012199400,2.180199462890625,12.88132095336914,2.769108295440674,-8.788444519042969
1789323905031050200,2.19905029296875,12.421689987182617,3.3882975578308105,-7.371336460113525
1789323905049901300,2.2179013671875,7.636502742767334,3.660501718521118,-6.559243679046631
1789323905068752100,2.236752197265625,5.8075079917907715,4.865015983581543,-5.090201377868652
1789323905087603000,2.25560302734375,5.941656589508057,6.009559154510498,-2.909292221069336
1789323905106454000,2.2744541015625,6.1528801918029785,6.131613731384277,-1.1903958320617676
1789323905125304800,2.293304931640625,4.966908931732178,5.448835372924805,-0.19614124298095703
1789323905144155600,2.31215576171875,3.3099327087402344,4.35496711730957,-1.203181266784668
1789323905163006700,2.3310068359375,2.0037145614624023,3.0483851432800293,-2.288776397705078
1789323905181857500,2.349857421875,0.9002289772033691,2.249345302581787,-2.614072322845459
1789323905200708400,2.368708251953125,0.34171056747436523,1.8242073059082031,-2.903261661529541
1789323905219559400,2.387559326171875,-0.49280500411987305,1.2377946376800537,-2.2874460220336914
1789323905238410200,2.40641015625,-0.35785818099975586,0.27995777130126953,-0.716435432434082
1789323905257261000,2.425260986328125,-1.1917200088500977,0.25734853744506836,0.4389686584472656
1789323905276112100,2.444112060546875,-2.0751662254333496,0.11677980422973633,1.0637297630310059
1789323905294963000,2.462962890625,-2.3424620628356934,-0.7513737678527832,0.8835010528564453
1789323905313813800,2.481813720703125,-2.927644729614258,-2.3496382236480713,-0.17644596099853516
1789323905332664800,2.500664794921875,-4.180556297302246,-4.132133483886719,-1.5423345565795898
1789323905351515600,2.519515625,-4.281556129455566,-5.234622955322266,-1.0032858848571777
1789323905370366500,2.538366455078125,-3.18342924118042,-5.524560928344727,0.5237019062042236
1789323905389217500,2.557217529296875,-3.0698413848876953,-4.873741149902344,1.0512285232543945
1789323905408068400,2.576068359375,-2.6925196647644043,-3.9308347702026367,0.3957805633544922
1789323905426919200,2.594919189453125,-1.9277243614196777,-3.1339359283447266,-0.14107275009155273
1789323905445770200,2.613770263671875,-1.4968695640563965,-2.753018856048584,-0.40709686279296875
1789323905464621000,2.63262109375,-2.0331830978393555,-2.698660373687744,-0.500373363494873
1789323905483472100,2.65147216796875,-2.0558252334594727,-2.670799732208252,-2.350487232208252
1789323905502323000,2.670322998046875,-0.7058873176574707,-2.561622142791748,-1.643369197845459
1789323905521173800,2.689173828125,1.1068611145019531,-2.3459811210632324,-0.20169448852539062
1789323905540024800,2.70802490234375,1.2952628135681152,-2.1493635177612305,0.911616325378418
1789323905558875600,2.726875732421875,1.871863842010498,-1.381953239440918,1.1621861457824707
1789323905577726700,2.745726806640625,2.522125005722046,-0.6959834098815918,0.8374223709106445
1789323905596577500,2.76457763671875,3.0345139503479004,0.12719154357910156,0.3392610549926758
1789323905615428400,2.783428466796875,2.1141252517700195,0.5695123672485352,0.785797119140625
1789323905634279400,2.802279541015625,0.2938903570175171,1.4374265670776367,1.82918119430542
1789323905653130200,2.821130126953125,3.055356979370117,3.7685153484344482,0.5895085334777832
1789323905671981300,2.839981201171875,4.146581649780273,5.249819755554199,-1.1921906471252441
1789323905690832100,2.85883203125,4.229652404785156,6.213654041290283,-2.4555554389953613
1789323905709683000,2.877682861328125,3.2233777046203613,6.699326038360596,-2.3776087760925293
1789323905728534000,2.896533935546875,2.5750060081481934,6.254019260406494,-1.6577391624450684
1789323905747384800,2.915384765625,2.476224422454834,5.365647792816162,-0.9409193992614746
1789323905766236000,2.93423583984375,2.395096778869629,4.086969375610352,-0.6877808570861816
1789323905785086700,2.953086669921875,2.4437077045440674,2.6072123050689697,0.043526649475097656
1789323905803937500,2.9719375,2.631375551223755,0.9747095108032227,0.20527029037475586
1789323905822788600,2.99078857421875,1.739109992980957,2.089709758758545,1.638267993927002
1789323905841639400,3.009639404296875,-0.5257563591003418,1.5952143669128418,2.808520793914795
1789323905860490500,3.028490478515625,-1.498432993888855,-0.2523775100708008,1.0010099411010742
1789323905879341300,3.04734130859375,-1.1680799722671509,0.1231985092163086,-0.45040130615234375
1789323905898192400,3.0661923828125,-1.2129912376403809,0.17809820175170898,0.5845322608947754
1789323905917043200,3.085043212890625,-0.5367991924285889,1.0354161262512207,1.5357012748718262
1789323905935894300,3.103894287109375,-1.4298505783081055,-0.0053234100341796875,1.1464838981628418
1789323905954745000,3.1227451171875,-1.6854841709136963,-1.7603845596313477,0.15030241012573242
1789323905973596000,3.141595947265625,-1.21675443649292,-2.9666171073913574,-0.40518617630004883
1789323905992447000,3.160447021484375,-0.9838607311248779,-3.0215072631835938,-0.7382669448852539
1789323906011297800,3.1792978515625,-1.23026442527771,-2.702591896057129,-1.9415488243103027
1789323906030148900,3.19814892578125,0.9623007774353027,-2.403959274291992,-1.3072116374969482
1789323906048999700,3.216999755859375,-0.6933407783508301,-2.9920854568481445,-3.6717398166656494
1789323906067850800,3.235850830078125,-0.9691469669342041,-3.117839813232422,-5.6923723220825195
1789323906086701600,3.25470166015625,-2.452131748199463,-3.611058235168457,-4.515503406524658
1789323906105552400,3.273552490234375,-2.309232234954834,-3.5147266387939453,-2.1022322177886963
1789323906124403500,3.292403564453125,-0.7053537368774414,-4.476056098937988,-0.40467166900634766
1789323906143254300,3.311254150390625,-0.1163640022277832,-4.970865249633789,0.16626203060150146
1789323906162105300,3.330105224609375,-0.9594833850860596,-5.165437698364258,0.332086980342865
1789323906180956200,3.3489560546875,-2.9964725971221924,-3.6403894424438477,0.09012752771377563
1789323906199807200,3.36780712890625,-1.7638664245605469,-1.1296491622924805,-0.5293453335762024
1789323906218658000,3.386657958984375,-2.5236153602600098,1.2226123809814453,-0.5540653467178345
1789323906237509000,3.405509033203125,-3.6936211585998535,2.7925338745117188,0.12109309434890747
1789323906256360000,3.42435986328125,-2.8709096908569336,2.5722293853759766,0.9847582578659058
1789323906275211000,3.4432109375,-1.8327341079711914,1.9126787185668945,0.9726239442825317
1789323906294061800,3.462061767578125,-1.14312744140625,3.096194267272949,-1.4033437967300415
1789323906312913000,3.480912841796875,-0.06333208084106445,1.6701793670654297,-2.385960578918457
1789323906331763700,3.499763671875,0.24586248397827148,-0.12902450561523438,-2.879103183746338
1789323906350614800,3.51861474609375,1.1945085525512695,-2.3571081161499023,-2.7115368843078613
1789323906369465600,3.537465576171875,0.9306483268737793,-3.3451428413391113,-1.727215051651001
1789323906388316700,3.556316650390625,0.4649658203125,-3.596363067626953,-0.6571956276893616
1789323906407167500,3.57516748046875,0.6713476181030273,-5.460948944091797,-0.7079614400863647
1789323906426018600,3.5940185546875,0.748873233795166,-6.995638847351074,-2.7496767044067383
1789323906444869400,3.612869384765625,-1.1207423210144043,-3.6418704986572266,-0.6719003915786743
1789323906463720400,3.631720458984375,-1.7312045097351074,1.157740592956543,1.1055819988250732
1789323906482571300,3.6505712890625,-1.8475522994995117,2.456451416015625,1.2334015369415283
1789323906501422300,3.66942236328125,-1.2407760620117188,0.5778117179870605,1.212714433670044
1789323906520273200,3.688273193359375,-0.8691444396972656,-0.23626089096069336,0.6329014301300049
1789323906539124200,3.707124267578125,-0.7416272163391113,-0.15260887145996094,0.011368036270141602
1789323906557975000,3.72597509765625,-0.7024765014648438,0.1547708511352539,-0.5660632848739624
1789323906576826000,3.744826171875,-0.5650463104248047,0.5259547233581543,-0.9749916791915894
1789323906595677000,3.763677001953125,-0.2404494285583496,0.6928424835205078,-1.2851502895355225
1789323906614528000,3.782528076171875,-0.16123485565185547,0.1116628646850586,-1.3192334175109863
1789323906633378800,3.80137890625,-0.05540275573730469,-0.9179778099060059,-1.0188825130462646
1789323906652230000,3.82022998046875,0.2734260559082031,-1.9556269645690918,-0.8521486520767212
1789323906671081000,3.8390810546875,0.10875892639160156,-2.4367098808288574,-1.02665114402771
1789323906689931800,3.857931884765625,-0.20122241973876953,-2.484625816345215,-0.3048388957977295
1789323906708782800,3.876782958984375,-0.39618968963623047,-2.1112749576568604,0.3382655382156372
1789323906727633700,3.895633544921875,-1.1149682998657227,-1.7759332656860352,0.8115572929382324
1789323906746484700,3.914484619140625,-1.8490447998046875,-1.5661406517028809,1.1636368036270142
1789323906765335600,3.93333544921875,-1.8757929801940918,-1.6759848594665527,1.5737470388412476
1789323906784186600,3.9521865234375,-1.5060787200927734,-1.749244213104248,1.650256872177124
1789323906812463000,3.980463134765625,-2.2260942459106445,-1.1424126625061035,1.0988694429397583
1789323906831314000,3.99931396484375,-1.9857630729675293,-0.9867746829986572,0.7383729219436646
1789323906850165000,4.0181650390625,-1.6789040565490723,-0.9074413776397705,0.7418551445007324
1789323906869015800,4.037015869140625,-1.7291436195373535,-0.47411513328552246,0.6262784004211426
1789323906887867000,4.055866943359375,-1.686025619506836,-0.40862202644348145,0.5992361903190613
1789323906906717700,4.0747177734375,-1.221379280090332,0.02928471565246582,0.403501033782959
1789323906925568800,4.09356884765625,-1.5421333312988281,-0.0002884864807128906,0.20330417156219482
1789323906944419800,4.112419921875,-1.6615986824035645,0.31493687629699707,-0.12298810482025146
1789323906963270700,4.131270751953125,-1.8584222793579102,0.4084773063659668,0.010475337505340576
1789323906982121700,4.150121826171875,-1.6501197814941406,-0.06594252586364746,-0.14175820350646973
1789323907000972500,4.16897265625,-1.5993103981018066,-0.006430864334106445,0.2136927843093872
1789323907019823600,4.18782373046875,-1.6575393676757812,0.26998329162597656,0.5247645378112793
1789323907038674400,4.20667431640625,-1.7915372848510742,0.5651712417602539,0.7613620758056641
1789323907057525500,4.225525390625,-1.5679006576538086,0.8568569421768188,0.8158571720123291
1789323907076376300,4.244376220703125,-1.8962078094482422,1.351284384727478,0.990341305732727
1789323907095227400,4.263227294921875,-1.2891817092895508,1.8846638202667236,0.9792261719703674
1789323907114078500,4.282078369140625,-1.1062421798706055,1.2815901041030884,0.5075808167457581
1789323907132929300,4.30092919921875,-0.17066574096679688,0.6939091682434082,-0.14253336191177368
1789323907151780400,4.3197802734375,-0.17876148223876953,0.7947545051574707,-0.7901042699813843
1789323907170631200,4.338631103515625,-0.6406688690185547,1.2579841613769531,-1.1969367265701294
1789323907189482200,4.357482177734375,-1.0375771522521973,2.1033918857574463,-1.655973196029663
1789323907208333000,4.3763330078125,-0.30678367614746094,1.7139906883239746,-2.2347025871276855
1789323907227184000,4.39518408203125,-0.2884335517883301,1.3555428981781006,-2.621530055999756
1789323907246035000,4.414034912109375,-0.48527956008911133,1.2744956016540527,-2.232511520385742
1789323907264886000,4.432885986328125,0.3845958709716797,0.4000515937805176,-0.49376678466796875
1789323907283737000,4.451737060546875,1.0320591926574707,-0.3374490737915039,1.3229565620422363
1789323907302588000,4.470587890625,-0.7050886154174805,-2.092031478881836,3.813908576965332
1789323907321439000,4.48943896484375,-1.2665071487426758,-1.7384252548217773,2.011402130126953
1789323907340289800,4.508289794921875,0.9856448173522949,0.43877172470092773,1.6164376735687256
1789323907359140900,4.527140869140625,1.8358697891235352,1.738694667816162,1.1541037559509277
1789323907377992000,4.545991943359375,-0.6111054420471191,3.161655902862549,-1.5446866750717163
1789323907396842800,4.5648427734375,1.3863391876220703,1.0570034980773926,-1.245802402496338
1789323907415693800,4.58369384765625,2.8498692512512207,-0.4800896644592285,-0.3410956859588623
1789323907434544600,4.602544677734375,0.32991456985473633,-3.174142360687256,-0.3310432434082031
1789323907453395700,4.621395751953125,0.5371966361999512,-4.736908912658691,-0.5499894618988037
1789323907472246800,4.640246826171875,1.111116886138916,-4.891059875488281,0.417574405670166
1789323907491097600,4.65909765625,0.9951133728027344,-1.7445297241210938,0.8927333354949951
1789323907509948700,4.67794873046875,0.4132556915283203,-0.1861400604248047,0.8889076709747314
1789323907528799500,4.696799560546875,0.8315505981445312,-0.7270126342773438,1.2327094078063965
1789323907547650600,4.715650634765625,0.17980194091796875,-0.3603630065917969,0.7308571338653564
1789323907566501600,4.734501708984375,1.0745301246643066,-0.4857654571533203,0.34497761726379395
1789323907585352400,4.7533525390625,0.962310791015625,-1.8150100708007812,0.5143811702728271
1789323907604203500,4.77220361328125,1.800583839416504,-1.6901473999023438,1.2641489505767822
1789323907623054600,4.7910546875,-0.3115262985229492,-1.4152398109436035,1.1511495113372803
1789323907641905400,4.809905517578125,-1.5779452323913574,-0.9701986312866211,1.14253568649292
1789323907660756500,4.828756591796875,-2.0256855487823486,-0.25214338302612305,1.200502872467041
1789323907679607300,4.847607177734375,-2.5304620265960693,0.13942480087280273,1.789504051208496
1789323907698458400,4.866458251953125,-2.525742530822754,0.2762136459350586,1.6882166862487793
1789323907717309400,4.885309326171875,-1.7790865898132324,0.27756547927856445,0.9568197727203369
1789323907736160300,4.90416015625,-1.2795829772949219,0.5931529998779297,0.3498098850250244
1789323907755011300,4.92301123046875,-0.06527280807495117,0.6411066055297852,-1.5859569311141968
1789323907773862400,4.9418623046875,-0.03381156921386719,0.30563926696777344,-1.9957469701766968
1789323907792713200,4.960713134765625,-0.15634536743164062,-0.021320819854736328,-1.594261884689331
1789323907811564300,4.979564208984375,0.6232690811157227,-0.04738664627075195,-2.1245839595794678
1789323907830415000,4.9984150390625,1.151832103729248,-0.7509045600891113,-1.7423121929168701
1789323907849266200,5.01726611328125,-0.2627739906311035,0.1638026237487793,-1.678440809249878
1789323907868117200,5.0361171875,-2.410459041595459,-3.1143951416015625,1.6872913837432861
1789323907886968000,5.054968017578125,3.8599295616149902,0.2438340187072754,1.456300973892212
1789323907905819100,5.073819091796875,1.896988868713379,0.030060291290283203,0.6638267040252686
1789323907924670200,5.092670166015625,0.8668041229248047,-1.7197422981262207,0.6296963691711426
1789323907943521000,5.11152099609375,-0.12576627731323242,-3.0621299743652344,2.0273818969726562
1789323907962372000,5.1303720703125,-1.9833221435546875,-1.5101590156555176,-2.135326862335205
1789323907981223000,5.149222900390625,4.132662773132324,0.8120303153991699,-0.12073338031768799
1789323908000074000,5.168073974609375,-4.827388286590576,2.5673933029174805,2.735525369644165
1789323908018925000,5.186925048828125,0.17153453826904297,0.6502180099487305,1.0683377981185913
1789323908037776000,5.20577587890625,0.32202816009521484,0.7144966125488281,1.8084627389907837
1789323908056627000,5.224626953125,-1.5268058776855469,-1.6032319068908691,-3.2644169330596924
1789323908075478000,5.24347802734375,-1.446436882019043,-2.603537082672119,-3.043522357940674
1789323908094329000,5.2623291015625,1.1774091720581055,-0.6743340492248535,-0.6325477361679077
1789323908113180000,5.281179931640625,0.33712196350097656,-1.641845464706421,-1.2472810745239258
1789323908132031000,5.300031005859375,-0.4363574981689453,-1.9631986618041992,0.362161248922348
1789323908150882000,5.318882080078125,-0.20477676391601562,-2.5023767948150635,0.9619272351264954
1789323908169732900,5.33773291015625,-1.2305183410644531,-0.89034104347229,1.764159083366394
1789323908188584000,5.356583984375,-3.2878494262695312,0.15795612335205078,0.14318323135375977
1789323908207434800,5.375434814453125,-4.413876533508301,-0.010246515274047852,1.8553729057312012
1789323908245137000,5.413136962890625,-1.3810491561889648,1.50096595287323,2.569629192352295
1789323908263987700,5.43198779296875,-1.8820977210998535,1.0216903686523438,1.8896411657333374
1789323908282838800,5.4508388671875,-2.282909870147705,1.4692744016647339,1.3063709735870361
1789323908320540700,5.488540771484375,-1.826035976409912,0.13434410095214844,0.5437089204788208
1789323908348817200,5.516817138671875,-1.1163954734802246,-1.565016269683838,-0.2622990608215332
1789323908367668200,5.535668212890625,-1.0672998428344727,-1.5052070617675781,-0.8513487577438354
1789323908386519300,5.554519287109375,-0.8811063766479492,-0.9927051067352295,0.5206048488616943
1789323908405370000,5.5733701171875,1.2936983108520508,0.542647123336792,0.4705468416213989
1789323908424221200,5.59222119140625,-0.9466161727905273,1.167604684829712,-0.19894075393676758
1789323908443072300,5.611072265625,-0.6547060012817383,1.1011505126953125,-0.023691654205322266
1789323908461923000,5.629923095703125,-0.613276481628418,1.3780381679534912,0.21666693687438965
1789323908480774100,5.648774169921875,-1.2458767890930176,1.5452942848205566,-0.7901482582092285
1789323908499625200,5.667625244140625,-0.41661596298217773,0.39988136291503906,0.042017221450805664
1789323908518476000,5.68647607421875,0.20412254333496094,0.9106850624084473,3.0168018341064453
1789323908537327000,5.7053271484375,-1.868274211883545,-0.24328136444091797,3.6584343910217285
1789323908556178200,5.72417822265625,-2.7627978324890137,-2.2619571685791016,3.088564157485962
1789323908575029000,5.743029052734375,-0.34975385665893555,-0.8370871543884277,0.344829797744751
1789323908593880000,5.761880126953125,1.8645153045654297,0.22233963012695312,-1.6199619770050049
1789323908612731100,5.780731201171875,-1.4216713905334473,-1.6634926795959473,-4.706157684326172
1789323908631582000,5.79958203125,1.3046841621398926,-0.5779953002929688,-5.14595890045166
1789323908650433000,5.81843310546875,4.481317520141602,3.520650863647461,-2.36952543258667
1789323908669284000,5.8372841796875,4.369861602783203,2.786625385284424,-2.297250747680664
1789323908688135000,5.856135009765625,2.0677132606506348,0.4504427909851074,-0.7506778240203857
1789323908706986000,5.874986083984375,0.18499422073364258,-1.7119793891906738,-0.41570258140563965
1789323908725837000,5.893837158203125,-0.6335604190826416,-3.910098075866699,0.6126012802124023
1789323908744687900,5.91268798828125,-0.505312442779541,-3.69333553314209,1.6612203121185303
1789323908763539000,5.9315390625,0.36577892303466797,-2.834782600402832,1.7170612812042236
1789323908782390000,5.95039013671875,0.7924566268920898,-1.7892837524414062,1.0943517684936523
1789323908801240800,5.96924072265625,1.1313257217407227,-1.2514619827270508,-0.46089935302734375
1789323908820092000,5.988091796875,1.2277765274047852,-1.7829828262329102,-0.2979164123535156
1789323908838943000,6.00694287109375,1.982405185699463,-1.486374855041504,1.0602035522460938
1789323908857793800,6.025793701171875,1.7859673500061035,-2.0442237854003906,0.35645604133605957
1789323908876644900,6.044644775390625,0.5226578712463379,-1.9300928115844727,0.4797070026397705
1789323908895496000,6.063495849609375,-0.47190046310424805,0.42151546478271484,-0.6603183746337891
1789323908914346800,6.0823466796875,-0.46186017990112305,0.6687989234924316,-0.10516667366027832
1789323908933197800,6.10119775390625,0.059815406799316406,0.18858718872070312,0.5784871578216553
1789323908952049000,6.120048828125,0.1477508544921875,-0.056743621826171875,0.11261367797851562
1789323908970899700,6.138899658203125,-0.4173717498779297,0.07634496688842773,1.0153011083602905
1789323908989750800,6.157750732421875,-0.5984702110290527,-0.8037734031677246,-0.01342463493347168
1789323909008601900,6.176601806640625,-0.693809986114502,-1.091458797454834,-1.677851915359497
1789323909027452700,6.19545263671875,0.6493496894836426,-0.7549433708190918,-1.9671614170074463
1789323909046303700,6.2143037109375,1.7065186500549316,-0.9178037643432617,-2.255789041519165
1789323909065154800,6.23315478515625,2.038278579711914,-1.4370136260986328,-2.316986322402954
1789323909084005600,6.252005615234375,2.2918882369995117,-1.1392364501953125,-2.5641329288482666
1789323909102856700,6.270856689453125,1.0689477920532227,-1.2795438766479492,-2.9156017303466797
1789323909121707800,6.289707763671875,-0.18933773040771484,-0.8869938850402832,-2.9065377712249756
1789323909140558600,6.30855859375,-0.8716039657592773,-0.15231895446777344,-2.04150128364563
1789323909159409700,6.32740966796875,-1.5361814498901367,-0.4514307975769043,-1.0025651454925537
1789323909178260700,6.3462607421875,-1.3385567665100098,-0.33824920654296875,-0.4444441795349121
1789323909197111600,6.365111572265625,-1.6958246231079102,-0.5787949562072754,-0.6142199039459229
1789323909215962600,6.383962646484375,-1.1704392433166504,-0.30495214462280273,-0.8686747550964355
1789323909234813700,6.402813720703125,-1.2094902992248535,-0.3725776672363281,-1.0180442333221436
1789323909253664800,6.421664794921875,-1.180851936340332,-0.37926578521728516,-0.7251536846160889
1789323909272515600,6.440515625,-0.5629081726074219,-0.6591553688049316,-0.018602609634399414
1789323909291366700,6.45936669921875,0.11816596984863281,-1.7962260246276855,0.004366040229797363
1789323909310217700,6.4782177734375,-1.4762945175170898,-2.052961826324463,0.4921067953109741
1789323909329068500,6.497068603515625,-2.371370792388916,-0.32643628120422363,0.040808796882629395
1789323909347919600,6.515919677734375,-1.2153501510620117,-0.5632314682006836,-1.2703649997711182
1789323909376196000,6.544196044921875,-1.7671704292297363,-1.6048834323883057,-1.1553890705108643
1789323909395047200,6.563047119140625,-4.326208591461182,-1.5275793075561523,-0.6858991384506226
1789323909413898000,6.58189794921875,-3.922318458557129,0.245039701461792,1.5929287672042847
1789323909432749000,6.6007490234375,-2.8748269081115723,0.0797576904296875,1.5773907899856567
1789323909451600100,6.61960009765625,-1.8604202270507812,0.51751708984375,2.3906702995300293
1789323909470451200,6.638451171875,-2.18839168548584,0.6206579208374023,0.3721623420715332
1789323909489302000,6.657302001953125,-2.9515252113342285,0.03681039810180664,1.7776663303375244
1789323909508153000,6.676153076171875,-1.0509815216064453,0.7352468967437744,0.8979732394218445
1789323909527004200,6.695004150390625,-2.9974794387817383,1.19807767868042,0.8090156316757202
1789323909545855000,6.71385498046875,-1.5911598205566406,1.6693646907806396,1.3516614437103271
1789323909564706000,6.7327060546875,-1.97711181640625,1.668357014656067,-0.711482048034668
1789323909583557000,6.75155712890625,-1.8177261352539062,1.55838143825531,0.009180068969726562
1789323909602408000,6.770407958984375,-0.3292217254638672,1.4711859226226807,0.0464785099029541
1789323909621259000,6.789259033203125,-1.0748910903930664,1.271697759628296,-1.2973377704620361
1789323909640110000,6.808110107421875,-0.9066329002380371,0.9347946643829346,0.16094064712524414
1789323909658961200,6.826961181640625,-0.5416502952575684,1.1041245460510254,-0.41244935989379883
1789323909677812000,6.84581201171875,0.2964210510253906,1.2277653217315674,-0.11776232719421387
1789323909696663000,6.8646630859375,0.3275318145751953,1.36513090133667,-0.414355993270874
1789323909715514000,6.88351416015625,0.6679496765136719,0.6623783111572266,-0.872230052947998
1789323909734365000,6.902364990234375,0.12188386917114258,-0.4342365264892578,-0.5149834156036377
1789323909753216000,6.921216064453125,-0.3514070510864258,-1.163376808166504,-0.19773006439208984
1789323909772067000,6.940067138671875,0.9921822547912598,-1.8203411102294922,-0.3516561985015869
1789323909790918000,6.95891796875,0.28603458404541016,-2.4495997428894043,-0.08422040939331055
1789323909809769000,6.97776904296875,0.9176931381225586,-2.8385515213012695,-0.5721526145935059
1789323909828620000,6.9966201171875,-0.03698301315307617,-2.9029202461242676,-0.5035984516143799
1789323909847470800,7.015470947265625,0.14726543426513672,-2.1024489402770996,-1.2756733894348145
1789323909866322000,7.034322021484375,1.2518377304077148,-1.517683982849121,-0.8367302417755127
1789323909885173000,7.053173095703125,1.1040353775024414,-1.155965805053711,-0.17443537712097168
1789323909904024000,7.072024169921875,0.16205978393554688,-1.175898551940918,-0.6477584838867188
1789323909922875000,7.090875,-0.3970508575439453,-1.0853815078735352,-0.8813556432723999
1789323909941726000,7.109725830078125,-0.2034292221069336,-0.6971263885498047,-0.4395214319229126
1789323909960577000,7.128576904296875,0.38338279724121094,-0.13155841827392578,0.03321385383605957
1789323909979427800,7.147427734375,0.4749913215637207,-0.5510501861572266,0.9588721990585327
1789323909998279000,7.16627880859375,1.4493613243103027,-1.7339410781860352,0.636746883392334
1789323910017130000,7.1851298828125,2.542067527770996,-2.5154170989990234,0.8167303800582886
1789323910035980800,7.203980712890625,2.054832935333252,-2.5643787384033203,0.810039758682251
1789323910054831600,7.22283154296875,1.0868916511535645,-1.7132225036621094,0.0008406639099121094
1789323910073682700,7.2416826171875,-0.945063591003418,-0.31289005279541016,0.6161216497421265
1789323910092533500,7.260533447265625,-0.8695335388183594,0.18529748916625977,-0.07011818885803223
1789323910111384600,7.279384521484375,-1.1598305702209473,-0.5483508110046387,0.6330914497375488
1789323910130235600,7.298235595703125,0.17147302627563477,-0.7299947738647461,-0.017508506774902344
1789323910149086700,7.317086669921875,0.9310722351074219,-0.6725492477416992,-0.02772068977355957
1789323910167937500,7.3359375,1.635751724243164,-0.511167049407959,-1.1685116291046143
1789323910186788600,7.35478857421875,1.4757862091064453,-0.6360063552856445,-1.4349262714385986
1789323910205639700,7.3736396484375,0.7055850028991699,-0.8811559677124023,-1.6210198402404785
1789323910224490500,7.392490478515625,0.39540767669677734,-0.5444846153259277,-1.849397897720337
1789323910243341600,7.411341552734375,0.5176973342895508,-0.7211732864379883,-1.6882867813110352
1789323910262192600,7.430192626953125,0.9591498374938965,-0.5609755516052246,-0.7104194164276123
1789323910281043500,7.44904345703125,1.1363167762756348,-1.0773138999938965,-0.24537134170532227
1789323910299894500,7.46789453125,0.6648831367492676,-2.1936144828796387,-0.2321639060974121
1789323910318745600,7.48674560546875,0.4672679901123047,-2.2751474380493164,-0.6852993965148926
1789323910337596700,7.5055966796875,-0.02943134307861328,-1.838575839996338,-0.6336727142333984
1789323910356447500,7.524447509765625,-0.7093238830566406,-0.8739700317382812,-1.0607340335845947
1789323910375298600,7.543298583984375,-1.3623037338256836,0.123016357421875,-0.46048641204833984
1789323910394149600,7.562149658203125,-0.9312534332275391,0.7016711235046387,0.7363371849060059
1789323910413000400,7.58100048828125,-1.8057613372802734,1.001328706741333,2.4649016857147217
1789323910431851500,7.5998515625,-2.203591823577881,0.9599823951721191,1.4046651124954224
1789323910450702600,7.61870263671875,-2.1800174713134766,0.9823853969573975,-0.20865893363952637
1789323910469553400,7.637553466796875,-1.891495704650879,0.7846429347991943,-0.9238667488098145
1789323910488404500,7.656404541015625,-2.9884910583496094,0.11818242073059082,1.5958516597747803
1789323910507255600,7.675255615234375,-3.4254016876220703,0.804480791091919,2.1320183277130127
1789323910526106400,7.6941064453125,-2.958538055419922,0.18257427215576172,2.8237521648406982
1789323910544957400,7.71295751953125,-2.5850391387939453,0.5284140110015869,1.4732568264007568
1789323910563808500,7.73180859375,-2.9571542739868164,0.009554386138916016,1.4326974153518677
1789323910582659600,7.75065966796875,-1.01617431640625,0.5071518421173096,2.7282557487487793
1789323910601510400,7.769510498046875,-1.9166574478149414,0.0978536605834961,1.5044819116592407
1789323910620361500,7.788361572265625,-1.8324780464172363,0.6377153396606445,1.9834671020507812
1789323910639212500,7.807212646484375,-2.7818593978881836,1.1187670230865479,1.1485857963562012
1789323910658063400,7.8260634765625,-1.941542148590088,0.8453130722045898,1.352087140083313
1789323910676914400,7.84491455078125,-0.18508434295654297,0.7608742713928223,2.125218391418457
1789323910695765500,7.863765625,-1.6039128303527832,1.0893714427947998,0.44827723503112793
1789323910714616600,7.882616455078125,-1.4763917922973633,0.9596290588378906,1.4258430004119873
1789323910733467400,7.90146728515625,-0.9683423042297363,1.3819067478179932,0.30570411682128906
1789323910752318500,7.920318359375,-0.39709949493408203,1.1417813301086426,0.4841153621673584
1789323910771169500,7.93916943359375,-0.4634733200073242,0.28131580352783203,-0.7727530002593994
1789323910790020400,7.958020263671875,-0.13789844512939453,-0.8061308860778809,-0.12633824348449707
1789323910808871400,7.976871337890625,0.338991641998291,-1.1971397399902344,-0.6541886329650879
1789323910827722500,7.995722412109375,0.2475118637084961,-1.9053969383239746,-0.07900285720825195
1789323910846573600,8.014573486328125,-0.2780323028564453,-2.0403480529785156,-0.05279970169067383
1789323910865424400,8.03342431640625,0.648749828338623,-2.0586447715759277,0.32413721084594727
1789323910884275500,8.052275390625,2.0081706047058105,-2.4212942123413086,0.2967414855957031
1789323910903126500,8.07112646484375,1.429872989654541,-2.4350996017456055,-0.5394027233123779
1789323910921977300,8.089977294921875,1.3189964294433594,-2.746169090270996,-1.1324665546417236
1789323910940828400,8.108828369140625,1.5495343208312988,-2.6501665115356445,-0.7696945667266846
1789323910959679500,8.127679443359375,2.113485813140869,-2.012451171875,-0.5831928253173828
1789323910978530600,8.146530517578125,1.592587947845459,-1.5987014770507812,0.10109734535217285
1789323910997381400,8.16538134765625,1.2810916900634766,-1.4721527099609375,0.16385316848754883
1789323911016232400,8.184232421875,2.5894854068756104,-2.023151397705078,0.9982954263687134
1789323911035083500,8.20308349609375,3.087099075317383,-3.6176939010620117,1.0934245586395264
1789323911053934300,8.221934326171874,2.4293947219848633,-3.214301109313965,0.6081275939941406
1789323911072785400,8.240785400390624,1.7587199211120605,-1.5208349227905273,0.564159631729126
1789323911091636500,8.259636474609374,0.7544512748718262,0.1602802276611328,0.7251660823822021
1789323911110487300,8.2784873046875,-0.19209003448486328,0.7044076919555664,0.34406542778015137
1789323911129338400,8.29733837890625,-0.7650904655456543,0.7084503173828125,0.4939844608306885
1789323911148189400,8.316189453125,-0.9792132377624512,0.37291717529296875,0.930221676826477
1789323911167040500,8.33504052734375,-0.4826197624206543,0.34397029876708984,1.0047938823699951
1789323911185891300,8.353891357421874,0.4424285888671875,0.10034942626953125,0.7060568332672119
1789323911204742400,8.372742431640624,1.9059176445007324,-0.6887607574462891,0.1509256362915039
1789323911223593500,8.391593505859374,2.474946975708008,-2.1241822242736816,-1.257314920425415
1789323911242444300,8.4104443359375,2.1613717079162598,-2.961270809173584,-2.148747682571411
1789323911261295400,8.42929541015625,1.9084291458129883,-2.5475659370422363,-3.3212473392486572
1789323911280146400,8.448146484375,1.622950553894043,-1.849266529083252,-2.0600647926330566
1789323911298997200,8.466997314453126,1.8875923156738281,-1.698258876800537,-2.4913833141326904
1789323911317848300,8.485848388671876,0.6676793098449707,-1.9833693504333496,-1.3104274272918701
1789323911336699400,8.504699462890626,-0.5180325508117676,-1.5020265579223633,-0.8898911476135254
1789323911355550200,8.52355029296875,-1.28859281539917,-1.256108283996582,-0.24258160591125488
1789323911374401300,8.5424013671875,-1.260040283203125,-1.0670700073242188,-0.08075547218322754
1789323911393252400,8.56125244140625,-2.325438976287842,-0.783597469329834,-0.0745537281036377
1789323911412103400,8.580103515625,-2.8042993545532227,-0.1895437240600586,1.0513039827346802
1789323911430954200,8.598954345703126,-4.056215763092041,1.4994630813598633,1.7226029634475708
1789323911449805300,8.617805419921876,-3.892000198364258,3.8445122241973877,2.8887736797332764
1789323911468656400,8.636656494140626,-2.358928680419922,2.7183501720428467,0.4740939140319824
1789323911487507200,8.655507080078126,-0.9325447082519531,-0.794926643371582,-0.3119664192199707
1789323911506358300,8.674358154296876,-3.039107322692871,-1.0349526405334473,0.21955013275146484
1789323911525209300,8.693209228515625,-1.5011587142944336,-0.3831517696380615,2.152423620223999
1789323911544060200,8.71206005859375,-1.57133150100708,-0.5362880229949951,1.5874643325805664
1789323911562911200,8.7309111328125,-0.4438800811767578,0.05025219917297363,1.509101390838623
1789323911581762300,8.74976220703125,-2.9796385765075684,0.06752538681030273,-0.5199129581451416
1789323911600613000,8.768613037109375,-0.5125865936279297,1.2204229831695557,1.5936542749404907
1789323911619464200,8.787464111328125,-1.0400900840759277,0.522601842880249,-0.081268310546875
1789323911638315300,8.806315185546875,-1.2322978973388672,0.7047038078308105,1.1367309093475342
1789323911657166300,8.825166259765625,-3.260904312133789,0.5404391288757324,0.06519818305969238
1789323911676017200,8.84401708984375,-3.22098445892334,0.48181724548339844,1.6843702793121338
1789323911694868200,8.8628681640625,-2.6720547676086426,1.0186820030212402,1.9173600673675537
1789323911713719300,8.88171923828125,-3.308474063873291,1.6927673816680908,2.454589366912842
1789323911732570000,8.900570068359375,-2.7934842109680176,2.11515736579895,2.567262887954712
1789323911751421200,8.919421142578125,-3.126643657684326,2.3049986362457275,1.9077327251434326
1789323911770272300,8.938272216796875,-0.4091219902038574,2.871089220046997,1.604069471359253
1789323911789123000,8.957123046875,0.05030965805053711,3.071284055709839,-0.14726042747497559
1789323911807974100,8.97597412109375,0.776862621307373,1.355179786682129,-0.6333279609680176
1789323911826825200,8.9948251953125,-0.3671422004699707,-1.1440057754516602,-1.7682409286499023
1789323911845676000,9.013676025390625,0.019016742706298828,-3.353313446044922,-2.18981671333313
1789323911864527000,9.032527099609375,-0.38515806198120117,-4.969085216522217,-2.059419631958008
1789323911883378200,9.051378173828125,-0.5575680732727051,-4.943278789520264,-1.6457157135009766
1789323911902229000,9.07022900390625,-0.26193714141845703,-3.6334190368652344,-0.8233308792114258
1789323911921080000,9.089080078125,0.6729927062988281,-2.6913647651672363,-0.2535717487335205
1789323911939931100,9.10793115234375,2.7854623794555664,-1.9779472351074219,-0.6031162738800049
1789323911958782000,9.126781982421875,2.762941837310791,-1.7333316802978516,-1.3648467063903809
1789323911977633000,9.145633056640625,1.5384888648986816,-1.6552190780639648,-1.8836195468902588
1789323911996484000,9.164484130859375,0.8181734085083008,-1.1397733688354492,-1.9379661083221436
1789323912015335000,9.1833349609375,0.915130615234375,-0.24453258514404297,-0.605994701385498
1789323912034186000,9.20218603515625,1.7015433311462402,-0.3222322463989258,1.1522514820098877
1789323912053037000,9.221037109375,1.365281581878662,-0.6716451644897461,1.7906383275985718
1789323912071888100,9.23988818359375,1.7690672874450684,-1.2395248413085938,0.14609885215759277
1789323912090739000,9.258739013671875,2.3011813163757324,-1.4875202178955078,0.04721212387084961
1789323912109590000,9.277590087890625,1.7696337699890137,-1.6110467910766602,-0.5485565662384033
1789323912128441000,9.296441162109375,0.30642032623291016,-1.203476905822754,0.5099103450775146
1789323912147292000,9.3152919921875,0.4852738380432129,-1.0115137100219727,0.12998342514038086
1789323912166143000,9.33414306640625,0.826077938079834,-1.6519694328308105,0.5655012130737305
1789323912184994000,9.352994140625,1.1907505989074707,-2.652104377746582,0.09504342079162598
1789323912203844900,9.371844970703124,0.911590576171875,-2.469503402709961,-0.6398155689239502
1789323912222696000,9.390696044921874,0.5272555351257324,-1.3577322959899902,-1.5211460590362549
1789323912241547000,9.409547119140624,-0.08604812622070312,-0.774777889251709,-1.7281146049499512
1789323912260397800,9.428397705078124,-0.6243104934692383,-0.27431201934814453,-1.4746532440185547
1789323912279249000,9.447248779296874,-0.8949527740478516,0.2973165512084961,-0.9690518379211426
1789323912298099700,9.466099609375,-0.5010919570922852,0.3692641258239746,-0.377591609954834
1789323912316950800,9.48495068359375,-0.2424182891845703,0.023108482360839844,-0.2863881587982178
1789323912335801900,9.5038017578125,0.30228281021118164,-0.49267053604125977,-0.516787052154541
1789323912354652700,9.522652587890626,0.11118412017822266,-1.5939502716064453,-0.7471358776092529
1789323912373503700,9.541503662109376,0.2875237464904785,-2.1397204399108887,-0.3642754554748535
1789323912392354800,9.560354736328126,0.47335100173950195,-1.415876865386963,-0.04228353500366211
1789323912411206000,9.579205810546876,1.3915815353393555,-0.7409863471984863,-0.616248369216919
1789323912430056700,9.598056640625,0.3413810729980469,-1.6078619956970215,-0.22986626625061035
1789323912448907800,9.61690771484375,-1.3007841110229492,-1.4099555015563965,0.38518643379211426
1789323912467758800,9.6357587890625,-2.625375270843506,-0.049833059310913086,-0.3635127544403076
1789323912486609700,9.654609619140626,-2.568735122680664,0.9912054538726807,-0.8941848278045654
1789323912505460700,9.673460693359376,-3.088535785675049,1.016611099243164,0.6920241117477417
1789323912524311800,9.692311767578126,-3.264586925506592,1.042776107788086,1.8995716571807861
1789323912543162600,9.71116259765625,-2.193253517150879,1.3162816762924194,2.7058308124542236
1789323912562013700,9.730013671875,-3.242755889892578,1.0296156406402588,1.9137635231018066
1789323912580864800,9.74886474609375,-3.546785354614258,0.4960300922393799,0.9018670320510864
1789323912599715600,9.767715576171875,-4.285987377166748,0.37998533248901367,0.9191005229949951
1789323912618566700,9.786566650390625,-2.670717239379883,1.2662144899368286,1.6381149291992188
1789323912637417500,9.80541748046875,-2.691229820251465,0.43251991271972656,2.8923022747039795
1789323912656268500,9.8242685546875,-1.6773929595947266,1.1804664134979248,2.2724058628082275
1789323912675119600,9.84311962890625,-3.7127742767333984,1.398231863975525,1.358731985092163
1789323912693970400,9.861970458984375,-1.3822693824768066,1.7177960872650146,1.6003118753433228
1789323912712821500,9.880821533203125,-2.41005802154541,1.2970969676971436,0.8455631732940674
1789323912731672600,9.899672607421875,-1.4717960357666016,1.2736098766326904,1.4555754661560059
1789323912750523600,9.918523681640625,-1.580759048461914,1.7775862216949463,0.4744691848754883
1789323912769374500,9.93737451171875,-0.10708045959472656,1.612295389175415,0.6688232421875
1789323912788225500,9.9562255859375,-0.8354325294494629,0.5555906295776367,-0.6100976467132568
1789323912807076400,9.975076416015625,-0.8096151351928711,-1.25858736038208,-0.42252016067504883
1789323912825927400,9.993927490234375,-0.2826361656188965,-2.5563764572143555,-0.8890225887298584
1789323912844778500,10.012778564453125,0.14630651473999023,-2.87721586227417,-0.6412110328674316
1789323912863629300,10.03162939453125,-0.3814568519592285,-2.3265233039855957,-1.422252893447876
1789323912882480400,10.05048046875,-0.292935848236084,-1.9249658584594727,-1.1370110511779785
1789323912901331500,10.06933154296875,1.2631821632385254,-1.4745917320251465,-1.0578532218933105
1789323912920182300,10.088182373046875,1.8548269271850586,-1.5877442359924316,-0.9476833343505859
1789323912939033300,10.107033447265625,2.1721677780151367,-2.668440818786621,-1.3263535499572754
1789323912957884400,10.125884521484375,2.4900689125061035,-4.045197486877441,-1.3255038261413574
1789323912976735200,10.1447353515625,2.032759189605713,-4.023280143737793,-0.6554746627807617
1789323912995586300,10.16358642578125,2.236426830291748,-1.3866424560546875,0.0529332160949707
1789323913014437000,10.18243701171875,1.8517508506774902,0.24679946899414062,0.5417826175689697
1789323913042713900,10.2107138671875,1.865168571472168,-0.3935270309448242,0.45418643951416016
1789323913061564700,10.229564697265625,2.191415309906006,-1.9520559310913086,-0.42467594146728516
1789323913080415700,10.248415771484375,1.3237051963806152,-2.228766441345215,0.33211207389831543
1789323913099266600,10.2672666015625,1.6565723419189453,-1.3684873580932617,0.21628451347351074
1789323913118117600,10.28611767578125,0.7730488777160645,-1.6863994598388672,0.5481829643249512
1789323913136968700,10.30496875,0.307619571685791,-1.305048942565918,0.396808385848999
1789323913155819500,10.323819580078125,-0.16112327575683594,-0.846308708190918,0.32489562034606934
1789323913174670600,10.342670654296874,0.08052873611450195,-0.36528587341308594,0.1315608024597168
1789323913193521700,10.361521728515624,0.34459447860717773,-0.4635000228881836,0.0024650096893310547
1789323913212372500,10.38037255859375,0.642829418182373,-1.0711784362792969,-0.3326687812805176
1789323913231223600,10.3992236328125,1.262723445892334,-1.4441089630126953,-0.8490533828735352
1789323913250074400,10.418074462890624,1.834263801574707,-1.8588738441467285,-1.0031418800354004
1789323913268925400,10.436925537109374,1.5473895072937012,-2.3665170669555664,-1.0052573680877686
1789323913287776500,10.455776611328124,0.48149633407592773,-2.800286293029785,-1.2094368934631348
1789323913306627300,10.47462744140625,0.13968229293823242,-2.413560390472412,-1.290045976638794
1789323913325478400,10.493478515625,0.05324125289916992,-1.763765811920166,-1.0064911842346191
1789323913344329500,10.51232958984375,0.30187082290649414,-1.8314213752746582,-1.35072660446167
1789323913363180300,10.53118017578125,-0.20202016830444336,-1.5206737518310547,-0.6347613334655762
1789323913382031400,10.55003125,-1.040318489074707,-1.1323251724243164,0.05240225791931152
1789323913400882200,10.568882080078126,-1.237839698791504,0.6602489948272705,1.1041107177734375
1789323913419733200,10.587733154296876,-2.4830422401428223,1.5886409282684326,1.5344560146331787
1789323913438584300,10.606584228515626,-3.0437979698181152,1.1665153503417969,1.5917240381240845
1789323913457435100,10.62543505859375,-2.5540056228637695,0.8651645183563232,0.5868403911590576
1789323913476286200,10.6442861328125,-1.0465550422668457,-0.0033998489379882812,0.9593304395675659
1789323913495137000,10.663136962890626,-2.999321937561035,-0.24355125427246094,0.9274075031280518
1789323913513988000,10.681988037109376,-3.8248443603515625,1.1313973665237427,2.0278830528259277
1789323913532839200,10.700839111328126,-3.8343591690063477,1.1758259534835815,2.1863293647766113
1789323913551690000,10.71968994140625,-0.35928916931152344,1.2313649654388428,2.2624378204345703
1789323913570541000,10.738541015625,-1.3953361511230469,0.4392399787902832,1.5341922044754028
1789323913589392100,10.75739208984375,-2.2148094177246094,0.8283913135528564,-0.12544488906860352
1789323913608243000,10.776242919921875,-2.3882675170898438,0.5721657276153564,1.1931877136230469
1789323913627094000,10.795093994140625,-0.6092805862426758,0.9269981384277344,1.0479652881622314
1789323913645944800,10.81394482421875,-3.2391533851623535,1.1523230075836182,1.3004846572875977
1789323913664796000,10.8327958984375,-1.8911237716674805,1.5385708808898926,1.8660993576049805
1789323913683647000,10.85164697265625,-3.1041083335876465,1.457181692123413,1.4284687042236328
1789323913702497800,10.870497802734375,-1.7915444374084473,1.627246379852295,2.2939538955688477
1789323913721348900,10.889348876953125,-2.1160731315612793,2.008955717086792,1.5048365592956543
1789323913740199700,10.90819970703125,-1.5112700462341309,2.143874406814575,1.2822449207305908
1789323913759050800,10.92705078125,-1.436938762664795,1.9022595882415771,0.3279080390930176
1789323913777901800,10.94590185546875,-1.303647518157959,0.6244416236877441,-0.04968905448913574
1789323913796752600,10.964752685546875,-0.2627992630004883,-0.6658725738525391,-0.7237746715545654
1789323913815603700,10.983603759765625,-0.02984762191772461,-1.5123119354248047,-0.6992733478546143
1789323913834454500,11.00245458984375,0.5229144096374512,-1.9700798988342285,-0.853999137878418
1789323913853305600,11.0213056640625,-0.49530839920043945,-2.7265920639038086,-1.2313058376312256
1789323913872156700,11.04015673828125,-0.16440677642822266,-3.405104637145996,-1.1212828159332275
1789323913891007500,11.059007568359375,0.4407358169555664,-3.7228856086730957,-1.1686246395111084
1789323913909858600,11.077858642578125,1.4824552536010742,-3.1611390113830566,-0.914778470993042
1789323913928709400,11.09670947265625,2.2733206748962402,-2.408291816711426,-0.7842929363250732
1789323913947560400,11.115560546875,2.5265002250671387,-2.086660385131836,-1.0211844444274902
1789323913966411300,11.134411376953125,3.0484066009521484,-1.256241798400879,-1.8432104587554932
1789323913985262300,11.153262451171875,3.014047622680664,-0.7713308334350586,-2.122720241546631
1789323914004113200,11.172113037109375,1.957303524017334,-0.8298454284667969,-1.636481523513794
1789323914022964200,11.190964111328125,1.5411195755004883,-0.7258825302124023,-0.4055969715118408
1789323914041815300,11.209815185546875,2.064600944519043,-0.608738899230957,0.005643129348754883
1789323914060666000,11.228666015625,1.2311601638793945,-0.520050048828125,-0.05431699752807617
1789323914079517200,11.24751708984375,0.24817752838134766,-0.0017299652099609375,0.6110622882843018
1789323914098368000,11.266367919921874,-0.1250009536743164,0.1580047607421875,0.5368163585662842
1789323914117219000,11.285218994140624,0.10279703140258789,-0.14467430114746094,0.49022960662841797
1789323914136070100,11.304070068359374,0.32272911071777344,-1.012929916381836,0.18624258041381836
1789323914154921000,11.3229208984375,0.2987842559814453,-1.7250580787658691,0.046469688415527344
1789323914173772000,11.34177197265625,0.9119467735290527,-2.1518259048461914,-0.5621170997619629
1789323914192622800,11.360622802734374,1.4912610054016113,-2.548384666442871,-0.9371023178100586
1789323914211474000,11.379473876953124,1.6779789924621582,-2.9573845863342285,-1.6191797256469727
1789323914230324700,11.39832470703125,1.0436344146728516,-2.795527935028076,-2.073291540145874
1789323914249175800,11.41717578125,0.27939271926879883,-1.7499446868896484,-2.2482717037200928
1789323914268026600,11.436026611328124,-0.06576156616210938,-0.34229278564453125,-1.4063329696655273
1789323914286877700,11.454877685546874,-0.48099708557128906,0.4847598075866699,-0.6145164966583252
1789323914305728500,11.473728515625,-0.961482048034668,0.5357108116149902,-0.19904017448425293
1789323914324579600,11.49257958984375,-1.5350561141967773,0.061511993408203125,-0.7579333782196045
1789323914343430700,11.5114306640625,-1.431826114654541,-0.3122444152832031,-0.3732280731201172
1789323914362281500,11.530281494140626,-0.6937904357910156,-1.3140816688537598,-0.02501082420349121
1789323914381132500,11.549132568359376,-0.35068464279174805,-1.512953281402588,0.10230708122253418
1789323914399983400,11.5679833984375,-1.1782007217407227,-0.42000770568847656,0.8669483661651611
1789323914418834400,11.58683447265625,-1.5542316436767578,0.22307586669921875,1.0404107570648193
1789323914437685200,11.605685302734376,-0.4066591262817383,0.8738505840301514,-0.2987990379333496
1789323914456536300,11.624536376953126,-0.5772294998168945,-0.3718414306640625,-1.005913257598877
1789323914475387100,11.64338720703125,-1.5369858741760254,-0.7801282405853271,0.36646485328674316
1789323914494238200,11.66223828125,-2.6088976860046387,-0.07280254364013672,1.020734429359436
1789323914513089000,11.681089111328125,-2.221909523010254,0.26154303550720215,1.2639167308807373
1789323914531940000,11.699940185546875,-3.7879858016967773,0.2181406021118164,0.9959708452224731
1789323914550791200,11.718791259765625,-2.6945228576660156,1.1070027351379395,1.2711230516433716
1789323914569642000,11.73764208984375,-4.862563610076904,0.9841141700744629,1.758219599723816
1789323914588493000,11.7564931640625,-4.684342384338379,2.030590534210205,2.7577996253967285
1789323914607343900,11.77534375,-4.587716102600098,1.9062319993972778,3.4953389167785645
1789323914626195000,11.79419482421875,-2.2456283569335938,2.8728020191192627,3.2717607021331787
1789323914645045800,11.813045654296875,-2.5143961906433105,2.485412359237671,2.858161211013794
1789323914663896800,11.831896728515625,-1.9273386001586914,2.1858677864074707,1.2927093505859375
1789323914682747600,11.85074755859375,-2.180009365081787,1.8335380554199219,0.9540214538574219
1789323914701598700,11.8695986328125,1.3342294692993164,1.4337995052337646,0.33789777755737305
1789323914720449500,11.888449462890625,-0.010653018951416016,0.5294694900512695,-0.23372507095336914
1789323914739300600,11.907300537109375,-0.4023466110229492,-0.7955946922302246,-1.5044336318969727
1789323914758151400,11.9261513671875,1.179793357849121,-4.037251949310303,-0.9472489356994629
1789323914777002500,11.94500244140625,0.8230409622192383,-5.266617774963379,-1.7268803119659424
1789323914795853300,11.963853271484375,0.11427736282348633,-4.826681137084961,-0.979163408279419
1789323914814704400,11.982704345703125,-1.0326251983642578,-2.6123666763305664,-0.3657994270324707
1789323914833555200,12.00155517578125,0.2975754737854004,-0.303194522857666,-0.023375988006591797
1789323914852406300,12.02040625,1.847780704498291,0.8470602035522461,-0.29619431495666504
1789323914871257000,12.039257080078125,1.5938634872436523,0.6405386924743652,-1.7526228427886963
1789323914890108200,12.058108154296875,1.4038000106811523,-0.8007392883300781,-2.5903778076171875
1789323914908959000,12.076958984375,2.142230987548828,-2.6893434524536133,-1.9427154064178467
1789323914927810000,12.09581005859375,2.0322160720825195,-3.507388114929199,-0.8711354732513428
1789323914946660900,12.114660888671875,1.849752426147461,-2.5756349563598633,0.21985507011413574
1789323914965512000,12.133511962890625,1.825007438659668,-1.6215124130249023,0.16198372840881348
1789323914993788400,12.161788330078124,1.6965513229370117,-1.8569755554199219,0.3697166442871094
1789323915012639200,12.18063916015625,2.44858455657959,-1.6703720092773438,-0.684999942779541
1789323915031490300,12.199490234375,1.914083480834961,-1.1627159118652344,-0.45847225189208984
1789323915050341000,12.218341064453124,1.325427532196045,-0.4978609085083008,-0.40059423446655273
1789323915069192200,12.237192138671874,0.4321579933166504,-0.33780956268310547,0.5467453002929688
1789323915088043000,12.25604296875,0.3413119316101074,-0.24633502960205078,0.34683966636657715
1789323915125745000,12.293744873046874,-0.587432861328125,-0.2718052864074707,-0.20578217506408691
1789323915144595700,12.312595703125,-1.0453848838806152,-0.19283628463745117,-0.010982513427734375
1789323915163446800,12.33144677734375,-0.5024504661560059,-0.18702125549316406,-0.4896237850189209
1789323915182297600,12.350297607421876,0.10695457458496094,-0.2436542510986328,0.030373096466064453
1789323915201148700,12.369148681640626,1.3574118614196777,-0.987968921661377,-0.4458296298980713
1789323915219999500,12.38799951171875,1.4093704223632812,-1.9493293762207031,-0.7206964492797852
1789323915238850600,12.4068505859375,1.5658354759216309,-2.2691726684570312,-1.2649202346801758
1789323915257701400,12.425701416015626,1.2795557975769043,-2.671191692352295,-1.1351864337921143
1789323915276552400,12.444552490234376,1.150059700012207,-3.222975254058838,-1.824777603149414
1789323915295403300,12.4634033203125,0.6568050384521484,-2.625021457672119,-1.252420425415039
1789323915314254000,12.482254150390625,-0.7107033729553223,-0.985137939453125,-1.5509216785430908
1789323915333105200,12.501105224609375,-0.7367672920227051,-0.5207533836364746,-0.21049118041992188
1789323915351956000,12.5199560546875,-1.891167163848877,0.032439231872558594,0.2741663455963135
1789323915370807000,12.53880712890625,-2.857931613922119,1.8927507400512695,1.3343210220336914
1789323915389657900,12.557657958984375,-2.313035011291504,1.0348529815673828,0.540402889251709
1789323915408509000,12.576509033203125,-1.5345115661621094,0.24116754531860352,0.8966343402862549
1789323915427359700,12.59535986328125,-3.707103729248047,-0.03360271453857422,1.487478494644165
1789323915446210800,12.6142109375,-2.5579676628112793,0.38635969161987305,2.339266061782837
1789323915465061600,12.6330615234375,-3.4260964393615723,0.28408288955688477,2.4033846855163574
1789323915483912700,12.65191259765625,-2.7124266624450684,1.1973357200622559,1.9118010997772217
1789323915502763500,12.670763427734375,-2.453464984893799,1.3057141304016113,2.463932991027832
1789323915521614300,12.6896142578125,-1.068467140197754,1.343261957168579,0.6945871114730835
1789323915540465400,12.70846533203125,-2.300520896911621,1.5117154121398926,1.642748475074768
1789323915559316200,12.727316162109375,-2.3913187980651855,1.3785144090652466,-0.2411501407623291
1789323915578167300,12.746167236328125,-2.30637788772583,0.8010034561157227,1.7578469514846802
1789323915597018000,12.76501806640625,-1.4849486351013184,1.2255141735076904,1.2241744995117188
1789323915615869000,12.783868896484375,-3.7571845054626465,1.2135112285614014,1.6318433284759521
1789323915634720000,12.802719970703125,-1.624495506286621,1.8567612171173096,1.995970606803894
1789323915653570800,12.82157080078125,-2.1701254844665527,2.0444042682647705,1.71918785572052
1789323915672422000,12.840421875,-1.1941194534301758,2.1749823093414307,1.5734772682189941
1789323915691272700,12.859272705078125,-1.9272899627685547,2.2368574142456055,0.9747428894042969
1789323915710123500,12.87812353515625,-0.0784597396850586,1.4228062629699707,0.11287617683410645
1789323915728974600,12.896974609375,-0.6087923049926758,-0.594810962677002,0.311708927154541
1789323915747825400,12.915825439453124,0.9908771514892578,-2.1460604667663574,-1.0042221546173096
1789323915766676500,12.934676513671874,-0.5281119346618652,-3.641960620880127,-0.9316635131835938
1789323915785527300,12.95352734375,0.35357093811035156,-4.034279823303223,-1.426910638809204
1789323915804378000,12.972378173828124,0.1888880729675293,-4.207879066467285,-1.4032855033874512
1789323915823229200,12.991229248046874,0.6350278854370117,-3.600947856903076,-1.180774450302124
1789323915842080000,13.010080078125,1.8942523002624512,-2.263279914855957,-0.933039665222168
1789323915860931000,13.02893115234375,2.490847110748291,-1.3640365600585938,-0.9490230083465576
1789323915879782000,13.047781982421874,2.8587121963500977,-1.0124988555908203,-0.7939958572387695
1789323915898632700,13.0666328125,2.499673843383789,-1.0283164978027344,-1.4490723609924316
1789323915917483800,13.08548388671875,2.851492404937744,-0.788609504699707,-1.450430154800415
1789323915936334600,13.10433447265625,2.6731481552124023,-0.6610784530639648,-1.4119136333465576
1789323915955185700,13.123185546875,1.5530424118041992,-0.40383243560791016,-0.5030038356781006
1789323915974036500,13.142036376953126,1.5616788864135742,-0.4248065948486328,-0.1946864128112793
1789323915992887300,13.16088720703125,1.139000415802002,-0.30419158935546875,0.5588283538818359
1789323916011738400,13.17973828125,1.3716626167297363,-0.8055315017700195,-0.27486395835876465
1789323916030589200,13.198589111328126,0.5150938034057617,-0.9870119094848633,0.9651905298233032
1789323916049440000,13.21743994140625,0.6152539253234863,-1.0948705673217773,0.3311583995819092
1789323916068291000,13.236291015625,0.4696941375732422,-0.9110188484191895,0.6675126552581787
1789323916087142000,13.255141845703125,0.9811444282531738,-0.8539977073669434,-0.5643041133880615
1789323916105992700,13.27399267578125,0.8140945434570312,-1.4279017448425293,-0.5599339008331299
1789323916124843800,13.29284375,1.7780799865722656,-1.9424657821655273,-1.4423446655273438
1789323916143694600,13.311694580078125,1.9021105766296387,-3.104933261871338,-1.405996322631836
1789323916162545400,13.33054541015625,1.780083179473877,-3.331353187561035,-2.505326509475708
1789323916181396500,13.349396484375,0.06609106063842773,-2.6329727172851562,-2.055979013442993
1789323916200247300,13.368247314453125,-1.093461036682129,-0.8842644691467285,-1.0271437168121338
1789323916219098000,13.38709814453125,-1.778904914855957,0.5680422782897949,-0.17353034019470215
1789323916237949200,13.40594921875,-1.0894112586975098,0.6645851135253906,-0.04037165641784668
1789323916256800000,13.424800048828125,-0.4521064758300781,-0.5186882019042969,0.20013856887817383
1789323916285076200,13.453076171875,0.5874786376953125,-1.480757236480713,-0.2601768970489502
1789323916313352700,13.481352783203125,-0.3675699234008789,-2.1719703674316406,1.129939317703247
1789323916332203500,13.50020361328125,-2.645522117614746,0.08958673477172852,1.0503606796264648
1789323916351054600,13.5190546875,-2.482424736022949,1.0084152221679688,0.3042569160461426
1789323916369905400,13.537905517578125,-1.47930908203125,1.2111804485321045,0.0873568058013916
1789323916388756200,13.556756103515625,-1.1629180908203125,0.22179365158081055,0.4988112449645996
1789323916407607300,13.575607177734375,-3.5704526901245117,0.6026401519775391,0.8946958780288696
1789323916426458000,13.5944580078125,-3.6399760246276855,1.844243049621582,1.2500957250595093
1789323916445309000,13.613308837890624,-3.304964542388916,1.6710585355758667,1.5858768224716187
1789323916483010800,13.6510107421875,-2.710787773132324,0.4704587459564209,1.6418626308441162
1789323916501861600,13.669861572265624,-3.637373924255371,1.423807144165039,2.0001301765441895
1789323916520712400,13.68871240234375,-1.6041560173034668,1.551606297492981,2.1543357372283936
1789323916539563500,13.7075634765625,-2.6286697387695312,0.7219023704528809,1.727817416191101
1789323916558414300,13.726414306640624,-2.563754081726074,0.9648847579956055,2.112030506134033
1789323916577265200,13.74526513671875,-1.562230110168457,1.5286729335784912,1.7001233100891113
1789323916596116000,13.764115966796876,-0.3958749771118164,1.6269111633300781,1.6532319784164429
1789323916614967000,13.782967041015626,-1.1485586166381836,1.146589756011963,1.1397373676300049
1789323916633817900,13.80181787109375,-1.9339642524719238,0.7890334129333496,0.7117853164672852
1789323916652668700,13.820668701171876,-1.589996337890625,0.21874237060546875,0.04344296455383301
1789323916671519700,13.839519775390626,-0.7022438049316406,-0.7039279937744141,0.00993490219116211
1789323916690370600,13.85837060546875,-0.7424197196960449,-0.6091198921203613,-0.29016709327697754
1789323916709221400,13.877221435546875,-1.576108455657959,0.04301023483276367,-0.15393900871276855
1789323916728072400,13.896072509765625,1.042947769165039,0.6545343399047852,0.20919466018676758
1789323916746923300,13.91492333984375,2.3059606552124023,0.2551112174987793,-0.6801104545593262
1789323916765774000,13.933774169921875,0.7381024360656738,-2.59426212310791,-3.10395884513855
1789323916784625000,13.952625,0.031595706939697266,-5.909241676330566,-3.6388232707977295
1789323916803475700,13.971475830078125,2.723785400390625,-7.316279888153076,-2.0386478900909424
1789323916822326800,13.990326904296875,3.8346338272094727,-7.324934959411621,0.7763597965240479
1789323916841177600,14.009177490234375,2.534102439880371,-2.162766456604004,0.3805093765258789
1789323916860028400,14.0280283203125,2.661482334136963,-0.06787395477294922,-0.9042446613311768
1789323916878879200,14.046879150390625,3.4090161323547363,-0.07573223114013672,-1.5092551708221436
1789323916897730300,14.065730224609375,2.3849925994873047,-0.3977823257446289,-1.395707130432129
1789323916916581000,14.0845810546875,1.090928077697754,-0.1813211441040039,-0.3489499092102051
1789323916935432000,14.103431884765625,0.8126711845397949,0.333038330078125,0.4404304027557373
1789323916954283000,14.122282958984375,0.670201301574707,0.32630348205566406,0.48490118980407715
1789323916973133800,14.1411337890625,0.5535664558410645,0.03938007354736328,0.28000307083129883
1789323916991984600,14.159984619140625,0.18308496475219727,-0.13839435577392578,0.04212665557861328
1789323917010835500,14.17883544921875,0.39657163619995117,-0.2701883316040039,0.03748631477355957
1789323917029686300,14.197686279296875,0.7107033729553223,-0.8682284355163574,-0.42410874366760254
1789323917048537300,14.216537353515625,1.1769990921020508,-1.7396578788757324,-0.7969996929168701
1789323917067388200,14.23538818359375,1.1705732345581055,-2.529323101043701,-1.1303317546844482
1789323917086239000,14.254239013671874,1.0094852447509766,-2.411405086517334,-0.7946569919586182
1789323917105089800,14.27308984375,0.42991209030151367,-2.054011344909668,-0.6006865501403809
1789323917123940900,14.29194091796875,0.35062646865844727,-1.5257749557495117,-1.1136102676391602
1789323917142791700,14.310791748046874,-0.2395310401916504,-1.401639461517334,-1.6789896488189697
1789323917161642500,14.329642578125,0.03686332702636719,-0.7467317581176758,-1.7962961196899414
1789323917180493300,14.348493408203124,0.6144604682922363,-0.6974201202392578,-1.0841197967529297
1789323917199344000,14.36734423828125,1.099912166595459,-1.5970025062561035,-0.8404946327209473
1789323917218195200,14.3861953125,-0.030803203582763672,-2.2175254821777344,-0.9239101409912109
1789323917237046000,14.4050458984375,-1.4226808547973633,-1.5923080444335938,-0.9558167457580566
1789323917255896800,14.423896728515626,-1.9835195541381836,-1.4066052436828613,0.9043715000152588
1789323917274747600,14.44274755859375,-3.444911479949951,0.8861186504364014,0.8697566986083984
1789323917293598700,14.4615986328125,-3.459811210632324,1.0424978733062744,1.8944263458251953
1789323917312449500,14.480449462890626,-2.582029342651367,1.510047197341919,0.4054861068725586
1789323917331300400,14.49930029296875,-0.8639316558837891,1.1470420360565186,0.7014753818511963
1789323917350151200,14.518151123046875,-1.100175380706787,0.45510077476501465,1.3409578800201416
1789323917369002000,14.537001953125,-3.4194579124450684,0.5074427127838135,1.854736089706421
1789323917387853000,14.55585302734375,-3.080747604370117,0.3472020626068115,2.152350425720215
1789323917406703900,14.574703857421875,-3.529709815979004,0.8139474391937256,0.5304772853851318
1789323917425554700,14.5935546875,-3.617326259613037,1.2466200590133667,2.072228193283081
1789323917444405500,14.612405517578125,-2.0134458541870117,1.6003752946853638,1.1496572494506836
1789323917463256300,14.63125634765625,-3.5781359672546387,1.5261847972869873,1.7171564102172852
1789323917482107400,14.650107421875,-2.2170839309692383,2.118743896484375,1.110252022743225
1789323917500958200,14.668958251953125,-1.9007978439331055,1.1355845928192139,1.573006272315979
1789323917519809000,14.68780908203125,-2.2263736724853516,0.7896018028259277,1.3179038763046265
1789323917538659800,14.706659912109375,-2.6047468185424805,0.8664145469665527,1.6312026977539062
1789323917557510700,14.7255107421875,-1.3195676803588867,1.4068431854248047,1.3391201496124268
1789323917576361500,14.744361572265625,-0.9421606063842773,1.6256885528564453,0.7191665172576904
1789323917595212500,14.763212646484375,-1.9507927894592285,1.3141632080078125,0.23618650436401367
1789323917614063400,14.7820634765625,-1.6255598068237305,0.668302059173584,0.062352657318115234
1789323917632914200,14.8009140625,-0.30721139907836914,-0.6358489990234375,-0.41435861587524414
1789323917651765000,14.819764892578124,0.9644618034362793,-1.3545856475830078,0.20729994773864746
1789323917670615800,14.83861572265625,-0.201995849609375,-1.4543514251708984,-0.6540019512176514
1789323917689467000,14.857466796875,-0.825289249420166,-2.091949939727783,-1.087899923324585
1789323917708317700,14.876317626953124,0.33830976486206055,-3.1362085342407227,-1.3949015140533447
1789323917727168500,14.89516845703125,0.8327312469482422,-3.989006519317627,-2.0022687911987305
1789323917746019300,14.914019287109374,1.5492024421691895,-3.2998905181884766,-2.230617046356201
1789323917764870100,14.9328701171875,1.854426383972168,-1.9243526458740234,-1.2632131576538086
1789323917783721000,14.951720947265626,3.3620152473449707,-1.2638092041015625,-0.7799458503723145
1789323917802571800,14.97057177734375,2.9271349906921387,-1.683065414428711,-0.6109917163848877
1789323917821422600,14.989422607421876,2.5913000106811523,-0.8464088439941406,-1.263899326324463
1789323917840273700,15.008273681640626,1.6214790344238281,0.010755538940429688,-1.203794002532959
1789323917859124500,15.02712451171875,1.7061424255371094,0.3293018341064453,-0.722515344619751
1789323917877975300,15.045975341796876,1.2470817565917969,-0.1291341781616211,0.15358591079711914
1789323917896826000,15.064826171875,1.6248812675476074,-0.9449663162231445,-0.14472508430480957
1789323917915677000,15.083677001953125,2.779694080352783,-2.080000877380371,-0.3877296447753906
1789323917934527700,15.10252783203125,2.556511402130127,-2.560861587524414,-0.2821204662322998
1789323917953378600,15.121378662109375,1.353559970855713,-1.9101324081420898,-0.39731621742248535
1789323917972229400,15.1402294921875,0.7989444732666016,-1.0595169067382812,-0.5974009037017822
1789323917991080400,15.15908056640625,0.08574199676513672,-0.8216557502746582,-0.14654970169067383
1789323918009931300,15.17793115234375,0.04778099060058594,-0.43160009384155273,-0.527165412902832
1789323918028782000,15.196781982421875,0.009821414947509766,-1.2598557472229004,-0.5780854225158691
1789323918047633000,15.2156328125,0.4222602844238281,-1.2580628395080566,-0.7376060485839844
1789323918066483700,15.234483642578125,0.6737546920776367,-1.4335780143737793,-0.5252134799957275
1789323918085334500,15.25333447265625,0.11787939071655273,-1.6341910362243652,-0.22965693473815918
1789323918104185300,15.272185302734375,-0.3199334144592285,-1.267777919769287,-0.32446837425231934
1789323918123036200,15.2910361328125,-0.4131617546081543,-0.7052741050720215,-0.024335622787475586
1789323918141887000,15.309886962890625,0.7108469009399414,-0.6229047775268555,-0.8543410301208496
1789323918160737800,15.32873779296875,0.3736124038696289,-2.312591552734375,-1.7768011093139648
1789323918179588600,15.347588623046875,0.22408294677734375,-2.28395414352417,-2.229032278060913
1789323918198439700,15.366439697265625,0.33032655715942383,-1.4477438926696777,-0.5670948028564453
1789323918217290500,15.38529052734375,0.18485450744628906,-1.2721500396728516,0.9382178783416748
1789323918236141000,15.40414111328125,-2.1178359985351562,0.6899013519287109,1.0665409564971924
1789323918254992100,15.4229921875,-2.3398752212524414,0.4308013916015625,0.10919880867004395
1789323918273843000,15.441843017578124,-3.0407204627990723,-0.3712162971496582,-0.35715675354003906
1789323918292693800,15.46069384765625,-4.231161594390869,0.5478742122650146,2.4209022521972656
1789323918311544600,15.479544677734374,-3.1834659576416016,1.9712536334991455,3.4626736640930176
1789323918330395400,15.4983955078125,-3.0108275413513184,1.6639457941055298,3.423859119415283
1789323918349246200,15.51724609375,-4.174479007720947,1.7468934059143066,1.9060207605361938
1789323918368097000,15.536096923828126,-3.358804225921631,2.4014947414398193,2.593411684036255
1789323918386947800,15.55494775390625,-2.792017936706543,1.9452444314956665,1.499177098274231
1789323918405798700,15.573798583984376,-2.6450204849243164,1.2101913690567017,2.217008352279663
1789323918424649500,15.5926494140625,-2.400991439819336,1.1222131252288818,1.3535621166229248
1789323918443500300,15.611500244140625,-1.9711270332336426,1.24788236618042,1.0348923206329346
1789323918462351000,15.63035107421875,-1.929586410522461,0.8713295459747314,1.2426416873931885
1789323918481202000,15.649201904296875,-0.6322841644287109,0.6602327823638916,1.3149144649505615
1789323918500052700,15.668052734375,-1.146388053894043,0.47237730026245117,1.2191195487976074
1789323918518903600,15.686903564453125,-0.15343713760375977,0.9901187419891357,0.5681509971618652
1789323918537754400,15.70575439453125,-1.1548418998718262,0.8295178413391113,0.2862274646759033
1789323918556605200,15.724605224609375,0.7658176422119141,-0.09095096588134766,0.12829995155334473
1789323918584881400,15.75288134765625,0.16417551040649414,-1.7128338813781738,0.08116722106933594
1789323918603732200,15.771732177734375,-0.773190975189209,-1.8106975555419922,-0.9618356227874756
1789323918622583000,15.7905830078125,-1.3124818801879883,-1.4302592277526855,-0.9272162914276123
1789323918641433900,15.809433837890625,-1.177297592163086,-0.5551986694335938,-0.6275897026062012
1789323918660284700,15.82828466796875,-0.7767257690429688,0.44831418991088867,-0.4121525287628174
1789323918679135500,15.847135498046875,1.0591058731079102,1.1575870513916016,-0.7667920589447021
1789323918697986300,15.865986328125,2.2180142402648926,0.2928504943847656,-1.4423675537109375
1789323918716837000,15.884837158203124,2.2643847465515137,-2.0097951889038086,-2.594467878341675
1789323918735688000,15.90368798828125,2.533720016479492,-4.523799896240234,-3.3150455951690674
1789323918754538800,15.922538818359374,3.6974587440490723,-6.570055961608887,-1.6607279777526855
1789323918773389600,15.9413896484375,3.5384521484375,-6.9384660720825195,0.35266780853271484
1789323918792240400,15.960240478515624,3.195145606994629,-3.4209184646606445,-0.0029964447021484375
1789323918811091200,15.97909130859375,2.4216346740722656,-0.610529899597168,-0.9550213813781738
1789323918829942000,15.99794189453125,1.86387300491333,0.4465603828430176,-1.200038194656372
1789323918848792800,16.016792724609374,0.8396267890930176,0.8063797950744629,-0.35022664070129395
1789323918867643600,16.0356435546875,0.0809946060180664,0.981348991394043,0.8152909278869629
1789323918886494500,16.054494384765626,0.11828947067260742,1.1049256324768066,0.9421772956848145
1789323918905345300,16.07334521484375,0.11284112930297852,0.4129180908203125,1.4985275268554688
1789323918924196000,16.092196044921874,0.023588180541992188,-0.8347597122192383,0.825859546661377
1789323918943046700,16.111046630859374,-0.22110700607299805,-1.4878807067871094,0.5116970539093018
1789323918961897500,16.1298974609375,0.4818720817565918,-1.6226491928100586,-0.6037099361419678
1789323918980748300,16.148748291015625,1.0315251350402832,-1.5990643501281738,-1.1881170272827148
1789323918999599000,16.16759912109375,1.79331636428833,-1.6347966194152832,-1.6997826099395752
1789323919018450000,16.186449951171873,1.9784836769104004,-1.683276653289795,-1.955064058303833
1789323919037300700,16.20530078125,1.588994026184082,-1.6071839332580566,-2.6069345474243164
1789323919056151600,16.224151611328125,0.7405295372009277,-1.8750014305114746,-2.0118775367736816
1789323919075002400,16.24300244140625,0.4783625602722168,-1.705176830291748,-1.2484242916107178
1789323919093853200,16.261853271484377,0.09704017639160156,-2.2913670539855957,-0.9312305450439453
1789323919112704000,16.2807041015625,0.07404327392578125,-2.058694839477539,-1.5746147632598877
1789323919131554800,16.299554931640625,-0.9164972305297852,-1.3223209381103516,-0.8148934841156006
1789323919150405600,16.318405517578125,-1.6815681457519531,-1.2226405143737793,-0.22235941886901855
1789323919169256200,16.337256103515625,-3.490144729614258,2.079900026321411,0.8528015613555908
1789323919188107000,16.35610693359375,-3.7470831871032715,2.2321012020111084,1.3874801397323608
1789323919206957800,16.374957763671876,-1.8209776878356934,2.2310166358947754,1.2816327810287476
1789323919225808600,16.39380859375,-3.4308838844299316,0.5706357955932617,0.7043473720550537
1789323919244659500,16.412659423828124,-4.596989154815674,-0.03183794021606445,1.1240371465682983
1789323919263510300,16.43151025390625,-4.468059539794922,0.12023162841796875,2.6114959716796875
1789323919282361000,16.450361083984376,-3.006885528564453,0.43973517417907715,1.9673335552215576
1789323919301211600,16.469211669921876,-4.3665900230407715,1.6785775423049927,2.7233479022979736
1789323919320062500,16.4880625,-2.3507561683654785,1.6957677602767944,2.7089390754699707
1789323919338913300,16.506913330078124,-0.1767873764038086,1.3745782375335693,1.6336872577667236
1789323919357764000,16.52576416015625,-2.4578161239624023,0.8457245826721191,1.1658687591552734
1789323919376615000,16.544614990234376,-1.4061179161071777,1.3962029218673706,0.8273200988769531
1789323919395465700,16.5634658203125,-2.169182300567627,1.3255116939544678,0.5705721378326416
1789323919414316500,16.582316650390624,-1.4664340019226074,0.6651151180267334,1.1373035907745361
1789323919433167000,16.6011669921875,-1.6885995864868164,0.3988194465637207,0.9153788089752197
1789323919452018000,16.620017822265623,-1.2883377075195312,0.42452192306518555,0.8069579601287842
1789323919470868700,16.63886865234375,-2.021101474761963,0.98976731300354,0.8384857177734375
1789323919489719600,16.657719482421875,-2.0789542198181152,1.852076530456543,0.53141188621521
1789323919508570400,16.6765703125,-0.9676938056945801,1.7707536220550537,0.7362048625946045
1789323919527421000,16.6954208984375,-0.08043670654296875,1.4990792274475098,0.6211175918579102
1789323919546271700,16.714271728515627,-0.38327646255493164,1.180434226989746,-0.2300558090209961
1789323919565122600,16.73312255859375,-0.16858959197998047,-0.01588296890258789,-1.4375834465026855
1789323919583973400,16.751973388671875,0.22983312606811523,-2.427351951599121,-1.9883878231048584
1789323919602824200,16.77082421875,0.7636418342590332,-5.1848978996276855,-2.773664951324463
1789323919621674800,16.7896748046875,1.131545066833496,-6.9615325927734375,-2.659750461578369
1789323919640525600,16.808525634765626,2.686311721801758,-6.941540718078613,-1.1018071174621582
1789323919659376400,16.82737646484375,3.1569838523864746,-5.082235336303711,0.1697227954864502
1789323919678227200,16.846227294921874,3.384089469909668,-2.520517349243164,-0.5424916744232178
1789323919697078000,16.865078125,3.451305866241455,-1.3126602172851562,-1.4301397800445557
1789323919715928600,16.883928466796874,3.0098180770874023,-0.05140209197998047,-1.911397933959961
1789323919734779400,16.902779296875,1.7987594604492188,0.75970458984375,-0.72918701171875
1789323919753630200,16.921630126953126,1.5864653587341309,1.4911952018737793,0.3467850685119629
1789323919772481000,16.94048095703125,1.0800352096557617,1.3281307220458984,0.5301148891448975
1789323919791331600,16.95933154296875,0.5289764404296875,0.442354679107666,0.39760613441467285
1789323919810182400,16.978182373046874,0.1989426612854004,0.13593196868896484,0.7781274318695068
1789323919829033200,16.997033203125,-0.13691949844360352,0.04841756820678711,1.1553157567977905
1789323919847883800,17.0158837890625,0.8830890655517578,-0.48995113372802734,-0.03853130340576172
1789323919866734600,17.034734619140625,1.580766201019287,-2.123725414276123,-0.3513522148132324
1789323919885585400,17.05358544921875,2.5349302291870117,-4.078632354736328,-1.19807767868042
1789323919904436200,17.072436279296873,2.412363052368164,-4.0781569480896,-3.0735116004943848
1789323919923286800,17.091286865234373,1.3295369148254395,-2.799384593963623,-1.8119463920593262
1789323919942137600,17.1101376953125,0.7251548767089844,-2.3356704711914062,-1.2689690589904785
1789323919960988400,17.128988525390625,-0.38819074630737305,-2.4059267044067383,-0.7509865760803223
1789323919979839000,17.1478388671875,0.10611534118652344,-0.7592868804931641,-0.7465357780456543
1789323919998689800,17.166689697265625,-1.0713562965393066,-0.6285738945007324,-1.2687547206878662
1789323920017540600,17.18554052734375,-1.1270599365234375,-0.12932252883911133,-0.7767882347106934
1789323920036391400,17.204391357421876,-0.7537145614624023,-0.16919994354248047,-0.8139188289642334
1789323920055242000,17.223241943359376,-0.9530072212219238,-0.051400184631347656,0.7317745685577393
1789323920074092800,17.2420927734375,0.4909029006958008,-0.7019081115722656,0.29871129989624023
1789323920092943600,17.260943603515624,-1.258871078491211,0.4334425926208496,0.8075995445251465
1789323920111794200,17.279794189453124,-3.343329906463623,1.0201632976531982,1.1962454319000244
1789323920130645000,17.29864501953125,-4.899954319000244,2.2725656032562256,1.6582725048065186
1789323920149495800,17.317495849609376,-3.9845099449157715,0.9573192596435547,0.09550929069519043
1789323920168346400,17.336346435546876,-0.7855825424194336,1.9028979539871216,1.9801459312438965
1789323920187197200,17.355197265625,-1.6441965103149414,0.3124370574951172,0.1354219913482666
1789323920206048000,17.374048095703124,-0.7288131713867188,-0.4175572395324707,3.0058562755584717
1789323920224898600,17.392898681640624,-3.3456263542175293,-0.8211679458618164,0.10405492782592773
1789323920243749400,17.411749267578124,-2.2662410736083984,0.5967743396759033,2.01483416557312
1789323920262600200,17.43060009765625,-1.0407886505126953,1.0065667629241943,1.9677050113677979
1789323920281450800,17.44945068359375,-2.2276625633239746,0.5707049369812012,1.718984842300415
1789323920300301600,17.468301513671875,-2.859597682952881,1.2199857234954834,2.149766206741333
1789323920319152400,17.48715234375,-2.242805004119873,1.6655638217926025,1.3891745805740356
1789323920338003000,17.5060029296875,-3.0813040733337402,1.7763752937316895,1.8428070545196533
1789323920356853800,17.524853759765627,-3.9752297401428223,2.0609259605407715,1.4203364849090576
1789323920375704600,17.54370458984375,-4.34947395324707,2.3520994186401367,2.320502281188965
1789323920394555100,17.56255517578125,-2.3510866165161133,3.1811330318450928,2.5913267135620117
1789323920413406000,17.581406005859375,-1.8753814697265625,3.595318078994751,2.1173901557922363
1789323920432256500,17.600256591796875,-2.780486583709717,3.5365076065063477,0.31868410110473633
1789323920451107300,17.619107421875,-0.043886661529541016,2.506852626800537,1.000326156616211
1789323920469958000,17.6379580078125,5.835118293762207,0.3127284049987793,-1.1668081283569336
1789323920488808700,17.65680859375,0.3244028091430664,-3.9969959259033203,-4.395384788513184
1789323920507659500,17.675659423828126,-1.0295648574829102,-9.185582160949707,-6.061072826385498
1789323920526510000,17.694510009765626,-0.6925225257873535,-11.712976455688477,-3.7251744270324707
1789323920545361000,17.71336083984375,2.931224822998047,-8.27227783203125,0.7033867835998535
1789323920564211500,17.73221142578125,3.1350021362304688,-3.493938446044922,1.9587634801864624
1789323920583062300,17.751062255859374,3.511270046234131,-1.7173776626586914,-0.47496652603149414
1789323920601913000,17.7699130859375,3.175173759460449,-0.5831546783447266,-1.4589369297027588
1789323920620763600,17.788763671875,3.112776279449463,0.9572715759277344,-2.0678582191467285
1789323920639614500,17.807614501953125,1.8905267715454102,1.9326820373535156,-1.6234757900238037
1789323920658465000,17.826465087890625,1.3213069438934326,2.3091788291931152,-1.028538703918457
1789323920677315800,17.84531591796875,0.5283689498901367,1.4853487014770508,-0.1006467342376709
1789323920696166400,17.86416650390625,1.212557315826416,0.2422800064086914,-0.06794977188110352
1789323920715017200,17.883017333984377,1.4551286697387695,-1.3914003372192383,-0.22980332374572754
1789323920733867800,17.90186767578125,1.4640164375305176,-2.187652587890625,0.6098322868347168
1789323920752718600,17.920718505859377,1.71824312210083,-2.2502670288085938,0.44312405586242676
1789323920771569200,17.939569091796876,1.2153897285461426,-2.121793746948242,0.7451708316802979
1789323920790420000,17.958419921875,0.978640079498291,-1.5617413520812988,-0.22168922424316406
1789323920809270800,17.977270751953125,1.5388154983520508,-1.7564830780029297,-0.9161782264709473
1789323920828121300,17.996121337890624,2.4481453895568848,-3.0882740020751953,-1.7469284534454346
1789323920846972000,18.014971923828124,1.634549617767334,-3.9923319816589355,-2.4316868782043457
1789323920865822700,18.03382275390625,-0.0996236801147461,-2.158012866973877,-2.0746235847473145
1789323920884673500,18.052673583984376,-0.8812394142150879,0.1526174545288086,-0.6094272136688232
1789323920903524000,18.071524169921876,-1.483137607574463,1.5727291107177734,-0.5229630470275879
1789323920922374700,18.090374755859376,-1.1492719650268555,1.0636730194091797,-0.4032280445098877
1789323920941225500,18.1092255859375,-0.36855077743530273,-0.0785517692565918,-0.4162619113922119
1789323920960076000,18.128075927734375,-0.013118267059326172,-1.1729612350463867,-1.1806910037994385
1789323920978926800,18.1469267578125,0.3102126121520996,-2.43259859085083,-1.144946813583374
1789323920997777400,18.16577734375,1.205657958984375,-2.82126522064209,-0.542736291885376
1789323921016628200,18.184628173828123,1.0103445053100586,-3.1413021087646484,0.3534994125366211
1789323921035478800,18.203478759765623,-1.8116273880004883,-1.0099940299987793,-0.1062319278717041
1789323921054329600,18.22232958984375,-2.5032429695129395,-0.09547185897827148,0.07383561134338379
1789323921073180200,18.24118017578125,-3.4214696884155273,1.4553771018981934,0.29320406913757324
1789323921092031000,18.260031005859375,-2.196723461151123,2.356576681137085,1.0532488822937012
1789323921110881500,18.278881591796875,-3.4687604904174805,0.7220067977905273,0.8422170877456665
1789323921129732000,18.297732177734375,-4.58125638961792,0.15504121780395508,1.276422142982483
1789323921148583000,18.3165830078125,-6.381052494049072,1.0027825832366943,2.849809169769287
1789323921167433500,18.33543359375,-4.797739028930664,2.778651237487793,3.6348588466644287
1789323921186284300,18.3542841796875,-0.05767250061035156,2.579127788543701,4.8610758781433105
1789323921205134800,18.373134765625,-3.5206756591796875,1.8669754266738892,1.415626049041748
1789323921223985700,18.391985595703126,-2.795149326324463,2.212820291519165,2.265899658203125
1789323921242836200,18.410836181640626,-0.4106893539428711,1.6644632816314697,0.36624836921691895
1789323921261686800,18.429686767578126,-1.706991195678711,0.6698060035705566,1.0999653339385986
1789323921280537600,18.44853759765625,-3.049724578857422,0.7889673709869385,0.7387762069702148
1789323921299388200,18.46738818359375,-2.2919278144836426,1.1941359043121338,0.761725902557373
1789323921318239000,18.486239013671874,-0.6291317939758301,0.49582386016845703,1.024543046951294
1789323921337089500,18.505089599609374,-1.4037370681762695,0.08870363235473633,0.4154243469238281
1789323921355940000,18.523940185546873,-1.717878818511963,0.12608718872070312,0.20242714881896973
1789323921374791000,18.542791015625,-0.056262969970703125,0.39122629165649414,0.437117338180542
1789323921393641500,18.561641357421873,0.8800444602966309,1.1042132377624512,-0.3848154544830322
1789323921412492300,18.5804921875,0.3759803771972656,0.6870889663696289,-0.36156272888183594
1789323921431342800,18.5993427734375,-0.5946488380432129,-1.170377254486084,-1.245567798614502
1789323921450193400,18.618193359375,0.5306100845336914,-4.549620628356934,-1.6806771755218506
1789323921469044200,18.637044189453125,0.32691049575805664,-6.932758331298828,-2.441012144088745
1789323921487894800,18.655894775390625,1.0162076950073242,-6.1621270179748535,-1.4888665676116943
1789323921506745300,18.674745361328124,1.4932570457458496,-2.5983543395996094,0.31534314155578613
1789323921525596200,18.69359619140625,1.678584098815918,0.45400094985961914,0.193878173828125
1789323921544446700,18.71244677734375,2.387892246246338,1.0636425018310547,-0.9229116439819336
1789323921563297300,18.73129736328125,2.9238057136535645,-0.2098674774169922,-1.6863040924072266
1789323921582147800,18.75014794921875,3.5393943786621094,-1.4138422012329102,-2.1015024185180664
1789323921600998700,18.76899853515625,3.247809410095215,-2.053431510925293,-2.209259510040283
1789323921619849200,18.78784912109375,2.7277984619140625,-1.680497169494629,-0.7590258121490479
1789323921638699800,18.80669970703125,1.3326807022094727,-0.3435688018798828,0.40724921226501465
1789323921657550600,18.825550537109375,1.5191102027893066,0.20925426483154297,0.41649341583251953
1789323921676401200,18.844401123046875,1.4847044944763184,-0.9697675704956055,-0.18380212783813477
1789323921695251700,18.863251708984375,0.9521493911743164,-1.5933284759521484,-0.24248623847961426
1789323921714102500,18.8821025390625,1.3663239479064941,-1.71795654296875,-0.5788910388946533
1789323921732953000,18.900953125,1.1356382369995117,-2.181788921356201,-0.8660027980804443
1789323921751803600,18.9198037109375,0.1750025749206543,-2.056270122528076,-0.9708340167999268
1789323921770654200,18.938654296875,-0.9721822738647461,-1.6657319068908691,-0.32808947563171387
1789323921789505000,18.957505126953127,-1.1294574737548828,-0.6811585426330566,0.08877253532409668
1789323921817781000,18.985781005859376,0.6499576568603516,-0.003719329833984375,-0.6173839569091797
1789323921836631600,19.004631591796876,1.5424389839172363,-1.5595459938049316,-1.6213419437408447
1789323921855482000,19.023482177734376,1.5182719230651855,-2.20235538482666,-1.9398455619812012
1789323921874332700,19.042332763671876,1.1499333381652832,-2.1466259956359863,-1.4539966583251953
1789323921893183500,19.06118359375,0.19867610931396484,-2.2831034660339355,-0.862877607345581
1789323921912034000,19.080033935546876,-1.7235870361328125,-1.427058219909668,-1.140362024307251
1789323921930884600,19.098884521484376,-2.673862934112549,-0.4054446220397949,-0.4541952610015869
1789323921949735200,19.117735107421876,-2.446847438812256,0.4878730773925781,0.4546229839324951
1789323921968585700,19.136585693359375,-1.2153258323669434,1.481410264968872,2.1373133659362793
1789323921987436500,19.1554365234375,-0.8586540222167969,0.08263063430786133,1.3857793807983398
1789323922006287000,19.174287109375,-1.4572200775146484,-0.010633707046508789,0.06036996841430664
1789323922025137700,19.1931376953125,-2.822094440460205,0.34149765968322754,0.4923369884490967
1789323922043988200,19.21198828125,-3.6685285568237305,0.5949440002441406,2.430795192718506
1789323922062838800,19.2308388671875,-3.9434142112731934,0.8294641971588135,3.0319302082061768
1789323922081689300,19.249689453125,-2.670564651489258,1.8298286199569702,2.631040573120117
1789323922100540200,19.2685400390625,-3.138794422149658,1.7399405241012573,2.1298675537109375
1789323922119390700,19.287390625,-3.8354263305664062,1.6612662076950073,0.8355197906494141
1789323922138241300,19.3062412109375,-3.094573497772217,1.1397500038146973,2.7821123600006104
1789323922157091800,19.325091796875,-2.3170900344848633,1.6653130054473877,2.131484270095825
1789323922175942400,19.3439423828125,-2.4041690826416016,2.0228283405303955,2.4256980419158936
1789323922194793200,19.362793212890626,-1.9811105728149414,1.9326591491699219,2.0294313430786133
1789323922213643800,19.381643798828126,-2.591409206390381,1.5153112411499023,1.4870936870574951
1789323922232494300,19.400494384765626,-1.1211614608764648,1.7417371273040771,1.241312026977539
1789323922251345000,19.419344970703126,-1.474576473236084,1.8121633529663086,0.8639199733734131
1789323922270195500,19.438195556640625,-1.602691650390625,1.6444997787475586,0.6976721286773682
1789323922289046000,19.4570458984375,-1.7926416397094727,0.8581647872924805,0.6390416622161865
1789323922307896600,19.475896484375,0.16694974899291992,-0.6664714813232422,0.22095632553100586
1789323922326747400,19.494747314453125,0.4744110107421875,-1.938079833984375,-0.9306421279907227
1789323922345598000,19.513597900390625,0.20420265197753906,-2.659313201904297,-1.1275458335876465
1789323922364448500,19.532448486328125,-0.3713388442993164,-3.3222579956054688,-1.0436758995056152
1789323922383299000,19.551299072265625,0.4817514419555664,-3.971177101135254,-1.9860060214996338
1789323922402149600,19.570149658203125,1.6339612007141113,-4.804740905761719,-1.9441313743591309
1789323922421000200,19.589000244140625,2.0442190170288086,-3.589390754699707,-2.1069064140319824
1789323922439850800,19.607850830078124,2.562173843383789,-1.832758903503418,-1.859609603881836
1789323922458701300,19.626701416015624,3.697916030883789,-1.416769027709961,-1.1003098487854004
1789323922477551900,19.6455517578125,2.98850679397583,-2.360769271850586,-0.8326611518859863
1789323922496402400,19.66440234375,2.036404848098755,-2.261648178100586,-1.1631035804748535
1789323922515253000,19.6832529296875,2.2294399738311768,-1.2650260925292969,-0.6629936695098877
1789323922543529000,19.711529052734374,2.469529151916504,-0.8505792617797852,0.3223731517791748
1789323922562379500,19.730379638671874,2.066779613494873,-0.6236743927001953,0.073760986328125
1789323922581230000,19.74922998046875,1.7078046798706055,0.3700828552246094,0.1381981372833252
1789323922600080600,19.76808056640625,1.5457348823547363,0.5249338150024414,-0.5100164413452148
1789323922618931200,19.78693115234375,0.9161925315856934,-0.3679494857788086,-0.6335568428039551
1789323922637781800,19.80578173828125,0.3182401657104492,-0.8093724250793457,-0.481234073638916
1789323922656632300,19.82463232421875,0.7186627388000488,-0.9651780128479004,-1.0419769287109375
1789323922675483000,19.84348291015625,0.974940299987793,-1.6505775451660156,-0.9893143177032471
1789323922694333400,19.86233349609375,0.5547909736633301,-2.5171213150024414,-0.6799871921539307
1789323922713184000,19.88118408203125,0.8052811622619629,-2.7973341941833496,-0.28095459938049316
1789323922732034600,19.90003466796875,1.2384915351867676,-2.6316356658935547,-0.3875429630279541
1789323922750885000,19.918885009765624,0.6781630516052246,-2.392763137817383,-0.5779764652252197
1789323922769735700,19.937735595703124,0.1697549819946289,-1.1501474380493164,-1.2915525436401367
1789323922788586200,19.956586181640624,-0.573451042175293,-0.619351863861084,-0.8551483154296875
1789323922807436800,19.975436767578124,-0.38181066513061523,-0.5519523620605469,-0.5161910057067871
1789323922826287400,19.994287353515624,-0.728034496307373,-1.2526073455810547,-0.45607948303222656
1789323922845138000,20.013137939453124,-1.2978439331054688,-0.8637642860412598,-0.32769036293029785
1789323922863988500,20.031988525390624,-0.5078616142272949,-0.4630155563354492,0.9270100593566895
1789323922882839000,20.050839111328123,-1.4004249572753906,0.5540964603424072,1.3484160900115967
1789323922901689600,20.069689697265623,-2.5040392875671387,0.9530525207519531,0.626657247543335
1789323922920540200,20.0885400390625,-3.0191831588745117,0.4566771984100342,-0.4377400875091553
1789323922939390700,20.107390625,-2.1522159576416016,1.0791122913360596,0.029878616333007812
1789323922958241300,20.1262412109375,-2.3442583084106445,0.7181186676025391,1.1871212720870972
1789323922977091800,20.145091796875,-2.1515417098999023,-0.00986790657043457,1.7828441858291626
1789323922995942400,20.1639423828125,-3.710745334625244,0.31307268142700195,1.5227282047271729
1789323923014793000,20.18279296875,-3.4530510902404785,0.7126152515411377,2.977571487426758
1789323923033643500,20.2016435546875,-3.932401180267334,1.574925184249878,1.3906104564666748
1789323923052494000,20.220494140625,-2.804861068725586,2.4261865615844727,3.0649356842041016
1789323923071344600,20.2393447265625,-3.265404224395752,2.809558868408203,1.2897275686264038
1789323923090195200,20.2581953125,-3.1275172233581543,2.5428953170776367,2.3630566596984863
1789323923109045500,20.27704541015625,-2.658177375793457,2.248117446899414,1.1365280151367188
1789323923127896000,20.29589599609375,-1.810849666595459,1.582184076309204,1.7953143119812012
1789323923146746600,20.31474658203125,-2.868826389312744,1.4346809387207031,1.1178510189056396
1789323923165597200,20.33359716796875,-2.1341466903686523,1.3945419788360596,1.5668752193450928
1789323923184447700,20.35244775390625,-0.2826194763183594,1.0387156009674072,1.0793921947479248
1789323923203298300,20.37129833984375,0.1764531135559082,0.8877396583557129,0.09608602523803711
1789323923222148900,20.39014892578125,0.18027114868164062,-0.7470126152038574,-0.407470703125
1789323923240999400,20.40899951171875,0.06293392181396484,-1.9649176597595215,-1.6679482460021973
1789323923278700300,20.4467001953125,0.9418716430664062,-4.111437797546387,-1.837846279144287
1789323923297550800,20.46555078125,-0.18317699432373047,-4.3161468505859375,-2.6062803268432617
1789323923316401400,20.4844013671875,0.05289888381958008,-3.4506282806396484,-1.7582073211669922
1789323923335252000,20.503251953125,0.8117637634277344,-1.2359519004821777,-0.8597030639648438
1789323923354102500,20.5221025390625,2.280529499053955,0.8981151580810547,-1.0838806629180908
1789323923372953000,20.540953125,2.450603485107422,0.46286487579345703,-1.1360423564910889
1789323923391803600,20.5598037109375,2.03463077545166,-1.477492332458496,-2.1171929836273193
1789323923410654200,20.578654296875,2.4821958541870117,-2.7127676010131836,-1.601667881011963
1789323923429504500,20.59750439453125,2.4875426292419434,-2.226944923400879,-0.40485048294067383
1789323923448355000,20.61635498046875,1.340075969696045,-1.304091453552246,0.49185800552368164
1789323923467205600,20.63520556640625,2.2631802558898926,-1.0360660552978516,-0.7540900707244873
1789323923486056200,20.65405615234375,1.764634609222412,-1.2442598342895508,-0.30958127975463867
1789323923504906800,20.67290673828125,1.955073356628418,-1.4333086013793945,-0.472151517868042
1789323923523757000,20.691757080078126,1.1919517517089844,-1.9784870147705078,0.4938018321990967
1789323923542607600,20.710607666015626,1.1263961791992188,-1.4089040756225586,0.027840852737426758
1789323923561458200,20.729458251953126,0.44744253158569336,-0.8938889503479004,-0.44713878631591797
1789323923589734000,20.75773388671875,0.10327625274658203,-1.284803867340088,-0.8876430988311768
1789323923608584400,20.77658447265625,0.17371749877929688,-1.1345720291137695,-1.489861249923706
1789323923627435000,20.79543505859375,0.29440736770629883,-0.7077951431274414,-0.8963477611541748
1789323923646285600,20.81428564453125,0.6597428321838379,-0.5201902389526367,-0.30240345001220703
1789323923665135900,20.833135986328124,0.7353339195251465,-0.35065507888793945,0.011841535568237305
1789323923683986400,20.851986328125,0.6360807418823242,-0.6749677658081055,-0.23780226707458496
1789323923702837000,20.8708369140625,0.44190311431884766,-1.4557619094848633,-0.7195391654968262
1789323923721687600,20.8896875,0.02877664566040039,-2.4000234603881836,-1.2152106761932373
1789323923740537900,20.908537841796875,0.09592485427856445,-2.7548413276672363,-1.4945449829101562
1789323923759388400,20.927388427734375,0.4439582824707031,-2.084188938140869,-1.284850835800171
1789323923778239000,20.946239013671875,1.1123218536376953,-1.9252281188964844,-1.1237094402313232
1789323923797089500,20.965089599609374,-0.5002365112304688,-0.7071423530578613,0.08817744255065918
1789323923815939800,20.98393994140625,-3.363420009613037,2.141186237335205,0.7400853633880615
1789323923834790400,21.002790283203126,-2.788590908050537,2.1555521488189697,0.851088285446167
1789323923853641000,21.021640869140626,-2.4253411293029785,1.7025840282440186,-0.000027894973754882812
1789323923872491300,21.0404912109375,-3.2178544998168945,-0.1615753173828125,1.3280781507492065
1789323923891341800,21.059341796875,-3.8664464950561523,-0.6679167747497559,2.936706304550171
1789323923919617500,21.087617431640624,-3.7739639282226562,0.6554436683654785,2.068176746368408
1789323923938468000,21.106468017578123,-5.097352027893066,1.1228315830230713,1.6637029647827148
1789323923957318700,21.125318603515623,-4.703088283538818,1.7161859273910522,1.7784225940704346
1789323923976169200,21.144169189453127,-1.0785512924194336,1.7219945192337036,2.720620632171631
1789323923995019500,21.16301953125,-4.017344951629639,1.5075585842132568,1.1345375776290894
1789323924013870000,21.1818701171875,-3.1820173263549805,1.6630680561065674,2.414205551147461
1789323924032720400,21.200720458984375,-2.832245349884033,1.6837303638458252,1.3555572032928467
1789323924051571000,21.219571044921874,-2.1838760375976562,1.4649906158447266,2.5763683319091797
1789323924070421500,21.23842138671875,-2.011906623840332,1.970381736755371,1.8300408124923706
1789323924089272000,21.25727197265625,-0.4504203796386719,2.3471267223358154,1.5288498401641846
1789323924108122400,21.276122314453126,0.34769105911254883,1.8164598941802979,0.277268648147583
1789323924126973000,21.294972900390626,-1.0694093704223633,1.1517610549926758,-0.21350336074829102
1789323924145823500,21.313823486328126,0.44251537322998047,-0.5369062423706055,-1.8845081329345703
1789323924164673800,21.332673828125,1.833371639251709,-4.0669169425964355,-1.7539796829223633
1789323924183524400,21.3515244140625,0.3161916732788086,-5.1035261154174805,-2.7088441848754883
1789323924202374700,21.370374755859373,-1.211395263671875,-4.04023551940918,-2.094404458999634
1789323924221225200,21.38922509765625,0.07296609878540039,-1.9817914962768555,-0.5324010848999023
1789323924240075800,21.40807568359375,1.2285809516906738,0.295992374420166,-0.3910388946533203
1789323924258926000,21.426926025390625,2.2090706825256348,1.1431212425231934,-1.1140844821929932
1789323924277776600,21.445776611328125,2.371609687805176,0.3933534622192383,-2.038851022720337
1789323924296627200,21.464627197265624,1.6140785217285156,-1.071115493774414,-2.9621713161468506
1789323924315477500,21.4834775390625,1.8397445678710938,-1.9747676849365234,-1.949082612991333
1789323924334328000,21.502328125,1.9623560905456543,-1.7707862854003906,-0.18952035903930664
1789323924353178600,21.5211787109375,2.098649024963379,-1.0082130432128906,0.542809247970581
1789323924372029000,21.54002880859375,2.7010416984558105,-1.3860235214233398,-0.7915570735931396
1789323924390879500,21.55887939453125,1.4269895553588867,-2.908299446105957,-1.1048271656036377
1789323924409729800,21.577729736328124,1.3465924263000488,-1.8258485794067383,-0.41669249534606934
1789323924428580400,21.596580322265623,1.487473487854004,-0.9756326675415039,-0.20571041107177734
1789323924447430700,21.6154306640625,0.7519822120666504,-0.30353260040283203,-0.3980100154876709
1789323924466281200,21.63428125,0.45600366592407227,-0.1518082618713379,-0.43827104568481445
1789323924485131800,21.6531318359375,0.89788818359375,-0.1743946075439453,-0.8911254405975342
1789323924503982000,21.671982177734375,0.9651408195495605,-0.7734384536743164,-1.1854188442230225
1789323924522832600,21.69083251953125,1.0283780097961426,-1.2067875862121582,-1.9048817157745361
1789323924541683000,21.709682861328126,0.590578556060791,-2.12371826171875,-1.8412013053894043
1789323924560533500,21.728533447265626,0.31552553176879883,-2.3438801765441895,-1.4230496883392334
1789323924579384000,21.747384033203126,0.17361068725585938,-1.8919878005981445,-1.734614610671997
1789323924598234400,21.766234375,-0.11668729782104492,-1.2924370765686035,-1.5871076583862305
1789323924617084700,21.785084716796874,-0.7792353630065918,-0.9795713424682617,-1.0373830795288086
1789323924635935200,21.803935302734374,-0.34554100036621094,-0.5593118667602539,-1.077810287475586
1789323924654785500,21.82278564453125,0.08201789855957031,-1.5071191787719727,-0.7858285903930664
1789323924673636000,21.841635986328125,0.8659138679504395,-1.8526382446289062,-0.3100264072418213
1789323924692486700,21.860486572265625,0.5926933288574219,-1.7801709175109863,-0.44490504264831543
1789323924711337000,21.8793369140625,0.019141197204589844,-1.4557909965515137,0.07542753219604492
1789323924730187500,21.8981875,-1.6101880073547363,0.029750347137451172,0.5486223697662354
1789323924749037800,21.917037841796876,-2.1758675575256348,0.19440722465515137,-0.1803903579711914
1789323924767888400,21.935888427734376,-2.7096076011657715,0.5524632930755615,-1.3208503723144531
1789323924786738700,21.95473876953125,-2.5278658866882324,1.1150407791137695,1.1377874612808228
1789323924805589200,21.97358935546875,-3.5276665687561035,-0.15047407150268555,1.6120682954788208
1789323924824439600,21.992439453125,-4.460668087005615,0.24390125274658203,3.0946717262268066
1789323924843290000,22.0112900390625,-6.584643363952637,1.451198697090149,2.272059917449951
1789323924862140400,22.030140380859375,-3.570089817047119,2.0257256031036377,3.688901901245117
1789323924880991000,22.048990966796875,-4.713892936706543,1.3348572254180908,2.5055885314941406
1789323924899841300,22.06784130859375,-4.357964038848877,2.469515800476074,2.1200430393218994
1789323924918691800,22.08669189453125,-3.1784896850585938,2.328753709793091,2.507202625274658
1789323924937542100,22.105542236328127,-0.8117771148681641,2.191511869430542,1.3978710174560547
1789323924956392700,22.124392822265627,-3.6247811317443848,1.2098305225372314,1.1094541549682617
1789323924975243000,22.143242919921875,-1.7270374298095703,1.395509958267212,1.6806433200836182
1789323924994093300,22.16209326171875,-0.9992647171020508,1.6647446155548096,0.7968666553497314
1789323925012944000,22.18094384765625,0.04295063018798828,1.03212308883667,0.5818781852722168
1789323925031794200,22.199794189453126,-1.9889092445373535,0.5032773017883301,-0.3800694942474365
1789323925050644700,22.218644775390626,-0.5886502265930176,-0.918393611907959,-0.37961316108703613
1789323925069495000,22.2374951171875,1.0237736701965332,-2.315770149230957,-0.9252500534057617
1789323925088345600,22.256345703125,-0.667027473449707,-2.2333621978759766,-0.7142541408538818
1789323925107196000,22.27519580078125,-0.6158804893493652,-1.8891525268554688,-0.6175007820129395
1789323925126046500,22.29404638671875,0.22849464416503906,-2.243743896484375,-0.04222583770751953
1789323925144896800,22.312896728515625,0.1985793113708496,-2.070960521697998,-1.1823639869689941
1789323925163747000,22.3317470703125,1.1365180015563965,-1.7194743156433105,-1.8286352157592773
1789323925182597600,22.35059765625,2.752437114715576,-1.7835569381713867,-2.116382598876953
1789323925201448000,22.369447998046876,2.8250041007995605,-2.790496826171875,-2.390873432159424
1789323925220298500,22.388298583984376,2.6882433891296387,-3.739461898803711,-1.8459203243255615
1789323925239148800,22.407148681640624,3.0668387413024902,-2.859853744506836,-0.5080921649932861
1789323925257999000,22.4259990234375,2.7004799842834473,-1.3697519302368164,0.9284579753875732
1789323925276849700,22.444849609375,2.018826484680176,-0.7924051284790039,0.5879054069519043
1789323925295700000,22.463699951171876,1.8119173049926758,-0.43256282806396484,-0.09172201156616211
1789323925314550300,22.48255029296875,2.0992956161499023,0.001590728759765625,-0.2444918155670166
1789323925333400800,22.50140087890625,2.224672794342041,0.14228248596191406,-0.6360681056976318
1789323925352251100,22.520251220703123,1.8893342018127441,0.1276388168334961,-0.6251020431518555
1789323925371101700,22.539101806640623,1.4666519165039062,-0.14676284790039062,-0.751328706741333
1789323925389952000,22.557951904296875,0.9123735427856445,-0.48720836639404297,-0.16735434532165527
1789323925408802300,22.57680224609375,0.5339174270629883,-1.061598300933838,-0.14693045616149902
1789323925427652900,22.59565283203125,0.3091869354248047,-1.5999422073364258,0.005185365676879883
1789323925446503200,22.614503173828126,0.14870357513427734,-2.351170063018799,-0.381317138671875
1789323925465353500,22.633353515625,-0.00967264175415039,-2.869089126586914,-0.3613271713256836
1789323925484204000,22.6522041015625,0.7352819442749023,-2.480494499206543,-0.7840723991394043
1789323925503054300,22.671054443359374,1.457514762878418,-1.9162168502807617,-0.8506317138671875
1789323925521905000,22.68990478515625,2.1989784240722656,-1.2011804580688477,-0.5448446273803711
1789323925540755200,22.708755126953125,2.2002182006835938,-1.7977938652038574,-1.1808884143829346
1789323925559605500,22.72760546875,0.8727507591247559,-2.8381271362304688,-1.6238138675689697
1789323925578455800,22.746455810546873,-0.3400578498840332,-2.7954320907592773,-2.3292438983917236
1789323925597306400,22.765306396484377,-1.533921718597412,-1.8110690116882324,-1.2637255191802979
1789323925616156700,22.78415673828125,-2.534419059753418,-1.0636405944824219,0.26389360427856445
1789323925635007000,22.803007080078125,-2.5304384231567383,0.054814815521240234,0.7926628589630127
1789323925653857500,22.821857421875,-4.2367939949035645,1.555159568786621,1.6701666116714478
1789323925672707800,22.840707763671876,-2.3400726318359375,2.8647141456604004,1.9655436277389526
1789323925691558100,22.85955810546875,-1.6440010070800781,2.4029974937438965,1.7933156490325928
1789323925710408700,22.87840869140625,-1.8185672760009766,0.020479440689086914,2.1561667919158936
1789323925729259000,22.897259033203124,-4.225991725921631,-0.35976481437683105,2.340977191925049
1789323925748109300,22.916109375,-3.1515402793884277,1.3048003911972046,2.1820878982543945
1789323925766959600,22.934959716796875,-3.1051859855651855,1.3167216777801514,1.815022587776184
1789323925785810200,22.95381005859375,-2.634444236755371,1.124627947807312,1.3451685905456543
1789323925804660500,22.972660400390627,-2.6423583030700684,1.8387283086776733,2.0970888137817383
1789323925823510800,22.9915107421875,-1.7708640098571777,2.0565133094787598,1.5997778177261353
1789323925842361300,23.010361328125,-1.085303783416748,1.9946119785308838,1.5124082565307617
1789323925861211600,23.029211669921875,-3.3144431114196777,1.136425256729126,0.8845219612121582
1789323925880062000,23.04806201171875,-1.5528826713562012,1.1177542209625244,2.36314058303833
1789323925898912300,23.066912353515626,-1.8241395950317383,1.2371799945831299,1.1750233173370361
1789323925917762800,23.0857626953125,-1.7690629959106445,1.0557734966278076,2.003988742828369
1789323925936613000,23.104613037109374,-1.8721833229064941,1.7342674732208252,1.5446512699127197
1789323925955463400,23.12346337890625,-1.476830005645752,1.9970908164978027,1.0668160915374756
1789323925974313700,23.142313720703125,-0.16772222518920898,1.1949577331542969,-0.419417142868042
1789323925993164000,23.1611640625,-0.2222127914428711,0.01561880111694336,0.016638755798339844
1789323926012014600,23.1800146484375,-0.8615579605102539,-1.365495204925537,-1.0522658824920654
1789323926030865000,23.198864990234377,-1.107327938079834,-2.2807888984680176,-1.067809820175171
1789323926049715200,23.217715087890625,0.22816753387451172,-3.0258007049560547,-1.5606458187103271
1789323926068565500,23.2365654296875,0.7617087364196777,-3.7626876831054688,-1.8387947082519531
1789323926087416000,23.255416015625,1.5231127738952637,-4.088407039642334,-1.9951670169830322
1789323926106266400,23.274266357421876,2.4439477920532227,-4.579273223876953,-2.235121011734009
1789323926125116700,23.29311669921875,3.3712925910949707,-4.614707946777344,-1.5168349742889404
1789323926143967000,23.311967041015624,3.274110794067383,-2.9898900985717773,-1.3044712543487549
1789323926162817300,23.3308173828125,2.9649810791015625,-1.1384172439575195,-1.389225959777832
1789323926181667800,23.349667724609375,2.508087396621704,-0.30065059661865234,-1.3525629043579102
1789323926200518100,23.36851806640625,2.205508232116699,0.2423229217529297,-1.062798261642456
1789323926219368400,23.387368408203123,1.7018156051635742,0.45803070068359375,-0.05968356132507324
1789323926238218800,23.40621875,1.7161240577697754,0.48012733459472656,0.26070094108581543
1789323926257069000,23.425069091796875,1.0705451965332031,0.25577354431152344,0.48808884620666504
1789323926275919400,23.44391943359375,0.5868077278137207,0.4067091941833496,0.31180763244628906
1789323926294770000,23.46277001953125,0.09029483795166016,0.4829292297363281,0.6005685329437256
1789323926313620200,23.4816201171875,0.12333011627197266,0.06315994262695312,0.3727571964263916
1789323926332470500,23.500470458984374,0.5772433280944824,-0.6747503280639648,-0.49364471435546875
1789323926351320800,23.51932080078125,0.9708852767944336,-2.215674877166748,-1.1244683265686035
1789323926370171100,23.538171142578125,1.4395828247070312,-3.27445125579834,-1.748042106628418
1789323926389021400,23.557021484375,1.5739545822143555,-3.2532615661621094,-2.122295618057251
1789323926407871700,23.575871826171873,1.4801945686340332,-3.173473834991455,-1.2218437194824219
1789323926426722000,23.59472216796875,1.5034737586975098,-3.179558277130127,-1.0756590366363525
1789323926445572600,23.613572509765625,0.9575328826904297,-2.500814437866211,-1.5382411479949951
1789323926464423000,23.6324228515625,0.026952743530273438,-1.617929458618164,-2.329913854598999
1789323926483273200,23.651273193359376,-0.7041425704956055,-1.0034255981445312,-1.2238597869873047
1789323926502123500,23.67012353515625,-0.3676905632019043,-0.44518423080444336,-0.5946192741394043
1789323926520973800,23.688973876953124,-1.1169185638427734,-0.004848957061767578,0.4088573455810547
1789323926539824000,23.70782421875,-2.1122612953186035,-0.6421504020690918,0.9990346431732178
1789323926558674400,23.72667431640625,-3.394294261932373,1.280031442642212,1.0729124546051025
1789323926577525000,23.74552490234375,-3.441277027130127,0.9168825149536133,1.3669768571853638
1789323926596375300,23.764375244140624,-2.7965574264526367,1.349557876586914,0.6458830833435059
1789323926615225600,23.7832255859375,-3.2240614891052246,0.4805009365081787,1.7732666730880737
1789323926634076000,23.802075927734375,-3.385314464569092,0.5589165687561035,1.7964740991592407
1789323926652926200,23.82092626953125,-3.2381176948547363,1.3336992263793945,2.8036153316497803
1789323926671776500,23.839776611328126,-2.4669761657714844,1.4286876916885376,2.1627209186553955
1789323926690626800,23.858626708984374,-1.9346284866333008,1.152123212814331,1.2145767211914062
1789323926709477000,23.87747705078125,-4.067752361297607,1.546472191810608,2.1319713592529297
1789323926728327400,23.896327392578126,-1.4502854347229004,2.0266013145446777,1.4801816940307617
1789323926747177700,23.915177734375,-1.2365174293518066,1.1816821098327637,1.004115343093872
1789323926766028000,23.934028076171874,-2.3961596488952637,0.7628490924835205,0.9814598560333252
1789323926784878300,23.95287841796875,-2.825500011444092,0.5621492862701416,1.7795295715332031
1789323926803728600,23.971728759765625,-1.881016731262207,1.0450010299682617,1.8722121715545654
1789323926822579000,23.990578857421873,-2.2403197288513184,1.1917757987976074,1.9172189235687256
1789323926841429200,24.00942919921875,-1.932785987854004,1.3291616439819336,1.9086625576019287
1789323926860279600,24.028279541015625,-1.903491497039795,1.856459379196167,2.344540596008301
