time,seconds_elapsed,z,y,x
1789031863817818600,0.053818603515625,-0.13609135150909424,0.1395900547504425,-0.2807604670524597
1789031863827821800,0.06382177734375,-0.12244904786348343,0.12801729142665863,-0.3277098536491394
1789031863837825500,0.073825439453125,-0.10460960119962692,0.08579134941101074,-0.3466989994049072
1789031863847828700,0.083828857421875,-0.09424271434545517,0.04126515984535217,-0.3341991901397705
1789031863857831700,0.093831787109375,-0.09825874119997025,0.0074434466660022736,-0.28875845670700073
1789031863867835600,0.103835693359375,-0.10907810181379318,0.009598742239177227,-0.21857166290283203
1789031863877838600,0.113838623046875,-0.12185145914554596,0.04379095509648323,-0.1401260793209076
1789031863887841800,0.123841796875,-0.13302794098854065,0.08422733098268509,-0.07424959540367126
1789031863897845800,0.133845703125,-0.1506066620349884,0.12372682243585587,-0.03894249349832535
1789031863907848700,0.1438486328125,-0.16458985209465027,0.1459820568561554,-0.027018453925848007
1789031863917851600,0.1538515625,-0.18183401226997375,0.14345033466815948,-0.024837156757712364
1789031863927854600,0.1638544921875,-0.18672651052474976,0.10676342993974686,-0.013092083856463432
1789031863937858600,0.173858642578125,-0.20284588634967804,0.05899900197982788,0.007664679549634457
1789031863947861800,0.18386181640625,-0.2737901210784912,0.038792531937360764,0.016707710921764374
1789031863957864700,0.19386474609375,-0.3549904227256775,0.012350254692137241,0.03966311737895012
1789031863967868700,0.20386865234375,-0.40024179220199585,-0.024167809635400772,0.08287183940410614
1789031863977871600,0.21387158203125,-0.437703400850296,-0.04623141884803772,0.13301704823970795
1789031863987874800,0.223874755859375,-0.500651478767395,-0.018462371081113815,0.16836784780025482
1789031863997878500,0.23387841796875,-0.5886712670326233,0.009313271380960941,0.16296900808811188
1789031864007881700,0.2438818359375,-0.6866527199745178,0.006454899907112122,0.11618952453136444
1789031864017884700,0.253884765625,-0.7797880172729492,-0.03188016638159752,0.051579639315605164
1789031864027888600,0.263888671875,-0.8561282753944397,-0.10661271959543228,-0.011903727427124977
1789031864037891600,0.2738916015625,-0.9124049544334412,-0.1856607049703598,-0.06745459139347076
1789031864047894800,0.283894775390625,-0.9413841366767883,-0.2585948407649994,-0.12671393156051636
1789031864057897500,0.2938974609375,-0.9694762229919434,-0.2902851104736328,-0.18799512088298798
1789031864067901700,0.303901611328125,-1.0378717184066772,-0.2740646004676819,-0.21089351177215576
1789031864077904600,0.313904541015625,-1.0905351638793945,-0.13054628670215607,-0.2935582995414734
1789031864087907600,0.323907470703125,-1.1220582723617554,-0.0840299129486084,-0.3046053647994995
1789031864097911600,0.33391162109375,-1.1336333751678467,-0.00706980936229229,-0.3301580846309662
1789031864107914800,0.343914794921875,-1.1254266500473022,0.11058545112609863,-0.3713558614253998
1789031864117917400,0.35391748046875,-1.057308554649353,0.24996277689933777,-0.40490081906318665
1789031864127921700,0.363921630859375,-0.9547438025474548,0.41348567605018616,-0.4440801739692688
1789031864137924600,0.373924560546875,-0.8356766104698181,0.4631406366825104,-0.47665566205978394
1789031864147927800,0.383927734375,-0.6703488826751709,0.4814314842224121,-0.550239086151123
1789031864157931500,0.393931640625,-0.5192834138870239,0.4923839569091797,-0.6383103728294373
1789031864167934700,0.403934814453125,-0.37675535678863525,0.5138572454452515,-0.7613868117332458
1789031864177937700,0.413937744140625,-0.26775190234184265,0.43646085262298584,-0.8319258689880371
1789031864187941600,0.423941650390625,-0.23210549354553223,0.3439010977745056,-0.875043511390686
1789031864197944600,0.433944580078125,-0.1987326443195343,0.311691015958786,-0.9208096861839294
1789031864207947800,0.44394775390625,-0.15862783789634705,0.33909574151039124,-0.9875894784927368
1789031864217950500,0.453950439453125,-0.11320652067661285,0.3782232701778412,-1.0448554754257202
1789031864227954700,0.46395458984375,-0.08876003324985504,0.40020662546157837,-1.0836490392684937
1789031864237957600,0.47395751953125,-0.07907307147979736,0.43176424503326416,-1.1180986166000366
1789031864247960600,0.483960693359375,-0.07013870030641556,0.4535052180290222,-1.1247724294662476
1789031864257964500,0.493964599609375,-0.06250392645597458,0.45807161927223206,-1.122489333152771
1789031864267967700,0.5039677734375,-0.08359775692224503,0.4717024862766266,-1.1059538125991821
1789031864277970400,0.513970458984375,-0.10589884221553802,0.48383376002311707,-1.094352126121521
1789031864287974700,0.523974609375,-0.13763919472694397,0.4813072085380554,-1.0725599527359009
1789031864297977600,0.5339775390625,-0.13707482814788818,0.45859387516975403,-1.0665003061294556
1789031864307980500,0.54398046875,-0.123536117374897,0.4091418981552124,-1.0513941049575806
1789031864317984500,0.553984619140625,-0.09564751386642456,0.36014291644096375,-1.0390703678131104
1789031864327987700,0.56398779296875,-0.03901459276676178,0.32189539074897766,-1.0401766300201416
1789031864337990700,0.57399072265625,-0.002229422563686967,0.2713295519351959,-1.0306470394134521
1789031864347993600,0.58399365234375,0.0077315992675721645,0.20127244293689728,-0.9955821633338928
1789031864357997600,0.59399755859375,0.04849555715918541,0.16506634652614594,-0.9721673727035522
1789031864368000800,0.604000732421875,0.04435594007372856,0.13952183723449707,-0.9160892367362976
1789031864378003700,0.614003662109375,0.011637155897915363,0.1555374413728714,-0.8542024493217468
1789031864388007700,0.624007568359375,-0.024010587483644485,0.1875491738319397,-0.7964488863945007
1789031864398010600,0.6340107421875,-0.06112363189458847,0.16416342556476593,-0.7058212161064148
1789031864408013600,0.644013671875,-0.032983072102069855,0.16944581270217896,-0.6347140073776245
1789031864418017500,0.654017578125,0.018526747822761536,0.22315551340579987,-0.6170732975006104
1789031864428020700,0.664020751953125,0.025697575882077217,0.2525557577610016,-0.6065236926078796
1789031864438023700,0.674023681640625,0.04619459807872772,0.2478051334619522,-0.6159369349479675
1789031864448027600,0.684027587890625,0.049274809658527374,0.268876314163208,-0.627479612827301
1789031864458030600,0.694030517578125,0.05837346985936165,0.3531269431114197,-0.6578211784362793
1789031864468033500,0.704033447265625,0.08841552585363388,0.4677366316318512,-0.7091067433357239
1789031864478036000,0.714035888671875,0.0767625942826271,0.5350639820098877,-0.7459246516227722
1789031864488039700,0.724039794921875,0.03661837428808212,0.54362952709198,-0.7728819847106934
1789031864498043000,0.73404296875,0.03502606227993965,0.5229843854904175,-0.8118118047714233
1789031864508045800,0.7440458984375,0.0002595597179606557,0.5233615040779114,-0.8276928067207336
1789031864518049800,0.7540498046875,0.00011658144649118185,0.5710613131523132,-0.8413737416267395
1789031864528052700,0.764052734375,0.049582935869693756,0.6342064142227173,-0.8685547709465027
1789031864538056000,0.774055908203125,0.06796965003013611,0.7167780995368958,-0.8990827798843384
1789031864548059600,0.7840595703125,0.09295756369829178,0.8021861910820007,-0.956188440322876
1789031864558062800,0.794062744140625,0.12440921366214752,0.8625728487968445,-1.0173649787902832
1789031864568065800,0.804065673828125,0.13920174539089203,0.8365987539291382,-1.0489448308944702
1789031864578070000,0.814070068359375,0.12680871784687042,0.7635512351989746,-1.0433835983276367
1789031864588072700,0.82407275390625,0.07327518612146378,0.7276755571365356,-1.0014585256576538
1789031864598076000,0.834075927734375,0.052603501826524734,0.7026908993721008,-0.9421155452728271
1789031864608078600,0.84407861328125,0.004064994864165783,0.7037466168403625,-0.8569948077201843
1789031864618082800,0.854082763671875,-0.05382068455219269,0.7110719084739685,-0.7634392976760864
1789031864628085800,0.864085693359375,-0.08435676246881485,0.7108559608459473,-0.7000586986541748
1789031864638088700,0.874088623046875,-0.10676619410514832,0.6540713310241699,-0.6440865397453308
1789031864648092700,0.8840927734375,-0.07623172551393509,0.6142139434814453,-0.6431903839111328
1789031864658095900,0.894095947265625,-0.08199451118707657,0.5435786247253418,-0.6128593683242798
1789031864668098800,0.904098876953125,-0.062473542988300323,0.48648950457572937,-0.5998980402946472
1789031864678102800,0.914102783203125,-0.0461215041577816,0.4406435489654541,-0.6025289297103882
1789031864688105700,0.924105712890625,-0.02265799045562744,0.40904700756073,-0.6222240328788757
1789031864698109000,0.93410888671875,-0.011405020020902157,0.38284850120544434,-0.6365265846252441
1789031864708112600,0.944112548828125,0.0026969495229423046,0.35613831877708435,-0.657232403755188
1789031864718115800,0.95411572265625,-0.001872811233624816,0.3474141061306,-0.670386791229248
1789031864728118800,0.964118896484375,-0.03218784183263779,0.33864858746528625,-0.6529691815376282
1789031864738121700,0.974121826171875,-0.03925534337759018,0.3397199213504791,-0.6168114542961121
1789031864748125700,0.984125732421875,-0.03392103314399719,0.33050060272216797,-0.5615428686141968
1789031864758129000,0.99412890625,-0.06989181786775589,0.3141125738620758,-0.4648708999156952
1789031864768131800,1.0041318359375,-0.10744904726743698,0.3121434152126312,-0.36307796835899353
1789031864778135800,1.0141357421875,-0.1465282291173935,0.31397107243537903,-0.28221672773361206
1789031864788138800,1.024138671875,-0.18204468488693237,0.24684369564056396,-0.21007436513900757
1789031864798141700,1.0341416015625,-0.18833670020103455,0.1972873955965042,-0.17474935948848724
1789031864808145700,1.044145751953125,-0.1691819131374359,0.17264622449874878,-0.17493018507957458
1789031864818148900,1.05414892578125,-0.14338995516300201,0.1504845768213272,-0.18325687944889069
1789031864828151800,1.06415185546875,-0.12966933846473694,0.09743067622184753,-0.17595049738883972
1789031864838154800,1.07415478515625,-0.12427805364131927,0.0228650514036417,-0.14260077476501465
1789031864848158700,1.08415869140625,-0.10358715802431107,-0.041073184460401535,-0.11931969970464706
1789031864858162000,1.094161865234375,-0.0958469808101654,-0.08540800213813782,-0.11264469474554062
1789031864868164900,1.104164794921875,-0.09669360518455505,-0.15361502766609192,-0.11098341643810272
1789031864878168800,1.1141689453125,-0.0891948789358139,-0.19164863228797913,-0.06471852213144302
1789031864888172000,1.124172119140625,-0.08184508979320526,-0.1884315311908722,-0.02620416134595871
1789031864898174700,1.1341748046875,-0.08404304832220078,-0.19441965222358704,0.0029748287051916122
1789031864908178700,1.1441787109375,-0.08134499937295914,-0.12117820978164673,-0.041904229670763016
1789031864918182000,1.154181884765625,-0.10395388305187225,-0.019569197669625282,-0.1481878012418747
1789031864928184800,1.164184814453125,-0.10667989403009415,0.08911919593811035,-0.2851102650165558
1789031864938188800,1.174188720703125,-0.04656783118844032,0.1292114406824112,-0.41201305389404297
1789031864948192000,1.18419189453125,-0.01779690571129322,0.10011348128318787,-0.5222487449645996
1789031864958194700,1.194194580078125,-0.043248988687992096,0.12587366998195648,-0.5713313817977905
1789031864968198000,1.204197998046875,-0.04346870258450508,0.18513353168964386,-0.5449609756469727
1789031864978201900,1.214201904296875,-0.043620750308036804,0.18282148241996765,-0.435155987739563
1789031864988204800,1.224204833984375,-0.06862783432006836,0.154794380068779,-0.2689659297466278
1789031864998207700,1.234207763671875,-0.08543824404478073,0.14032235741615295,-0.13303764164447784
1789031865008212000,1.2442119140625,-0.08083363622426987,0.1365601122379303,-0.07258148491382599
1789031865018214700,1.254214599609375,-0.044122204184532166,0.11030148714780807,-0.08696871250867844
1789031865028217900,1.2642177734375,-0.015431169420480728,0.07389554381370544,-0.14216859638690948
1789031865038221800,1.274221923828125,-0.02987915463745594,0.05296032875776291,-0.19513078033924103
1789031865048225000,1.28422509765625,-0.05802317336201668,0.07264109700918198,-0.20279642939567566
1789031865058227700,1.294227783203125,-0.06166314333677292,0.13938267529010773,-0.17620746791362762
1789031865068231000,1.30423095703125,-0.06011904776096344,0.2004108726978302,-0.1509561836719513
1789031865078235000,1.31423486328125,-0.05450458079576492,0.21862833201885223,-0.13688908517360687
1789031865088237800,1.32423779296875,-0.054341062903404236,0.21350201964378357,-0.14709138870239258
1789031865098240800,1.33424072265625,-0.053575120866298676,0.19490863382816315,-0.18247178196907043
1789031865108245000,1.344244873046875,-0.050980933010578156,0.17618821561336517,-0.2276698797941208
1789031865118247700,1.35424755859375,-0.04509379342198372,0.19498422741889954,-0.27110251784324646
1789031865128251000,1.3642509765625,-0.037896331399679184,0.2360198199748993,-0.3075564205646515
1789031865138254800,1.3742548828125,-0.04200608655810356,0.2689906656742096,-0.32233166694641113
1789031865148257800,1.3842578125,-0.0540853850543499,0.3048307001590729,-0.31781598925590515
1789031865158260700,1.3942607421875,-0.061800841242074966,0.3441278040409088,-0.3127269744873047
1789031865168264000,1.404263916015625,-0.06288713961839676,0.36327168345451355,-0.3241564631462097
1789031865178267600,1.414267578125,-0.06706082075834274,0.35913562774658203,-0.3408451974391937
1789031865188270800,1.424270751953125,-0.06317286938428879,0.34226104617118835,-0.3344900906085968
1789031865198273800,1.434273681640625,-0.05755443871021271,0.30776041746139526,-0.30784669518470764
1789031865208277800,1.44427783203125,-0.054115764796733856,0.2749726474285126,-0.2735779285430908
1789031865218280700,1.45428076171875,-0.05511685460805893,0.24584180116653442,-0.2351812869310379
1789031865228284000,1.464283935546875,-0.04668741673231125,0.22445662319660187,-0.20650143921375275
1789031865238288000,1.474287841796875,-0.03721585497260094,0.21601924300193787,-0.1885421872138977
1789031865248290800,1.484290771484375,-0.03405281901359558,0.20178945362567902,-0.18253915011882782
1789031865258293800,1.494293701171875,-0.032992854714393616,0.19609129428863525,-0.18948842585086823
1789031865268296700,1.504296630859375,-0.028289446607232094,0.19492323696613312,-0.20692679286003113
1789031865278300700,1.51430078125,-0.016862615942955017,0.19754630327224731,-0.22058217227458954
1789031865288303900,1.524303955078125,-0.007442748639732599,0.1863812655210495,-0.222397118806839
1789031865298306800,1.534306884765625,-0.005707471165806055,0.1908845603466034,-0.21784253418445587
1789031865308310800,1.544310791015625,-0.02161986008286476,0.19589290022850037,-0.2160872519016266
1789031865318313700,1.554313720703125,-0.04063139110803604,0.17370012402534485,-0.20630569756031036
1789031865328317000,1.56431689453125,-0.0533253476023674,0.13722972571849823,-0.17485003173351288
1789031865338320600,1.574320556640625,-0.056991174817085266,0.10025349259376526,-0.14887011051177979
1789031865348323800,1.58432373046875,-0.0646754577755928,0.055456724017858505,-0.1487281620502472
1789031865358326800,1.594326904296875,-0.0674683153629303,0.04833109676837921,-0.15896748006343842
1789031865368330800,1.604330810546875,-0.06596150249242783,0.0545695498585701,-0.16349458694458008
1789031865378333700,1.614333740234375,-0.07164838910102844,0.05761763080954552,-0.1575762778520584
1789031865388337000,1.6243369140625,-0.08395592868328094,0.05474328249692917,-0.14624638855457306
1789031865398339800,1.63433984375,-0.09929823130369186,0.029878122732043266,-0.13070032000541687
1789031865408343800,1.64434375,-0.11046220362186432,-0.011587562039494514,-0.11946551501750946
1789031865418347000,1.654346923828125,-0.10911668092012405,-0.035484541207551956,-0.11248549073934555
1789031865428349700,1.664349609375,-0.10976409167051315,-0.05949746444821358,-0.10124748945236206
1789031865438353700,1.674353759765625,-0.1118147224187851,-0.07719599455595016,-0.08230815827846527
1789031865448356900,1.68435693359375,-0.11619242280721664,-0.08265600353479385,-0.06097916513681412
1789031865458359800,1.69435986328125,-0.11021814495325089,-0.08652438968420029,-0.053888242691755295
1789031865468363800,1.70436376953125,-0.10146620124578476,-0.09863724559545517,-0.05585205554962158
1789031865478367200,1.7143671875,-0.08893708884716034,-0.10842157900333405,-0.05940072238445282
1789031865488370400,1.724370361328125,-0.07047045975923538,-0.12930209934711456,-0.059568241238594055
1789031865498373600,1.73437353515625,-0.037254996597766876,-0.152836412191391,-0.056583087891340256
1789031865508377300,1.74437744140625,-0.0005861981771886349,-0.18105927109718323,-0.05552634596824646
1789031865518380300,1.75438037109375,0.028105350211262703,-0.20028285682201385,-0.06116423010826111
1789031865528383500,1.764383544921875,0.04958054795861244,-0.20571410655975342,-0.07111966609954834
1789031865538387200,1.77438720703125,0.07501771301031113,-0.21553678810596466,-0.09418793022632599
1789031865548390400,1.784390380859375,0.11314991116523743,-0.2198100984096527,-0.1251264065504074
1789031865558393600,1.7943935546875,0.16124898195266724,-0.22373069822788239,-0.17044539749622345
1789031865568397600,1.8043974609375,0.19592814147472382,-0.20295564830303192,-0.2289172261953354
1789031865578400300,1.814400146484375,0.18597809970378876,-0.19359876215457916,-0.2563028633594513
1789031865588403500,1.824403564453125,0.1690044403076172,-0.1892535388469696,-0.22362267971038818
1789031865598406400,1.834406494140625,0.15936827659606934,-0.15771150588989258,-0.1642375886440277
1789031865608410400,1.844410400390625,0.15305311977863312,-0.13040503859519958,-0.13377581536769867
1789031865618413600,1.85441357421875,0.14966775476932526,-0.10097077488899231,-0.14994260668754578
1789031865628416300,1.864416259765625,0.1654384583234787,-0.07853018492460251,-0.20817795395851135
1789031865638420200,1.874420166015625,0.17877109348773956,-0.08977440744638443,-0.252013623714447
1789031865648423400,1.88442333984375,0.19289836287498474,-0.12323888391256332,-0.2626958191394806
1789031865658426400,1.89442626953125,0.20996996760368347,-0.1310160607099533,-0.25017863512039185
1789031865668430300,1.904430419921875,0.22375182807445526,-0.13815279304981232,-0.2461271584033966
1789031865678433500,1.91443359375,0.21278096735477448,-0.16078107059001923,-0.25912103056907654
1789031865688436500,1.9244365234375,0.2092898190021515,-0.17505082488059998,-0.291288286447525
1789031865698439400,1.934439453125,0.2213381677865982,-0.19144763052463531,-0.33978891372680664
1789031865708443400,1.944443359375,0.257380872964859,-0.21856233477592468,-0.3848133683204651
1789031865718446600,1.954446533203125,0.29221880435943604,-0.25900936126708984,-0.4150264859199524
1789031865728449300,1.96444921875,0.3280329704284668,-0.28271016478538513,-0.4173111915588379
1789031865738453500,1.97445361328125,0.33085137605667114,-0.26864534616470337,-0.4008648097515106
1789031865748456400,1.98445654296875,0.3214959502220154,-0.29724743962287903,-0.42918992042541504
1789031865758459400,1.99445947265625,0.3067854940891266,-0.35990390181541443,-0.4545200765132904
1789031865768463400,2.00446337890625,0.30137020349502563,-0.3910764753818512,-0.4660997688770294
1789031865778466600,2.014466552734375,0.30188071727752686,-0.4152207374572754,-0.4853386878967285
1789031865788469200,2.02446923828125,0.28476324677467346,-0.40767785906791687,-0.505466878414154
1789031865798472400,2.034472412109375,0.23864103853702545,-0.3909912705421448,-0.5141066908836365
1789031865808476400,2.044476318359375,0.16641931235790253,-0.36753788590431213,-0.5154523849487305
1789031865818479400,2.054479248046875,0.10196175426244736,-0.36598125100135803,-0.5116352438926697
1789031865828482300,2.064482421875,0.07889744639396667,-0.3415595293045044,-0.5045248866081238
1789031865838486500,2.074486572265625,0.0864107608795166,-0.31576013565063477,-0.4902024567127228
1789031865848489500,2.084489501953125,0.08325332403182983,-0.27834218740463257,-0.4718934893608093
1789031865858492400,2.094492431640625,0.06013284996151924,-0.24336014688014984,-0.46545612812042236
1789031865868496400,2.104496337890625,0.037297312170267105,-0.2647722363471985,-0.46451708674430847
1789031865878499600,2.11449951171875,0.046368569135665894,-0.2950739562511444,-0.4430016875267029
1789031865888502300,2.124502197265625,0.03791676089167595,-0.34483590722084045,-0.41290581226348877
1789031865898505500,2.13450537109375,0.027149025350809097,-0.35542070865631104,-0.3556140065193176
1789031865908509400,2.144509521484375,0.021002983674407005,-0.32918909192085266,-0.2766994833946228
1789031865918512400,2.154512451171875,0.019676972180604935,-0.32001444697380066,-0.2208273857831955
1789031865928515300,2.164515380859375,0.018179211765527725,-0.32867157459259033,-0.1863463819026947
1789031865938519600,2.17451953125,-0.0017696950817480683,-0.2666008472442627,-0.1793372482061386
1789031865948522200,2.184522216796875,-0.039259545505046844,-0.17378780245780945,-0.19160324335098267
1789031865958525400,2.194525390625,-0.053436074405908585,-0.10101216286420822,-0.21843433380126953
1789031865968529400,2.204529296875,-0.059403952211141586,-0.08533813059329987,-0.2696162760257721
1789031865978532400,2.214532470703125,-0.04991596192121506,-0.0870605930685997,-0.3026362359523773
1789031865988535300,2.224535400390625,-0.0448751300573349,-0.07148350030183792,-0.29925641417503357
1789031865998538500,2.23453857421875,-0.03843880072236061,-0.06887447088956833,-0.2690596282482147
1789031866008542200,2.244542236328125,-0.08431867510080338,-0.057430874556303024,-0.21823666989803314
1789031866018545400,2.25454541015625,-0.2042086124420166,-0.03586119785904884,-0.14546255767345428
1789031866028548400,2.26454833984375,-0.3092831075191498,-0.028235502541065216,-0.07819962501525879
1789031866038552600,2.274552490234375,-0.373908668756485,-0.017242614179849625,-0.016329394653439522
1789031866048555300,2.28455517578125,-0.42385146021842957,-0.007860830053687096,0.03908992558717728
1789031866058558500,2.294558349609375,-0.41399961709976196,-0.026391783729195595,0.06502804160118103
1789031866068562400,2.3045625,-0.39400914311408997,-0.07034140080213547,0.10158045589923859
1789031866078565400,2.3145654296875,-0.37723812460899353,-0.1735706627368927,0.13468724489212036
1789031866088568600,2.324568603515625,-0.36418330669403076,-0.26206669211387634,0.18067577481269836
1789031866098571300,2.3345712890625,-0.3339438736438751,-0.31843873858451843,0.26812249422073364
1789031866108575200,2.3445751953125,-0.30036354064941406,-0.32992789149284363,0.3615379333496094
1789031866118578400,2.354578369140625,-0.2726510465145111,-0.41323593258857727,0.4339453876018524
1789031866128581400,2.364581298828125,-0.21737819910049438,-0.5535520315170288,0.46201831102371216
1789031866138585300,2.37458544921875,-0.14623340964317322,-0.7151381969451904,0.4478316009044647
1789031866148588500,2.384588623046875,-0.08114202320575714,-0.8383402824401855,0.4143330156803131
1789031866158591500,2.394591552734375,-0.03410795331001282,-0.8734480738639832,0.37010034918785095
1789031866168595200,2.40459521484375,-0.014638911932706833,-0.8193544745445251,0.3063434660434723
1789031866178598400,2.414598388671875,0.0004977114731445909,-0.688484251499176,0.2170220911502838
1789031866188601600,2.4246015625,0.004713495261967182,-0.5327920913696289,0.1266099065542221
1789031866198604300,2.434604248046875,0.00755489245057106,-0.3909090757369995,0.032201025635004044
1789031866208608500,2.4446083984375,-0.00039517658296972513,-0.28575149178504944,-0.08875522762537003
1789031866218611500,2.454611572265625,0.010427884757518768,-0.23393458127975464,-0.2263340950012207
1789031866228614400,2.464614501953125,0.06056775152683258,-0.1527654230594635,-0.3598407506942749
1789031866238618400,2.474618408203125,0.1556209772825241,-0.08567706495523453,-0.4502811133861542
1789031866248621600,2.48462158203125,0.24312977492809296,-0.025564193725585938,-0.4882364869117737
1789031866258624300,2.494624267578125,0.29427748918533325,0.0636303648352623,-0.4848695695400238
1789031866268627500,2.50462744140625,0.29125159978866577,0.16950194537639618,-0.448324054479599
1789031866278631400,2.51463134765625,0.262011855840683,0.30802202224731445,-0.4119110703468323
1789031866288634400,2.52463427734375,0.13991524279117584,0.42579394578933716,-0.40128347277641296
1789031866298637300,2.53463720703125,-0.12401784956455231,0.45665839314460754,-0.41310739517211914
1789031866308641500,2.5446416015625,-0.28165459632873535,0.3239581286907196,-0.4348161518573761
1789031866318644200,2.554644287109375,-0.3213205635547638,0.09231678396463394,-0.4592985510826111
1789031866328647400,2.5646474609375,-0.3330930471420288,-0.12403975427150726,-0.39676567912101746
1789031866338651400,2.5746513671875,-0.32457515597343445,-0.2476159781217575,-0.22513830661773682
1789031866348654600,2.584654541015625,-0.288739949464798,-0.27003446221351624,-0.0023302636109292507
1789031866358657300,2.5946572265625,-0.23715883493423462,-0.1830432415008545,0.21925120055675507
1789031866368660500,2.604660400390625,-0.19043153524398804,-0.07360996305942535,0.44563961029052734
1789031866378664400,2.61466455078125,-0.11769094318151474,-0.0943262055516243,0.6935926079750061
1789031866388667400,2.62466748046875,-0.04921281337738037,-0.24952217936515808,0.9489681720733643
1789031866398670300,2.63467041015625,0.007174221333116293,-0.39813804626464844,1.1574509143829346
1789031866408674600,2.644674560546875,0.004851146135479212,-0.45331183075904846,1.2407686710357666
1789031866418677200,2.65467724609375,-0.01813080720603466,-0.468050479888916,1.1666525602340698
1789031866428680400,2.664680419921875,-0.03046603687107563,-0.4326504170894623,0.961241602897644
1789031866438684400,2.674684326171875,-0.0776384249329567,-0.3984204828739166,0.6936968564987183
1789031866448687400,2.684687255859375,-0.10079221427440643,-0.32278910279273987,0.3833158016204834
1789031866458690300,2.694690185546875,-0.13236604630947113,-0.22087736427783966,0.051394760608673096
1789031866468693500,2.704693603515625,-0.15977290272712708,-0.04059040918946266,-0.32457807660102844
1789031866478697700,2.71469775390625,-0.16807109117507935,0.1527164727449417,-0.660595715045929
1789031866488700700,2.72470068359375,-0.13642315566539764,0.32309994101524353,-0.88885098695755
1789031866498703600,2.73470361328125,-0.0800086110830307,0.4187283217906952,-1.0542452335357666
1789031866508707800,2.744707763671875,-0.007611906621605158,0.43471822142601013,-1.1344988346099854
1789031866518710500,2.75471044921875,0.040001481771469116,0.41892173886299133,-1.1822960376739502
1789031866528713700,2.764713623046875,0.06928001344203949,0.35761308670043945,-1.2175909280776978
1789031866538716700,2.774716552734375,0.10606889426708221,0.25383755564689636,-1.2709935903549194
1789031866548720600,2.784720703125,0.17674599587917328,0.1916322261095047,-1.30411696434021
1789031866558723600,2.7947236328125,0.28204283118247986,0.1509220004081726,-1.3116145133972168
1789031866568726800,2.804726806640625,0.42221617698669434,0.15375667810440063,-1.3072706460952759
1789031866578730500,2.81473046875,0.5520039796829224,0.2468825727701187,-1.2866487503051758
1789031866588733700,2.824733642578125,0.6767584681510925,0.36871767044067383,-1.2596684694290161
1789031866598736600,2.834736572265625,0.8062021732330322,0.4820789694786072,-1.252967119216919
1789031866608740900,2.844740966796875,0.9019436240196228,0.564864456653595,-1.2660813331604004
1789031866618743600,2.85474365234375,0.9137662053108215,0.6492137908935547,-1.316243290901184
1789031866628746800,2.864746826171875,0.8510559797286987,0.6780409216880798,-1.3855398893356323
1789031866638749700,2.874749755859375,0.7714820504188538,0.6512486934661865,-1.4398797750473022
1789031866648753700,2.884753662109375,0.6892915368080139,0.5825915932655334,-1.4442164897918701
1789031866658756600,2.894756591796875,0.5857217311859131,0.44369783997535706,-1.3894627094268799
1789031866668759600,2.904759521484375,0.5107356309890747,0.2736677825450897,-1.2772693634033203
1789031866678763500,2.914763427734375,0.4908091425895691,0.18581028282642365,-1.1208356618881226
1789031866688766700,2.9247666015625,0.5127165913581848,0.1796160340309143,-0.944416344165802
1789031866698770000,2.93477001953125,0.534243106842041,0.18061316013336182,-0.7560679316520691
1789031866708772600,2.944772705078125,0.5383385419845581,0.15990282595157623,-0.5972617864608765
1789031866718776600,2.954776611328125,0.5088357329368591,0.09481395035982132,-0.46501028537750244
1789031866728779800,2.96477978515625,0.3945472836494446,-0.009188083931803703,-0.33730530738830566
1789031866738782700,2.97478271484375,0.245442196726799,-0.11702198535203934,-0.18530800938606262
1789031866748786700,2.98478662109375,0.1062675267457962,-0.19304218888282776,0.005431307014077902
1789031866758790000,2.994789794921875,-0.009845421649515629,-0.24462997913360596,0.21885988116264343
1789031866768792600,3.00479248046875,-0.06968957930803299,-0.33513006567955017,0.4572561979293823
1789031866778796800,3.014796875,-0.09700355678796768,-0.48196929693222046,0.7010883688926697
1789031866788799700,3.0247998046875,-0.11629922688007355,-0.6131728291511536,0.8971772193908691
1789031866798802700,3.034802734375,-0.1104159951210022,-0.6873527765274048,1.042904257774353
1789031866808805600,3.0448056640625,-0.11183466762304306,-0.7404703497886658,1.146740436553955
1789031866818809900,3.054809814453125,-0.16165097057819366,-0.816888689994812,1.2092205286026
1789031866828812500,3.0648125,-0.21389099955558777,-0.8965286612510681,1.240149736404419
1789031866838815700,3.074815673828125,-0.22330045700073242,-0.9855219721794128,1.2603901624679565
1789031866848819700,3.08481982421875,-0.1763816773891449,-1.0527739524841309,1.2867658138275146
1789031866858822700,3.09482275390625,-0.10144218057394028,-1.0386205911636353,1.287675380706787
1789031866868825600,3.10482568359375,-0.015375742688775063,-0.9336265325546265,1.2758647203445435
1789031866878828800,3.114828857421875,0.06793885678052902,-0.7279549837112427,1.262661337852478
1789031866888832800,3.124832763671875,0.1437436193227768,-0.5381970405578613,1.2326281070709229
1789031866898835700,3.134835693359375,0.1928909420967102,-0.45485448837280273,1.1479086875915527
1789031866908838700,3.144838623046875,0.2547926604747772,-0.5679419040679932,1.0278770923614502
1789031866918843000,3.1548427734375,0.30650827288627625,-0.8302730917930603,0.8951049447059631
1789031866928845600,3.164845458984375,0.3327827751636505,-1.1543502807617188,0.8067958354949951
1789031866938848800,3.174848876953125,0.3651409447193146,-1.4829775094985962,0.8262733817100525
1789031866948852700,3.184852783203125,0.38621214032173157,-1.7327628135681152,0.9076686501502991
1789031866958855700,3.194855712890625,0.37606844305992126,-1.8822259902954102,1.0102593898773193
1789031866968858600,3.204858642578125,0.3494906425476074,-1.9341294765472412,1.0894975662231445
1789031866978861800,3.21486181640625,0.32756516337394714,-1.886812448501587,1.1301008462905884
1789031866988865500,3.224865478515625,0.29805120825767517,-1.772786259651184,1.1519273519515991
1789031866998868700,3.23486865234375,0.27601954340934753,-1.5633419752120972,1.150625228881836
1789031867008871700,3.24487158203125,0.26750171184539795,-1.3058773279190063,1.147343635559082
1789031867018875600,3.254875732421875,0.27942416071891785,-1.016990065574646,1.1794408559799194
1789031867028878600,3.264878662109375,0.323383629322052,-0.7433849573135376,1.2188189029693604
1789031867038881800,3.2748818359375,0.3732915222644806,-0.49826231598854065,1.2634382247924805
1789031867048884700,3.284884765625,0.4190531373023987,-0.3300592005252838,1.2607053518295288
1789031867058888700,3.294888671875,0.4763109087944031,-0.2317255288362503,1.1845457553863525
1789031867068891600,3.3048916015625,0.5611932873725891,-0.15766407549381256,1.073703646659851
1789031867078894600,3.31489453125,0.630334198474884,-0.05362861230969429,0.9107481241226196
1789031867088898600,3.324898681640625,0.6541540622711182,0.08418890833854675,0.7053731679916382
1789031867098901800,3.33490185546875,0.6787132620811462,0.1736907660961151,0.5417492389678955
1789031867108904700,3.34490478515625,0.688224732875824,0.2940813899040222,0.4231315553188324
1789031867118908700,3.35490869140625,0.6768894791603088,0.475599467754364,0.3415565490722656
1789031867128911600,3.36491162109375,0.6388161182403564,0.7075626254081726,0.28702300786972046
1789031867138914600,3.37491455078125,0.567939281463623,0.8928183317184448,0.3015505373477936
1789031867148917800,3.384917724609375,0.4999450743198395,1.0000669956207275,0.3337681293487549
1789031867158921700,3.394921630859375,0.47573620080947876,1.0253583192825317,0.35983458161354065
1789031867168925000,3.404925048828125,0.49048423767089844,0.988204300403595,0.40870946645736694
1789031867178927600,3.414927734375,0.5510517358779907,0.978177011013031,0.4902631342411041
1789031867188931600,3.424931640625,0.6034517884254456,0.9990439414978027,0.6123864054679871
1789031867198934800,3.434934814453125,0.6231357455253601,0.9876818656921387,0.755692183971405
1789031867208937700,3.444937744140625,0.6242755651473999,0.9878389835357666,0.8555386066436768
1789031867218940700,3.454940673828125,0.6614439487457275,1.0806896686553955,0.8898937106132507
1789031867228945000,3.46494482421875,0.6681678891181946,1.1740657091140747,0.8844180107116699
1789031867238947600,3.474947509765625,0.6242370009422302,1.1405025720596313,0.8036144375801086
1789031867248950800,3.48495068359375,0.5016913414001465,0.9336774945259094,0.6751843094825745
1789031867258954800,3.494954833984375,0.30995360016822815,0.6044989228248596,0.545968234539032
1789031867268957700,3.504957763671875,0.10460337996482849,0.29794588685035706,0.4508872628211975
1789031867278960600,3.514960693359375,-0.08758730441331863,0.06726430356502533,0.5220963954925537
1789031867288963800,3.5249638671875,-0.26063230633735657,-0.053050391376018524,0.7130280137062073
1789031867298967600,3.534967529296875,-0.39466235041618347,-0.11989753693342209,0.9055868983268738
1789031867308970800,3.544970703125,-0.47564083337783813,-0.2514007091522217,1.0103681087493896
1789031867318973700,3.5549736328125,-0.5046921968460083,-0.4488661587238312,1.0290474891662598
1789031867328977700,3.564977783203125,-0.5171453952789307,-0.6524760723114014,0.9604325294494629
1789031867338980600,3.574980712890625,-0.5352998971939087,-0.7922913432121277,0.8030546307563782
1789031867348983800,3.58498388671875,-0.5484945178031921,-0.8285675644874573,0.6051719188690186
1789031867358987800,3.59498779296875,-0.5242698788642883,-0.8022128939628601,0.41168901324272156
1789031867368990700,3.60499072265625,-0.4690939784049988,-0.7723151445388794,0.27496710419654846
1789031867378993700,3.61499365234375,-0.3866848647594452,-0.7938129901885986,0.19839538633823395
1789031867388996600,3.62499658203125,-0.274617999792099,-0.887705385684967,0.1378265768289566
1789031867399000600,3.63500048828125,-0.19301550090312958,-1.0288838148117065,0.08937537670135498
1789031867409003800,3.645003662109375,-0.17496006190776825,-1.1794376373291016,0.0681513175368309
1789031867419006500,3.65500634765625,-0.21342222392559052,-1.2881726026535034,0.06058153137564659
1789031867429010700,3.6650107421875,-0.2840641736984253,-1.3070621490478516,0.033105429261922836
1789031867439013600,3.675013671875,-0.3768702745437622,-1.2614575624465942,-0.00282354187220335
1789031867449016800,3.685016845703125,-0.4619646668434143,-1.1975194215774536,-0.00774373160675168
1789031867459019800,3.695019775390625,-0.49742791056632996,-1.1570515632629395,0.040928278118371964
1789031867469023700,3.705023681640625,-0.537282407283783,-1.1065764427185059,0.11020907759666443
1789031867479026200,3.715026123046875,-0.5693902373313904,-0.968532145023346,0.11465998739004135
1789031867489028900,3.72502880859375,-0.5794689655303955,-0.8211645483970642,0.053785182535648346
1789031867499033000,3.735033203125,-0.5858418941497803,-0.7800442576408386,-0.006770860403776169
1789031867509036000,3.7450361328125,-0.5727007985115051,-0.8265401721000671,-0.06379340589046478
1789031867519039000,3.7550390625,-0.5419735312461853,-0.8885932564735413,-0.1353408396244049
1789031867529042000,3.7650419921875,-0.49571970105171204,-0.8911653757095337,-0.2211071401834488
1789031867539046100,3.775046142578125,-0.44224050641059875,-0.8629705309867859,-0.33143121004104614
1789031867549049000,3.785049072265625,-0.37995290756225586,-0.8310877084732056,-0.43237486481666565
1789031867559052000,3.795052001953125,-0.32338494062423706,-0.7998769879341125,-0.5001848936080933
1789031867569056000,3.805055908203125,-0.3003515303134918,-0.7614094614982605,-0.5316908359527588
1789031867579059200,3.81505908203125,-0.29506707191467285,-0.7439248561859131,-0.558951199054718
1789031867589062000,3.825061767578125,-0.3038403391838074,-0.7827132940292358,-0.592441737651825
1789031867599066000,3.835066162109375,-0.32798105478286743,-0.8165397047996521,-0.6311862468719482
1789031867609069000,3.845069091796875,-0.34954094886779785,-0.7968426942825317,-0.6586918830871582
1789031867619072000,3.855072021484375,-0.3589105010032654,-0.7071526050567627,-0.650404691696167
1789031867629075000,3.865074951171875,-0.36315426230430603,-0.565159261226654,-0.6012858748435974
1789031867639079200,3.8750791015625,-0.37207019329071045,-0.3792967200279236,-0.5280716419219971
1789031867649081900,3.885081787109375,-0.374051570892334,-0.21136844158172607,-0.46530357003211975
1789031867659085000,3.8950849609375,-0.36383703351020813,-0.06748435646295547,-0.38616400957107544
1789031867669089000,3.905089111328125,-0.37701913714408875,0.05262820050120354,-0.29671910405158997
1789031867679092000,3.915092041015625,-0.4021564722061157,0.15138190984725952,-0.24321985244750977
1789031867689095000,3.925094970703125,-0.43014469742774963,0.22663432359695435,-0.2563796043395996
1789031867699098000,3.93509814453125,-0.45290884375572205,0.34686481952667236,-0.3191154897212982
1789031867709101800,3.945101806640625,-0.46680575609207153,0.5018631815910339,-0.3720918893814087
1789031867719105000,3.95510498046875,-0.457016259431839,0.6459974050521851,-0.4258594512939453
1789031867729108000,3.96510791015625,-0.43187230825424194,0.7877761125564575,-0.46181583404541016
1789031867739112200,3.9751123046875,-0.4029221534729004,0.9058266878128052,-0.4868764877319336
1789031867749115000,3.985114990234375,-0.3580729067325592,0.9433673620223999,-0.49480924010276794
1789031867759118000,3.9951181640625,-0.2861025929450989,0.9435541033744812,-0.4752645790576935
1789031867769121000,4.00512109375,-0.2057691067457199,0.9759602546691895,-0.417736291885376
1789031867779125000,4.015125,-0.15303823351860046,1.0645701885223389,-0.34442615509033203
1789031867789128200,4.025128173828125,-0.1615624725818634,1.0622726678848267,-0.28103575110435486
1789031867799131000,4.035130859375,-0.21670614182949066,0.9495921730995178,-0.22365929186344147
1789031867809134800,4.045134765625,-0.28435656428337097,0.8507673144340515,-0.17816424369812012
1789031867819138000,4.055137939453125,-0.3215615153312683,0.8180774450302124,-0.156296968460083
1789031867829141200,4.065141357421875,-0.3117094039916992,0.8750935792922974,-0.11697432398796082
1789031867839144000,4.07514404296875,-0.2793754041194916,0.9677798748016357,-0.05235782265663147
1789031867849148200,4.085148193359375,-0.22014616429805756,1.0564647912979126,0.012469909153878689
1789031867859151000,4.095151123046875,-0.1260010302066803,1.1327672004699707,0.023225372657179832
1789031867869154000,4.105154052734375,-0.018792826682329178,1.1607471704483032,-0.012024492025375366
1789031867879158000,4.115157958984375,0.05805743858218193,1.1298801898956299,-0.05974669009447098
1789031867889161200,4.1251611328125,0.09407935291528702,1.0238780975341797,-0.08096196502447128
1789031867899164000,4.135163818359375,0.10162998735904694,0.8771026730537415,-0.06437984108924866
1789031867909167000,4.1451669921875,0.10984984040260315,0.7149896621704102,-0.043540071696043015
1789031867919171000,4.155171142578125,0.14127780497074127,0.6080400347709656,-0.040082771331071854
1789031867929174000,4.165174072265625,0.17903850972652435,0.5580189228057861,-0.03908754512667656
1789031867939177000,4.175177001953125,0.22505049407482147,0.5280418992042542,-0.035464875400066376
1789031867949181200,4.18518115234375,0.2777983844280243,0.5017769932746887,-0.049476299434900284
1789031867959184000,4.195183837890625,0.28594207763671875,0.4765164256095886,-0.0626099556684494
1789031867969187000,4.20518701171875,0.2408827245235443,0.4516962766647339,-0.062371864914894104
1789031867979190000,4.21518994140625,0.22421418130397797,0.4458177983760834,-0.09983976930379868
1789031867989194000,4.225194091796875,0.2445487380027771,0.45219072699546814,-0.17264233529567719
1789031867999197000,4.235197021484375,0.2569151818752289,0.43662145733833313,-0.21197275817394257
1789031868009200000,4.2452001953125,0.22332261502742767,0.4176648259162903,-0.17734074592590332
1789031868019204000,4.2552041015625,0.2281477153301239,0.4256315231323242,-0.14908166229724884
1789031868029207000,4.26520703125,0.23272354900836945,0.41541218757629395,-0.12142953276634216
1789031868039210000,4.2752099609375,0.17411798238754272,0.3558005392551422,-0.038209427148103714
1789031868049213000,4.285212890625,0.13710643351078033,0.2920506000518799,-0.004694344010204077
1789031868059217000,4.295216796875,0.14837749302387238,0.24352766573429108,-0.03458116948604584
1789031868069220000,4.30522021484375,0.18727350234985352,0.21084748208522797,-0.11393138021230698
1789031868079223000,4.31522314453125,0.2075870782136917,0.18183398246765137,-0.17925025522708893
1789031868089227000,4.32522705078125,0.20087669789791107,0.14628423750400543,-0.2102566361427307
1789031868099230000,4.33522998046875,0.1834535002708435,0.15377609431743622,-0.22645291686058044
1789031868109233200,4.345233154296875,0.16395863890647888,0.21263888478279114,-0.23785151541233063
1789031868119236000,4.355236083984375,0.16443321108818054,0.2961605489253998,-0.2355649322271347
1789031868129240000,4.365239990234375,0.16924448311328888,0.3669860064983368,-0.20583951473236084
1789031868139243000,4.375242919921875,0.1766757220029831,0.41279464960098267,-0.17454493045806885
1789031868149246000,4.385245849609375,0.19009831547737122,0.42980319261550903,-0.15770390629768372
1789031868159250000,4.39525,0.21865884959697723,0.43053093552589417,-0.15733185410499573
1789031868169253000,4.405253173828125,0.2662428915500641,0.46126940846443176,-0.17940786480903625
1789031868179256000,4.415256103515625,0.31415048241615295,0.48462721705436707,-0.20354516804218292
1789031868189259000,4.425259033203125,0.31871089339256287,0.44388723373413086,-0.1978268176317215
1789031868199263000,4.435262939453125,0.2905278205871582,0.38489067554473877,-0.18503548204898834
1789031868209266000,4.445265869140625,0.27046674489974976,0.36191505193710327,-0.19863411784172058
1789031868219269000,4.45526904296875,0.26760295033454895,0.3618970215320587,-0.2316066175699234
1789031868229273000,4.465273193359375,0.28660088777542114,0.3761731684207916,-0.27400070428848267
1789031868239276000,4.475276123046875,0.329210489988327,0.3722652494907379,-0.31635117530822754
1789031868249279000,4.485279052734375,0.36369603872299194,0.33976829051971436,-0.3459937572479248
1789031868259282200,4.4952822265625,0.38145238161087036,0.2913625240325928,-0.37346529960632324
1789031868269286000,4.505285888671875,0.3917953073978424,0.2773345708847046,-0.41366252303123474
1789031868279289000,4.5152890625,0.39229539036750793,0.3095601797103882,-0.4657458961009979
1789031868289292000,4.5252919921875,0.40330755710601807,0.3785903751850128,-0.5176829099655151
1789031868299296300,4.535296142578125,0.43899551033973694,0.4717474579811096,-0.5757829546928406
1789031868309299000,4.545298828125,0.4766866862773895,0.5803043246269226,-0.6459569931030273
1789031868319302100,4.55530224609375,0.4956319332122803,0.6763582229614258,-0.734079122543335
1789031868329304800,4.565304931640625,0.5055093169212341,0.7425848841667175,-0.8353751301765442
1789031868339309000,4.57530908203125,0.5037547945976257,0.7987329959869385,-0.9611809253692627
1789031868349312000,4.58531201171875,0.5226592421531677,0.8838531970977783,-1.104439616203308
1789031868359315000,4.59531494140625,0.5244610905647278,0.9624198079109192,-1.1897145509719849
1789031868369319000,4.60531884765625,0.5220277905464172,0.9922365546226501,-1.232161045074463
1789031868379322000,4.615322021484375,0.5310192108154297,0.9551863074302673,-1.2522556781768799
1789031868389325000,4.625324951171875,0.4745287597179413,0.8843321204185486,-1.2277612686157227
1789031868399328000,4.635327880859375,0.41838008165359497,0.6634964942932129,-1.1528499126434326
1789031868409332000,4.64533203125,0.3216002583503723,0.40859895944595337,-1.0847182273864746
1789031868419335200,4.655335205078125,0.17638522386550903,0.2707290053367615,-1.0628626346588135
1789031868429337900,4.665337890625,0.05807749554514885,0.1863485872745514,-1.0523886680603027
1789031868439342000,4.675342041015625,-0.030518222600221634,0.10008855164051056,-0.9794526100158691
1789031868449345000,4.685344970703125,-0.053746577352285385,0.0585714690387249,-0.8200594782829285
1789031868459348000,4.695347900390625,-0.02762600965797901,0.13374806940555573,-0.6135204434394836
1789031868469351200,4.70535107421875,0.02323530614376068,0.28909823298454285,-0.40072402358055115
1789031868479355600,4.715355712890625,0.06349513679742813,0.4090711772441864,-0.1905740201473236
1789031868489358600,4.725358642578125,0.1152704507112503,0.49659010767936707,-0.05295809358358383
1789031868499361800,4.73536181640625,0.1858958750963211,0.5272756218910217,0.03475286439061165
1789031868509365500,4.745365478515625,0.25251057744026184,0.4672868549823761,0.1282053142786026
1789031868519368700,4.75536865234375,0.2925984263420105,0.3781903386116028,0.24412094056606293
1789031868529371600,4.76537158203125,0.2971385717391968,0.28626495599746704,0.3757018744945526
1789031868539374600,4.77537451171875,0.272037148475647,0.2319762110710144,0.4909324049949646
1789031868549378600,4.785378662109375,0.2198823243379593,0.21930889785289764,0.582818865776062
1789031868559381800,4.7953818359375,0.17262610793113708,0.21323399245738983,0.6123526096343994
1789031868569384400,4.805384521484375,0.1415179967880249,0.16670642793178558,0.5634782910346985
1789031868579388700,4.815388671875,0.12753216922283173,0.06984074413776398,0.46373721957206726
1789031868589391600,4.8253916015625,0.1277284473180771,-0.03858346864581108,0.3700528144836426
1789031868599394600,4.83539453125,0.13828973472118378,-0.11601053923368454,0.3285253345966339
1789031868609397800,4.845397705078125,0.15392036736011505,-0.19279587268829346,0.33820539712905884
1789031868619401700,4.855401611328125,0.1384871006011963,-0.26843732595443726,0.3571026623249054
1789031868629404700,4.86540478515625,0.10950976610183716,-0.28863394260406494,0.35485920310020447
1789031868639407600,4.87540771484375,0.10570407658815384,-0.2855381369590759,0.34120920300483704
1789031868649411600,4.88541162109375,0.12569937109947205,-0.28200361132621765,0.32156601548194885
1789031868659414800,4.895414794921875,0.10846179723739624,-0.352566659450531,0.3316231667995453
1789031868669417700,4.905417724609375,-0.011482984758913517,-0.43237441778182983,0.35170820355415344
1789031868679420700,4.915420654296875,-0.1646578460931778,-0.4442700445652008,0.4017718434333801
1789031868689424600,4.925424560546875,-0.2727968394756317,-0.4028421640396118,0.463872492313385
1789031868699427600,4.935427490234375,-0.3066827058792114,-0.3951643705368042,0.45062491297721863
1789031868709430800,4.9454306640625,-0.31100472807884216,-0.4218638837337494,0.3630804121494293
1789031868719434800,4.955434814453125,-0.3152279853820801,-0.4302550256252289,0.2515406012535095
1789031868729437700,4.965437744140625,-0.3079591393470764,-0.39734315872192383,0.14692015945911407
1789031868739440600,4.975440673828125,-0.30851122736930847,-0.3225065767765045,0.04444361478090286
1789031868749443800,4.98544384765625,-0.31436485052108765,-0.2291499823331833,-0.04859072342514992
1789031868759447600,4.995447509765625,-0.3127053380012512,-0.11479473114013672,-0.11526546627283096
1789031868769450800,5.00545068359375,-0.28941068053245544,-0.040565501898527145,-0.17557886242866516
1789031868779453700,5.01545361328125,-0.24220508337020874,-0.025576286017894745,-0.23966729640960693
1789031868789457700,5.025457763671875,-0.19748689234256744,-0.06245174631476402,-0.28132686018943787
1789031868799460600,5.035460693359375,-0.19116748869419098,-0.08551287651062012,-0.29258590936660767
1789031868809463800,5.0454638671875,-0.21809950470924377,-0.07518966495990753,-0.2860877811908722
1789031868819466500,5.055466552734375,-0.23018331825733185,-0.05544302985072136,-0.26918017864227295
1789031868829470700,5.065470703125,-0.2317149043083191,-0.03461231663823128,-0.2197074443101883
1789031868839473700,5.0754736328125,-0.21418282389640808,-0.02941972389817238,-0.16096417605876923
1789031868849476600,5.0854765625,-0.18306991457939148,-0.06575189530849457,-0.12034165859222412
1789031868859480600,5.09548046875,-0.1582561731338501,-0.13627512753009796,-0.12330495566129684
1789031868869483800,5.10548388671875,-0.16805660724639893,-0.20221607387065887,-0.1739787757396698
1789031868879486500,5.115486572265625,-0.2095811814069748,-0.21116629242897034,-0.2335968017578125
1789031868889489700,5.12548974609375,-0.23624740540981293,-0.13744840025901794,-0.277599960565567
1789031868899493600,5.13549365234375,-0.2452446073293686,-0.04767869785428047,-0.33710405230522156
1789031868909496600,5.14549658203125,-0.23049628734588623,0.03037402778863907,-0.4217158854007721
1789031868919499500,5.15549951171875,-0.20958562195301056,0.047288257628679276,-0.5543515086174011
1789031868929502700,5.165502685546875,-0.1717871129512787,-0.025332147255539894,-0.6934680938720703
1789031868939506700,5.175506591796875,-0.1301516443490982,-0.0786808431148529,-0.813015341758728
1789031868949509600,5.185509521484375,-0.11003625392913818,-0.07835833728313446,-0.8547963500022888
1789031868959512800,5.195512939453125,-0.10670775920152664,-0.03333689272403717,-0.8121011853218079
1789031868969516800,5.205516845703125,-0.10521239787340164,0.024646513164043427,-0.731302797794342
1789031868979519500,5.21551953125,-0.09040198475122452,0.032247625291347504,-0.6754419207572937
1789031868989522700,5.225522705078125,-0.056403011083602905,-0.010877207852900028,-0.6412964463233948
1789031868999525600,5.235525634765625,-0.035290271043777466,-0.06649599969387054,-0.6036134958267212
1789031869009529600,5.245529541015625,-0.037980061024427414,-0.12516117095947266,-0.5327175259590149
1789031869019532800,5.25553271484375,-0.046002306044101715,-0.1586364358663559,-0.42043840885162354
1789031869029535700,5.26553564453125,-0.040345750749111176,-0.1772862821817398,-0.28328001499176025
1789031869039539500,5.27553955078125,-0.05016030743718147,-0.20228442549705505,-0.1301136165857315
1789031869049542700,5.285542724609375,-0.06915769726037979,-0.23017944395542145,0.022507350891828537
1789031869059545900,5.2955458984375,-0.09421245008707047,-0.27548086643218994,0.126910999417305
1789031869069548500,5.305548583984375,-0.10324563086032867,-0.3064688742160797,0.14921176433563232
1789031869079552800,5.315552734375,-0.06824132055044174,-0.3660716712474823,0.16968803107738495
1789031869089555700,5.3255556640625,-0.024112744256854057,-0.3936159312725067,0.23273730278015137
1789031869099558700,5.33555859375,0.015461037866771221,-0.35430625081062317,0.3261287808418274
1789031869109562600,5.345562744140625,0.048665594309568405,-0.24427026510238647,0.4182046353816986
1789031869119565800,5.35556591796875,0.0638778805732727,-0.10329858958721161,0.4817694425582886
1789031869129568500,5.365568603515625,0.0622088760137558,0.02175227366387844,0.4939509928226471
1789031869139571700,5.37557177734375,0.06371032446622849,0.10735088586807251,0.4556872844696045
1789031869149575700,5.38557568359375,0.0763278529047966,0.11825866252183914,0.40338680148124695
1789031869159578600,5.39557861328125,0.08395755290985107,0.06811902672052383,0.3688293397426605
1789031869169581600,5.40558154296875,0.10476216673851013,0.00043425668263807893,0.35133954882621765
1789031869179585800,5.415585693359375,0.1487588882446289,-0.06190377473831177,0.3506018817424774
1789031869189588500,5.42558837890625,0.1910725235939026,-0.11463383585214615,0.3797680139541626
1789031869199591700,5.435591796875,0.21467983722686768,-0.1396782249212265,0.4204675555229187
1789031869209594600,5.4455947265625,0.22899885475635529,-0.1274505853652954,0.46223604679107666
1789031869219598800,5.455598876953125,0.25742650032043457,-0.07429175823926926,0.5081952214241028
1789031869229601500,5.4656015625,0.29877904057502747,-0.03535211458802223,0.5549659132957458
1789031869239604700,5.475604736328125,0.3188845217227936,0.04292554408311844,0.598257839679718
1789031869249607700,5.485607666015625,0.3313486576080322,0.19015786051750183,0.6279933452606201
1789031869259611600,5.495611572265625,0.3443097770214081,0.37705472111701965,0.6412270665168762
1789031869269614600,5.505614501953125,0.344165176153183,0.5472962260246277,0.6359580159187317
1789031869279617500,5.515617431640625,0.3311660587787628,0.6399805545806885,0.6227366924285889
1789031869289621500,5.52562158203125,0.3062622845172882,0.6361088752746582,0.6251322031021118
1789031869299624700,5.535624755859375,0.2659779489040375,0.593717634677887,0.6493451595306396
1789031869309627600,5.545627685546875,0.2286611944437027,0.5479445457458496,0.6653481125831604
1789031869319630600,5.555630615234375,0.20224107801914215,0.4679785668849945,0.6872445344924927
1789031869329634600,5.565634521484375,0.17950007319450378,0.35414919257164,0.7249996662139893
1789031869339637800,5.5756376953125,0.14883080124855042,0.2727021276950836,0.7456123232841492
1789031869349640700,5.585640625,0.12831780314445496,0.23222899436950684,0.760496973991394
1789031869359644700,5.595644775390625,0.09546830505132675,0.23895235359668732,0.765510618686676
1789031869369647600,5.605647705078125,0.07000155746936798,0.25676384568214417,0.7895946502685547
1789031869379650600,5.615650634765625,0.06160121038556099,0.28681594133377075,0.8075799942016602
1789031869389653800,5.62565380859375,0.05016693100333214,0.2929694354534149,0.8008033037185669
1789031869399657700,5.63565771484375,0.060881029814481735,0.25819507241249084,0.7561210989952087
1789031869409660700,5.64566064453125,0.07700087130069733,0.17268791794776917,0.6765634417533875
1789031869419663600,5.65566357421875,0.08245501667261124,0.008080210536718369,0.6256086230278015
1789031869429666800,5.665666748046875,0.06966438889503479,-0.21074187755584717,0.6226741075515747
1789031869439670500,5.67567041015625,0.01132700964808464,-0.42894309759140015,0.658196747303009
1789031869449673700,5.685673828125,-0.04164140298962593,-0.5843441486358643,0.681583821773529
1789031869459676700,5.6956767578125,-0.07700736820697784,-0.6528236865997314,0.6741839647293091
1789031869469680600,5.7056806640625,-0.09768654406070709,-0.6610414385795593,0.6417248249053955
1789031869479683000,5.71568310546875,-0.0796569287776947,-0.6709286570549011,0.5906970500946045
1789031869489686000,5.72568603515625,-0.0651693344116211,-0.6047187447547913,0.5739548206329346
1789031869499689200,5.735689208984375,-0.05130040645599365,-0.5510842204093933,0.5739082098007202
1789031869509693200,5.745693115234375,-0.030511504039168358,-0.5573809742927551,0.5945442318916321
1789031869519696000,5.75569580078125,-0.03267211839556694,-0.61388099193573,0.6318029165267944
1789031869529699000,5.765698974609375,-0.06364388018846512,-0.7243276238441467,0.6642969846725464
1789031869539703000,5.775703125,-0.1366671919822693,-0.9014120101928711,0.674279510974884
1789031869549706000,5.7857060546875,-0.19683972001075745,-1.0661951303482056,0.6701497435569763
1789031869559709200,5.795709228515625,-0.25097590684890747,-1.1282122135162354,0.6515852808952332
1789031869569712000,5.805712158203125,-0.2678739130496979,-1.1079181432724,0.6186060309410095
1789031869579715800,5.8157158203125,-0.24398809671401978,-1.0405412912368774,0.593501091003418
1789031869589719000,5.825718994140625,-0.1894952952861786,-0.929405689239502,0.5709523558616638
1789031869599722200,5.83572216796875,-0.12398974597454071,-0.8040080666542053,0.5445220470428467
1789031869609726000,5.845725830078125,-0.06097669154405594,-0.7332949638366699,0.5032888054847717
1789031869619729200,5.855729248046875,-0.014747688546776772,-0.7348438501358032,0.43750396370887756
1789031869629732000,5.865732177734375,0.005578355398029089,-0.7268655300140381,0.360180139541626
1789031869639735000,5.875735107421875,-0.014718709513545036,-0.6735583543777466,0.2762956917285919
1789031869649739000,5.885739013671875,-0.06400423496961594,-0.5950920581817627,0.18873469531536102
1789031869659742200,5.8957421875,-0.1427898108959198,-0.5449823141098022,0.12510080635547638
1789031869669745000,5.905744873046875,-0.21307115256786346,-0.5431700348854065,0.11168485879898071
1789031869679748000,5.915748046875,-0.2187597155570984,-0.5355507135391235,0.10980125516653061
1789031869689752000,5.925751953125,-0.19273103773593903,-0.4666679799556732,0.08742084354162216
1789031869699755000,5.935755126953125,-0.16547220945358276,-0.3632599413394928,0.05348760634660721
1789031869709758000,5.945758056640625,-0.16726824641227722,-0.2486899346113205,0.03700849413871765
1789031869719762200,5.95576220703125,-0.18388473987579346,-0.1911805421113968,0.05810733884572983
1789031869729765000,5.96576513671875,-0.18220055103302002,-0.15852005779743195,0.11904685199260712
1789031869739768000,5.97576806640625,-0.1432553231716156,-0.12127739191055298,0.1813129484653473
1789031869749771000,5.98577099609375,-0.09414025396108627,-0.02808566391468048,0.195455402135849
1789031869759775200,5.995775146484375,-0.05985553190112114,0.15335114300251007,0.13404931128025055
1789031869769778000,6.00577783203125,-0.03314376249909401,0.36995190382003784,0.029782559722661972
1789031869779781000,6.015781005859375,-0.01223255880177021,0.5206261277198792,-0.03801625594496727
1789031869789785000,6.02578515625,0.022141393274068832,0.5946667790412903,-0.025294603779911995
1789031869799788000,6.0357880859375,0.08065209537744522,0.6865748167037964,0.020287804305553436
1789031869809791000,6.045791015625,0.12150285392999649,0.8432579040527344,0.020591937005519867
1789031869819794200,6.055794189453125,0.11746233701705933,0.9851138591766357,-0.03139405697584152
1789031869829798000,6.0657978515625,0.0886962041258812,1.0875885486602783,-0.1047028973698616
1789031869839801000,6.075801025390625,0.048968151211738586,1.0628606081008911,-0.16497920453548431
1789031869849804300,6.08580419921875,0.021992996335029602,0.8746403455734253,-0.173055499792099
1789031869859807000,6.095806884765625,0.019973766058683395,0.650838315486908,-0.1694575399160385
1789031869869811000,6.10581103515625,0.03822121396660805,0.5210906863212585,-0.2114795595407486
1789031869879814100,6.115814208984375,0.050220079720020294,0.4711190462112427,-0.2895461320877075
1789031869889817000,6.125817138671875,0.05711127445101738,0.4345317482948303,-0.36343714594841003
1789031869899821000,6.135821044921875,0.06483558565378189,0.38752758502960205,-0.4245506525039673
1789031869909824300,6.14582421875,0.08698563277721405,0.3129878342151642,-0.42771822214126587
1789031869919827000,6.155826904296875,0.12966011464595795,0.20886260271072388,-0.39089757204055786
1789031869929830100,6.165830078125,0.1413969248533249,0.1031675934791565,-0.32526689767837524
1789031869939834000,6.175834228515625,0.1050788164138794,0.05039576441049576,-0.2625821530818939
1789031869949837000,6.185837158203125,0.0656520426273346,0.07867906987667084,-0.2551434338092804
1789031869959840000,6.195840087890625,0.030054129660129547,0.15362036228179932,-0.2751981317996979
1789031869969843200,6.20584326171875,-0.0013671754859387875,0.16650128364562988,-0.2930980324745178
1789031869979847000,6.215846923828125,-0.041347067803144455,0.11051993072032928,-0.24640485644340515
1789031869989850000,6.22585009765625,-0.06519993394613266,0.052806831896305084,-0.17383185029029846
1789031869999853000,6.23585302734375,-0.08771433681249619,0.05852445587515831,-0.11988867819309235
1789031870009857300,6.245857177734375,-0.14062361419200897,0.0708511620759964,-0.08161638677120209
1789031870019860000,6.25585986328125,-0.1914561539888382,0.014262160286307335,-0.049570322036743164
1789031870029863200,6.26586328125,-0.23173168301582336,-0.09087464213371277,-0.012259965762495995
1789031870039865900,6.275865966796875,-0.27056217193603516,-0.18449333310127258,0.008148912340402603
1789031870049870000,6.2858701171875,-0.2985115349292755,-0.2194422483444214,-0.004126396495848894
1789031870059873000,6.295873046875,-0.3261370360851288,-0.23475199937820435,-0.040974706411361694
1789031870069876000,6.3058759765625,-0.339345246553421,-0.23259058594703674,-0.10821819305419922
1789031870079880000,6.3158798828125,-0.33698034286499023,-0.25960543751716614,-0.15372654795646667
1789031870089883100,6.325883056640625,-0.3316665589809418,-0.3501579761505127,-0.12120188027620316
1789031870099886000,6.335885986328125,-0.32126668095588684,-0.4393215775489807,-0.06027935817837715
1789031870109889000,6.345888916015625,-0.31740057468414307,-0.4830869138240814,-0.017274100333452225
1789031870119893000,6.35589306640625,-0.3186210095882416,-0.4975067377090454,0.02071206457912922
1789031870129896200,6.365896240234375,-0.31085285544395447,-0.47145649790763855,0.020079564303159714
1789031870139899100,6.375899169921875,-0.27915942668914795,-0.418996125459671,-0.006254503037780523
1789031870149902000,6.385902099609375,-0.23423855006694794,-0.3905099034309387,-0.013143301010131836
1789031870159906000,6.395906005859375,-0.1979752779006958,-0.39164820313453674,0.009167247451841831
1789031870169909000,6.405908935546875,-0.16994445025920868,-0.3953968584537506,0.04079841077327728
1789031870179912200,6.415912109375,-0.13419845700263977,-0.38250359892845154,0.055391233414411545
1789031870189915100,6.4259150390625,-0.1114068552851677,-0.3342148959636688,0.039269253611564636
1789031870199919000,6.435919189453125,-0.10381980985403061,-0.24654430150985718,-0.004630258772522211
1789031870209922000,6.445922119140625,-0.10275240987539291,-0.12418828904628754,-0.07411639392375946
1789031870219925200,6.45592529296875,-0.09593920409679413,-0.01557815633714199,-0.17386247217655182
1789031870229929000,6.465928955078125,-0.09035428613424301,0.03245728090405464,-0.23454046249389648
1789031870239932200,6.47593212890625,-0.08342557400465012,0.0326891764998436,-0.24143855273723602
1789031870249935000,6.48593505859375,-0.0654606819152832,0.043458469212055206,-0.23378649353981018
1789031870259938000,6.49593798828125,-0.05433553829789162,0.08132550865411758,-0.21718893945217133
1789031870269942000,6.50594189453125,-0.03941704332828522,0.1399262249469757,-0.2244095653295517
1789031870279945200,6.5159453125,-0.01918017491698265,0.19175845384597778,-0.2678476572036743
1789031870289948000,6.525947998046875,0.01607954502105713,0.22055254876613617,-0.348191499710083
1789031870299952000,6.5359521484375,0.03728090971708298,0.20190875232219696,-0.4259716868400574
1789031870309955000,6.545955078125,0.03327072411775589,0.12666964530944824,-0.5051125884056091
1789031870319958000,6.5559580078125,-0.0014922828413546085,0.016738686710596085,-0.609346330165863
1789031870329961000,6.5659609375,-0.044599007815122604,-0.17071188986301422,-0.72664475440979
1789031870339965200,6.575965087890625,-0.05439208075404167,-0.5052192807197571,-0.8277835249900818
1789031870349968000,6.5859677734375,-0.040271732956171036,-0.8817383050918579,-0.9395188093185425
1789031870359971000,6.59597119140625,-0.034229978919029236,-1.1335750818252563,-1.0281670093536377
1789031870369974000,6.60597412109375,-0.01524377055466175,-1.15229332447052,-1.0592021942138672
1789031870379978200,6.615978271484375,0.030701003968715668,-0.9037694334983826,-1.0004678964614868
1789031870389981000,6.62598095703125,0.0907110795378685,-0.4214382469654083,-0.8620270490646362
1789031870399984000,6.635984130859375,0.1724853515625,0.1434769481420517,-0.697579026222229
1789031870409988000,6.645988037109375,0.35121726989746094,0.6606737375259399,-0.5562687516212463
1789031870419991000,6.655990966796875,0.4531462788581848,0.9568821787834167,-0.47733554244041443
1789031870429994000,6.665993896484375,0.47457966208457947,0.9113043546676636,-0.4672861099243164
1789031870439997000,6.675996826171875,0.43650373816490173,0.7010601162910461,-0.5082051157951355
1789031870450001000,6.6860009765625,0.37846413254737854,0.4817737936973572,-0.5657634735107422
1789031870460004000,6.696004150390625,0.32683759927749634,0.35419797897338867,-0.5904954075813293
1789031870470007300,6.70600732421875,0.2998075783252716,0.3094440996646881,-0.5195370316505432
1789031870480010500,6.716010498046875,0.31349971890449524,0.3310754895210266,-0.36795154213905334
1789031870490014500,6.726014404296875,0.345721572637558,0.38273096084594727,-0.18018271028995514
1789031870500017700,6.736017578125,0.3853113055229187,0.3829724192619324,-0.0031037600710988045
1789031870510020600,6.7460205078125,0.4151051640510559,0.3013848662376404,0.1441197693347931
1789031870520024600,6.756024658203125,0.4201686382293701,0.1700761467218399,0.2630690336227417
1789031870530027500,6.766027587890625,0.37862521409988403,0.05956108495593071,0.36865296959877014
1789031870540030500,6.776030517578125,0.30262258648872375,0.00195120123680681,0.4657707214355469
1789031870550033700,6.78603369140625,0.2482655942440033,0.0030795824714004993,0.5627101063728333
1789031870560037600,6.79603759765625,0.2152797132730484,0.00298236683011055,0.6185495853424072
1789031870570040600,6.80604052734375,0.18163441121578217,-0.053614065051078796,0.615641176700592
1789031870580043500,6.81604345703125,0.15612822771072388,-0.1467529535293579,0.5887224674224854
1789031870590046700,6.826046630859375,0.14505986869335175,-0.18805405497550964,0.542570948600769
1789031870600050400,6.836050537109375,0.14277519285678864,-0.1687573492527008,0.45477819442749023
1789031870610053600,6.8460537109375,0.16924993693828583,-0.10914035141468048,0.3119960129261017
1789031870620056600,6.856056640625,0.20220278203487396,-0.028379034250974655,0.15689249336719513
1789031870630059500,6.8660595703125,0.21417342126369476,0.03777388483285904,0.026519589126110077
1789031870640063500,6.8760634765625,0.2000618577003479,0.06132017821073532,-0.09630432724952698
1789031870650066700,6.886066650390625,0.1711423248052597,0.04146764427423477,-0.22413179278373718
1789031870660069400,6.8960693359375,0.1460084319114685,0.021824784576892853,-0.35825464129447937
1789031870670073600,6.906073486328125,0.1184321939945221,0.026841115206480026,-0.48606935143470764
1789031870680076500,6.91607666015625,0.06877653300762177,0.06273511797189713,-0.5968430042266846
1789031870690079500,6.92607958984375,-0.010111358016729355,0.08541646599769592,-0.6926036477088928
1789031870700082400,6.93608251953125,-0.11720375716686249,0.060708653181791306,-0.7743967771530151
1789031870710086700,6.946086669921875,-0.1995643973350525,0.01373794861137867,-0.8236183524131775
1789031870720089300,6.95608935546875,-0.2249632328748703,-0.0543903112411499,-0.851598858833313
1789031870730092500,6.966092529296875,-0.2368031144142151,-0.13963888585567474,-0.8540540337562561
1789031870740095500,6.976095458984375,-0.24695883691310883,-0.21033933758735657,-0.8106133937835693
1789031870750099500,6.986099365234375,-0.24058908224105835,-0.24235159158706665,-0.7346927523612976
1789031870760102400,6.996102294921875,-0.22339406609535217,-0.2477085292339325,-0.6459917426109314
1789031870770105600,7.006105712890625,-0.18755510449409485,-0.2846340537071228,-0.5753332376480103
1789031870780109600,7.016109619140625,-0.14403663575649261,-0.3751768469810486,-0.5093425512313843
1789031870790112500,7.026112548828125,-0.09661852568387985,-0.4715108573436737,-0.4223141670227051
1789031870800115700,7.03611572265625,-0.04158591479063034,-0.5244386792182922,-0.33368438482284546
1789031870810118400,7.046118408203125,0.015250736847519875,-0.554262101650238,-0.2613271176815033
1789031870820122400,7.056122314453125,0.05358800292015076,-0.5680630207061768,-0.18501609563827515
1789031870830125600,7.06612548828125,0.10847441852092743,-0.5686084032058716,-0.09620340168476105
1789031870840128500,7.07612841796875,0.14510270953178406,-0.5423164963722229,-0.009081527590751648
1789031870850131500,7.08613134765625,0.17739221453666687,-0.48148801922798157,0.05523860827088356
1789031870860135700,7.0961357421875,0.1923631727695465,-0.4068055748939514,0.09510638564825058
1789031870870138600,7.106138671875,0.18229669332504272,-0.3308548927307129,0.13580268621444702
1789031870880141600,7.1161416015625,0.16088220477104187,-0.2394966185092926,0.18454067409038544
1789031870890145500,7.1261455078125,0.13428016006946564,-0.11692596226930618,0.23775196075439453
1789031870900148700,7.136148681640625,0.12407386302947998,0.018497908487915993,0.29530900716781616
1789031870910151400,7.1461513671875,0.11931586265563965,0.14944712817668915,0.3623911142349243
1789031870920154600,7.156154541015625,0.10604750365018845,0.2759662866592407,0.42863744497299194
1789031870930158600,7.16615869140625,0.09753550589084625,0.40559884905815125,0.4922899305820465
1789031870940161500,7.17616162109375,0.09266884624958038,0.5478947162628174,0.558640718460083
1789031870950164500,7.18616455078125,0.09431654214859009,0.7058151364326477,0.6313327550888062
1789031870960167700,7.196167724609375,0.09451677650213242,0.8411199450492859,0.7266638875007629
1789031870970171400,7.20617138671875,0.11890893429517746,0.9493196606636047,0.8180971145629883
1789031870980174600,7.216174560546875,0.16470256447792053,1.0047868490219116,0.9010028839111328
1789031870990177500,7.226177490234375,0.20930145680904388,0.984214723110199,0.9710706472396851
1789031871000181500,7.236181396484375,0.1971946805715561,0.9225798845291138,0.9958769679069519
1789031871010184400,7.246184326171875,0.15868882834911346,0.8086389303207397,0.9814106822013855
1789031871020187600,7.256187744140625,0.12017664313316345,0.6282631754875183,0.9440563321113586
1789031871030190600,7.266190673828125,0.07257743179798126,0.4234008193016052,0.9088916778564453
1789031871040194600,7.276194580078125,0.016505606472492218,0.20391035079956055,0.8455007672309875
1789031871050197500,7.286197509765625,-0.028290893882513046,-0.007091103121638298,0.7822653651237488
1789031871060200400,7.296200439453125,-0.044218141585588455,-0.14412222802639008,0.7245567440986633
1789031871070203600,7.30620361328125,-0.043325718492269516,-0.19280961155891418,0.6859863996505737
1789031871080207600,7.31620751953125,-0.025775514543056488,-0.19846583902835846,0.6898688077926636
1789031871090210600,7.32621044921875,0.00673315953463316,-0.20149092376232147,0.6896511912345886
1789031871100213500,7.336213623046875,0.04159758985042572,-0.24188387393951416,0.7046195268630981
1789031871110216700,7.346216796875,0.07546527683734894,-0.2930746078491211,0.7110827565193176
1789031871120220400,7.356220458984375,0.09453489631414413,-0.3402080535888672,0.7184440493583679
1789031871130223600,7.3662236328125,0.10032593458890915,-0.3674705922603607,0.7109461426734924
1789031871140226600,7.3762265625,0.09955792874097824,-0.37411823868751526,0.6989488005638123
1789031871150230500,7.38623046875,0.09554560482501984,-0.3350754976272583,0.6593769192695618
1789031871160233500,7.3962333984375,0.09095112234354019,-0.280025839805603,0.6097998023033142
1789031871170236700,7.406236572265625,0.09162144362926483,-0.24642927944660187,0.5600894689559937
1789031871180239400,7.4162392578125,0.0675453394651413,-0.239973783493042,0.513649046421051
1789031871190243600,7.42624365234375,0.028462115675210953,-0.2543276846408844,0.46676546335220337
1789031871200246500,7.43624658203125,-0.019691551104187965,-0.2895200550556183,0.4089881479740143
1789031871210249500,7.44624951171875,-0.05912071466445923,-0.31740230321884155,0.35491639375686646
1789031871220252400,7.45625244140625,-0.0900316908955574,-0.33919623494148254,0.3146975338459015
1789031871230256600,7.466256591796875,-0.11842098832130432,-0.35649585723876953,0.30539989471435547
1789031871240259600,7.476259521484375,-0.16319142282009125,-0.42120417952537537,0.3482869565486908
1789031871250262500,7.486262451171875,-0.23370447754859924,-0.5535351037979126,0.44438979029655457
1789031871260265500,7.496265380859375,-0.29200509190559387,-0.6001771688461304,0.526291012763977
1789031871270269700,7.506269775390625,-0.31422463059425354,-0.5191829800605774,0.5189542770385742
1789031871280272400,7.5162724609375,-0.31175556778907776,-0.40248534083366394,0.43463006615638733
1789031871290275600,7.526275634765625,-0.30679675936698914,-0.33630311489105225,0.35128483176231384
1789031871300279600,7.536279541015625,-0.29199257493019104,-0.37681645154953003,0.3310174345970154
1789031871310282500,7.546282470703125,-0.26905903220176697,-0.44971993565559387,0.3391358256340027
1789031871320285400,7.556285400390625,-0.25055190920829773,-0.4811842739582062,0.34557026624679565
1789031871330288400,7.566288330078125,-0.22149042785167694,-0.48640647530555725,0.2959880530834198
1789031871340292400,7.576292236328125,-0.18092572689056396,-0.4844624996185303,0.1951965093612671
1789031871350295600,7.586295654296875,-0.1669529229402542,-0.513841450214386,0.08995956927537918
1789031871360298800,7.596298828125,-0.19072775542736053,-0.5276179313659668,0.03684202581644058
1789031871370301400,7.606301513671875,-0.21948643028736115,-0.4597490727901459,0.028134552761912346
1789031871380305400,7.616305419921875,-0.22283396124839783,-0.3169090151786804,0.025212738662958145
1789031871390308600,7.62630859375,-0.21601441502571106,-0.20815059542655945,0.025850830599665642
1789031871400311600,7.6363115234375,-0.22670519351959229,-0.23123610019683838,0.057250093668699265
1789031871410314500,7.646314453125,-0.23870140314102173,-0.3566584587097168,0.10861527919769287
1789031871420318700,7.656318603515625,-0.24135729670524597,-0.46277984976768494,0.15110887587070465
1789031871430321400,7.6663212890625,-0.23333773016929626,-0.4726111888885498,0.15247853100299835
1789031871440324600,7.67632470703125,-0.22366203367710114,-0.37820935249328613,0.1279115080833435
1789031871450328600,7.68632861328125,-0.2078455239534378,-0.18475735187530518,0.10875540226697922
1789031871460331500,7.69633154296875,-0.17482677102088928,0.06098661944270134,0.08607850223779678
1789031871470334500,7.70633447265625,-0.11265528202056885,0.2530553936958313,0.049006231129169464
1789031871480338000,7.716337890625,-0.06242725998163223,0.3576728105545044,-0.0031999838538467884
1789031871490342000,7.726341796875,-0.03875415399670601,0.445867121219635,-0.05158722400665283
1789031871500345000,7.736344970703125,-0.014424091205000877,0.5284308791160583,-0.06470377743244171
1789031871510347800,7.74634765625,0.005234564654529095,0.6415550112724304,-0.04879352077841759
1789031871520351000,7.75635107421875,0.0180001612752676,0.7339448928833008,-0.02732817456126213
1789031871530355000,7.76635498046875,0.04370152950286865,0.7595258355140686,-0.03892704099416733
1789031871540358000,7.77635791015625,0.05776682496070862,0.7591466307640076,-0.09717098623514175
1789031871550360800,7.78636083984375,0.057394251227378845,0.710780680179596,-0.16311563551425934
1789031871560364000,7.796364013671875,0.06785722076892853,0.6199092268943787,-0.19370226562023163
1789031871570367700,7.80636767578125,0.09050314128398895,0.5415337085723877,-0.197073295712471
1789031871580371000,7.816370849609375,0.09265585243701935,0.5216250419616699,-0.19200244545936584
1789031871590374000,7.826373779296875,0.08298644423484802,0.5598675012588501,-0.2140430361032486
1789031871600377900,7.8363779296875,0.06937208026647568,0.5949669480323792,-0.256073534488678
1789031871610380800,7.846380859375,0.04550670087337494,0.5898134708404541,-0.2951096296310425
1789031871620384000,7.856384033203125,-0.0019705260638147593,0.506587028503418,-0.3126649558544159
1789031871630387000,7.866386962890625,-0.043067093938589096,0.35392293334007263,-0.30043891072273254
1789031871640391000,7.876390869140625,-0.08517415076494217,0.18430674076080322,-0.27698463201522827
1789031871650393900,7.886393798828125,-0.11445507407188416,0.04783385619521141,-0.27547702193260193
1789031871660396800,7.896396728515625,-0.11933796852827072,-0.01294947974383831,-0.3073265552520752
1789031871670400000,7.90639990234375,-0.10940331220626831,-0.016086416319012642,-0.3501531183719635
1789031871680404000,7.916404052734375,-0.12077394127845764,-0.0267807524651289,-0.3637706935405731
1789031871690407000,7.926406982421875,-0.15307249128818512,-0.05760151892900467,-0.33639925718307495
1789031871700409900,7.936409912109375,-0.17884601652622223,-0.12182359397411346,-0.2714790999889374
1789031871710413000,7.9464130859375,-0.1924545019865036,-0.16612981259822845,-0.2126930207014084
1789031871720417000,7.9564169921875,-0.1987009346485138,-0.1433074176311493,-0.18684706091880798
1789031871730420000,7.966419921875,-0.1915769726037979,-0.08143819868564606,-0.20441140234470367
1789031871740423000,7.9764228515625,-0.1863313913345337,-0.05391274392604828,-0.21735405921936035
1789031871750425900,7.98642578125,-0.1734805703163147,-0.11650634557008743,-0.19818489253520966
1789031871760429800,7.996429931640625,-0.15058159828186035,-0.24637272953987122,-0.13802173733711243
1789031871770433000,8.00643310546875,-0.14977385103702545,-0.2992716133594513,-0.10303793102502823
1789031871780435700,8.016435791015626,-0.15489645302295685,-0.24314658343791962,-0.12342656403779984
1789031871790440000,8.02643994140625,-0.1424640268087387,-0.17502814531326294,-0.15716905891895294
1789031871800443000,8.03644287109375,-0.1138872429728508,-0.1408783495426178,-0.19254381954669952
1789031871810445800,8.04644580078125,-0.10193631052970886,-0.18074747920036316,-0.1809697300195694
1789031871820448800,8.05644873046875,-0.08756933361291885,-0.2610541880130768,-0.13363897800445557
1789031871830453000,8.066452880859375,-0.06186583265662193,-0.3016684651374817,-0.10840899497270584
1789031871840456000,8.0764560546875,-0.03459831327199936,-0.30610254406929016,-0.10230683535337448
1789031871850459000,8.086458984375,-0.025501755997538567,-0.277834951877594,-0.12061206996440887
1789031871860461800,8.0964619140625,-0.02054610662162304,-0.24009396135807037,-0.16037523746490479
1789031871870466000,8.106466064453125,-0.0029490040615200996,-0.21419206261634827,-0.2139548361301422
1789031871880468700,8.11646875,0.040712468326091766,-0.14598552882671356,-0.28923550248146057
1789031871890472000,8.126471923828126,0.11009287089109421,-0.036656640470027924,-0.3920878469944
1789031871900475000,8.136474853515624,0.16611990332603455,0.0445619598031044,-0.5035192370414734
1789031871910478800,8.146478759765625,0.20382121205329895,0.027147551998496056,-0.6123682260513306
1789031871920482000,8.15648193359375,0.23791025578975677,-0.14475752413272858,-0.6994307637214661
1789031871930485000,8.166485107421876,0.24942123889923096,-0.42582809925079346,-0.7799469232559204
1789031871940488000,8.176488037109374,0.2453201860189438,-0.6649343967437744,-0.8586025238037109
1789031871950492000,8.186491943359375,0.22070592641830444,-0.7928665280342102,-0.9116007685661316
1789031871960495000,8.1964951171875,0.23384889960289001,-0.8042529225349426,-0.9220017194747925
1789031871970497800,8.206497802734376,0.2794123888015747,-0.7524533867835999,-0.8444288969039917
1789031871980502000,8.216501953125,0.3319927453994751,-0.6404195427894592,-0.7293196320533752
1789031871990505000,8.2265048828125,0.4008554518222809,-0.4387780725955963,-0.6596060395240784
1789031872000508000,8.2365078125,0.48833394050598145,-0.16493655741214752,-0.6600047945976257
1789031872010510800,8.2465107421875,0.5600632429122925,0.06142280995845795,-0.6861754059791565
1789031872020515000,8.25651513671875,0.5841853022575378,0.17101261019706726,-0.659552276134491
1789031872030517800,8.266517822265625,0.5690955519676208,0.20354339480400085,-0.5732067227363586
1789031872040521000,8.27652099609375,0.5306106209754944,0.3153292238712311,-0.504564106464386
1789031872050524000,8.28652392578125,0.5004093050956726,0.5633278489112854,-0.5416499376296997
1789031872060527900,8.29652783203125,0.5025613307952881,0.7467780709266663,-0.6976538300514221
1789031872070530800,8.30653076171875,0.49565067887306213,0.7139557003974915,-0.8313474655151367
1789031872080534000,8.316533935546875,0.45263105630874634,0.5694611072540283,-0.7996127605438232
1789031872090537000,8.326536865234376,0.3715745508670807,0.46249738335609436,-0.5726144909858704
1789031872100541000,8.336541015625,0.2678065896034241,0.41316550970077515,-0.2676556408405304
1789031872110544000,8.3465439453125,0.1805848777294159,0.3749270439147949,0.0030472269281744957
1789031872120546800,8.356546875,0.1123720109462738,0.25239595770835876,0.20446263253688812
1789031872130550000,8.366550048828126,0.07013214379549026,0.023745719343423843,0.36422672867774963
1789031872140554000,8.376553955078125,0.05916257202625275,-0.226017028093338,0.5266212821006775
1789031872150557000,8.386556884765625,0.05839638039469719,-0.34956052899360657,0.7044253349304199
1789031872160559900,8.396559814453125,0.05393720045685768,-0.3819446563720703,0.8175199031829834
1789031872170563800,8.406563720703126,0.05742434412240982,-0.41233399510383606,0.7808806300163269
1789031872180566800,8.41656689453125,0.051218364387750626,-0.4194539189338684,0.5941739678382874
1789031872190570000,8.426570068359375,0.01940930262207985,-0.35016512870788574,0.33535727858543396
1789031872200573000,8.436572998046875,-0.0322013683617115,-0.17437753081321716,0.09011497348546982
1789031872210577000,8.446576904296874,-0.0696355551481247,0.029923414811491966,-0.12539975345134735
1789031872220579800,8.456579833984375,-0.07263617217540741,0.17083273828029633,-0.339481383562088
1789031872230583000,8.4665830078125,-0.06775513291358948,0.2556336522102356,-0.5094070434570312
1789031872240585700,8.476585693359375,-0.04728713631629944,0.2835400104522705,-0.6207740306854248
1789031872250590000,8.48658984375,-0.03791733458638191,0.20564790070056915,-0.6720313429832458
1789031872260593000,8.496593017578125,-0.05447687953710556,0.08755762130022049,-0.6647883653640747
1789031872270595800,8.506595947265625,-0.05465850606560707,0.01462988369166851,-0.6177151203155518
1789031872280598800,8.516598876953125,-0.0158330537378788,-0.06502372026443481,-0.5763333439826965
1789031872290603000,8.52660302734375,0.0250275619328022,-0.1593342423439026,-0.5754299759864807
1789031872300606000,8.53660595703125,0.029387647286057472,-0.2603716254234314,-0.5753051042556763
1789031872310609000,8.54660888671875,0.005295627750456333,-0.33418992161750793,-0.5194817781448364
1789031872320611800,8.55661181640625,-0.0020919516682624817,-0.36469942331314087,-0.44453614950180054
1789031872330616000,8.566615966796874,0.03064016066491604,-0.38700899481773376,-0.39277735352516174
1789031872340618800,8.57661865234375,0.0965036079287529,-0.4054473340511322,-0.332939088344574
1789031872350622000,8.5866220703125,0.16435056924819946,-0.4455161988735199,-0.23309370875358582
1789031872360625000,8.596625,0.20218844711780548,-0.38603633642196655,-0.07149012386798859
1789031872370628900,8.60662890625,0.232225701212883,-0.2706277370452881,0.1151314228773117
1789031872380631800,8.6166318359375,0.24972420930862427,-0.15074148774147034,0.27343031764030457
1789031872390635000,8.626635009765625,0.2919318675994873,-0.054134778678417206,0.3879454433917999
1789031872400638700,8.636638671875,0.3325626254081726,0.017908761277794838,0.4506301283836365
1789031872410642000,8.646641845703124,0.3381888270378113,0.10447108000516891,0.4790678918361664
1789031872420645000,8.65664501953125,0.3136114478111267,0.19457794725894928,0.530791699886322
1789031872430647800,8.666647705078125,0.25754284858703613,0.258505254983902,0.6146498918533325
1789031872440651800,8.67665185546875,0.2059168964624405,0.3008054196834564,0.7043645977973938
1789031872450655000,8.686655029296874,0.19593510031700134,0.33460599184036255,0.7678303718566895
1789031872460658000,8.696657958984375,0.19901956617832184,0.3794574737548828,0.8175595998764038
1789031872470660900,8.706660888671875,0.1852014809846878,0.44487881660461426,0.8660615682601929
1789031872480664600,8.71666455078125,0.15612350404262543,0.5326260924339294,0.9098250269889832
1789031872490667500,8.72666748046875,0.10608668625354767,0.6367868185043335,0.9501431584358215
1789031872500670700,8.736670654296875,0.050362199544906616,0.7103489637374878,0.9865152835845947
1789031872510673400,8.74667333984375,-0.001329758670181036,0.6647175550460815,1.0267928838729858
1789031872520677600,8.756677734375,-0.015283164568245411,0.5254412293434143,1.0561772584915161
1789031872530680600,8.7666806640625,-0.011523313820362091,0.38453763723373413,1.0403239727020264
1789031872540683500,8.77668359375,-0.045809660106897354,0.2902534008026123,0.993341326713562
1789031872550686700,8.786686767578125,-0.1293727308511734,0.2311253696680069,0.9266480207443237
1789031872560690700,8.796690673828126,-0.22466620802879333,0.12666049599647522,0.8668139576911926
1789031872570693400,8.806693359375,-0.24784396588802338,-0.052969180047512054,0.8172866106033325
1789031872580696600,8.816696533203125,-0.20275315642356873,-0.2947976887226105,0.7993395328521729
1789031872590699800,8.82669970703125,-0.14479291439056396,-0.4989497661590576,0.7845020294189453
1789031872600703500,8.836703369140626,-0.09680115431547165,-0.5954350233078003,0.784527599811554
1789031872610706700,8.846706787109374,-0.07154560089111328,-0.5849277973175049,0.8430417776107788
1789031872620709600,8.856709716796875,-0.07056397944688797,-0.4792296588420868,0.9057570695877075
1789031872630712600,8.866712646484375,-0.059340089559555054,-0.3460545837879181,0.9395107626914978
1789031872640716500,8.876716552734376,-0.020272841677069664,-0.27681440114974976,0.9228947758674622
1789031872650719700,8.8867197265625,0.040025919675827026,-0.28742122650146484,0.8508530855178833
1789031872660722400,8.896722412109375,0.08873164653778076,-0.3467966914176941,0.7581250667572021
1789031872670725600,8.9067255859375,0.08019088953733444,-0.39713338017463684,0.6605638861656189
1789031872680729600,8.9167294921875,0.04676934704184532,-0.3885310888290405,0.5885615348815918
1789031872690732500,8.926732666015624,0.0077873291447758675,-0.3667445480823517,0.5457408428192139
1789031872700735500,8.936735595703125,-0.021843861788511276,-0.39941468834877014,0.5239471793174744
1789031872710739700,8.94673974609375,-0.029879150912165642,-0.48725348711013794,0.49645400047302246
1789031872720742400,8.956742431640626,-0.055876366794109344,-0.5688511729240417,0.45167267322540283
1789031872730745600,8.96674560546875,-0.10398424416780472,-0.5767056345939636,0.40936967730522156
1789031872740748500,8.97674853515625,-0.16092956066131592,-0.5344700813293457,0.3813585638999939
1789031872750752800,8.986752685546875,-0.1943940371274948,-0.5177821516990662,0.37093600630760193
1789031872760755500,8.99675537109375,-0.21306489408016205,-0.5206444263458252,0.3778223991394043
1789031872770758700,9.006758544921874,-0.22951045632362366,-0.5118551850318909,0.36968591809272766
1789031872780761600,9.01676171875,-0.25683584809303284,-0.48603031039237976,0.3308349549770355
1789031872790765600,9.026765625,-0.2725572884082794,-0.4366406798362732,0.27254873514175415
1789031872800768500,9.0367685546875,-0.28863048553466797,-0.38938072323799133,0.23982642590999603
1789031872810771500,9.046771484375,-0.29031839966773987,-0.3575176000595093,0.23118659853935242
1789031872820774700,9.056774658203125,-0.27262169122695923,-0.3916003704071045,0.23025529086589813
1789031872830778600,9.066778564453125,-0.23720510303974152,-0.4852379262447357,0.2125692367553711
1789031872840781600,9.076781494140626,-0.20321492850780487,-0.5883413553237915,0.18752329051494598
1789031872850784500,9.086784423828124,-0.18662849068641663,-0.6269398927688599,0.14340296387672424
1789031872860787700,9.09678759765625,-0.21344122290611267,-0.6040309071540833,0.11381100118160248
1789031872870791700,9.106791748046875,-0.24289178848266602,-0.5705363750457764,0.11094757169485092
1789031872880794600,9.116794677734376,-0.2461584359407425,-0.5538497567176819,0.11580279469490051
1789031872890797600,9.126797607421874,-0.2191031128168106,-0.5211445689201355,0.11069485545158386
1789031872900800500,9.136800537109375,-0.18176870048046112,-0.4232974946498871,0.0865047350525856
1789031872910804500,9.146804443359375,-0.15721195936203003,-0.21964475512504578,0.03746582567691803
1789031872920807700,9.1568076171875,-0.13600604236125946,-0.007599754258990288,-0.00484431441873312
1789031872930810400,9.166810302734374,-0.11926727741956711,0.10495102405548096,-0.010159717872738838
1789031872940813600,9.1768134765625,-0.09730231016874313,0.13787274062633514,0.02643875777721405
1789031872950817500,9.186817626953125,-0.0901743620634079,0.1563153862953186,0.061194077134132385
1789031872960820700,9.19682080078125,-0.08424989134073257,0.20315639674663544,0.07073192298412323
1789031872970823400,9.206823486328124,-0.07850705087184906,0.28827181458473206,0.05088844150304794
1789031872980826600,9.21682666015625,-0.07467076182365417,0.34566017985343933,0.032366953790187836
1789031872990830600,9.22683056640625,-0.06782164424657822,0.36668211221694946,0.026021704077720642
1789031873000833500,9.23683349609375,-0.04998039826750755,0.3683551847934723,0.01132218912243843
1789031873010836500,9.24683642578125,-0.03815436363220215,0.39868006110191345,-0.04355224594473839
1789031873020839400,9.25683935546875,-0.038009122014045715,0.4688582718372345,-0.1212197095155716
1789031873030843400,9.266843505859375,-0.033739540725946426,0.5525198578834534,-0.18605729937553406
1789031873040846600,9.2768466796875,-0.006638467311859131,0.6159991025924683,-0.21694006025791168
1789031873050849800,9.286849853515625,0.03091743029654026,0.6556583642959595,-0.2248387336730957
1789031873060852500,9.2968525390625,0.07071042060852051,0.6826701760292053,-0.24183692038059235
1789031873070856400,9.3068564453125,0.10308220982551575,0.6788991689682007,-0.27755895256996155
1789031873080859600,9.316859619140626,0.13415859639644623,0.6767746210098267,-0.33309701085090637
1789031873090862600,9.326862548828124,0.16123203933238983,0.6889103651046753,-0.40043556690216064
1789031873100865500,9.336865478515625,0.17849676311016083,0.7007955312728882,-0.466532826423645
1789031873110869800,9.346869873046876,0.18537624180316925,0.6753897666931152,-0.4886471927165985
1789031873120872400,9.35687255859375,0.19024048745632172,0.5904321074485779,-0.4484960436820984
1789031873130875600,9.366875732421875,0.1974714994430542,0.5227543115615845,-0.39339977502822876
1789031873140879600,9.376879638671875,0.2063518762588501,0.5341761112213135,-0.3883028030395508
1789031873150882600,9.386882568359376,0.20006388425827026,0.5770615339279175,-0.41662365198135376
1789031873160885500,9.396885498046874,0.18250323832035065,0.5650381445884705,-0.4367959797382355
1789031873170888700,9.406888671875,0.14040398597717285,0.48474034667015076,-0.4520801305770874
1789031873180892400,9.416892333984375,0.0837995782494545,0.36357027292251587,-0.45582082867622375
1789031873190895600,9.4268955078125,0.05049782246351242,0.2747266888618469,-0.47750961780548096
1789031873200898600,9.436898681640624,0.028985846787691116,0.26117751002311707,-0.5127568244934082
1789031873210901500,9.446901611328125,0.027531761676073074,0.2798002064228058,-0.5443105101585388
1789031873220905500,9.456905517578125,0.05655377358198166,0.2440924197435379,-0.5613184571266174
1789031873230908700,9.46690869140625,0.0654308944940567,0.16546551883220673,-0.5727668404579163
1789031873240911400,9.476911376953124,0.045858029276132584,0.08106646686792374,-0.5978503823280334
1789031873250914600,9.48691455078125,0.013389036990702152,-0.014920517802238464,-0.6057597398757935
1789031873260918500,9.49691845703125,-0.03426290675997734,-0.09483212977647781,-0.5776934623718262
1789031873270921500,9.50692138671875,-0.08722971379756927,-0.12825053930282593,-0.5364011526107788
1789031873280924700,9.516924560546874,-0.12141355872154236,-0.13573488593101501,-0.4935274124145508
1789031873290927600,9.526927734375,-0.12461414188146591,-0.14866451919078827,-0.4630264937877655
1789031873300931300,9.536931396484375,-0.09426959604024887,-0.18990421295166016,-0.4601885676383972
1789031873310934500,9.5469345703125,-0.05943518504500389,-0.22920502722263336,-0.4622676968574524
1789031873320937700,9.556937744140624,-0.008444900624454021,-0.22384847700595856,-0.47628718614578247
1789031873330940400,9.5669404296875,0.05230792611837387,-0.17959900200366974,-0.47861453890800476
1789031873340944600,9.576944580078125,0.1206018477678299,-0.13781900703907013,-0.46273285150527954
1789031873350947600,9.586947509765626,0.19402119517326355,-0.1084643080830574,-0.45162588357925415
1789031873360950500,9.596950439453124,0.23520590364933014,-0.11241254210472107,-0.4822540581226349
1789031873370953500,9.606953369140625,0.23152461647987366,-0.14566822350025177,-0.5571778416633606
1789031873380957700,9.616957763671875,0.18940483033657074,-0.1628415584564209,-0.658024251461029
1789031873390960400,9.62696044921875,0.14614364504814148,-0.18185199797153473,-0.7380155324935913
1789031873400963600,9.636963623046874,0.14464367926120758,-0.24762576818466187,-0.7703206539154053
1789031873410966500,9.646966552734375,0.18655037879943848,-0.37113359570503235,-0.7360835671424866
1789031873420970800,9.656970703125,0.19801263511180878,-0.4047829210758209,-0.6906679272651672
1789031873430973400,9.666973388671876,0.2257729023694992,-0.28611114621162415,-0.6901054382324219
1789031873440976600,9.6769765625,0.26681196689605713,-0.14939239621162415,-0.686718225479126
1789031873450979600,9.6869794921875,0.3199353814125061,-0.06985973566770554,-0.583538293838501
1789031873460983600,9.696983642578125,0.3287118375301361,0.04289564490318298,-0.3812014162540436
1789031873470986500,9.706986572265626,0.3317691385746002,0.22516770660877228,-0.17240960896015167
1789031873480989400,9.716989501953124,0.348923921585083,0.4279547333717346,-0.047145720571279526
1789031873490992400,9.726992431640625,0.2981441020965576,0.5083608627319336,-0.010724330320954323
1789031873500996400,9.736996337890625,0.18390826880931854,0.4071709215641022,-0.004444274585694075
1789031873510999300,9.746999267578126,0.1105903908610344,0.2802603840827942,0.015804538503289223
1789031873521002200,9.757002197265624,0.0620918907225132,0.25931525230407715,0.0638367161154747
1789031873531005400,9.76700537109375,0.0656203106045723,0.2903594374656677,0.11393077671527863
1789031873541009200,9.777009033203125,0.10593925416469574,0.1989205777645111,0.12358871847391129
1789031873551012400,9.787012451171876,0.09258882701396942,-0.001425833674147725,0.1272801160812378
1789031873561015300,9.797015380859374,0.04333701357245445,-0.16437917947769165,0.1834212690591812
1789031873571018200,9.807018310546875,0.012939426116645336,-0.20404057204723358,0.2808804512023926
1789031873581022200,9.817022216796875,0.03590824827551842,-0.17120197415351868,0.34355810284614563
1789031873591025400,9.827025390625,0.09348445385694504,-0.15874822437763214,0.2829863429069519
1789031873601028000,9.837028076171874,0.11506824940443039,-0.1920466125011444,0.08158566057682037
1789031873611031300,9.84703125,0.11742381751537323,-0.18144536018371582,-0.12812335789203644
1789031873621035300,9.85703515625,0.13512133061885834,-0.09869778156280518,-0.2023315578699112
1789031873631038200,9.8670380859375,0.18063795566558838,0.01657767966389656,-0.18823544681072235
1789031873641041200,9.877041259765624,0.23990927636623383,0.10787168145179749,-0.2479107677936554
1789031873651044400,9.88704443359375,0.27952566742897034,0.060276202857494354,-0.42235422134399414
1789031873661048000,9.897048095703125,0.26680001616477966,-0.06670929491519928,-0.5857069492340088
1789031873671051300,9.90705126953125,0.24112606048583984,-0.15023508667945862,-0.6073848009109497
1789031873681054500,9.917054443359374,0.2272946536540985,-0.19174940884113312,-0.5009336471557617
1789031873691057200,9.92705712890625,0.2104988992214203,-0.23100440204143524,-0.36892610788345337
1789031873701061400,9.937061279296875,0.2153128683567047,-0.2435300052165985,-0.31184637546539307
1789031873711064300,9.947064208984376,0.23063164949417114,-0.24157418310642242,-0.2976323068141937
1789031873721067300,9.9570673828125,0.2272922545671463,-0.24574366211891174,-0.23089554905891418
1789031873731070200,9.9670703125,0.218403160572052,-0.2651061713695526,-0.07216688990592957
1789031873741074400,9.977074462890625,0.18625350296497345,-0.2829335629940033,0.15161852538585663
1789031873751077000,9.9870771484375,0.1580016165971756,-0.24583597481250763,0.322457879781723
1789031873761080300,9.997080322265624,0.1422324925661087,-0.16233892738819122,0.39869117736816406
1789031873771083300,10.007083251953125,0.1491156965494156,-0.0740165188908577,0.4116988480091095
1789031873781087200,10.017087158203125,0.18873529136180878,0.03142545372247696,0.43294259905815125
1789031873791090200,10.027090087890626,0.19228129088878632,0.12282594293355942,0.5145631432533264
1789031873801093400,10.03709326171875,0.1817469298839569,0.20395025610923767,0.6247394680976868
1789031873811096000,10.047095947265625,0.16888545453548431,0.2939895987510681,0.7225789427757263
1789031873821100300,10.057100341796875,0.14390821754932404,0.375038206577301,0.7772613167762756
1789031873831103200,10.067103271484376,0.15547965466976166,0.4756156802177429,0.7981863021850586
1789031873841106200,10.077106201171874,0.16222912073135376,0.573866069316864,0.8212788701057434
1789031873851109400,10.087109375,0.16656528413295746,0.6690014004707336,0.8571383357048035
1789031873861113300,10.09711328125,0.1414598971605301,0.6946433186531067,0.9138796925544739
1789031873871116300,10.1071162109375,0.09169207513332367,0.5926554799079895,0.9696891903877258
1789031873881119200,10.117119140625,0.050424329936504364,0.39843109250068665,0.9863980412483215
1789031873891122400,10.127122314453125,0.014038623310625553,0.19761542975902557,0.9591531157493591
1789031873901126400,10.13712646484375,-0.03972799703478813,0.056985996663570404,0.8969891667366028
1789031873911129300,10.14712939453125,-0.11216064542531967,-0.02716216817498207,0.845867931842804
1789031873921132300,10.15713232421875,-0.17961712181568146,-0.11452271044254303,0.8150566220283508
1789031873931135200,10.16713525390625,-0.22020848095417023,-0.22019508481025696,0.8294810652732849
1789031873941139200,10.17713916015625,-0.2420610636472702,-0.3228311538696289,0.8694421648979187
1789031873951142400,10.187142333984376,-0.27899831533432007,-0.3982417583465576,0.9101528525352478
1789031873961145000,10.19714501953125,-0.3228917121887207,-0.4389534890651703,0.9328879714012146
1789031873971148300,10.207148193359375,-0.3572970926761627,-0.4663851261138916,0.9265751838684082
1789031873981152300,10.21715234375,-0.3677777647972107,-0.49621665477752686,0.8921706080436707
1789031873991155500,10.227155517578124,-0.36754900217056274,-0.5604217052459717,0.8241915702819824
1789031874001158100,10.237158203125,-0.3596148192882538,-0.6496132612228394,0.7411613464355469
1789031874011161300,10.247161376953125,-0.34229975938796997,-0.7601016759872437,0.6495118737220764
1789031874021165300,10.257165283203125,-0.3337174654006958,-0.884103000164032,0.5875497460365295
1789031874031168300,10.267168212890626,-0.31368809938430786,-0.9932327270507812,0.5572517514228821
1789031874041171200,10.277171142578124,-0.287963330745697,-1.1034698486328125,0.5460084080696106
1789031874051174100,10.287174072265625,-0.2528628706932068,-1.1982368230819702,0.541721522808075
1789031874061178000,10.29717822265625,-0.226936474442482,-1.250967264175415,0.5407606959342957
1789031874071181300,10.307181396484374,-0.21888121962547302,-1.2279162406921387,0.5229701995849609
1789031874081184500,10.3171845703125,-0.22416187822818756,-1.137230634689331,0.5028672218322754
1789031874091187200,10.327187255859375,-0.22054584324359894,-1.0072863101959229,0.46935245394706726
1789031874101191200,10.337191162109375,-0.1982869803905487,-0.8775777816772461,0.41322988271713257
1789031874111194400,10.3471943359375,-0.16224108636379242,-0.7483670711517334,0.3427048325538635
1789031874121197300,10.357197265625,-0.1265355497598648,-0.6184769868850708,0.2614313066005707
1789031874131200300,10.3672001953125,-0.0983574390411377,-0.5012070536613464,0.1782570481300354
1789031874141204500,10.37720458984375,-0.09061513841152191,-0.39517682790756226,0.10803963243961334
1789031874151207200,10.387207275390624,-0.09829781949520111,-0.277631551027298,0.08347756415605545
1789031874161210400,10.39721044921875,-0.11987685412168503,-0.23605972528457642,0.07114603370428085
1789031874171213300,10.40721337890625,-0.14648370444774628,-0.2560989558696747,0.03477950766682625
1789031874181217300,10.41721728515625,-0.17029902338981628,-0.26883649826049805,-0.012558696791529655
1789031874191220200,10.42722021484375,-0.17365701496601105,-0.2646380066871643,-0.051838457584381104
1789031874201223400,10.437223388671875,-0.16692231595516205,-0.23186597228050232,-0.07409697771072388
1789031874211226000,10.44722607421875,-0.14405934512615204,-0.12771905958652496,-0.08313041925430298
1789031874221230300,10.457230224609376,-0.12635654211044312,-0.0010039724875241518,-0.08910281211137772
1789031874231233300,10.4672333984375,-0.12789477407932281,0.039479006081819534,-0.08910626918077469
1789031874241236200,10.477236328125,-0.13691526651382446,-0.015738731250166893,-0.06920889765024185
1789031874251239400,10.487239501953125,-0.14589305222034454,-0.08162187784910202,-0.03171399235725403
1789031874261243400,10.497243408203126,-0.1638387143611908,-0.07569995522499084,-0.01237575989216566
1789031874271246000,10.50724609375,-0.16873201727867126,0.011461038142442703,-0.015386196784675121
1789031874281249300,10.517249267578125,-0.15060122311115265,0.11929945647716522,-0.02155459299683571
1789031874291252500,10.52725244140625,-0.11859295517206192,0.19815164804458618,-0.044397853314876556
1789031874301256200,10.537256103515626,-0.09504230320453644,0.23295140266418457,-0.09761719405651093
1789031874311259400,10.54725927734375,-0.08634574711322784,0.2842724025249481,-0.1510138362646103
1789031874321262300,10.557262451171875,-0.07258924096822739,0.3493804633617401,-0.18800882995128632
1789031874331265300,10.567265380859375,-0.06336724758148193,0.4246951937675476,-0.22456391155719757
1789031874341269200,10.577269287109376,-0.048493221402168274,0.5087586641311646,-0.2670629024505615
1789031874351272400,10.5872724609375,-0.03664775192737579,0.5929862260818481,-0.2859761416912079
1789031874361275100,10.597275146484375,0.0002687226515263319,0.6277276277542114,-0.278602659702301
1789031874371278300,10.6072783203125,0.03932370990514755,0.599658191204071,-0.25987717509269714
1789031874381282300,10.6172822265625,0.06117229536175728,0.5577976703643799,-0.2499302625656128
1789031874391285200,10.62728515625,0.05114629492163658,0.5109574794769287,-0.24809879064559937
1789031874401288200,10.6372880859375,0.03181416168808937,0.484371542930603,-0.25093695521354675
1789031874411291400,10.64729150390625,0.013849272392690182,0.4954172968864441,-0.2446068823337555
1789031874421294300,10.65729443359375,0.015804819762706757,0.5607989430427551,-0.22841298580169678
1789031874431298300,10.66729833984375,0.022424640133976936,0.6710585951805115,-0.2307874709367752
1789031874441301200,10.67730126953125,0.026522496715188026,0.7933140397071838,-0.2565445303916931
1789031874451304200,10.68730419921875,0.024949898943305016,0.8726213574409485,-0.28453436493873596
1789031874461307400,10.697307373046876,0.029563510790467262,0.8845096230506897,-0.29509881138801575
1789031874471311400,10.707311279296874,0.03149217367172241,0.8319470882415771,-0.28713327646255493
1789031874481314300,10.717314208984375,0.03877193480730057,0.7318135499954224,-0.2693790793418884
1789031874491317800,10.72731787109375,0.04684530571103096,0.6226407289505005,-0.25878769159317017
1789031874501321000,10.737321044921876,0.05304728448390961,0.5484960675239563,-0.272849977016449
1789031874511325000,10.747324951171874,0.05753817409276962,0.5469972491264343,-0.312369167804718
1789031874521327600,10.75732763671875,0.07817767560482025,0.6080414652824402,-0.3611295223236084
1789031874531330800,10.767330810546875,0.07689323276281357,0.6839743256568909,-0.41316527128219604
1789031874541334000,10.777333984375,0.06824805587530136,0.7063814997673035,-0.4540671408176422
1789031874551337700,10.787337646484374,0.04807780310511589,0.6656486988067627,-0.4813868999481201
1789031874561341000,10.7973408203125,0.018091624602675438,0.5748441219329834,-0.4832178056240082
1789031874571344000,10.80734375,-0.013752857223153114,0.4663507044315338,-0.47596922516822815
1789031874581346800,10.817346923828126,-0.026742873713374138,0.3282092809677124,-0.453997939825058
1789031874591350800,10.827350830078124,-0.02867233380675316,0.18931852281093597,-0.43170806765556335
1789031874601354000,10.83735400390625,-0.024115655571222305,0.10017404705286026,-0.44834861159324646
1789031874611356700,10.847356689453125,-0.01854032650589943,0.07734649628400803,-0.5038959980010986
1789031874621359900,10.85735986328125,-0.010683990083634853,0.06134520098567009,-0.5582093000411987
1789031874631363800,10.86736376953125,0.01478941272944212,0.013494588434696198,-0.5981122851371765
1789031874641366800,10.87736669921875,0.02399379014968872,-0.05718204006552696,-0.6239011883735657
1789031874651369700,10.88736962890625,0.045984309166669846,-0.1232374906539917,-0.6337090730667114
1789031874661373000,10.897373046875,0.08321346342563629,-0.12523344159126282,-0.6667395234107971
1789031874671376600,10.907376708984375,0.11493436992168427,-0.09991263598203659,-0.7101138830184937
1789031874681379800,10.9173798828125,0.15900994837284088,-0.08795729279518127,-0.7489033937454224
1789031874691382800,10.9273828125,0.15532147884368896,-0.10902662575244904,-0.7659814357757568
1789031874701385700,10.9373857421875,0.17245355248451233,-0.12836404144763947,-0.774288535118103
1789031874711389700,10.9473896484375,0.16508832573890686,-0.1860547661781311,-0.7692453265190125
1789031874721393000,10.957392822265625,0.12757878005504608,-0.2374022901058197,-0.7606590986251831
1789031874731395800,10.967395751953125,0.11445552110671997,-0.25518181920051575,-0.8041314482688904
1789031874741398800,10.977398681640626,0.15116603672504425,-0.2689392864704132,-0.8717247843742371
1789031874751402800,10.98740283203125,0.17890578508377075,-0.2945658266544342,-0.9173436760902405
1789031874761405700,10.99740576171875,0.18355178833007812,-0.30193617939949036,-0.8991871476173401
1789031874771409000,11.007408935546875,0.19600632786750793,-0.23816093802452087,-0.8212444186210632
1789031874781411800,11.017411865234376,0.2670895755290985,-0.09362486749887466,-0.7482415437698364
1789031874791414800,11.027414794921874,0.33835095167160034,0.10140641033649445,-0.7073341012001038
1789031874801418800,11.037418701171875,0.362611323595047,0.2639833390712738,-0.6483248472213745
1789031874811422000,11.047421875,0.3695051670074463,0.32593804597854614,-0.4898800849914551
1789031874821424600,11.057424560546876,0.3637048006057739,0.3879971206188202,-0.2715005874633789
1789031874831427800,11.067427734375,0.3310062289237976,0.5085861086845398,-0.14100249111652374
1789031874841431800,11.077431884765625,0.27311307191848755,0.5965721011161804,-0.12707439064979553
1789031874851434800,11.087434814453125,0.22483767569065094,0.5390148162841797,-0.14631305634975433
1789031874861437700,11.097437744140626,0.20550747215747833,0.3817230761051178,-0.13091500103473663
1789031874871441000,11.10744091796875,0.20503103733062744,0.24600359797477722,-0.06189945712685585
1789031874881444900,11.11744482421875,0.20704858005046844,0.15692436695098877,0.04865933209657669
1789031874891447800,11.12744775390625,0.2050783783197403,0.12819631397724152,0.12616877257823944
1789031874901450800,11.13745068359375,0.17139527201652527,0.10103759914636612,0.13149160146713257
1789031874911453700,11.14745361328125,0.1249188482761383,0.029551703482866287,0.13774070143699646
1789031874921457700,11.157457763671875,0.0891890823841095,-0.0358218289911747,0.1992698609828949
1789031874931460900,11.1674609375,0.08227817714214325,-0.05666586011648178,0.2524068355560303
1789031874941463800,11.1774638671875,0.07956172525882721,-0.11014162003993988,0.2569475769996643
1789031874951466800,11.187466796875,0.0562867596745491,-0.21143920719623566,0.24705711007118225
1789031874961470700,11.197470703125,0.016842765733599663,-0.29552099108695984,0.23374095559120178
1789031874971474000,11.207473876953125,-0.026846924796700478,-0.2983039915561676,0.24321621656417847
1789031874981476900,11.217476806640626,-0.03682158887386322,-0.20919540524482727,0.2413744330406189
1789031874991479800,11.227479736328124,-0.0009291012538596988,-0.13186174631118774,0.12471067160367966
1789031875001484000,11.237484130859375,0.06487621366977692,-0.1658657342195511,-0.1591430902481079
1789031875011486700,11.24748681640625,0.11529997736215591,-0.23987923562526703,-0.4131133258342743
1789031875021490000,11.257489990234374,0.16551871597766876,-0.2376728355884552,-0.4669981598854065
1789031875031492600,11.26749267578125,0.24647589027881622,-0.21638165414333344,-0.502517580986023
1789031875041496800,11.277496826171875,0.28725719451904297,-0.2889004647731781,-0.5469896793365479
1789031875051499800,11.287499755859375,0.2822677493095398,-0.3488263785839081,-0.5818672180175781
1789031875061503000,11.2975029296875,0.25968411564826965,-0.3333815932273865,-0.5730130076408386
1789031875071505700,11.307505615234374,0.25465127825737,-0.22713051736354828,-0.4925040602684021
1789031875081510000,11.317510009765625,0.3013271391391754,-0.08931264281272888,-0.42002397775650024
1789031875091512800,11.327512939453126,0.36574313044548035,-0.05623618885874748,-0.3920786380767822
1789031875101515800,11.337515869140624,0.41649550199508667,-0.10168938338756561,-0.32465028762817383
1789031875111519000,11.34751904296875,0.41761934757232666,-0.03801693022251129,-0.1596331000328064
1789031875121521700,11.357521728515625,0.38797229528427124,0.160355806350708,0.09531816840171814
1789031875131525600,11.367525634765625,0.33263900876045227,0.4249421954154968,0.36911723017692566
1789031875141528800,11.37752880859375,0.2743006646633148,0.646067202091217,0.6206284761428833
1789031875151532000,11.387531982421875,0.2060137540102005,0.7529374361038208,0.8050904870033264
1789031875161534700,11.39753466796875,0.10607274621725082,0.6921665668487549,0.9105889797210693
1789031875171539000,11.4075390625,0.020438803359866142,0.5438114404678345,0.9373007416725159
1789031875181542000,11.4175419921875,-0.03435898199677467,0.37326037883758545,0.9289901256561279
1789031875191544800,11.427544921875,-0.034058310091495514,0.25539660453796387,0.9038820862770081
1789031875201547800,11.4375478515625,-0.01690332405269146,0.203700989484787,0.8698964715003967
1789031875211552000,11.447552001953126,-0.03729381412267685,0.17591622471809387,0.8708475232124329
1789031875221554700,11.4575546875,-0.06864479184150696,0.15433870255947113,0.913375973701477
1789031875231558000,11.467557861328125,-0.09390273690223694,0.09795451909303665,0.9607251286506653
1789031875241560800,11.477560791015625,-0.12920716404914856,-0.015218045562505722,0.9726084470748901
1789031875251564800,11.487564697265626,-0.15086105465888977,-0.15337590873241425,0.9636519551277161
1789031875261567700,11.497567626953124,-0.15093699097633362,-0.2884986996650696,0.9527990221977234
1789031875271571000,11.507571044921875,-0.17592622339725494,-0.40570682287216187,0.9742894172668457
1789031875281574000,11.517573974609375,-0.2083694040775299,-0.4252683222293854,1.0257593393325806
1789031875291577900,11.527577880859376,-0.23105314373970032,-0.34444859623908997,1.0631122589111328
1789031875301580800,11.537580810546874,-0.2381017506122589,-0.21978165209293365,1.0866245031356812
1789031875311583700,11.547583740234375,-0.21828170120716095,-0.1416761875152588,1.0814659595489502
1789031875321587000,11.5575869140625,-0.15838557481765747,-0.1457214206457138,1.02322256565094
1789031875331590000,11.56758984375,-0.09400471299886703,-0.20309416949748993,0.9160266518592834
1789031875341593900,11.57759375,-0.04321606829762459,-0.2647043466567993,0.7620766758918762
1789031875351596800,11.5875966796875,-0.01227439846843481,-0.3276452422142029,0.6097111105918884
1789031875361600000,11.59760009765625,-0.004118510987609625,-0.3755626678466797,0.5080711245536804
1789031875371602700,11.607602783203125,-0.021522268652915955,-0.3869974613189697,0.4811955392360687
1789031875381607000,11.61760693359375,-0.061887480318546295,-0.40357348322868347,0.4983294904232025
1789031875391609900,11.62760986328125,-0.09546114504337311,-0.4745917320251465,0.5147380232810974
1789031875401612800,11.63761279296875,-0.11915666610002518,-0.5963653922080994,0.5005921125411987
1789031875411615700,11.64761572265625,-0.12506701052188873,-0.7221795320510864,0.48410531878471375
1789031875421620000,11.657619873046874,-0.14281831681728363,-0.7889623641967773,0.47227317094802856
1789031875431622700,11.66762255859375,-0.18954773247241974,-0.7594673037528992,0.4627121388912201
1789031875441625900,11.6776259765625,-0.24441681802272797,-0.6560578942298889,0.43582165241241455
1789031875451628800,11.68762890625,-0.2676214873790741,-0.56229567527771,0.3866857886314392
1789031875461632800,11.6976328125,-0.2493351697921753,-0.5468189120292664,0.3346625566482544
1789031875471635700,11.7076357421875,-0.1999409943819046,-0.5730435848236084,0.29443472623825073
1789031875481639000,11.717638916015625,-0.14788715541362762,-0.5894356369972229,0.23324543237686157
1789031875491641900,11.727641845703126,-0.1073082983493805,-0.5483603477478027,0.1563841998577118
1789031875501645600,11.7376455078125,-0.08418291807174683,-0.40979450941085815,0.08971055597066879
1789031875511648800,11.747648681640625,-0.07606400549411774,-0.27642473578453064,0.02850925177335739
1789031875521651700,11.757651611328125,-0.08150278776884079,-0.19570167362689972,-0.01345570757985115
1789031875531654700,11.767654541015625,-0.08062607795000076,-0.180813267827034,-0.014344669878482819
1789031875541657600,11.77765771484375,-0.1002010703086853,-0.1667732149362564,0.01345390360802412
1789031875551661800,11.787661865234375,-0.1600063592195511,-0.12928256392478943,0.0368385873734951
1789031875561664500,11.79766455078125,-0.2012738734483719,-0.10378004610538483,0.043302856385707855
1789031875571667700,11.807667724609376,-0.20043684542179108,-0.14866416156291962,0.04804488271474838
1789031875581670700,11.817670654296874,-0.1529202163219452,-0.2286570817232132,0.04918127506971359
1789031875591674600,11.827674560546875,-0.10235530138015747,-0.2868969738483429,0.044193707406520844
1789031875601677600,11.837677490234375,-0.09424059092998505,-0.30282357335090637,0.019672058522701263
1789031875611680800,11.8476806640625,-0.1459471881389618,-0.3073549270629883,-0.012290667742490768
1789031875621683700,11.85768359375,-0.17989350855350494,-0.30343613028526306,-0.033777784556150436
1789031875631687700,11.867687744140625,-0.16743497550487518,-0.26441147923469543,-0.029073573648929596
1789031875641690600,11.877690673828125,-0.14330147206783295,-0.17740629613399506,-0.00640789233148098
1789031875651693600,11.887693603515626,-0.11178296059370041,-0.04237498342990875,0.027398541569709778
1789031875661696800,11.89769677734375,-0.08113763481378555,0.15474455058574677,0.0511954203248024
1789031875671700700,11.90770068359375,-0.06696295738220215,0.40575122833251953,0.04938393831253052
1789031875681703700,11.91770361328125,-0.05210726335644722,0.6347138285636902,0.03189864754676819
1789031875691706600,11.92770654296875,-0.018824676051735878,0.7213067412376404,-0.006242613308131695
1789031875701709800,11.937709716796874,0.015617158263921738,0.6211958527565002,-0.03926045820116997
1789031875711713500,11.947713623046875,0.03247390314936638,0.43062829971313477,-0.06884337961673737
1789031875721716700,11.957716796875,0.05088274925947189,0.3593962490558624,-0.10157417505979538
1789031875731719700,11.9677197265625,0.08282683044672012,0.4762813448905945,-0.13173474371433258
1789031875741722600,11.97772265625,0.1399896889925003,0.6721924543380737,-0.164885476231575
1789031875751725600,11.9877255859375,0.19423907995224,0.8359605669975281,-0.20224323868751526
1789031875761729800,11.997729736328125,0.21601706743240356,0.8808003067970276,-0.23109830915927887
1789031875771732500,12.007732421875,0.1964167356491089,0.7987760305404663,-0.25184139609336853
1789031875781735700,12.017735595703124,0.16109101474285126,0.6695911884307861,-0.26664650440216064
1789031875791738600,12.027738525390625,0.11909590661525726,0.5684365630149841,-0.2913212180137634
1789031875801742600,12.03774267578125,0.0850004032254219,0.5182269811630249,-0.32146623730659485
1789031875811745500,12.04774560546875,0.05743402615189552,0.4793248474597931,-0.3347274363040924
1789031875821748700,12.057748779296874,0.05404319241642952,0.42577826976776123,-0.34024596214294434
1789031875831751700,12.067751708984375,0.0736299455165863,0.3707038164138794,-0.3425040543079376
1789031875841755600,12.077755615234375,0.09363369643688202,0.3711310923099518,-0.38428205251693726
1789031875851758600,12.087758544921876,0.09396179765462875,0.4415605068206787,-0.4773363769054413
1789031875861761500,12.097761474609374,0.09258569777011871,0.5215138792991638,-0.5923182964324951
1789031875871764700,12.1077646484375,0.0821322575211525,0.5287659168243408,-0.6431489586830139
1789031875881768700,12.117768798828125,0.056632451713085175,0.4617618918418884,-0.6105747818946838
1789031875891771600,12.127771728515626,0.031067702919244766,0.33288031816482544,-0.5225943326950073
1789031875901774600,12.137774658203124,-0.012544470839202404,0.19538842141628265,-0.43843284249305725
1789031875911777800,12.14777783203125,-0.031161563470959663,0.07650090754032135,-0.41247740387916565
1789031875921780500,12.157780517578125,-0.05117945745587349,0.04344424977898598,-0.45455166697502136
1789031875931784700,12.16778466796875,-0.036290787160396576,0.09604274481534958,-0.5521125197410583
1789031875941787600,12.17778759765625,0.011647782288491726,0.1511763036251068,-0.6380022764205933
1789031875951790600,12.18779052734375,0.11655528843402863,0.13211074471473694,-0.6636847257614136
1789031875961793500,12.19779345703125,0.22897286713123322,0.08527813851833344,-0.6497741937637329
1789031875971797800,12.2077978515625,0.317472368478775,0.09263565391302109,-0.6694546937942505
1789031875981800400,12.217800537109374,0.39972779154777527,0.17157350480556488,-0.7422543168067932
1789031875991803600,12.2278037109375,0.4581975042819977,0.2967141270637512,-0.8349107503890991
1789031876001806800,12.237806884765625,0.49028676748275757,0.36979353427886963,-0.8587992787361145
1789031876011810600,12.247810546875,0.48726698756217957,0.3868332505226135,-0.8647639751434326
1789031876021813500,12.2578134765625,0.42905351519584656,0.41628122329711914,-0.8954441547393799
1789031876031816700,12.267816650390625,0.3112504482269287,0.4646812379360199,-0.9352389574050903
1789031876041819600,12.277819580078125,0.22619470953941345,0.5015042424201965,-0.9957268238067627
1789031876051822600,12.287822509765626,0.19677290320396423,0.44690537452697754,-1.0367506742477417
1789031876061826800,12.297826904296874,0.15416042506694794,0.31582197546958923,-1.0485191345214844
1789031876071829500,12.30782958984375,0.12037662416696548,0.2113131284713745,-1.0334131717681885
1789031876081832700,12.317832763671875,0.1263279914855957,0.15627524256706238,-0.9649544954299927
1789031876091835600,12.327835693359376,0.15736021101474762,0.15578629076480865,-0.8623983263969421
1789031876101839600,12.337839599609374,0.1556863933801651,0.14825110137462616,-0.6663028001785278
1789031876111842600,12.347842529296875,0.13784348964691162,0.1080501526594162,-0.3648894429206848
