time,seconds_elapsed,z,y,x
1789323482443235000,0.337235107421875,0,0,0
1789323482462085600,0.356085693359375,0.04388999938964844,-0.08712387084960938,0.1428741216659546
1789323482480936400,0.3749365234375,0.20599079132080078,-0.09949970245361328,0.20606446266174316
1789323482518637800,0.412637939453125,0.2846717834472656,-0.07045173645019531,0.1568894386291504
1789323482537488600,0.431488525390625,-0.060730934143066406,-0.11588859558105469,0.15987396240234375
1789323482584615400,0.478615478515625,-0.1145172119140625,0.1741013526916504,0.47592830657958984
1789323482603466000,0.497466064453125,0.5770788192749023,0.31554079055786133,0.4172571897506714
1789323482622316800,0.51631689453125,0.7768926620483398,0.2194676399230957,0.48131752014160156
1789323482641167600,0.535167724609375,0.9998569488525391,0.1953740119934082,0.336350679397583
1789323482660018200,0.55401806640625,1.1502408981323242,0.13184738159179688,0.016240477561950684
1789323482678869000,0.572868896484375,0.7751855850219727,-0.005701541900634766,-0.14401137828826904
1789323482697719800,0.5917197265625,0.09206676483154297,-0.0729513168334961,-0.07455945014953613
1789323482716570400,0.6105703125,-0.13892364501953125,0.06864023208618164,-0.10140609741210938
1789323482735421200,0.629421142578125,0.08043670654296875,0.08676481246948242,-0.10056519508361816
1789323482754272000,0.64827197265625,0.1486072540283203,0.1293339729309082,-0.01807105541229248
1789323482773122800,0.667122802734375,0.010607719421386719,0.012545108795166016,0.2059394121170044
1789323482791973400,0.685973388671875,0.00811767578125,-0.2761411666870117,0.6786568760871887
1789323482810824200,0.70482421875,0.12905406951904297,-0.5253176689147949,1.0800447463989258
1789323482829675000,0.723675048828125,-0.0895986557006836,0.0811152458190918,0.2826969623565674
1789323482857951200,0.751951171875,0.11722278594970703,-0.2981138229370117,0.19662898778915405
1789323482876801800,0.7708017578125,0.6611528396606445,-0.8547301292419434,0.3337875008583069
1789323482895652600,0.789652587890625,0.35667896270751953,-1.1803710460662842,0.36007630825042725
1789323482914503400,0.80850341796875,-1.0145058631896973,-1.1344709396362305,0.6152951717376709
1789323482933354200,0.827354248046875,-2.276062488555908,-0.3280515670776367,0.8635777235031128
1789323482952205000,0.846205078125,-2.836398124694824,-0.5662426948547363,0.8834355473518372
1789323482971055600,0.8650556640625,-2.642575740814209,-0.5292959213256836,1.0583016872406006
1789323482989906400,0.883906494140625,-2.4783034324645996,-0.6397840976715088,1.3443917036056519
1789323483008757200,0.90275732421875,-1.8319435119628906,-1.2056427001953125,1.9827816486358643
1789323483027608000,0.921608154296875,-0.8420023918151855,-1.871140480041504,2.470200777053833
1789323483046459000,0.940458984375,-1.269272804260254,-1.9612587690353394,2.3872299194335938
1789323483065309700,0.959309814453125,-1.8423385620117188,-1.946455717086792,2.311336040496826
1789323483084160300,0.97816015625,-1.9544458389282227,-1.9410052299499512,2.730262279510498
1789323483103011000,0.997010986328125,-1.6197562217712402,-2.0070769786834717,2.791182041168213
1789323483121862000,1.01586181640625,-1.692756175994873,-2.7355005741119385,2.6595425605773926
1789323483140712700,1.034712646484375,-0.5508217811584473,-2.735807418823242,2.0658371448516846
1789323483159563500,1.0535634765625,-0.12668418884277344,-1.9327244758605957,1.3215370178222656
1789323483187839700,1.08183984375,-1.1389641761779785,-1.2782635688781738,0.6418210864067078
1789323483206690600,1.100690673828125,-2.295018196105957,-1.4308013916015625,1.1185070276260376
1789323483234966800,1.128966796875,-0.9619603157043457,-1.6515846252441406,2.3177406787872314
1789323483263242800,1.15724267578125,2.591017723083496,-1.328700065612793,2.2563107013702393
1789323483282093600,1.176093505859375,3.5295748710632324,-1.5088005065917969,0.8801054954528809
1789323483300944400,1.1949443359375,3.23907470703125,-2.4419374465942383,-0.3890039920806885
1789323483319795200,1.213795166015625,2.423370361328125,-2.6214118003845215,-1.7039484977722168
1789323483338646000,1.23264599609375,1.5411334037780762,-2.3249759674072266,-2.228757619857788
1789323483357496800,1.251496826171875,0.8920021057128906,-1.8737092018127441,-2.5629875659942627
1789323483376347600,1.27034765625,0.9526634216308594,-1.4336562156677246,-3.2548770904541016
1789323483404624000,1.298623779296875,1.3307476043701172,-1.174924373626709,-5.063074111938477
1789323483423474700,1.317474609375,2.4769058227539062,-0.8624176979064941,-7.094318389892578
1789323483442325500,1.336325439453125,3.3871665000915527,-0.4670863151550293,-8.743680000305176
1789323483461176300,1.35517626953125,7.62898588180542,0.6845488548278809,-9.237031936645508
1789323483480027100,1.374027099609375,9.85927677154541,1.837221622467041,-8.664665222167969
1789323483498878000,1.3928779296875,7.466873645782471,2.5903191566467285,-8.281795501708984
1789323483517728800,1.411728759765625,3.992332935333252,2.910468101501465,-8.502961158752441
1789323483536579600,1.43057958984375,3.037771224975586,2.850975751876831,-7.7950873374938965
1789323483555430700,1.4494306640625,3.730808973312378,3.5564587116241455,-3.747964382171631
1789323483574281500,1.468281494140625,3.8776466846466064,3.416595458984375,-0.48120784759521484
1789323483593132300,1.48713232421875,2.800893545150757,2.5442306995391846,0.7902770042419434
1789323483621408500,1.515408447265625,1.268195629119873,1.5385982990264893,0.45164012908935547
1789323483640259300,1.53425927734375,0.7645645141601562,1.3691015243530273,0.7006511688232422
1789323483659110100,1.553110107421875,0.5516877174377441,1.1076157093048096,0.21062231063842773
1789323483677961000,1.5719609375,-0.15382003784179688,0.7987687587738037,-0.7268381118774414
1789323483696811800,1.590811767578125,-1.4015414714813232,0.5689465999603271,-0.7658061981201172
1789323483715662600,1.60966259765625,-2.001220703125,0.552584171295166,0.22026681900024414
1789323483734513700,1.628513671875,-1.8090860843658447,0.7621340751647949,1.9508590698242188
1789323483753364500,1.647364501953125,-1.400404930114746,0.5152885913848877,2.559049606323242
1789323483781640700,1.675640625,-0.9616365432739258,-0.4671163558959961,1.3423728942871094
1789323483800491500,1.694491455078125,-0.712855339050293,-0.19363093376159668,0.12633371353149414
1789323483819342300,1.71334228515625,-1.2191715240478516,-0.10840725898742676,-1.3128423690795898
1789323483838193400,1.732193359375,-1.763735294342041,0.14755463600158691,-2.1705880165100098
1789323483857044200,1.751044189453125,-1.3664770126342773,-1.8475711345672607,-2.2805447578430176
1789323483875895000,1.76989501953125,-1.1023321151733398,-2.242497444152832,-2.156993865966797
1789323483904171300,1.798171142578125,-1.147895336151123,-2.807556629180908,0.22064733505249023
1789323483923022300,1.817022216796875,-0.9960589408874512,-2.8063974380493164,3.42012095451355
1789323483941873200,1.835873046875,-0.9560575485229492,-2.37941837310791,5.837009906768799
1789323483960724000,1.854723876953125,-0.5395503044128418,-1.5023770332336426,5.781529903411865
1789323483979574800,1.87357470703125,0.26495981216430664,-0.15414047241210938,4.8747735023498535
1789323483998425900,1.89242578125,-0.51715087890625,0.8182711601257324,4.512394905090332
1789323484017276700,1.911276611328125,-1.6791396141052246,0.7276761531829834,3.762855052947998
1789323484036127500,1.93012744140625,-2.242372989654541,0.5368373394012451,1.2209343910217285
1789323484054978300,1.948978271484375,-1.6124992370605469,0.8563272953033447,-1.1933517456054688
1789323484073829400,1.967829345703125,-0.35805177688598633,0.9069437980651855,-1.036302089691162
1789323484092680200,1.98668017578125,0.23922395706176758,1.5271353721618652,1.6566898822784424
1789323484111531000,2.005531005859375,-0.5160422325134277,0.9672198295593262,1.464022159576416
1789323484130381800,2.0243818359375,-1.180250644683838,-0.6195330619812012,-2.241295337677002
1789323484149233000,2.04323291015625,-0.21320772171020508,-2.352888584136963,-4.7726945877075195
1789323484168083700,2.062083740234375,1.0640983581542969,-3.269042491912842,-5.619911193847656
1789323484186934500,2.0809345703125,1.6300549507141113,-2.7303600311279297,-5.005746364593506
1789323484205785600,2.09978564453125,1.2886676788330078,-1.3276047706604004,-3.3026962280273438
1789323484224636400,2.118636474609375,0.23913812637329102,-0.9722013473510742,-1.5424256324768066
1789323484243487200,2.1374873046875,-0.6925692558288574,-2.59059476852417,0.9051833152770996
1789323484262338300,2.15633837890625,0.26101016998291016,-3.686394214630127,1.6893627643585205
1789323484281189000,2.175189208984375,0.5938372611999512,-3.308246612548828,1.5126826763153076
1789323484300040000,2.1940400390625,-0.5709967613220215,-2.8165640830993652,1.5046486854553223
1789323484318891000,2.21289111328125,-0.3884315490722656,-3.2829513549804688,1.7340054512023926
1789323484337741800,2.231741943359375,-0.9249186515808105,-2.644473075866699,1.092756748199463
1789323484356593000,2.250593017578125,-0.3346977233886719,-0.9314823150634766,0.37479710578918457
1789323484375443700,2.269443603515625,-0.012490272521972656,0.10512065887451172,0.4217994213104248
1789323484394294500,2.28829443359375,0.3248887062072754,-0.885798454284668,0.385267972946167
1789323484413145600,2.3071455078125,-0.29236412048339844,-0.38315296173095703,-0.31169748306274414
1789323484431996400,2.325996337890625,-0.3825812339782715,0.7775092124938965,0.04298830032348633
1789323484450847200,2.34484716796875,0.055441856384277344,2.0827980041503906,0.021219968795776367
1789323484469698300,2.3636982421875,-0.1330251693725586,3.222233295440674,-0.8621335029602051
1789323484488549000,2.382549072265625,0.40326547622680664,1.816537857055664,-1.9041595458984375
1789323484507400200,2.401400146484375,1.2126522064208984,0.2022695541381836,-3.16025972366333
1789323484526251000,2.4202509765625,1.3795619010925293,0.19032669067382812,-3.744734287261963
1789323484545102000,2.43910205078125,0.881291389465332,0.09184694290161133,-3.0218775272369385
1789323484563953000,2.457952880859375,-0.35175228118896484,-0.02082967758178711,-0.9801039695739746
1789323484582804000,2.476803955078125,-0.2979135513305664,-0.9029569625854492,0.19120192527770996
1789323484601654800,2.49565478515625,0.015041828155517578,-2.09755277633667,-0.017087101936340332
1789323484620505900,2.514505859375,-0.09677553176879883,-2.947144031524658,1.0335538387298584
1789323484639356700,2.533356689453125,-0.05278491973876953,-3.102144241333008,1.4391915798187256
1789323484658207500,2.55220751953125,0.1800675392150879,-3.3877129554748535,0.9153342247009277
1789323484677058600,2.57105859375,0.036974430084228516,-3.244819164276123,0.3643195629119873
1789323484695909600,2.58990966796875,-0.06033039093017578,-2.6770005226135254,-0.2043159008026123
1789323484714760400,2.608760498046875,-0.5262355804443359,-2.2956666946411133,-0.41695737838745117
1789323484733611500,2.627611572265625,-0.7216596603393555,-1.827237606048584,-0.9496848583221436
1789323484752462300,2.64646240234375,-0.8674688339233398,-1.6094393730163574,-1.4016063213348389
1789323484771313400,2.6653134765625,-1.1694231033325195,-1.3817834854125977,-1.8104281425476074
1789323484790164200,2.684164306640625,-1.5143170356750488,-1.0167012214660645,-0.8362751007080078
1789323484809015300,2.703015380859375,-1.611424446105957,-0.37134695053100586,-0.23654484748840332
1789323484827866000,2.7218662109375,-1.950291633605957,-0.06644535064697266,0.4612891674041748
1789323484846717200,2.74071728515625,-2.2483181953430176,-0.3602733612060547,0.7181879281997681
1789323484865568300,2.759568359375,-1.6587257385253906,-0.4828319549560547,0.41092371940612793
1789323484884419000,2.778419189453125,-1.6373109817504883,-1.3406081199645996,-0.10858631134033203
1789323484903270100,2.797270263671875,-1.7456893920898438,-1.757030963897705,-1.0389189720153809
1789323484922121000,2.816120849609375,-1.9812865257263184,-1.6880524158477783,-1.3687750101089478
1789323484940972000,2.834971923828125,-1.8399920463562012,-1.6415419578552246,-0.9215774536132812
1789323484959823000,2.853822998046875,-2.1505680084228516,-1.3936522006988525,-0.4646068811416626
1789323484978674000,2.872673828125,-2.553152084350586,-0.8196673393249512,0.06892263889312744
1789323484997525000,2.89152490234375,-2.786785125732422,-0.3537883758544922,0.6456257104873657
1789323485016375800,2.910375732421875,-2.887390613555908,0.05489468574523926,1.126307487487793
1789323485035227000,2.929226806640625,-2.8181843757629395,0.4579958915710449,1.5006189346313477
1789323485054077700,2.94807763671875,-2.4703664779663086,0.5540480613708496,1.6265956163406372
1789323485072928800,2.9669287109375,-2.2008819580078125,0.502964973449707,1.508737325668335
1789323485091779800,2.98577978515625,-1.9170856475830078,0.44478392601013184,1.33211088180542
1789323485110631000,3.004630859375,-1.6059303283691406,0.3832998275756836,1.3814767599105835
1789323485129481700,3.023481689453125,-1.3733606338500977,0.3726365566253662,1.2541757822036743
1789323485148332800,3.042332763671875,-1.2637014389038086,0.5173325538635254,1.0928032398223877
1789323485167184000,3.061183837890625,-1.1617240905761719,0.8788108825683594,0.9059463739395142
1789323485186034700,3.08003466796875,-1.0428714752197266,1.258894443511963,0.7114951610565186
1789323485204885800,3.0988857421875,-0.8199715614318848,1.6537654399871826,0.6636917591094971
1789323485223736800,3.11773681640625,-0.6782808303833008,2.0325489044189453,0.5292384624481201
1789323485242587600,3.136587646484375,-0.5737252235412598,2.2964611053466797,0.3387923240661621
1789323485261438700,3.155438720703125,-0.3227682113647461,2.331618309020996,0.01981663703918457
1789323485280289800,3.174289794921875,-0.09985971450805664,2.0053601264953613,-0.29914379119873047
1789323485299140900,3.193140869140625,0.028104782104492188,1.414870262145996,-0.4628031253814697
1789323485317991700,3.21199169921875,0.10581207275390625,0.7065463066101074,-0.5568969249725342
1789323485336842800,3.2308427734375,0.1824779510498047,0.11670112609863281,-0.5450084209442139
1789323485355693800,3.24969384765625,0.13987112045288086,-0.1079564094543457,-0.6010119915008545
1789323485374544600,3.268544677734375,0.09222936630249023,0.14685916900634766,-0.7690267562866211
1789323485393395700,3.287395751953125,0.12448596954345703,0.5622110366821289,-0.9611306190490723
1789323485412246800,3.306246826171875,0.45351743698120117,0.7936544418334961,-1.0595730543136597
1789323485431097900,3.325097900390625,0.8723688125610352,0.584834098815918,-1.1612305641174316
1789323485449949000,3.343948974609375,1.0727715492248535,-0.20910882949829102,-1.3611844778060913
1789323485468799700,3.3627998046875,1.1350855827331543,-1.16668701171875,-1.510314702987671
1789323485487650800,3.38165087890625,1.1269760131835938,-1.856572151184082,-1.4746381044387817
1789323485506502000,3.400501953125,1.0055246353149414,-1.936537742614746,-1.2146328687667847
1789323485525353000,3.41935302734375,0.7887635231018066,-1.671097755432129,-0.6976367235183716
1789323485553629400,3.44762939453125,0.7545008659362793,-1.3290157318115234,-0.057273268699645996
1789323485572480500,3.46648046875,0.8830232620239258,-1.4389410018920898,0.22194385528564453
1789323485591331600,3.48533154296875,1.0698719024658203,-1.7303485870361328,0.3645741939544678
1789323485610182400,3.504182373046875,1.3646306991577148,-1.9941139221191406,0.35529112815856934
1789323485629033500,3.523033447265625,1.4737744331359863,-2.0603275299072266,0.38995134830474854
1789323485647884500,3.541884521484375,1.1756973266601562,-1.7164011001586914,0.4417893886566162
1789323485666735600,3.560735595703125,0.42755746841430664,-1.1487512588500977,0.4136934280395508
1789323485685586700,3.579586669921875,-0.4406099319458008,-0.591766357421875,0.31585872173309326
1789323485704437500,3.5984375,-1.6503071784973145,0.5339765548706055,0.05760049819946289
1789323485723288600,3.61728857421875,-0.6628994941711426,-0.03519916534423828,0.13944733142852783
1789323485742139600,3.6361396484375,0.316342830657959,-0.7306194305419922,0.012751102447509766
1789323485760990700,3.65499072265625,0.8397159576416016,-1.076463222503662,-0.4449272155761719
1789323485779841800,3.673841796875,1.1797261238098145,-1.0437769889831543,-0.8995084762573242
1789323485798692900,3.69269287109375,0.886479377746582,-0.8835792541503906,-1.0143826007843018
1789323485817544000,3.7115439453125,0.26971864700317383,-0.6544227600097656,-1.110670804977417
1789323485836395000,3.73039501953125,0.1910843849182129,-0.2957911491394043,-1.2170228958129883
1789323485855245800,3.749245849609375,0.635246753692627,-0.717740535736084,-1.4568161964416504
1789323485874097000,3.768096923828125,1.3910751342773438,-1.81793212890625,-1.768498420715332
1789323485892948000,3.786947998046875,1.5114922523498535,-2.508258819580078,-1.875014066696167
1789323485911799000,3.805799072265625,0.8228645324707031,-1.8289055824279785,-2.229015827178955
1789323485930650000,3.824650146484375,-0.47635459899902344,-0.3949446678161621,-1.4936935901641846
1789323485949501200,3.843501220703125,-1.4757952690124512,1.1384010314941406,-0.48215818405151367
1789323485968352300,3.862352294921875,-1.4783000946044922,0.921051025390625,-0.007692813873291016
1789323485987203300,3.881203369140625,-0.866363525390625,-0.8979425430297852,0.054003000259399414
1789323486006054400,3.900054443359375,-0.10791349411010742,-1.8732633590698242,-0.4219551086425781
1789323486024905500,3.918905517578125,-0.10404396057128906,-2.5577077865600586,-0.10406613349914551
1789323486043756500,3.937756591796875,-1.2935290336608887,-1.689720630645752,0.705815315246582
1789323486062607600,3.956607666015625,-2.914259433746338,0.7379031181335449,0.19210529327392578
1789323486081458400,3.97545849609375,-2.429168701171875,0.9152753353118896,-0.7892894744873047
1789323486100309800,3.994309814453125,-1.8619422912597656,0.7789220809936523,-0.33019542694091797
1789323486119160600,4.01316064453125,-1.6728768348693848,0.6298177242279053,0.6994763612747192
1789323486138012000,4.032011962890625,-1.621908187866211,0.4001772403717041,1.5782546997070312
1789323486156862700,4.05086279296875,-1.8411517143249512,-0.0031070709228515625,1.9741836786270142
1789323486185139500,4.079139404296875,-2.674948215484619,-0.2293074131011963,0.6897475719451904
1789323486203990500,4.097990478515625,-2.900623321533203,-0.3596324920654297,0.023471832275390625
1789323486222841600,4.116841552734375,-2.2374744415283203,-0.03417563438415527,0.873456597328186
1789323486241692700,4.135692626953125,-2.408841609954834,0.5216050148010254,1.353916883468628
1789323486260543700,4.154543701171875,-2.8099117279052734,1.1608649492263794,1.7329089641571045
1789323486279394800,4.173394775390625,-2.8693041801452637,1.5151082277297974,1.774558663368225
1789323486298246000,4.192245849609375,-2.4296412467956543,1.7386189699172974,1.7713643312454224
1789323486317097000,4.211096923828125,-1.9933323860168457,1.780846357345581,1.8315473794937134
1789323486335948000,4.229947998046875,-1.493058204650879,1.594001293182373,1.5689446926116943
1789323486364224800,4.258224853515625,-1.170698642730713,0.8339674472808838,0.5232470035552979
1789323486420778000,4.314778076171875,-0.7052450180053711,-1.2046704292297363,-0.04183530807495117
1789323486439629000,4.333629150390625,0.21302175521850586,-1.1938939094543457,0.11106538772583008
1789323486467905500,4.361905517578125,-0.15433216094970703,-0.11495590209960938,0.18788504600524902
1789323486486756600,4.380756591796875,0.45613718032836914,-0.14045143127441406,0.10065722465515137
1789323486543310000,4.43731005859375,0.31635475158691406,-1.511070728302002,-1.535975456237793
1789323486609288700,4.503288818359375,0.9056868553161621,-1.8669109344482422,-0.6767010688781738
1789323486778948600,4.672948486328125,0.4242677688598633,-0.5508089065551758,0.5384589433670044
1789323486892055300,4.78605517578125,1.267906665802002,-0.8224196434020996,-0.4669511318206787
1789323486939183000,4.83318310546875,0.716832160949707,-1.3808331489562988,-0.7341282367706299
1789323486958034200,4.8520341796875,0.5922212600708008,-1.4300732612609863,-1.1259214878082275
1789323486976885200,4.87088525390625,0.3975844383239746,-1.4580774307250977,-1.340538501739502
1789323486995736600,4.889736572265625,0.26334571838378906,-1.3711938858032227,-1.4950509071350098
1789323487014587600,4.908587646484375,0.17322444915771484,-1.2802033424377441,-1.1698567867279053
1789323487033438700,4.927438720703125,-0.3776888847351074,-1.0963730812072754,-0.7251603603363037
1789323487052289800,4.946289794921875,-0.23246049880981445,-0.7666893005371094,-0.09517216682434082
1789323487071141000,4.96514111328125,-0.3512001037597656,-0.7464308738708496,0.027896881103515625
1789323487089992200,4.9839921875,-0.41416311264038086,-0.8480253219604492,-0.07860779762268066
1789323487108843300,5.00284326171875,-0.26810693740844727,-0.8371796607971191,0.3740534782409668
1789323487127694300,5.0216943359375,-1.1947708129882812,-0.5161290168762207,1.1805899143218994
1789323487146545400,5.04054541015625,-2.5042877197265625,0.7071797847747803,0.48453259468078613
1789323487165396700,5.059396728515625,-0.6543197631835938,0.2661252021789551,-1.6968705654144287
1789323487184247800,5.078247802734375,-0.9083499908447266,0.09559988975524902,-1.1149940490722656
1789323487203099000,5.097098876953125,-3.489577293395996,0.6421022415161133,0.4781606197357178
1789323487221950000,5.115949951171875,-3.1112241744995117,0.6677660942077637,2.0057058334350586
1789323487240801300,5.13480126953125,-2.484602928161621,0.7525181770324707,2.4544732570648193
1789323487259652400,5.15365234375,-2.824427604675293,0.6866199970245361,1.5424797534942627
1789323487278503400,5.17250341796875,-2.7727227210998535,0.6268997192382812,0.7363569736480713
1789323487297354500,5.1913544921875,-2.3648014068603516,0.958045244216919,1.3775657415390015
1789323487316205800,5.210205810546875,-1.7751846313476562,0.5609252452850342,2.0625150203704834
1789323487335057000,5.229056884765625,-2.163318157196045,1.0141212940216064,1.7926852703094482
1789323487353908000,5.247907958984375,-2.655305862426758,1.1397464275360107,1.2754278182983398
1789323487372759300,5.26675927734375,-1.690903663635254,1.126065969467163,1.358718991279602
1789323487391610400,5.2856103515625,-2.206346035003662,1.3402929306030273,1.34818696975708
1789323487410461400,5.30446142578125,-2.527834415435791,1.381575107574463,0.7735171318054199
1789323487429312500,5.3233125,-1.5839948654174805,1.4378972053527832,1.0383646488189697
1789323487448163800,5.342163818359375,-1.662888526916504,1.6101601123809814,0.6803286075592041
1789323487467015000,5.361014892578125,-1.0170316696166992,1.800447940826416,0.6330344676971436
1789323487485866000,5.379865966796875,-1.2973418235778809,1.828963279724121,0.03010392189025879
1789323487504717300,5.39871728515625,-0.17967557907104492,1.228466510772705,-0.6776049137115479
1789323487523568400,5.417568359375,0.04304218292236328,-0.25118160247802734,-1.1716573238372803
1789323487542419500,5.43641943359375,0.6728920936584473,-1.3205714225769043,-1.1344037055969238
1789323487561270800,5.455270751953125,0.48676490783691406,-2.4894003868103027,-1.1917154788970947
1789323487580121900,5.474121826171875,-0.04026460647583008,-2.706422805786133,-1.3539364337921143
1789323487598973000,5.492972900390625,-0.1644744873046875,-2.6364989280700684,-1.177910566329956
1789323487617824000,5.511823974609375,0.09652948379516602,-1.8856091499328613,-0.7890496253967285
1789323487636675300,5.53067529296875,0.6493511199951172,-1.3885011672973633,-0.8630156517028809
1789323487655526400,5.5495263671875,1.3521485328674316,-1.514087200164795,-0.8440873622894287
1789323487674377700,5.568377685546875,1.4583239555358887,-1.8647527694702148,-1.0058097839355469
1789323487693228800,5.587228759765625,1.084503173828125,-2.1867074966430664,-1.2345525026321411
1789323487712080000,5.606079833984375,0.22569656372070312,-1.9693193435668945,-0.9675129652023315
1789323487730931200,5.62493115234375,0.5704331398010254,-1.2996759414672852,-0.2578696012496948
1789323487749782300,5.6437822265625,1.2322616577148438,-1.2862873077392578,0.7334178686141968
1789323487768633300,5.66263330078125,1.7023725509643555,-1.6967134475708008,1.0122954845428467
1789323487787484700,5.681484619140625,2.236973762512207,-1.6216630935668945,0.011235952377319336
1789323487806335700,5.700335693359375,1.9349689483642578,-1.0904541015625,-0.4474520683288574
1789323487825186800,5.719186767578125,1.0315618515014648,-0.18560123443603516,-0.6252532005310059
1789323487844038100,5.7380380859375,-0.032013893127441406,0.027072906494140625,-0.40657782554626465
1789323487862889200,5.75688916015625,-0.6150383949279785,-0.22457218170166016,0.1459977626800537
1789323487881740500,5.775740478515625,-0.3852548599243164,-0.6028881072998047,0.5159409046173096
1789323487900591600,5.794591552734375,0.08145380020141602,-0.8602209091186523,0.4399663209915161
1789323487919442700,5.813442626953125,0.653113842010498,-1.1751551628112793,-0.10627245903015137
1789323487938294000,5.8322939453125,1.0705485343933105,-1.8132076263427734,-0.9653480052947998
1789323487957145000,5.85114501953125,1.652256965637207,-2.3321189880371094,-1.478029727935791
1789323487975996200,5.86999609375,1.3979711532592773,-2.5799384117126465,-1.4875683784484863
1789323487994847500,5.888847412109375,0.7696995735168457,-1.961090087890625,-1.4842748641967773
1789323488013698600,5.907698486328125,0.1545405387878418,-1.0163946151733398,-1.334031343460083
1789323488032550000,5.9265498046875,-0.40420961380004883,-0.38867759704589844,-1.2393224239349365
1789323488051401000,5.94540087890625,-0.46051931381225586,0.0403900146484375,-1.3252158164978027
1789323488070252300,5.964252197265625,-0.3022122383117676,0.27615785598754883,-1.6948492527008057
1789323488089103400,5.983103271484375,-0.1000070571899414,-0.6901421546936035,-1.2412631511688232
1789323488107954400,6.001954345703125,0.7767477035522461,-1.9222779273986816,-0.445908784866333
1789323488126805800,6.0208056640625,0.647308349609375,-2.1456737518310547,0.5163843631744385
1789323488145656800,6.03965673828125,-1.2448558807373047,-2.0215907096862793,0.8983011245727539
1789323488164508200,6.058508056640625,-3.2228879928588867,-0.11495113372802734,0.4329845905303955
1789323488183359200,6.077359130859375,-1.9568548202514648,0.5623395442962646,-0.6282596588134766
1789323488202210600,6.09621044921875,-0.930119514465332,0.2419426441192627,-0.18459391593933105
1789323488221061600,6.1150615234375,-2.2708702087402344,0.33268046379089355,1.0213819742202759
1789323488239912700,6.13391259765625,-3.5185437202453613,0.4465663433074951,1.825438380241394
1789323488258764000,6.152763916015625,-3.438131332397461,0.497189998626709,2.1898317337036133
1789323488277615000,6.171614990234375,-2.7698373794555664,0.2855088710784912,2.3467066287994385
1789323488296466400,6.190466552734375,-2.743253231048584,-0.0697784423828125,1.9720518589019775
1789323488315317500,6.2093173828125,-2.6166491508483887,0.12262082099914551,1.803924798965454
1789323488334168800,6.2281689453125,-2.6442441940307617,0.9410839080810547,1.4538846015930176
1789323488353020000,6.24702001953125,-2.8131051063537598,0.942854642868042,1.558061122894287
1789323488371871200,6.265871337890625,-2.4909677505493164,1.518955945968628,1.8710523843765259
1789323488390722300,6.284722412109375,-2.251521110534668,1.4883918762207031,1.655816674232483
1789323488409573600,6.30357373046875,-2.5520691871643066,1.455505609512329,0.8582961559295654
1789323488428424700,6.3224248046875,-2.1231865882873535,1.5652329921722412,1.0140173435211182
1789323488447276000,6.341276123046875,-1.086845874786377,1.232795238494873,0.982208251953125
1789323488466127000,6.360127197265625,-1.7412285804748535,0.8830323219299316,0.6309914588928223
1789323488484978400,6.378978515625,-1.094785213470459,1.1396760940551758,0.7726523876190186
1789323488503829500,6.39782958984375,-0.6250128746032715,1.0742835998535156,0.2750070095062256
1789323488522680800,6.416680908203125,-0.30565786361694336,-0.6239151954650879,0.25617361068725586
1789323488541532000,6.435531982421875,-0.07184028625488281,-1.5052194595336914,0.2967534065246582
1789323488560383200,6.45438330078125,-0.13950014114379883,-1.4791607856750488,0.27148985862731934
1789323488579234600,6.473234619140625,-0.20445013046264648,-0.9410457611083984,0.12847018241882324
1789323488598085600,6.492085693359375,0.17873239517211914,-0.38915395736694336,-0.44582056999206543
1789323488616937000,6.51093701171875,0.48679065704345703,-0.837162971496582,-1.0910367965698242
1789323488635788000,6.5297880859375,0.473630428314209,-1.5319123268127441,-1.603421688079834
1789323488654639000,6.54863916015625,0.7290210723876953,-2.142221450805664,-1.6282451152801514
1789323488673490400,6.567490478515625,1.1147236824035645,-2.5584120750427246,-1.0338568687438965
1789323488692341800,6.586341796875,1.2713418006896973,-2.6253042221069336,-0.6912269592285156
1789323488711192800,6.60519287109375,1.6135244369506836,-2.3210763931274414,-0.6573827266693115
1789323488730044200,6.624044189453125,1.7401618957519531,-1.7680978775024414,-0.9358394145965576
1789323488748895200,6.642895263671875,2.2493205070495605,-1.4898414611816406,-0.9065167903900146
1789323488767746600,6.66174658203125,2.445801258087158,-2.210908889770508,-0.811664342880249
1789323488786597600,6.68059765625,2.1468701362609863,-2.8591156005859375,-0.574613094329834
1789323488805449000,6.699448974609375,2.547661304473877,-1.8615608215332031,0.28351926803588867
1789323488824300300,6.71830029296875,1.8471732139587402,-0.8343124389648438,0.32526230812072754
1789323488843151400,6.7371513671875,0.6130900382995605,-0.175994873046875,0.5169103145599365
1789323488862002700,6.756002685546875,-0.20444631576538086,-0.1511392593383789,0.5721275806427002
1789323488880853800,6.774853759765625,-0.47448253631591797,-0.5008783340454102,0.6436262130737305
1789323488899705000,6.793705078125,-0.08962488174438477,-0.45868492126464844,0.4360332489013672
1789323488918556200,6.81255615234375,0.19510507583618164,-0.28421831130981445,0.3843824863433838
1789323488937407500,6.831407470703125,0.8209099769592285,-0.4387822151184082,-0.022029638290405273
1789323488956258600,6.850258544921875,1.1409564018249512,-0.9297523498535156,-0.5256431102752686
1789323488975110000,6.86910986328125,1.3079886436462402,-1.5257282257080078,-0.9210488796234131
1789323488993961200,6.887961181640625,0.7750473022460938,-1.6081080436706543,-1.1505529880523682
1789323489012812300,6.906812255859375,-0.20038843154907227,-1.4629530906677246,-1.1060564517974854
1789323489031663600,6.92566357421875,-0.11519765853881836,-1.4217195510864258,-0.9470171928405762
1789323489050514700,6.9445146484375,0.6903262138366699,-1.7630882263183594,-0.9024965763092041
1789323489069366000,6.963365966796875,1.139434814453125,-1.9095096588134766,-0.9625422954559326
1789323489088217300,6.98221728515625,0.7289772033691406,-2.1272811889648438,-1.0731453895568848
1789323489107068400,7.001068359375,0.3816070556640625,-1.4900107383728027,-1.2195754051208496
1789323489125919700,7.019919677734375,0.11148262023925781,-0.8183622360229492,-0.7341270446777344
1789323489144771000,7.03877099609375,-0.6499438285827637,-0.8631725311279297,0.05042314529418945
1789323489163622100,7.0576220703125,-1.8406143188476562,-0.9712080955505371,0.49337220191955566
1789323489182473500,7.076473388671875,-2.5544047355651855,-0.17089557647705078,-0.06149911880493164
1789323489201324500,7.095324462890625,-2.096249580383301,-0.4080009460449219,-0.12098860740661621
1789323489220176000,7.11417578125,-1.8515019416809082,-0.6638922691345215,0.5376286506652832
1789323489239027200,7.133027099609375,-2.8433117866516113,1.2750942707061768,2.024224042892456
1789323489257878300,7.151878173828125,-3.811378002166748,1.352334976196289,2.1512792110443115
1789323489276729600,7.1707294921875,-3.0390405654907227,1.324608564376831,2.044773817062378
1789323489295580700,7.18958056640625,-2.434314250946045,0.9780845642089844,1.7899389266967773
1789323489314432000,7.208431884765625,-2.452437400817871,0.45125460624694824,1.183411717414856
1789323489333283300,7.227283447265625,-2.793182373046875,0.8288223743438721,1.042677640914917
1789323489352134400,7.246134521484375,-2.7931222915649414,1.2155030965805054,1.3017221689224243
1789323489370985700,7.26498583984375,-2.565573215484619,1.3914977312088013,1.4161909818649292
1789323489389837000,7.283837158203125,-2.412653923034668,1.4545798301696777,1.2299253940582275
1789323489408688000,7.302688232421875,-2.6310367584228516,1.43027925491333,1.0572888851165771
1789323489427539500,7.32153955078125,-2.3981127738952637,1.6321525573730469,1.4146345853805542
1789323489446390800,7.340390869140625,-2.341881275177002,1.6904194355010986,1.5805360078811646
1789323489465241900,7.359241943359375,-2.0450644493103027,2.0896718502044678,1.3800500631332397
1789323489484093200,7.37809326171875,-1.1893010139465332,2.4429423809051514,1.4910943508148193
1789323489502944500,7.396944580078125,-1.4038872718811035,2.0915780067443848,0.6004838943481445
1789323489521795600,7.415795654296875,-1.3759007453918457,-0.004213809967041016,0.36797595024108887
1789323489540647000,7.43464697265625,-0.25409460067749023,-1.7125601768493652,-0.2768211364746094
1789323489559498200,7.453498291015625,0.10109090805053711,-3.257236957550049,-0.8516268730163574
1789323489578349300,7.472349365234375,0.4260873794555664,-3.3333969116210938,-1.2528502941131592
1789323489597200600,7.49120068359375,-0.19371509552001953,-3.351835250854492,-1.9364826679229736
1789323489616052000,7.510052001953125,-0.35724973678588867,-3.1788992881774902,-1.7651150226593018
1789323489634903000,7.528903076171875,0.25171661376953125,-2.267683506011963,-1.159783124923706
1789323489653754400,7.54775439453125,1.2649493217468262,-1.9078593254089355,-0.9291250705718994
1789323489672605700,7.566605712890625,2.3720593452453613,-1.4797868728637695,-1.1948285102844238
1789323489691456800,7.585456787109375,2.8720626831054688,-1.4950618743896484,-1.906273603439331
1789323489710308000,7.60430810546875,2.1614370346069336,-1.3749732971191406,-2.3942461013793945
1789323489729159400,7.623159423828125,1.3264060020446777,-0.8726615905761719,-1.6703760623931885
1789323489748010800,7.6420107421875,0.9823088645935059,-0.8418064117431641,-0.5432186126708984
1789323489776287500,7.67028759765625,1.3899016380310059,-1.7420158386230469,0.43471288681030273
1789323489795138800,7.689138916015625,1.8427791595458984,-1.954305648803711,0.13711237907409668
1789323489813990000,7.707989990234375,1.241224765777588,-1.0367631912231445,0.19595575332641602
1789323489832841200,7.72684130859375,0.8058314323425293,-0.1827707290649414,0.10342884063720703
1789323489851692500,7.745692626953125,0.5629100799560547,-0.429290771484375,0.3786506652832031
1789323489870544000,7.7645439453125,0.4216890335083008,-1.3760709762573242,0.510263204574585
1789323489889395000,7.78339501953125,0.0747227668762207,-1.8859844207763672,0.8184101581573486
1789323489908246300,7.802246337890625,-0.13271617889404297,-1.5431032180786133,0.8308345079421997
1789323489927097600,7.82109765625,0.1797804832458496,-1.0142054557800293,0.3216571807861328
1789323489945948700,7.83994873046875,0.34549713134765625,-1.0587410926818848,0.2747368812561035
1789323489964800000,7.858800048828125,0.3717460632324219,-1.441606044769287,0.15417003631591797
1789323489983651300,7.8776513671875,0.32955121994018555,-1.6712327003479004,0.2326185703277588
1789323490002502400,7.89650244140625,0.32978153228759766,-1.5114283561706543,0.024872779846191406
1789323490021353700,7.915353759765625,0.2831263542175293,-1.121020793914795,-0.509911298751831
1789323490040205000,7.934205078125,0.29706382751464844,-1.0491466522216797,-0.9440193176269531
1789323490059056400,7.953056396484375,0.5117812156677246,-0.8281044960021973,-1.1207845211029053
1789323490077907700,7.97190771484375,0.7550697326660156,-0.8704128265380859,-0.8391139507293701
1789323490096758800,7.9907587890625,0.9112281799316406,-1.1152024269104004,-0.3969089984893799
1789323490115610000,8.009610107421874,0.7417211532592773,-1.5173096656799316,-0.10518527030944824
1789323490134461400,8.02846142578125,-0.10428667068481445,-2.0801520347595215,-0.7343554496765137
1789323490153312800,8.047312744140624,-1.135411262512207,-1.854853630065918,-0.23499393463134766
1789323490172163800,8.066163818359374,-2.2831239700317383,-1.0805296897888184,0.18795514106750488
1789323490191015200,8.08501513671875,-2.415823459625244,0.7224445343017578,-0.010454893112182617
1789323490209866500,8.103866455078125,-0.6686239242553711,0.6076803207397461,-0.1720137596130371
1789323490228717800,8.1227177734375,-1.470384120941162,0.11327791213989258,0.7082861661911011
1789323490247569000,8.14156884765625,-3.170151710510254,1.373885154724121,2.1385183334350586
1789323490266420200,8.160420166015625,-3.7109155654907227,1.3889877796173096,3.025217056274414
1789323490285271600,8.179271484375,-3.301589012145996,1.295835256576538,2.6904280185699463
1789323490304123000,8.198122802734375,-3.1059012413024902,0.995887279510498,2.198197841644287
1789323490322974000,8.216973876953125,-2.973207950592041,0.9078383445739746,1.4980577230453491
1789323490341825300,8.2358251953125,-3.0934600830078125,1.5399389266967773,1.8705122470855713
1789323490360676600,8.254676513671875,-2.194366931915283,1.801658034324646,1.6109199523925781
1789323490379528000,8.27352783203125,-1.511624813079834,1.4203001260757446,1.711969017982483
1789323490398379000,8.29237890625,-1.5995440483093262,0.8382952213287354,1.001028299331665
1789323490417230300,8.311230224609375,-1.8992767333984375,0.6771140098571777,0.8577718734741211
1789323490436081700,8.33008154296875,-1.6889986991882324,0.9718995094299316,0.8617124557495117
1789323490454933000,8.34893310546875,-2.1386313438415527,1.3358325958251953,0.8964102268218994
1789323490473784300,8.367784423828125,-1.3965425491333008,1.4595727920532227,0.9991958141326904
1789323490492635400,8.386635498046875,-1.0819458961486816,1.4695897102355957,0.5684194564819336
1789323490511486700,8.40548681640625,-0.8082966804504395,0.6837320327758789,0.6122727394104004
1789323490530338000,8.424338134765625,-0.7322916984558105,-0.08354949951171875,0.6512868404388428
1789323490549189400,8.443189453125,-0.5196285247802734,-1.3404221534729004,0.6260368824005127
1789323490568040400,8.46204052734375,-0.036342620849609375,-2.1958494186401367,0.2316577434539795
1789323490586891800,8.480891845703125,0.05796384811401367,-2.9969730377197266,-0.4032406806945801
1789323490605743000,8.4997431640625,-0.12392139434814453,-2.622781753540039,-1.0188608169555664
1789323490624594400,8.518594482421875,-0.05109977722167969,-2.1269021034240723,-1.586303472518921
1789323490643445500,8.537445556640625,0.917241096496582,-2.0732364654541016,-1.4076356887817383
1789323490662296800,8.556296875,2.734194755554199,-2.4538931846618652,-1.0528068542480469
1789323490681148200,8.575148193359375,2.9554929733276367,-2.923712730407715,-0.9120526313781738
1789323490699999500,8.59399951171875,2.1372056007385254,-2.6299705505371094,-0.932194709777832
1789323490718850800,8.612850830078125,1.658890724182129,-1.6431074142456055,-0.29190635681152344
1789323490737702000,8.631701904296875,1.5650806427001953,-0.8604640960693359,0.23724603652954102
1789323490756553200,8.65055322265625,1.530714511871338,-0.09993934631347656,0.08885931968688965
1789323490775404500,8.669404541015625,1.7269554138183594,0.34721946716308594,-1.0023670196533203
1789323490794256000,8.688255859375,1.9584016799926758,0.15388870239257812,-1.3082988262176514
1789323490813107000,8.70710693359375,2.0539331436157227,-0.25418949127197266,-1.100231409072876
1789323490831958300,8.725958251953125,1.282728672027588,-0.5857200622558594,-0.6228969097137451
1789323490850809600,8.7448095703125,0.5222835540771484,-0.6302452087402344,0.15940570831298828
1789323490869661000,8.763660888671875,-0.15156078338623047,-0.8792037963867188,0.6918075084686279
1789323490888512300,8.78251220703125,-0.3720545768737793,-1.105886459350586,0.6026557683944702
1789323490907363600,8.801363525390625,-0.13587665557861328,-1.028355598449707,0.4466710090637207
1789323490926214700,8.820214599609375,0.39337635040283203,-0.6563177108764648,-0.0169675350189209
1789323490945066000,8.83906591796875,0.5471477508544922,-0.5548539161682129,-0.5524342060089111
1789323490963917300,8.857917236328126,0.8434257507324219,-0.8756852149963379,-0.8215551376342773
1789323490982768600,8.8767685546875,1.2882695198059082,-1.4612364768981934,-0.7488405704498291
1789323491001619700,8.89561962890625,1.0345706939697266,-1.9152002334594727,-0.5770120620727539
1789323491020471000,8.914470947265626,0.3050408363342285,-1.7838134765625,-0.6912891864776611
1789323491039322400,8.933322265625,-0.41712474822998047,-1.1442160606384277,-0.747765064239502
1789323491058173700,8.952173583984376,-0.4101853370666504,-0.8832783699035645,-0.5378761291503906
1789323491077025000,8.97102490234375,-0.34976720809936523,-1.0610709190368652,-0.3727242946624756
1789323491095876400,8.98987646484375,-0.4466872215270996,-0.8195438385009766,-0.28533506393432617
1789323491114727400,9.0087275390625,-0.33503007888793945,0.2741727828979492,-0.13987135887145996
1789323491133578800,9.027578857421876,0.37755537033081055,0.5214080810546875,-0.030983448028564453
1789323491152430000,9.04643017578125,0.2248520851135254,-0.3843536376953125,0.4592161178588867
1789323491171281400,9.065281494140624,-1.4289145469665527,-0.7765073776245117,0.47364354133605957
1789323491190132700,9.0841328125,-2.292384624481201,-0.834752082824707,-0.7652947902679443
1789323491208983800,9.10298388671875,-1.0383658409118652,-1.033151626586914,-1.3512802124023438
1789323491227835100,9.121835205078124,-0.4602527618408203,-1.0222620964050293,-0.03762030601501465
1789323491246686500,9.1406865234375,-1.0781421661376953,-0.97039794921875,0.8324401378631592
1789323491265537800,9.159537841796874,-2.2835559844970703,0.5165579319000244,1.4646737575531006
1789323491284389000,9.17838916015625,-2.869904041290283,0.7749507427215576,1.666418194770813
1789323491303240400,9.197240478515624,-2.396094799041748,1.0693778991699219,2.1242151260375977
1789323491322091500,9.216091552734374,-2.3443737030029297,1.6258976459503174,1.9431021213531494
1789323491340942800,9.23494287109375,-3.2963128089904785,1.1060166358947754,1.5555357933044434
1789323491359794200,9.253794189453124,-3.2293195724487305,1.3123488426208496,1.3405282497406006
1789323491378645500,9.2726455078125,-3.0179648399353027,1.3363674879074097,1.6123062372207642
1789323491397496800,9.291496826171874,-2.739144802093506,1.4491344690322876,1.6016267538070679
1789323491416348200,9.31034814453125,-2.760761260986328,1.4682929515838623,1.4988247156143188
1789323491435199200,9.32919921875,-2.475168228149414,1.5244956016540527,1.481884241104126
1789323491454050600,9.348050537109375,-1.8150382041931152,1.709151268005371,1.3672552108764648
1789323491472902000,9.36690185546875,-1.3342914581298828,1.8652186393737793,1.2124654054641724
1789323491491753200,9.385753173828125,-1.3417558670043945,2.143996238708496,0.8186533451080322
1789323491510604500,9.4046044921875,-1.1790804862976074,1.983166217803955,0.3296184539794922
1789323491529455900,9.423455810546875,-0.5778255462646484,0.8443899154663086,-0.08972787857055664
1789323491548307000,9.442306884765625,-0.34298086166381836,-0.9820938110351562,-0.17444825172424316
1789323491567158300,9.461158203125,-0.15929174423217773,-2.4130544662475586,-0.26917433738708496
1789323491586009600,9.480009521484375,-0.07776927947998047,-3.034083366394043,-0.06043052673339844
1789323491604861000,9.49886083984375,-0.0972909927368164,-2.8545584678649902,-0.13981389999389648
1789323491633138000,9.527137939453125,0.13348674774169922,-2.0966553688049316,-0.5008893013000488
1789323491651989000,9.545989013671875,0.9305057525634766,-1.5836944580078125,-0.6758890151977539
1789323491670840300,9.56484033203125,1.9437122344970703,-1.4819064140319824,-1.068385362625122
1789323491689691600,9.583691650390625,2.6495156288146973,-1.7187609672546387,-1.553558111190796
1789323491708543000,9.60254296875,2.2118139266967773,-1.1092605590820312,-1.9252607822418213
1789323491727394300,9.621394287109375,1.8161649703979492,-0.22674274444580078,-1.7311005592346191
1789323491746245600,9.64024560546875,1.459874153137207,-0.22119712829589844,-1.0151326656341553
1789323491765096700,9.6590966796875,1.3173174858093262,-1.434133529663086,-0.2996394634246826
1789323491783948000,9.677947998046875,1.5017476081848145,-2.811910629272461,-0.40207481384277344
1789323491802799400,9.69679931640625,1.40535306930542,-2.331191062927246,-0.9132518768310547
1789323491821650700,9.715650634765625,1.4891986846923828,-0.6619157791137695,-0.8693017959594727
1789323491840502000,9.734501953125,1.6648712158203125,-0.31551456451416016,-0.7429039478302002
1789323491859353300,9.753353271484375,1.873732089996338,-0.7466058731079102,-0.9629471302032471
1789323491878204400,9.772204345703125,1.0811972618103027,-0.8502416610717773,-0.6824231147766113
1789323491897055700,9.7910556640625,0.3729090690612793,-0.3087339401245117,-0.7536320686340332
1789323491915907000,9.809906982421875,-0.3266267776489258,0.2083578109741211,-0.1736924648284912
1789323491934758400,9.82875830078125,-0.26502275466918945,0.0028743743896484375,0.42810094356536865
1789323491953609700,9.847609619140625,0.12857913970947266,-0.8592343330383301,0.7333298921585083
1789323491972461000,9.8664609375,0.4904789924621582,-1.4488754272460938,0.639055609703064
1789323491991312400,9.8853125,0.8848910331726074,-1.5139446258544922,0.06830430030822754
1789323492010163500,9.90416357421875,1.2673392295837402,-1.3070502281188965,-0.5875732898712158
1789323492038440400,9.9324404296875,1.2436556816101074,-1.2060275077819824,-1.6669836044311523
1789323492076143000,9.97014306640625,0.5318264961242676,-1.054445743560791,-2.2711453437805176
1789323492094994400,9.988994384765626,0.3228883743286133,-1.4888558387756348,-1.629272222518921
1789323492113845500,10.007845458984375,-0.08455705642700195,-2.0265603065490723,-0.9492161273956299
1789323492132696800,10.02669677734375,-0.3134446144104004,-1.4552063941955566,-0.7355175018310547
1789323492151548200,10.045548095703126,-1.2442626953125,-0.5569252967834473,-0.46837520599365234
1789323492170399500,10.0643994140625,-2.149134635925293,-0.504279613494873,-0.0540008544921875
1789323492189250800,10.083250732421876,-2.0047316551208496,-0.4994502067565918,0.17339444160461426
1789323492208102100,10.10210205078125,-0.7752089500427246,0.4940757751464844,-0.05886411666870117
1789323492226953500,10.120953369140626,-0.11600112915039062,-0.5745820999145508,0.049590110778808594
1789323492245804800,10.1398046875,-1.3049092292785645,-1.3000810146331787,0.20122027397155762
1789323492264656000,10.15865576171875,-2.6969761848449707,-0.23012709617614746,0.5996196269989014
1789323492283507200,10.177507080078126,-3.0237979888916016,0.9301407337188721,1.1177059412002563
1789323492302358500,10.196358642578126,-3.6300082206726074,0.6887400150299072,0.8801584243774414
1789323492321209900,10.2152099609375,-3.378634452819824,1.3390603065490723,1.44480562210083
1789323492340061200,10.234061279296874,-2.76192569732666,2.062893867492676,1.867469310760498
1789323492358912300,10.252912353515624,-2.760713577270508,1.7150191068649292,1.7888022661209106
1789323492377763600,10.271763671875,-2.7952895164489746,1.499563455581665,1.159908413887024
1789323492396615000,10.290614990234374,-2.406339645385742,1.1548213958740234,1.2933188676834106
1789323492415466200,10.30946630859375,-2.6266956329345703,1.137883186340332,0.9904301166534424
1789323492434317600,10.328317626953124,-2.505187511444092,1.2319226264953613,0.9737011194229126
1789323492453169000,10.3471689453125,-2.043081760406494,1.379852294921875,1.4406217336654663
1789323492472020200,10.366020263671874,-1.556471347808838,1.658273458480835,1.0650159120559692
1789323492490871600,10.38487158203125,-1.8832340240478516,2.061253309249878,0.7212433815002441
1789323492509722600,10.40372265625,-1.6134376525878906,2.2800145149230957,0.27515721321105957
1789323492528574000,10.422573974609374,-1.3149147033691406,1.5050098896026611,0.13246774673461914
1789323492547425300,10.44142529296875,-0.7024788856506348,-0.39135026931762695,0.1451857089996338
1789323492566276600,10.460276611328124,-0.25777626037597656,-1.48289155960083,0.24369573593139648
1789323492585128000,10.4791279296875,-0.2642345428466797,-2.3410911560058594,0.2201228141784668
1789323492603979300,10.497979248046875,-0.25488758087158203,-3.4277424812316895,-0.2880542278289795
1789323492622830300,10.516830322265625,-0.4342231750488281,-3.584630012512207,-0.6776762008666992
1789323492641681700,10.535681640625,-0.26715850830078125,-2.6194934844970703,-0.9487817287445068
1789323492660533000,10.554532958984375,0.29180383682250977,-1.7455801963806152,-1.3940765857696533
1789323492679384300,10.57338427734375,1.4480695724487305,-1.295759677886963,-1.356238603591919
1789323492698235600,10.592235595703125,2.353199005126953,-1.5498771667480469,-1.3800973892211914
1789323492717087000,10.6110869140625,2.720217227935791,-2.4795961380004883,-1.6702067852020264
1789323492735938000,10.62993798828125,2.149219036102295,-2.8580331802368164,-1.1971406936645508
1789323492754789400,10.648789306640625,1.8352704048156738,-2.5556793212890625,-0.5695555210113525
1789323492773640700,10.667640625,1.8850617408752441,-1.4843530654907227,0.40865349769592285
1789323492792492000,10.686491943359375,2.043694019317627,-0.36307811737060547,0.11734342575073242
1789323492811343400,10.70534326171875,1.92488431930542,0.4661569595336914,-0.613593339920044
1789323492830194700,10.724194580078125,1.6740455627441406,0.5908489227294922,-0.840721607208252
1789323492849046000,10.7430458984375,1.7132749557495117,0.22166061401367188,-0.35148143768310547
1789323492867897000,10.76189697265625,1.5844755172729492,-0.8707275390625,0.20511460304260254
1789323492886748400,10.78074853515625,1.5813202857971191,-1.8289661407470703,0.5393331050872803
1789323492905599700,10.799599853515625,1.0880203247070312,-2.51619815826416,0.6099143028259277
1789323492924451000,10.818451171875,0.3123793601989746,-2.174954414367676,0.42746496200561523
1789323492943302400,10.837302490234375,-0.013586997985839844,-1.5241427421569824,0.3198401927947998
1789323492962153500,10.856153564453125,0.412445068359375,-1.359776496887207,0.11542057991027832
1789323492981004800,10.8750048828125,0.550694465637207,-1.547482967376709,0.051633358001708984
1789323492999856000,10.893856201171875,0.705960750579834,-1.5372905731201172,-0.17003512382507324
1789323493018707500,10.91270751953125,0.692413330078125,-1.5876293182373047,-0.010487079620361328
1789323493037558800,10.931558837890625,0.4388275146484375,-0.9894638061523438,-0.0213625431060791
1789323493056410000,10.95041015625,0.07302236557006836,-0.5835661888122559,-0.0048542022705078125
1789323493075261200,10.96926123046875,-0.07365083694458008,-0.5959162712097168,0.016065120697021484
1789323493094112500,10.988112548828125,-0.40639543533325195,-0.5750870704650879,-0.01179194450378418
1789323493112963800,11.0069638671875,-0.3056526184082031,-0.49185943603515625,0.17907381057739258
1789323493131815200,11.025815185546875,0.01939105987548828,-0.5207023620605469,0.1456294059753418
1789323493150666500,11.04466650390625,0.29438352584838867,-0.626762866973877,-0.1875014305114746
1789323493169517600,11.063517578125,0.18296146392822266,-1.1394023895263672,-0.332627534866333
1789323493207220200,11.10122021484375,-0.27189064025878906,-1.2798762321472168,0.9568281173706055
1789323493226071600,11.120071533203125,-0.7764959335327148,0.21875381469726562,1.9686107635498047
1789323493244922600,11.138922607421875,-1.3447084426879883,-0.08424186706542969,0.9295186996459961
1789323493263774000,11.15777392578125,-2.0180697441101074,0.051867008209228516,-0.6333541870117188
1789323493282625300,11.176625244140626,-2.5486841201782227,1.009840726852417,0.5829532146453857
1789323493301476600,11.1954765625,-2.2644095420837402,1.58598792552948,1.8902168273925781
1789323493320328000,11.214327880859376,-2.0664892196655273,1.3377573490142822,2.3649001121520996
1789323493339179300,11.23317919921875,-3.1362857818603516,1.6754239797592163,2.111937999725342
1789323493358030300,11.2520302734375,-4.23081636428833,2.1517796516418457,2.124119997024536
1789323493376881700,11.270881591796876,-3.051088809967041,2.236307144165039,2.8149631023406982
1789323493395733000,11.28973291015625,-1.925161361694336,1.9857673645019531,2.508042335510254
1789323493414584300,11.308584228515626,-2.534268379211426,1.5850409269332886,1.8787873983383179
1789323493433435400,11.327435302734376,-2.5491433143615723,1.458961009979248,1.5977754592895508
1789323493452286700,11.34628662109375,-2.047419548034668,1.1028234958648682,1.4744991064071655
1789323493471138000,11.365137939453126,-1.50443696975708,1.0591983795166016,1.289097785949707
1789323493489989400,11.3839892578125,-1.0409746170043945,1.2168467044830322,1.402320146560669
1789323493508840400,11.40284033203125,-0.7668194770812988,1.5007939338684082,1.0298810005187988
1789323493527691800,11.42169189453125,-0.569908618927002,1.02488374710083,0.4831719398498535
1789323493546543000,11.440543212890624,-0.12203264236450195,-0.2622370719909668,0.3191962242126465
1789323493574820000,11.468820068359374,-0.5111508369445801,-1.4096579551696777,-0.05417776107788086
1789323493593671200,11.487671142578124,-0.25263500213623047,-1.7179698944091797,0.27124786376953125
1789323493612522500,11.5065224609375,0.07708024978637695,-1.834012508392334,0.1190793514251709
1789323493631373800,11.525373779296874,-0.16066598892211914,-1.965970516204834,-0.28587985038757324
1789323493650225200,11.54422509765625,0.35619640350341797,-1.6381340026855469,-0.8910396099090576
1789323493669076200,11.563076171875,1.282724380493164,-1.404648780822754,-1.3518030643463135
1789323493687927600,11.581927490234374,2.4977517127990723,-2.2910451889038086,-1.7974262237548828
1789323493706779000,11.60077880859375,2.95853853225708,-3.2659263610839844,-2.0736196041107178
1789323493735055600,11.6290556640625,1.9544148445129395,-2.250748634338379,-1.2545080184936523
1789323493753907000,11.647906982421874,1.8840398788452148,-0.7211198806762695,-0.1067965030670166
1789323493772758300,11.66675830078125,1.9706497192382812,-0.4174995422363281,0.10117983818054199
1789323493791609600,11.685609619140624,1.8515610694885254,-0.48766422271728516,-0.7820065021514893
1789323493810460700,11.704460693359374,1.4351115226745605,-0.07542037963867188,-1.471686601638794
1789323493829312000,11.72331201171875,1.5916147232055664,0.16540908813476562,-1.2777328491210938
1789323493848163300,11.742163330078125,1.7159924507141113,-0.2380504608154297,-0.6266360282897949
1789323493867014400,11.761014404296875,1.478419303894043,-0.7326383590698242,0.19330525398254395
1789323493885865700,11.77986572265625,1.0179376602172852,-1.0308551788330078,0.7115617990493774
1789323493904717000,11.798717041015625,0.5019822120666504,-0.7546043395996094,0.39635157585144043
1789323493923568400,11.817568359375,-0.22890472412109375,-0.3307218551635742,0.10221338272094727
1789323493942419500,11.83641943359375,-0.3543267250061035,-0.3431243896484375,0.12387418746948242
1789323493961270800,11.855270751953125,0.017326831817626953,-0.8513031005859375,-0.0449063777923584
1789323493980122000,11.8741220703125,0.5249128341674805,-1.5087218284606934,-0.16316986083984375
1789323493998973200,11.89297314453125,1.2322936058044434,-2.024845600128174,-0.3452134132385254
1789323494017824500,11.911824462890625,1.462512493133545,-2.5300498008728027,-0.38513708114624023
1789323494036675800,11.93067578125,1.1826238632202148,-2.746511459350586,-1.0368025302886963
1789323494055527000,11.94952685546875,0.5380420684814453,-2.0797529220581055,-1.407348871231079
1789323494074378200,11.968378173828125,0.012801647186279297,-1.2294807434082031,-1.52750825881958
1789323494093229600,11.9872294921875,-0.2761049270629883,-0.7445745468139648,-0.9194028377532959
1789323494112081000,12.006080810546875,-0.3424057960510254,-0.19694042205810547,-0.25522470474243164
1789323494130932000,12.024931884765625,-0.5049328804016113,0.13244152069091797,-0.021198272705078125
1789323494149783300,12.043783203125,-0.6551342010498047,0.08022117614746094,0.11191368103027344
1789323494168634600,12.062634521484375,-0.4015631675720215,-0.4993462562561035,0.18246674537658691
1789323494187485700,12.081485595703125,-0.7256264686584473,-1.1886382102966309,0.5972409248352051
1789323494206337000,12.1003369140625,-1.558293342590332,-1.1793394088745117,0.5649917125701904
1789323494225188000,12.11918798828125,-1.883944034576416,0.4094693660736084,0.08885955810546875
1789323494244039400,12.138039306640625,-0.833763599395752,-0.0893087387084961,-0.3335576057434082
1789323494262890800,12.156890869140625,-1.099879264831543,0.365978479385376,0.16585111618041992
1789323494281742000,12.1757421875,-2.784428119659424,1.6174495220184326,0.99519944190979
1789323494300593200,12.19459326171875,-2.8476004600524902,1.5448338985443115,1.5982787609100342
1789323494319444500,12.213444580078125,-2.2532405853271484,1.022533655166626,1.6814939975738525
1789323494338295600,12.232295654296875,-1.4992780685424805,0.6591191291809082,1.4010411500930786
1789323494357147000,12.25114697265625,-2.4358181953430176,0.30840229988098145,0.6670513153076172
1789323494375998200,12.269998291015625,-2.836491107940674,0.4534163475036621,0.7270305156707764
1789323494394849500,12.288849609375,-2.502668857574463,1.0315279960632324,1.5144494771957397
1789323494413700600,12.30770068359375,-2.2929487228393555,1.0623016357421875,1.9698059558868408
1789323494432552000,12.326552001953125,-2.089688777923584,1.323629379272461,2.107895851135254
1789323494451403000,12.345403076171875,-2.8481674194335938,1.676218032836914,1.6608422994613647
1789323494470254300,12.36425439453125,-2.8230814933776855,1.7904860973358154,1.4557386636734009
1789323494489105700,12.383105712890625,-2.6432571411132812,2.0371763706207275,1.4267650842666626
1789323494507956700,12.401956787109375,-1.7391791343688965,2.1576380729675293,1.534257411956787
1789323494526808000,12.42080810546875,-1.6045269966125488,2.0964443683624268,1.2674168348312378
1789323494545659400,12.439659423828125,-1.2893176078796387,1.6308872699737549,0.41132164001464844
1789323494564510500,12.458510498046875,-0.8675899505615234,-0.15384912490844727,0.18379640579223633
1789323494583361800,12.47736181640625,-0.13365554809570312,-1.1111044883728027,-0.3013458251953125
1789323494602213000,12.496213134765625,0.2992267608642578,-2.104440689086914,-0.8621149063110352
1789323494621064200,12.515064208984375,0.9047131538391113,-2.569854259490967,-0.8547976016998291
1789323494639915500,12.53391552734375,0.8184776306152344,-3.058063507080078,-1.2338535785675049
1789323494658766600,12.5527666015625,0.41616153717041016,-3.2289490699768066,-1.7152953147888184
1789323494677618000,12.571617919921875,0.4965057373046875,-2.874485492706299,-1.5657002925872803
1789323494696469200,12.59046923828125,1.1101617813110352,-2.3519344329833984,-1.1668920516967773
1789323494724746000,12.61874609375,2.842135429382324,-1.5107040405273438,-0.8692886829376221
1789323494743597300,12.637597412109375,2.5320940017700195,-1.5279502868652344,-1.211132526397705
1789323494762448400,12.656448486328125,2.014362335205078,-1.3244171142578125,-1.5049633979797363
1789323494781299700,12.6752998046875,1.896242618560791,-0.7610082626342773,-0.8911101818084717
1789323494800150800,12.69415087890625,1.914280891418457,-0.6462745666503906,-0.3031461238861084
1789323494819002000,12.713002197265626,1.0972447395324707,-0.44594669342041016,-0.061634063720703125
1789323494837853400,12.731853515625,1.0195741653442383,0.2472209930419922,-0.23823881149291992
1789323494856704500,12.75070458984375,0.6978249549865723,0.7379493713378906,-0.1110992431640625
1789323494875555800,12.769555908203126,0.9498105049133301,0.5663342475891113,0.30063724517822266
1789323494894407000,12.788406982421876,1.0805435180664062,-0.0589599609375,0.498482346534729
1789323494913258200,12.80725830078125,0.7848381996154785,-0.8954143524169922,0.603466272354126
1789323494932109600,12.826109619140626,0.8570098876953125,-1.5172662734985352,-0.10040616989135742
1789323494950960600,12.844960693359376,0.49858903884887695,-1.9286975860595703,-0.09586238861083984
1789323494969812000,12.86381201171875,0.501035213470459,-2.047287940979004,-0.24457955360412598
1789323494988663000,12.8826630859375,0.7925190925598145,-1.5940508842468262,-0.39407896995544434
1789323495007514400,12.901514404296876,1.2723445892333984,-0.9313688278198242,-0.5662903785705566
1789323495026365400,12.920365478515626,1.3844985961914062,-0.8625888824462891,-0.4602015018463135
1789323495045216800,12.939216796875,0.9833226203918457,-1.231740951538086,-0.827124834060669
1789323495064067800,12.95806787109375,0.3414759635925293,-0.9341201782226562,-0.6261253356933594
1789323495082919200,12.976919189453126,-0.02476024627685547,-0.30662107467651367,-0.24913811683654785
1789323495101770500,12.9957705078125,-0.41392993927001953,-0.3173403739929199,-0.08253335952758789
1789323495120621600,13.01462158203125,-0.6788229942321777,-0.6317591667175293,-0.3153350353240967
1789323495139473000,13.033472900390626,-0.8043713569641113,-0.5832781791687012,-0.5463385581970215
1789323495158324000,13.052323974609376,0.04804515838623047,-0.20945167541503906,-0.6288464069366455
1789323495186601000,13.08060107421875,1.2548274993896484,-1.5248160362243652,-0.35358691215515137
1789323495205452000,13.0994521484375,0.5476264953613281,-1.7332353591918945,0.2728548049926758
1789323495224303400,13.118303466796876,0.062129974365234375,-1.3715720176696777,-0.649899959564209
1789323495243154400,13.137154541015626,-0.6581592559814453,-0.5038347244262695,-1.299687385559082
1789323495262005800,13.156005859375,-0.9702138900756836,-0.524744987487793,-0.06483221054077148
1789323495280856800,13.17485693359375,-2.390636444091797,0.639434814453125,0.6218569278717041
1789323495299708200,13.193708251953124,-2.344886302947998,1.1166164875030518,1.274794340133667
1789323495318559500,13.2125595703125,-3.0184764862060547,1.099205732345581,1.766973853111267
1789323495337410600,13.23141064453125,-3.3560376167297363,1.7041754722595215,2.2107927799224854
1789323495356261600,13.25026171875,-2.7327933311462402,1.5697702169418335,2.254319667816162
1789323495375113000,13.269113037109374,-3.1911492347717285,1.0303661823272705,2.144926071166992
1789323495393964000,13.287964111328124,-4.194704532623291,1.3058414459228516,1.9829623699188232
1789323495412815400,13.3068154296875,-3.693915367126465,2.3853354454040527,2.5373635292053223
1789323495431666700,13.325666748046874,-1.1820387840270996,2.265812397003174,1.7478067874908447
1789323495450517800,13.344517822265624,-1.7663474082946777,1.515831708908081,0.8185734748840332
1789323495469369000,13.363369140625,-3.0050697326660156,1.9987984895706177,0.6578154563903809
1789323495488220200,13.38222021484375,-1.5736002922058105,2.285372734069824,0.48070764541625977
1789323495507071500,13.401071533203124,-0.14859390258789062,1.8677022457122803,0.4673762321472168
1789323495525922600,13.419922607421874,0.07863616943359375,1.3314898014068604,0.5761091709136963
1789323495544774000,13.43877392578125,-1.5611209869384766,0.9441843032836914,-0.3788444995880127
1789323495563625000,13.457625,-1.6826324462890625,-1.301896572113037,-0.43700313568115234
1789323495582476300,13.476476318359374,-1.1843037605285645,-2.5580801963806152,0.17722797393798828
1789323495601327400,13.495327392578124,-0.6540355682373047,-2.064695358276367,0.5402171611785889
1789323495620178700,13.5141787109375,-0.4783482551574707,-0.8007936477661133,0.8076808452606201
1789323495639029800,13.53302978515625,-0.49921607971191406,0.11969327926635742,0.1424398422241211
1789323495667306500,13.561306396484374,0.1179041862487793,-0.3862595558166504,-0.9016087055206299
1789323495686157800,13.58015771484375,1.1910533905029297,-1.5986433029174805,-1.2988612651824951
1789323495705009000,13.5990087890625,1.5795016288757324,-3.180202007293701,-2.165337562561035
1789323495723860200,13.617860107421874,2.106505870819092,-4.190896987915039,-2.240077018737793
1789323495742711300,13.636711181640624,2.2818102836608887,-3.4362001419067383,-1.8158073425292969
1789323495761562600,13.655562744140624,1.841188907623291,-1.3286352157592773,-1.5476338863372803
1789323495780413700,13.67441357421875,1.7243404388427734,-0.26433849334716797,-1.136925458908081
1789323495799265000,13.69326513671875,2.2085909843444824,-0.4411344528198242,-0.5696046352386475
1789323495818116000,13.7121162109375,2.368985652923584,-0.9991798400878906,-1.1045682430267334
1789323495836967400,13.730967529296874,1.6509995460510254,-1.010075569152832,-1.2107980251312256
1789323495855818500,13.749818603515624,1.8284516334533691,-1.030538558959961,-1.0043940544128418
1789323495874669800,13.768669921875,1.9054269790649414,-1.0998802185058594,-0.08343935012817383
1789323495893521000,13.78752099609375,1.7235560417175293,-1.363570213317871,0.3161954879760742
1789323495912372000,13.8063720703125,0.7899837493896484,-1.3651323318481445,0.7473831176757812
1789323495931223300,13.825223388671875,-0.0811624526977539,-0.6666412353515625,0.3606741428375244
1789323495950074400,13.844074462890624,-0.6172828674316406,0.2045726776123047,-0.28386926651000977
1789323495968925700,13.86292578125,-0.8127264976501465,0.4908123016357422,-0.027079105377197266
1789323495987776800,13.88177685546875,-0.36181163787841797,0.1131277084350586,-0.2360367774963379
1789323496006628000,13.900628173828125,-0.255094051361084,-0.3741621971130371,-0.05116081237792969
1789323496025479200,13.919479248046875,0.27811574935913086,-0.4955477714538574,-0.29621458053588867
1789323496044330500,13.93833056640625,0.7930655479431152,-0.9506349563598633,-0.6320235729217529
1789323496063181600,13.957181640625,1.1127676963806152,-1.9004955291748047,-1.1046943664550781
1789323496082032600,13.97603271484375,1.1088457107543945,-2.107334613800049,-1.5228185653686523
1789323496100884000,13.994884033203125,0.7655763626098633,-1.7124958038330078,-1.8824803829193115
1789323496119735000,14.013735107421875,0.415834903717041,-1.1787900924682617,-1.1581859588623047
1789323496138586400,14.03258642578125,0.6834993362426758,-0.9812679290771484,-0.4262099266052246
1789323496157437400,14.0514375,0.5670385360717773,-1.2871851921081543,-0.6104118824005127
1789323496176288500,14.07028857421875,0.7332310676574707,-1.3593015670776367,-1.041020154953003
1789323496195139800,14.089139892578125,0.6694269180297852,-1.5392160415649414,-1.017204999923706
1789323496213991000,14.107990966796875,-0.31476497650146484,-2.2421693801879883,-0.33841967582702637
1789323496232842200,14.12684228515625,-1.5069289207458496,-1.1177420616149902,0.34953856468200684
1789323496251693300,14.145693359375,-2.600520133972168,0.1819624900817871,0.025601625442504883
1789323496270544600,14.164544677734375,-1.6012229919433594,0.18727731704711914,-0.3614969253540039
1789323496298821400,14.1928212890625,-2.123297691345215,0.36170125007629395,0.48675537109375
1789323496317672400,14.21167236328125,-2.8129477500915527,1.7378438711166382,1.8503234386444092
1789323496336523500,14.2305234375,-3.145785331726074,1.346219539642334,1.9655613899230957
1789323496355374800,14.249374755859375,-3.3115687370300293,0.8623390197753906,1.511397361755371
1789323496374226000,14.268225830078125,-4.074385166168213,0.6596839427947998,1.4204652309417725
1789323496393077200,14.2870771484375,-3.504934310913086,1.7942283153533936,1.9993793964385986
1789323496411928300,14.30592822265625,-2.9671244621276855,2.0490074157714844,1.6503949165344238
1789323496430779400,14.324779296875,-2.6300950050354004,1.5558395385742188,1.420019268989563
1789323496449630700,14.343630615234375,-2.131622791290283,1.467157244682312,1.4383052587509155
1789323496468481800,14.362481689453125,-2.4722518920898438,1.3357510566711426,1.0341497659683228
1789323496487333000,14.3813330078125,-1.8733720779418945,1.5775959491729736,0.9478265047073364
1789323496506184200,14.40018408203125,-1.6239404678344727,1.4372375011444092,0.6554632186889648
1789323496525035300,14.41903515625,-1.6930198669433594,1.4695110321044922,0.981154203414917
1789323496543886600,14.437886474609375,-1.6802153587341309,1.8788530826568604,0.5975704193115234
1789323496562737700,14.456737548828125,-0.9898285865783691,1.243257999420166,0.15804100036621094
1789323496581588700,14.475588623046875,-0.33215951919555664,-0.4641857147216797,0.34728026390075684
1789323496600440000,14.494440185546875,-0.2843632698059082,-1.1592016220092773,0.026717662811279297
1789323496619291100,14.513291015625,-0.2978334426879883,-2.1259031295776367,-0.5992758274078369
1789323496638142200,14.53214208984375,-0.10319709777832031,-2.310758113861084,-0.3326301574707031
1789323496666419000,14.5604189453125,-0.32848358154296875,-2.756381034851074,-1.1189143657684326
1789323496685270300,14.579270263671875,0.20067167282104492,-2.630013942718506,-1.178861379623413
1789323496704121300,14.598121337890625,1.1189751625061035,-2.151057720184326,-1.4578783512115479
1789323496722972400,14.616972412109375,1.9623208045959473,-1.8124637603759766,-1.2286837100982666
1789323496741823700,14.63582373046875,2.6952757835388184,-2.2422685623168945,-1.2501041889190674
1789323496760674800,14.6546748046875,1.979752540588379,-2.7377939224243164,-1.1837701797485352
1789323496779526000,14.67352587890625,1.666201114654541,-2.311124801635742,-0.21736955642700195
1789323496798377200,14.692377197265625,1.867537021636963,-1.327524185180664,-0.07577157020568848
1789323496817228300,14.711228271484375,1.7807621955871582,-0.502777099609375,-0.07741403579711914
1789323496836079400,14.730079345703125,1.5099000930786133,-0.1715402603149414,-0.7626779079437256
1789323496854930400,14.748930419921875,1.9100980758666992,-0.4508228302001953,-1.2155330181121826
1789323496873781800,14.76778173828125,1.9320893287658691,-0.546417236328125,-0.53749680519104
1789323496892632800,14.7866328125,1.7231030464172363,-0.2978372573852539,0.19654107093811035
1789323496911484200,14.805484130859375,1.7129039764404297,-0.5812911987304688,0.12517523765563965
1789323496930335200,14.824335205078125,0.7236428260803223,-1.029353141784668,0.018616437911987305
1789323496949186300,14.843186279296875,0.10204172134399414,-0.795649528503418,-0.2827575206756592
1789323496968037400,14.862037353515625,0.11708450317382812,-0.30940818786621094,-0.29436779022216797
1789323496986888700,14.880888671875,0.33949756622314453,-0.39493799209594727,-0.3135650157928467
1789323497005739800,14.89973974609375,0.6567468643188477,-1.0812268257141113,-0.33350539207458496
1789323497024590800,14.9185908203125,0.9989161491394043,-1.6652336120605469,-0.5949764251708984
1789323497043442200,14.937442138671875,1.3462414741516113,-1.7508573532104492,-0.583120584487915
1789323497062293200,14.956293212890625,1.0531086921691895,-1.8877968788146973,-0.6559691429138184
1789323497081144300,14.975144287109375,0.20505666732788086,-1.5586252212524414,-0.7134609222412109
1789323497099995400,14.993995361328125,-0.29618263244628906,-0.7051486968994141,-0.6610276699066162
1789323497118846700,15.0128466796875,-0.5164971351623535,-0.33157968521118164,-0.60467529296875
1789323497137697800,15.03169775390625,-0.7520675659179688,-0.4544076919555664,-0.7029116153717041
1789323497156548900,15.050548828125,-0.6811914443969727,-0.2239093780517578,-0.41558027267456055
1789323497175400000,15.06939990234375,0.11368227005004883,-0.2019491195678711,0.08538484573364258
1789323497194251300,15.088251220703125,1.1492085456848145,-1.1199946403503418,0.6478755474090576
1789323497213102300,15.107102294921875,1.2322978973388672,-2.5670037269592285,0.42261290550231934
1789323497231953400,15.125953369140625,-0.40304040908813477,-2.6195640563964844,0.2801947593688965
1789323497250804500,15.144804443359375,-1.7752275466918945,-1.7161402702331543,-0.3307969570159912
1789323497269655800,15.16365576171875,-2.606682777404785,0.1914515495300293,-0.20872926712036133
1789323497288507000,15.1825068359375,-1.588313102722168,0.886634111404419,0.44051098823547363
1789323497307358000,15.20135791015625,-1.8399004936218262,1.277207851409912,1.0182201862335205
1789323497326209000,15.220208984375,-2.8465867042541504,1.407569408416748,1.9192394018173218
1789323497345060400,15.239060302734375,-3.228703022003174,1.3249971866607666,2.3999085426330566
1789323497363911400,15.257911376953125,-3.2186942100524902,1.2660679817199707,2.3424885272979736
1789323497382762500,15.276762451171875,-3.1265554428100586,1.1434848308563232,2.110935926437378
1789323497401613600,15.295613525390625,-2.9037628173828125,1.1822233200073242,1.418127417564392
1789323497420465000,15.31446484375,-2.7952823638916016,1.743847131729126,1.1361624002456665
1789323497439316000,15.33331591796875,-2.4942378997802734,2.014832019805908,1.4845081567764282
1789323497458167000,15.3521669921875,-1.9822187423706055,2.100297689437866,1.353031039237976
1789323497477018000,15.37101806640625,-1.5797638893127441,1.9322535991668701,1.3102490901947021
1789323497495869200,15.389869140625,-1.974170207977295,1.6201772689819336,0.9677057266235352
1789323497514720500,15.408720458984375,-1.784184455871582,1.5733001232147217,1.0299534797668457
1789323497533571600,15.427571533203125,-1.453620433807373,1.4168815612792969,0.884148120880127
1789323497552422700,15.446422607421875,-0.8453121185302734,1.1123294830322266,0.280597448348999
1789323497571273700,15.465273681640625,-0.1840524673461914,0.04981088638305664,0.5867524147033691
1789323497590124800,15.484124755859375,-0.657127857208252,-0.3540167808532715,0.21567988395690918
1789323497608976100,15.50297607421875,-0.4576268196105957,-0.984957218170166,0.025812864303588867
1789323497627827200,15.5218271484375,-0.1624279022216797,-1.3527746200561523,0.19655489921569824
1789323497646678300,15.54067822265625,-0.16902494430541992,-1.816319465637207,0.21610021591186523
1789323497665529300,15.559529296875,-0.21947860717773438,-2.1505770683288574,-0.24634885787963867
1789323497684380400,15.57838037109375,0.15874242782592773,-2.1597838401794434,-0.6991019248962402
1789323497703231500,15.5972314453125,0.5597877502441406,-1.891561508178711,-0.9981651306152344
1789323497722082800,15.616082763671875,1.5524306297302246,-1.5153236389160156,-1.1444361209869385
1789323497740934000,15.634933837890625,2.539200782775879,-1.7028913497924805,-1.3037371635437012
1789323497759785000,15.653784912109375,2.6682472229003906,-2.5389204025268555,-1.548722267150879
1789323497778636000,15.672635986328125,2.384823799133301,-3.1625871658325195,-1.099381923675537
1789323497797487000,15.691487060546875,2.341097354888916,-2.4078550338745117,0.2729625701904297
1789323497816338200,15.710338134765625,2.2607975006103516,-0.8826608657836914,0.5596075057983398
1789323497835189200,15.729189208984375,1.6739239692687988,0.06509685516357422,-0.3814048767089844
1789323497854040600,15.74804052734375,1.2931814193725586,0.21192264556884766,-1.0621652603149414
1789323497872891600,15.7668916015625,1.5758037567138672,-0.23180866241455078,-0.8730993270874023
1789323497891742700,15.78574267578125,1.806528091430664,-0.3865165710449219,-0.0640096664428711
1789323497910593800,15.80459375,1.563371181488037,-0.44333648681640625,0.6146349906921387
1789323497929444900,15.82344482421875,0.9042925834655762,-0.5345373153686523,0.35010766983032227
1789323497948296000,15.8422958984375,0.2628765106201172,-0.5760040283203125,0.18158960342407227
1789323497967147000,15.86114697265625,0.2531003952026367,-0.7558994293212891,-0.25501322746276855
1789323497985998300,15.879998291015625,0.46218442916870117,-1.1534128189086914,-0.261760950088501
1789323498004849400,15.898849365234375,0.7557468414306641,-1.212827205657959,-0.37298154830932617
1789323498023700500,15.917700439453125,1.000436782836914,-1.0376391410827637,-0.5517048835754395
1789323498042551600,15.936551513671875,0.9096837043762207,-1.0204739570617676,-0.41925525665283203
1789323498061402600,15.955402587890624,0.8282060623168945,-1.1368894577026367,-0.3137531280517578
1789323498080253700,15.974253662109374,0.7463040351867676,-1.1225218772888184,-0.4070596694946289
1789323498099104800,15.993104736328124,0.49481821060180664,-1.0743045806884766,-0.6308276653289795
1789323498117955800,16.011955810546876,0.6317758560180664,-1.3097004890441895,-0.6261584758758545
1789323498136807000,16.030806884765624,0.6194615364074707,-1.7035331726074219,-0.515690803527832
1789323498155658200,16.049658203125,0.598762035369873,-1.9459562301635742,-0.41339540481567383
1789323498183934700,16.077934814453126,-0.20670318603515625,-1.5537190437316895,-0.7630910873413086
1789323498202785800,16.096785888671874,-0.6555204391479492,-0.23708772659301758,-0.2483656406402588
1789323498221636900,16.115636962890626,-1.0377402305603027,-0.0928182601928711,0.5139932632446289
1789323498240488000,16.134488037109374,-1.4857439994812012,-0.515955924987793,1.0806593894958496
1789323498259339000,16.153339111328126,-1.3942151069641113,-0.5972604751586914,0.6829421520233154
1789323498278190000,16.172190185546874,-1.256113052368164,0.4548194408416748,0.15244340896606445
1789323498297041400,16.19104150390625,-1.0530595779418945,0.09055805206298828,0.30638813972473145
1789323498315892500,16.209892578125,-2.2501392364501953,1.0182807445526123,0.8076651096343994
1789323498334743600,16.22874365234375,-2.62137508392334,1.5166192054748535,1.810566782951355
1789323498353594600,16.2475947265625,-2.546133041381836,1.3285596370697021,2.282111406326294
1789323498372445700,16.26644580078125,-2.2721376419067383,1.298912763595581,2.1565260887145996
1789323498391296800,16.285296875,-2.388030529022217,1.3808223009109497,1.826894998550415
1789323498410147800,16.30414794921875,-2.741427421569824,1.2939581871032715,1.366714596748352
1789323498428999000,16.3229990234375,-2.506563186645508,1.610956072807312,1.3074305057525635
1789323498447850000,16.34185009765625,-2.4451065063476562,1.534566044807434,1.5311583280563354
1789323498466701000,16.360701171875,-2.0404605865478516,1.374114990234375,1.7214536666870117
1789323498485552000,16.37955224609375,-1.8136310577392578,1.4896893501281738,1.1328747272491455
1789323498504403200,16.3984033203125,-2.183467388153076,1.4694936275482178,0.9027810096740723
1789323498523254300,16.417254150390626,-1.3164572715759277,1.5729947090148926,0.8254969120025635
1789323498542105300,16.436105224609374,-1.8158388137817383,1.6053106784820557,0.6648907661437988
1789323498560956400,16.454956298828126,-1.5585284233093262,1.9272232055664062,0.5758461952209473
1789323498579807500,16.473807373046874,-1.0745606422424316,1.3081190586090088,0.25391149520874023
1789323498598658600,16.492658447265626,-0.8483052253723145,0.09560203552246094,0.28330564498901367
1789323498617509600,16.511509521484374,-0.475888729095459,-0.4493098258972168,0.1530749797821045
1789323498636360700,16.530360595703126,-0.19353866577148438,-1.1954736709594727,0.17670726776123047
1789323498655211800,16.549211669921874,-0.19490718841552734,-2.245655059814453,-0.026636600494384766
1789323498683488500,16.577488525390624,-0.08633995056152344,-3.9241909980773926,-0.9816102981567383
1789323498702339600,16.596339599609376,-0.10227298736572266,-3.9551162719726562,-1.160529613494873
1789323498721190700,16.615190673828124,0.8256678581237793,-2.8831262588500977,-0.9828965663909912
1789323498740041700,16.634041748046876,2.639716148376465,-1.5132074356079102,-0.7280397415161133
1789323498758892800,16.652892822265624,2.996677875518799,-0.7132539749145508,-1.3476738929748535
1789323498777744000,16.671743896484376,2.1394782066345215,-0.5434293746948242,-2.238713026046753
1789323498796595000,16.690594970703124,1.410912036895752,-0.12513160705566406,-1.871166706085205
1789323498815446000,16.709446044921876,1.6101670265197754,-0.21204376220703125,-1.0109877586364746
1789323498834297000,16.728297119140624,1.4949593544006348,-1.1639556884765625,-0.427417516708374
1789323498853148000,16.74714794921875,1.4097871780395508,-1.9628524780273438,-0.5807633399963379
1789323498871999000,16.7659990234375,1.2630953788757324,-1.5146923065185547,-0.2867093086242676
1789323498890850000,16.78485009765625,1.629152774810791,-1.053812026977539,-0.16286730766296387
1789323498909701000,16.803701171875,1.5622820854187012,-0.9876270294189453,-0.07108807563781738
1789323498928552200,16.82255224609375,1.5799002647399902,-0.8071174621582031,-0.9868514537811279
1789323498956829000,16.850828857421874,0.4783134460449219,0.0863800048828125,-0.896228551864624
1789323498975680000,16.869679931640626,0.47476768493652344,0.053519248962402344,-0.9673328399658203
1789323498994531000,16.888531005859374,-0.047672271728515625,-0.5377063751220703,-0.1942737102508545
1789323499013382100,16.907382080078126,0.05122661590576172,-0.6723966598510742,-0.12427663803100586
1789323499032233000,16.92623291015625,0.3265681266784668,-0.8404574394226074,-0.240248441696167
1789323499051084000,16.945083984375,0.22487783432006836,-1.1506223678588867,-0.38137149810791016
1789323499069935000,16.96393505859375,0.338254451751709,-1.1273689270019531,-0.5145418643951416
1789323499088786200,16.9827861328125,0.8482213020324707,-1.3201589584350586,-0.8080904483795166
1789323499107637200,17.00163720703125,1.0467753410339355,-1.6764979362487793,-1.1471621990203857
1789323499126488300,17.02048828125,1.1061768531799316,-2.096423625946045,-1.5921485424041748
1789323499145339400,17.03933935546875,0.5441169738769531,-2.313066005706787,-1.74033784866333
1789323499164190500,17.0581904296875,-0.23969650268554688,-1.5422654151916504,-1.525226354598999
1789323499183041500,17.07704150390625,-0.5475344657897949,-0.46256113052368164,-0.7875325679779053
1789323499201892600,17.095892578125,0.11515665054321289,-0.24855709075927734,-0.3274240493774414
1789323499220743700,17.11474365234375,-0.002953052520751953,-0.4292488098144531,0.1656646728515625
1789323499239594500,17.133594482421874,-1.5072040557861328,-0.5120682716369629,0.11525201797485352
1789323499258445600,17.152445556640625,-2.1302714347839355,-0.740180492401123,-0.41701650619506836
1789323499277296600,17.171296630859374,-2.2482728958129883,0.1762223243713379,-0.4798402786254883
1789323499296147700,17.190147705078125,-2.098271369934082,-0.4971628189086914,-0.20308208465576172
1789323499314998800,17.208998779296873,-2.8076367378234863,0.0018694400787353516,0.5598541498184204
1789323499333849900,17.227849853515625,-2.849470615386963,1.5448579788208008,1.5184825658798218
1789323499352701000,17.246700927734373,-2.4772467613220215,1.4016788005828857,1.9930535554885864
1789323499371552000,17.265552001953125,-2.7524476051330566,0.7359838485717773,1.509474754333496
1789323499390403000,17.284403076171873,-2.2740349769592285,0.9696130752563477,1.2661125659942627
1789323499409254000,17.30325390625,-2.5074105262756348,1.2283806800842285,1.0037009716033936
1789323499428105000,17.32210498046875,-2.3462467193603516,0.8776087760925293,0.7957407236099243
1789323499446956000,17.3409560546875,-2.34757137298584,1.4135146141052246,1.091243028640747
1789323499465807000,17.35980712890625,-2.3601393699645996,1.4627089500427246,1.327315330505371
1789323499484658200,17.378658203125,-2.4666409492492676,1.5889179706573486,1.441892385482788
1789323499503509200,17.39750927734375,-2.4244213104248047,1.5970356464385986,0.9620697498321533
1789323499522360300,17.4163603515625,-2.311582565307617,1.5946412086486816,1.2808146476745605
1789323499541211400,17.43521142578125,-1.8326683044433594,1.6333186626434326,1.3563004732131958
1789323499560062200,17.454062255859377,-2.6071066856384277,1.6820414066314697,0.8877928256988525
1789323499578913300,17.472913330078125,-1.984208583831787,1.6130807399749756,0.6707408428192139
1789323499597764400,17.491764404296877,-1.0160298347473145,1.0996143817901611,0.49887776374816895
1789323499616615400,17.510615478515625,-0.6043004989624023,-0.4245944023132324,0.3360111713409424
1789323499635466500,17.529466552734377,-0.23501110076904297,-1.0480318069458008,-0.2025914192199707
1789323499654317600,17.548317626953125,-0.16655492782592773,-1.7363696098327637,-0.3669443130493164
1789323499673168600,17.567168701171877,0.13536500930786133,-2.2268428802490234,-0.5070488452911377
1789323499701445000,17.595445068359375,0.07770490646362305,-2.870856285095215,-1.0251054763793945
1789323499720296200,17.614296142578127,0.4087038040161133,-2.6974496841430664,-1.33888578414917
1789323499739147000,17.63314697265625,1.1339740753173828,-2.5238327980041504,-1.525947093963623
1789323499757998000,17.651998046875,1.852226734161377,-2.0879411697387695,-1.1770708560943604
1789323499776849200,17.67084912109375,2.5737881660461426,-1.5238122940063477,-1.2255661487579346
1789323499795700200,17.6897001953125,2.5399575233459473,-1.394552230834961,-1.4226090908050537
1789323499814551300,17.70855126953125,1.584599494934082,-1.1188068389892578,-1.0670561790466309
1789323499833402000,17.727402099609375,1.6876177787780762,-0.8717765808105469,-0.36939454078674316
1789323499852253200,17.746253173828126,1.860368251800537,-0.5946407318115234,0.2724456787109375
1789323499871104300,17.765104248046875,1.7500555515289307,-0.6728086471557617,-0.11881804466247559
1789323499889955300,17.783955322265626,1.7959470748901367,-0.8931875228881836,-0.290316104888916
1789323499908806400,17.802806396484375,1.9429574012756348,-1.0334453582763672,-0.07296442985534668
1789323499927657500,17.821657470703126,2.0758204460144043,-0.9582624435424805,0.1501293182373047
1789323499946508300,17.84050830078125,1.5182294845581055,-0.6699428558349609,0.33142566680908203
1789323499965359400,17.859359375,0.7150101661682129,-0.11078166961669922,0.11715960502624512
1789323499984210400,17.87821044921875,0.1546335220336914,0.1002645492553711,-0.05075335502624512
1789323500003061500,17.8970615234375,0.07995891571044922,-0.5279350280761719,0.013312339782714844
1789323500021912600,17.91591259765625,0.2701101303100586,-1.0228710174560547,0.24828600883483887
1789323500040763400,17.934763427734374,0.8704595565795898,-1.1395468711853027,0.18028616905212402
1789323500059614500,17.953614501953126,1.2996435165405273,-1.1751227378845215,-0.43633604049682617
1789323500097316600,17.991316650390626,1.220679759979248,-1.5739374160766602,-0.953188419342041
1789323500116167400,18.01016748046875,0.6780967712402344,-1.4488377571105957,-0.8853082656860352
1789323500135018500,18.0290185546875,0.46643495559692383,-1.0725655555725098,-0.6933505535125732
1789323500163295000,18.057294921875,0.8607807159423828,-1.403031349182129,-0.24765491485595703
1789323500182146000,18.07614599609375,1.023055076599121,-2.00040864944458,-0.41498422622680664
1789323500200997000,18.0949970703125,0.6728248596191406,-2.0466675758361816,-0.6987528800964355
1789323500219848200,18.11384814453125,0.28514814376831055,-1.2526087760925293,-0.8639788627624512
1789323500238699300,18.13269921875,-0.10265731811523438,-0.46219539642333984,0.07232522964477539
1789323500257550000,18.151550048828124,-0.5298585891723633,-0.18500328063964844,0.8573601245880127
1789323500276401200,18.170401123046876,-1.723656177520752,-0.17126989364624023,0.9483551979064941
1789323500295252200,18.189252197265624,-1.7549514770507812,0.977428674697876,0.49953150749206543
1789323500314103300,18.208103271484376,-0.8451700210571289,-0.08171558380126953,0.22748446464538574
1789323500332954000,18.2269541015625,-1.4046344757080078,0.22518515586853027,0.7705135345458984
1789323500351805200,18.24580517578125,-2.566401958465576,0.804121732711792,1.8698536157608032
1789323500370656300,18.26465625,-2.792527675628662,1.0257477760314941,2.393759250640869
1789323500389507300,18.28350732421875,-3.0496912002563477,1.0539214611053467,1.9641305208206177
1789323500408358100,18.302358154296876,-2.918398857116699,1.4989910125732422,1.7936221361160278
1789323500427209200,18.321209228515624,-2.861283302307129,1.7070631980895996,1.87166166305542
1789323500446060300,18.340060302734376,-2.4122390747070312,1.4516100883483887,1.6873021125793457
1789323500464911400,18.358911376953124,-2.7587175369262695,1.5535906553268433,1.92325758934021
1789323500483762200,18.37776220703125,-2.240569591522217,1.6074855327606201,1.869694709777832
1789323500502613200,18.39661328125,-2.284576416015625,1.5419892072677612,1.5498719215393066
1789323500521464300,18.41546435546875,-2.519033432006836,1.5361592769622803,1.465498447418213
1789323500540315400,18.4343154296875,-1.5311131477355957,1.8151850700378418,1.5814833641052246
1789323500559166200,18.453166259765624,-1.0103302001953125,1.708216667175293,1.6234655380249023
1789323500578017300,18.472017333984375,-1.734194278717041,1.7744550704956055,1.3361051082611084
1789323500596868400,18.490868408203124,-1.3504538536071777,1.4980807304382324,0.831812858581543
1789323500615719400,18.509719482421875,-0.6424832344055176,-0.06308507919311523,0.4189608097076416
1789323500634570200,18.5285703125,-0.23138093948364258,-1.0712742805480957,0.2761702537536621
1789323500653421300,18.54742138671875,-0.37323427200317383,-1.7982540130615234,-0.07574009895324707
1789323500672272400,18.5662724609375,-0.3140077590942383,-2.184947967529297,-0.0773930549621582
1789323500691123200,18.585123291015623,0.05299234390258789,-2.325725555419922,-0.3602590560913086
1789323500719399700,18.613399658203125,0.2646818161010742,-2.2192163467407227,-1.0691657066345215
1789323500738250800,18.632250732421873,0.9846944808959961,-1.9795732498168945,-1.4153475761413574
1789323500757101800,18.651101806640625,2.0927648544311523,-2.4588065147399902,-1.3592450618743896
1789323500775952600,18.66995263671875,3.1810507774353027,-3.5767927169799805,-1.290268898010254
1789323500794803700,18.6888037109375,2.5693259239196777,-3.8954734802246094,-1.1244347095489502
1789323500813654800,18.70765478515625,2.0784292221069336,-1.806365966796875,-0.6795384883880615
1789323500832505600,18.726505615234377,2.1224327087402344,0.092864990234375,-0.4455704689025879
1789323500851356700,18.745356689453125,1.8606510162353516,0.3847074508666992,-0.6004016399383545
1789323500870207700,18.764207763671877,1.6684889793395996,-0.00795745849609375,-0.7955851554870605
1789323500889058600,18.78305859375,1.9492096900939941,-0.7153139114379883,-0.8536937236785889
1789323500907909600,18.80190966796875,2.2805418968200684,-1.307413101196289,-0.6378383636474609
1789323500926760700,18.8207607421875,2.0383877754211426,-1.4836149215698242,0.04442644119262695
1789323500945611800,18.83961181640625,1.8848576545715332,-0.9288768768310547,0.26857924461364746
1789323500964462600,18.858462646484377,0.8594865798950195,-0.06483173370361328,0.23157691955566406
1789323500983313700,18.877313720703125,-0.1932220458984375,0.5881757736206055,-0.15370440483093262
1789323501002164500,18.89616455078125,-0.6252751350402832,0.6575679779052734,-0.45046353340148926
1789323501021015600,18.915015625,-0.11542177200317383,0.042624473571777344,-0.338608980178833
1789323501039866600,18.93386669921875,0.8584542274475098,-0.9247207641601562,-0.4722859859466553
1789323501058717400,18.952717529296876,1.331599235534668,-1.5048327445983887,-0.6662757396697998
1789323501077568500,18.971568603515625,1.1826081275939941,-1.6857991218566895,-0.6543996334075928
1789323501096419600,18.990419677734376,0.8051295280456543,-1.9182677268981934,-0.28494977951049805
1789323501115270400,19.0092705078125,0.29483842849731445,-2.435375213623047,-0.06270647048950195
1789323501134121500,19.02812158203125,0.17565584182739258,-1.9055376052856445,-0.250108003616333
1789323501152972500,19.04697265625,0.35122251510620117,-1.3336725234985352,-0.789968729019165
1789323501171823400,19.0658232421875,0.22354793548583984,-1.1548643112182617,-1.3360793590545654
1789323501190674400,19.08467431640625,0.0545048713684082,-0.7564501762390137,-1.2679228782653809
1789323501209525200,19.103525146484376,0.07597160339355469,-0.08635663986206055,-0.7035837173461914
1789323501237801700,19.1318017578125,0.0279388427734375,-0.6489224433898926,-0.25821614265441895
1789323501256652800,19.15065283203125,-0.588712215423584,-1.4371628761291504,0.16893339157104492
1789323501275503600,19.169503662109374,-1.9048705101013184,-1.3037285804748535,0.3944246768951416
1789323501303780000,19.197780029296876,-2.2500267028808594,0.2735557556152344,-0.23921632766723633
1789323501332056600,19.226056640625,-0.5549917221069336,0.17156648635864258,0.09113621711730957
1789323501350907600,19.24490771484375,-1.281785011291504,1.121183156967163,0.953998327255249
1789323501369758500,19.263758544921874,-2.7871809005737305,1.9226106405258179,1.5712672472000122
1789323501388609500,19.282609619140626,-2.5821924209594727,1.0979673862457275,1.5121246576309204
1789323501407460600,19.301460693359374,-2.974030017852783,0.9970264434814453,1.5464222431182861
1789323501426311400,19.3203115234375,-3.3142995834350586,1.2626495361328125,1.5907357931137085
1789323501445162500,19.33916259765625,-3.22189998626709,1.3428006172180176,1.604797124862671
1789323501464013300,19.358013427734374,-2.2807111740112305,1.2583000659942627,1.8122060298919678
1789323501482864400,19.376864501953126,-2.2867684364318848,0.9634833335876465,1.1862696409225464
1789323501501715500,19.395715576171874,-2.798067569732666,1.0816245079040527,1.2436635494232178
1789323501520566300,19.414566162109374,-3.066511631011963,1.3803551197052002,1.3567942380905151
1789323501539417300,19.433417236328125,-3.071852684020996,1.6737959384918213,1.5427298545837402
1789323501558268200,19.45226806640625,-2.3303403854370117,1.7982823848724365,1.7909276485443115
1789323501577119200,19.471119140625,-1.5772647857666016,1.7960615158081055,1.596693992614746
1789323501595970000,19.489969970703125,-1.840357780456543,1.7193787097930908,1.2917088270187378
1789323501614821000,19.508821044921874,-1.2846250534057617,1.6706371307373047,0.3076457977294922
1789323501633672000,19.527671875,-0.5070328712463379,-0.13135194778442383,-0.08294248580932617
1789323501652523000,19.54652294921875,0.13083505630493164,-1.5971612930297852,-0.4146406650543213
1789323501671373800,19.565373779296873,-0.35398244857788086,-2.5661730766296387,-0.54048752784729
1789323501690225000,19.584224853515625,-0.24681663513183594,-3.0109610557556152,-0.3279755115509033
1789323501709075700,19.60307568359375,-0.07007265090942383,-3.331515312194824,-0.21989750862121582
1789323501737352200,19.631352294921875,0.8131532669067383,-2.503251552581787,-0.8932337760925293
1789323501756203300,19.650203369140623,1.1782259941101074,-1.5057387351989746,-1.4493918418884277
1789323501775054000,19.66905419921875,1.9357390403747559,-0.6492886543273926,-1.6270322799682617
1789323501793905200,19.6879052734375,2.5959420204162598,-0.9795026779174805,-1.7120153903961182
1789323501812756000,19.706755859375,2.728501796722412,-1.9617118835449219,-1.6928656101226807
1789323501831607000,19.72560693359375,2.059213161468506,-2.3652877807617188,-1.333275318145752
1789323501850457900,19.744457763671875,1.7743711471557617,-1.6479606628417969,-0.3622477054595947
1789323501869309000,19.763308837890627,1.9791078567504883,-1.3688592910766602,0.16048598289489746
1789323501888159700,19.78215966796875,1.6057558059692383,-1.486353874206543,-0.2675516605377197
1789323501907010800,19.8010107421875,1.577005386352539,-1.1593475341796875,-0.4029221534729004
1789323501925861600,19.819861572265626,1.8204879760742188,-0.4140462875366211,-0.46282958984375
1789323501944712700,19.838712646484375,2.176745891571045,-0.19736957550048828,-0.4166069030761719
1789323501963563500,19.8575634765625,2.010892391204834,-0.49863433837890625,0.1300947666168213
1789323501982414600,19.87641455078125,1.2906723022460938,-0.6660423278808594,0.3016085624694824
1789323502001265400,19.895265380859374,0.3581113815307617,-0.3927001953125,0.22687673568725586
1789323502020116200,19.9141162109375,-0.15078210830688477,-0.13100910186767578,0.056501150131225586
1789323502038967300,19.93296728515625,-0.24487924575805664,-0.2672853469848633,0.22750234603881836
1789323502057818000,19.951818115234374,0.10144948959350586,-0.8288359642028809,0.3574645519256592
1789323502076669200,19.970669189453126,0.4739499092102051,-1.3840155601501465,0.18890142440795898
1789323502095520000,19.98952001953125,0.6693434715270996,-1.4893269538879395,-0.12914490699768066
1789323502114371000,20.00837109375,0.5475234985351562,-1.1923794746398926,-0.5629405975341797
1789323502133222000,20.027221923828126,0.48064756393432617,-0.8771243095397949,-0.9532206058502197
1789323502152073000,20.046072998046874,0.6622037887573242,-0.6556591987609863,-1.1657462120056152
1789323502170923800,20.064923828125,0.8333630561828613,-0.8040552139282227,-1.2776246070861816
1789323502189774600,20.083774658203126,0.8787345886230469,-1.044595718383789,-1.2243764400482178
1789323502218051000,20.112051025390624,0.14357948303222656,-1.771254062652588,-1.0645768642425537
1789323502236902000,20.13090185546875,0.33171701431274414,-1.6524810791015625,-0.48395657539367676
1789323502255753000,20.1497529296875,0.4528374671936035,-1.0437045097351074,-0.02518296241760254
1789323502274603800,20.168603759765624,0.15924978256225586,-0.8625330924987793,0.4178609848022461
1789323502293454800,20.187454833984376,-0.7267909049987793,-0.7033843994140625,0.6626684665679932
1789323502312305700,20.2063056640625,-2.0147252082824707,-0.5953168869018555,0.6492159366607666
1789323502331156500,20.225156494140624,-2.808131217956543,0.9269680976867676,0.15006303787231445
1789323502350007600,20.244007568359375,-1.2274341583251953,0.2627849578857422,-0.4569523334503174
1789323502368858400,20.2628583984375,-1.5991535186767578,0.3591763973236084,0.22097039222717285
1789323502387709200,20.281709228515624,-3.329261302947998,1.4926249980926514,1.5564244985580444
1789323502406560300,20.300560302734375,-3.11076021194458,1.4725422859191895,2.797874689102173
1789323502425411000,20.3194111328125,-2.7054619789123535,0.9621584415435791,2.5217111110687256
1789323502444262100,20.33826220703125,-1.9289798736572266,0.8501331806182861,2.0802571773529053
1789323502463113000,20.357113037109375,-2.2532753944396973,0.766869068145752,1.6802520751953125
1789323502481963800,20.3759638671875,-1.7916250228881836,0.9366555213928223,1.4312154054641724
1789323502500814800,20.39481494140625,-1.7257118225097656,1.093644142150879,1.437625527381897
1789323502519665700,20.413665771484375,-1.548421859741211,1.1220085620880127,1.5322511196136475
1789323502538516500,20.4325166015625,-1.8732013702392578,1.3653814792633057,1.6760886907577515
1789323502557367600,20.451367431640627,-1.98488187789917,1.5377295017242432,1.2528223991394043
1789323502576218400,20.47021826171875,-1.8358116149902344,1.628786325454712,1.0812690258026123
1789323502595069400,20.4890693359375,-1.690981388092041,1.6841323375701904,1.0757341384887695
1789323502613920300,20.507920166015627,-1.1391634941101074,1.8996963500976562,1.1987895965576172
1789323502632771000,20.52677099609375,-1.3452372550964355,2.0195603370666504,0.8490378856658936
1789323502651622100,20.5456220703125,-1.2220735549926758,1.6289565563201904,0.3037760257720947
1789323502670473000,20.564472900390626,-0.7006473541259766,0.20058488845825195,-0.024485111236572266
1789323502689323800,20.58332373046875,-0.2873377799987793,-0.6110215187072754,-0.186417818069458
1789323502708174800,20.6021748046875,0.016443729400634766,-1.1676201820373535,-0.5616064071655273
1789323502727025700,20.621025634765626,-0.09235477447509766,-1.5836124420166016,-0.7616879940032959
1789323502755302000,20.649302001953124,0.06894874572753906,-2.726698398590088,-0.9278044700622559
1789323502774153000,20.668153076171876,0.48355579376220703,-3.033031463623047,-1.0420105457305908
1789323502793003800,20.687003662109376,0.8634405136108398,-2.893092632293701,-1.0628297328948975
1789323502811854600,20.7058544921875,1.086796760559082,-2.742259979248047,-0.7417597770690918
1789323502830705700,20.72470556640625,1.9914641380310059,-2.599100112915039,-0.39555835723876953
1789323502849556500,20.743556396484376,2.3019657135009766,-2.302201271057129,-0.34350109100341797
1789323502868407300,20.7624072265625,1.9292583465576172,-1.5300722122192383,-0.7423090934753418
1789323502887258000,20.781258056640624,1.7097411155700684,-0.035452842712402344,-1.3675074577331543
1789323502906109200,20.800109130859376,1.7076358795166016,0.6182150840759277,-1.391294002532959
1789323502924960000,20.8189599609375,1.574328899383545,0.19409656524658203,-1.0501904487609863
1789323502943810800,20.837810791015624,1.3712773323059082,-0.5320367813110352,-0.5691149234771729
1789323502962661600,20.85666162109375,1.5554089546203613,-0.6331214904785156,-0.5118894577026367
1789323502981512700,20.8755126953125,1.3813695907592773,-0.5620613098144531,-0.43364620208740234
1789323503000363500,20.894363525390624,0.8336772918701172,-0.3827686309814453,-0.42954277992248535
1789323503019214300,20.91321435546875,0.3303666114807129,-0.22065353393554688,-0.6261825561523438
1789323503038065400,20.9320654296875,0.0884408950805664,-0.1945962905883789,-0.8303680419921875
1789323503056916200,20.950916259765624,0.05932903289794922,-0.19437408447265625,-1.030862808227539
1789323503075767000,20.96976708984375,0.2856740951538086,-0.12355422973632812,-1.2406387329101562
1789323503094617900,20.988617919921875,0.7736854553222656,-0.11336708068847656,-1.418166160583496
1789323503113468700,21.00746875,1.312049388885498,-0.32578420639038086,-1.6409275531768799
1789323503132319700,21.02631982421875,1.4603896141052246,-0.38260459899902344,-1.9676623344421387
1789323503151170600,21.045170654296875,0.9543938636779785,-0.5765595436096191,-2.2645628452301025
1789323503170021400,21.064021484375,0.31629037857055664,-0.6168246269226074,-2.114468574523926
1789323503188872200,21.0828720703125,-0.23555946350097656,-0.9382920265197754,-1.5182948112487793
1789323503207723300,21.10172314453125,-0.22024297714233398,-1.7943058013916016,-0.9484198093414307
1789323503226574000,21.120573974609375,-0.16470670700073242,-2.506331443786621,-1.0041768550872803
1789323503245425000,21.1394248046875,-0.3518667221069336,-2.3960280418395996,-1.0603435039520264
1789323503264275700,21.158275634765626,-0.29767894744873047,-1.5105600357055664,-0.7013192176818848
1789323503283126500,21.17712646484375,0.1375117301940918,-0.629539966583252,-0.21378040313720703
1789323503301977600,21.1959775390625,0.06925058364868164,-0.6453838348388672,0.0308835506439209
1789323503320828400,21.214828369140626,-1.8570499420166016,-0.7743878364562988,0.09976840019226074
1789323503339679200,21.23367919921875,-3.238374710083008,-0.43236398696899414,-0.7677948474884033
1789323503358530000,21.252530029296874,-3.0250144004821777,0.35323095321655273,-1.2693276405334473
1789323503377380900,21.271380859375,-1.3257274627685547,-0.27138185501098633,-0.7432599067687988
1789323503396232000,21.29023193359375,-0.7882108688354492,-1.2002997398376465,0.15753960609436035
1789323503415082800,21.309082763671874,-2.453507900238037,-0.16612720489501953,0.641255259513855
1789323503433933600,21.32793359375,-3.4557433128356934,0.7169766426086426,0.8570669889450073
1789323503452784400,21.346784423828126,-3.442338466644287,1.2080856561660767,0.719807505607605
1789323503471635200,21.36563525390625,-2.318192481994629,1.1321032047271729,1.7654597759246826
1789323503490486000,21.384486083984374,-0.9652557373046875,0.45108652114868164,1.3083677291870117
1789323503509337000,21.403337158203126,-2.2792224884033203,1.7863060235977173,0.5205342769622803
1789323503528188000,21.42218798828125,-2.7336583137512207,1.3252854347229004,0.7880254983901978
1789323503547038700,21.441038818359374,-2.6240129470825195,0.4770684242248535,1.1514818668365479
1789323503565889500,21.4598896484375,-1.9923686981201172,0.6398136615753174,0.4364645481109619
1789323503584740400,21.478740234375,-1.8986945152282715,0.15558934211730957,0.5728480815887451
1789323503603591200,21.497591064453125,-1.6850404739379883,1.1986284255981445,-0.336061954498291
1789323503622442000,21.51644189453125,-2.411078929901123,2.30249285697937,1.214531421661377
1789323503641292800,21.535292724609373,-1.782834529876709,2.84206223487854,0.38397669792175293
1789323503660143600,21.5541435546875,-1.342057228088379,1.7374370098114014,2.291165351867676
1789323503678994700,21.57299462890625,-1.6187667846679688,1.3709797859191895,0.6855101585388184
1789323503697845500,21.591845458984373,-0.9743986129760742,1.0245070457458496,-0.45770263671875
1789323503716696300,21.6106962890625,-0.8421082496643066,0.04938316345214844,0.031182527542114258
1789323503735547100,21.629547119140625,-0.38905763626098633,-1.4962530136108398,-0.30588698387145996
1789323503754398000,21.64839794921875,-0.8797121047973633,-3.091397762298584,-1.300135612487793
1789323503773248800,21.667248779296877,-1.0805902481079102,-4.270262718200684,-1.7258121967315674
1789323503792099600,21.686099609375,-0.12021827697753906,-3.0123062133789062,-1.1196908950805664
1789323503810950400,21.704950439453125,-0.19543838500976562,-1.9718189239501953,-0.6146302223205566
1789323503829801200,21.72380126953125,1.1153883934020996,-0.1665048599243164,-1.2035455703735352
1789323503848652300,21.74265234375,1.8586406707763672,1.908552646636963,-1.9862563610076904
1789323503867503000,21.761503173828125,0.7691588401794434,-9.021552085876465,-0.2606232166290283
1789323503886354000,21.78035400390625,3.839820384979248,-5.425609588623047,0.09298110008239746
1789323503905204700,21.799204833984376,1.6363239288330078,0.0442657470703125,0.39567697048187256
1789323503924055600,21.8180556640625,1.5843806266784668,0.48270225524902344,-0.7295870780944824
1789323503942906400,21.83690625,1.8745017051696777,-1.3102874755859375,-1.4720029830932617
1789323503961757200,21.855757080078124,1.5597577095031738,-2.959379196166992,-0.7863941192626953
1789323503980608000,21.87460791015625,2.009420871734619,-2.612982749938965,1.109296202659607
1789323503999458800,21.893458740234376,1.8349294662475586,-3.021585464477539,1.8397612571716309
1789323504018309600,21.9123095703125,1.2683467864990234,-4.215236663818359,1.9193352460861206
1789323504037160400,21.931160400390624,0.6791567802429199,-3.4151506423950195,0.8984017372131348
1789323504056011300,21.95001123046875,-0.289919376373291,-5.847773551940918,2.1807637214660645
1789323504074862000,21.968862060546876,-1.4752960205078125,-5.497990608215332,2.658889055252075
1789323504093713000,21.987712890625,-2.3893520832061768,-1.3941736221313477,0.6287550926208496
1789323504112563700,22.006563720703124,-1.8365824222564697,-5.33362340927124,0.7287614345550537
1789323504131414500,22.02541455078125,-0.10166072845458984,-1.8302803039550781,0.7706995010375977
1789323504150265300,22.044265380859375,0.4832181930541992,0.08889102935791016,1.1341378688812256
1789323504169116200,22.0631162109375,-1.370530605316162,4.355886936187744,0.6319351196289062
1789323504197392400,22.091392333984373,2.1070990562438965,9.852295875549316,-1.759981632232666
1789323504216243200,22.1102431640625,2.194060802459717,7.774271011352539,2.758236885070801
1789323504235094000,22.129093994140625,-1.2390491962432861,3.446861743927002,0.9876832962036133
1789323504253944800,22.14794482421875,0.7140655517578125,5.61244010925293,-2.7317447662353516
1789323504272795600,22.166795654296877,0.40409421920776367,-0.6207761764526367,0.1705331802368164
1789323504291646500,22.185646484375,4.637441635131836,-3.7178573608398438,-1.6690564155578613
1789323504310497300,22.204497314453125,0.7180571556091309,-4.068027496337891,-2.811211109161377
1789323504329348000,22.22334814453125,4.140964031219482,-3.3229644298553467,1.293473243713379
1789323504348199000,22.242198974609376,0.7316794395446777,-8.250804901123047,-1.0421676635742188
1789323504367049700,22.2610498046875,1.458876609802246,-5.556703090667725,0.41627931594848633
1789323504385900500,22.279900634765625,-2.0539638996124268,-5.049190044403076,1.400334358215332
1789323504404751400,22.29875146484375,-0.3081998825073242,-5.217419624328613,2.200774669647217
1789323504423602200,22.317602294921876,2.937868595123291,-3.398683547973633,3.0883312225341797
1789323504442453000,22.336452880859376,-2.7532448768615723,-2.0253162384033203,3.5804381370544434
1789323504461303800,22.3553037109375,1.7159066200256348,2.3218178749084473,-3.5032567977905273
1789323504480154600,22.374154541015624,-0.4441208839416504,0.9182484149932861,1.0975332260131836
1789323504508430600,22.4024306640625,3.9567618370056152,2.7176949977874756,4.550908088684082
1789323504527281400,22.421281494140626,5.213687419891357,3.4467978477478027,2.933309555053711
1789323504546132200,22.44013232421875,7.210906505584717,4.2976908683776855,3.212759017944336
1789323504564983000,22.458983154296874,4.994922161102295,4.917713165283203,3.1042041778564453
1789323504583833900,22.477833740234374,3.9864444732666016,4.007795810699463,0.4522256851196289
1789323504602684700,22.4966845703125,3.6660895347595215,3.7831599712371826,-2.8676915168762207
1789323504621535500,22.515535400390625,2.557072639465332,4.1190876960754395,-3.7388625144958496
1789323504640386300,22.53438623046875,6.115959644317627,4.392359733581543,-2.9020867347717285
1789323504659237000,22.553237060546873,2.6623001098632812,3.7983508110046387,-0.3569207191467285
1789323504678088000,22.572087890625,4.056581497192383,1.95747709274292,1.0876765251159668
1789323504706364000,22.600364013671875,-0.010312080383300781,-1.256389856338501,1.8827404975891113
1789323504725214700,22.619214599609375,0.07484054565429688,-2.382594347000122,-0.6666851043701172
1789323504744065500,22.6380654296875,1.2141704559326172,-6.6828694343566895,0.9003190994262695
1789323504762916400,22.656916259765627,-2.3459038734436035,-5.1866631507873535,-1.9232292175292969
1789323504781767200,22.67576708984375,-3.0924291610717773,-5.520022392272949,-1.2529406547546387
1789323504800618000,22.694617919921875,-2.1320552825927734,-1.9363906383514404,-1.622779369354248
1789323504819468800,22.71346875,-3.3359055519104004,-2.6890687942504883,0.8181610107421875
1789323504838319400,22.7323193359375,-4.252143859863281,-1.646682620048523,1.5104894638061523
1789323504857170200,22.751170166015626,-4.503714561462402,-2.3661880493164062,1.9460358619689941
1789323504876021000,22.77002099609375,-1.6476216316223145,-0.42989885807037354,-0.9996209144592285
1789323504894871800,22.788871826171874,0.4932374954223633,1.371046781539917,-0.5990357398986816
1789323504923148000,22.81714794921875,-3.486203193664551,-0.522681713104248,0.21132707595825195
1789323504941998800,22.835998779296876,-3.9061989784240723,-0.6588051319122314,0.2392439842224121
1789323504960849400,22.854849365234376,2.8552141189575195,-1.745521068572998,-0.8946597576141357
1789323504979700200,22.8737001953125,-1.2835798263549805,-0.2699618339538574,-2.70109486579895
1789323504998551000,22.892551025390624,-1.2835407257080078,-0.838227391242981,-0.21706640720367432
1789323505017401900,22.91140185546875,-0.23421001434326172,-0.7334476709365845,0.8273601531982422
1789323505073954000,22.9679541015625,1.8207693099975586,-1.41801118850708,1.212263822555542
1789323505121081000,23.0150810546875,-0.05524158477783203,-1.9255006313323975,1.4646172523498535
1789323505139931600,23.033931640625,-0.10944175720214844,-1.6554473638534546,1.2297792434692383
1789323505158782500,23.052782470703125,0.606877326965332,-1.1735303401947021,0.9138798713684082
1789323505177633300,23.07163330078125,0.48172760009765625,-0.9626657962799072,1.2893118858337402
1789323505196484000,23.090484130859377,0.09579181671142578,-1.0945945978164673,1.5109813213348389
1789323505215334700,23.109334716796877,-0.34710121154785156,-0.20087647438049316,1.4360833168029785
1789323505243611000,23.13761083984375,1.8993396759033203,-0.5901970863342285,0.48245757818222046
1789323505262461700,23.156461669921875,0.16448974609375,-1.160278081893921,0.36217957735061646
1789323505281312500,23.1753125,-2.881178855895996,-0.7717025279998779,-0.1283896267414093
1789323505300163000,23.1941630859375,-2.930731773376465,-0.44629549980163574,-0.0693093091249466
1789323505319014000,23.213013916015626,-0.7036142349243164,-0.4566934108734131,-0.4695552587509155
1789323505337864700,23.23186474609375,-0.0856771469116211,0.6683559417724609,0.35356828570365906
1789323505356715500,23.250715576171874,0.39331626892089844,-0.0327458381652832,0.920635998249054
1789323505375566000,23.269566162109374,0.9429683685302734,-0.11700892448425293,1.0759037733078003
1789323505394417000,23.2884169921875,0.1837329864501953,-0.35819149017333984,0.01456267386674881
1789323505422693000,23.316693115234376,-0.9545497894287109,-0.05041170120239258,-0.8298521041870117
1789323505441543700,23.335543701171876,-0.15198230743408203,0.31305694580078125,-0.1267082393169403
1789323505460394500,23.35439453125,0.2772560119628906,-0.10735654830932617,0.5282975435256958
1789323505479245300,23.373245361328124,-0.17739200592041016,-0.1822969913482666,0.9077512621879578
1789323505498096000,23.39209619140625,-0.48722076416015625,-0.6292195320129395,1.0279309749603271
1789323505516946700,23.41094677734375,0.4102783203125,-0.31353044509887695,0.3197197914123535
1789323505535797500,23.429797607421875,0.8066625595092773,-0.03474831581115723,0.04956740140914917
1789323505554648300,23.4486484375,0.09877872467041016,-0.12757587432861328,0.34647342562675476
1789323505573499000,23.467498779296875,-0.6054248809814453,0.3073303699493408,0.376208633184433
1789323505592349700,23.486349609375,-0.9369745254516602,0.25280284881591797,-0.1387067288160324
1789323505611200500,23.505200439453127,0.3202476501464844,0.3125877380371094,-0.6336114406585693
1789323505630051000,23.524051025390627,1.3584041595458984,0.08047008514404297,0.1480277180671692
1789323505658327300,23.552327392578125,0.5293235778808594,0.22771525382995605,0.5826075673103333
1789323505677178000,23.57117822265625,0.597111701965332,0.7910470962524414,0.27480798959732056
1789323505696028700,23.590028564453124,0.17705059051513672,0.20676183700561523,0.164933979511261
1789323505714879500,23.60887939453125,-0.7697420120239258,-0.050488948822021484,-0.007399857044219971
1789323505733730300,23.627730224609376,-0.7083969116210938,0.19399023056030273,-0.3512904644012451
1789323505752580900,23.646580810546876,-0.6446399688720703,0.12192773818969727,-0.3222969174385071
1789323505771431700,23.665431640625,-0.9652500152587891,-0.15433645248413086,-0.24738061428070068
1789323505790282500,23.684282470703124,-1.1555662155151367,-0.34880828857421875,0.08284807205200195
1789323505809133000,23.703133056640624,-0.43581485748291016,-0.2834360599517822,0.3457939028739929
1789323505827984000,23.72198388671875,1.0107755661010742,-0.21628236770629883,-0.22811579704284668
1789323505846834700,23.740834716796876,1.022186279296875,-0.2663450241088867,-0.5011426210403442
1789323505865685200,23.759685302734376,0.29781627655029297,-0.6479437351226807,-0.16888225078582764
1789323505884536000,23.7785361328125,-0.5673093795776367,-0.3136715888977051,0.16121113300323486
1789323505903387000,23.797386962890624,-0.5822124481201172,0.030556678771972656,0.20114588737487793
1789323505922237400,23.816237548828123,-0.05258464813232422,0.003831624984741211,0.06952816247940063
1789323505941088300,23.835088134765623,0.0842580795288086,-0.535332441329956,0.10574889183044434
1789323505959938800,23.853938720703123,-0.0667724609375,-0.4356715679168701,0.22657907009124756
1789323505978789600,23.87278955078125,0.04155254364013672,-0.0241546630859375,0.37847864627838135
1789323505997640400,23.891640380859375,0.46225643157958984,0.1062769889831543,-0.09908527135848999
1789323506016491000,23.910490966796875,0.28249549865722656,-0.10409402847290039,-0.09402391314506531
1789323506035341800,23.929341796875,-0.4499835968017578,-0.21520614624023438,0.14236940443515778
1789323506054192400,23.9481923828125,-0.5901679992675781,0.0026345252990722656,0.6938366889953613
1789323506073043200,23.967043212890626,-0.6315841674804688,0.39487743377685547,0.9168869256973267
1789323506091894000,23.98589404296875,-0.287933349609375,0.172882080078125,1.3469465970993042
1789323506120170000,24.014169921875,-0.24819564819335938,-0.0018863677978515625,0.7284023761749268
1789323506139020800,24.033020751953124,0.20680618286132812,0.03912639617919922,-0.05578756332397461
1789323506167296800,24.061296875,0.4737405776977539,-0.6264021396636963,-0.08481776714324951
1789323506186147600,24.080147705078126,0.24611186981201172,-0.5742321014404297,-0.07732439041137695
1789323506204998100,24.098998046875,-0.17689990997314453,-0.26603031158447266,-0.05862301588058472
1789323506223849000,24.117848876953126,-0.4495563507080078,-0.04002237319946289,-0.030491113662719727
1789323506242699500,24.136699462890626,-0.15912914276123047,0.17793607711791992,-0.08364605903625488
1789323506261550300,24.15555029296875,-0.6264395713806152,-0.14707517623901367,-0.05877101421356201
1789323506289826300,24.183826416015624,-0.6661233901977539,-0.038598060607910156,-0.11599588394165039
1789323506308677000,24.202677001953123,0.04488945007324219,-0.25580739974975586,-0.14909297227859497
1789323506327527700,24.221527587890623,0.24335956573486328,-0.4326653480529785,-0.12850910425186157
1789323506346378500,24.24037841796875,-0.052501678466796875,-0.19618940353393555,-0.41483986377716064
1789323506365229300,24.259229248046875,-0.29323387145996094,-0.11255216598510742,-0.7226935625076294
1789323506384080000,24.278079833984375,-0.32387447357177734,-0.14538955688476562,-0.6746730804443359
1789323506402930700,24.2969306640625,-0.3202652931213379,-0.1354231834411621,-0.19758820533752441
1789323506421781200,24.31578125,0.02103424072265625,0.18333959579467773,0.3133513629436493
1789323506440632000,24.334632080078126,0.8699722290039062,0.2894744873046875,0.18241511285305023
1789323506459482600,24.353482666015626,0.7012996673583984,0.12147140502929688,0.0034039169549942017
1789323506478333400,24.37233349609375,-0.536257266998291,0.013417720794677734,0.11768773198127747
1789323506497184300,24.391184326171874,-1.5250277519226074,0.1594715118408203,0.2790846526622772
1789323506516034800,24.410034912109374,-0.9135174751281738,0.34737730026245117,-0.43700018525123596
1789323506534885600,24.4288857421875,-0.22129058837890625,0.10947561264038086,-0.7274476885795593
1789323506553736200,24.447736083984374,-0.03461933135986328,0.0007443428039550781,-0.49428728222846985
1789323506572587000,24.4665869140625,-0.01800060272216797,0.25238513946533203,-0.3953492045402527
1789323506600863000,24.494863037109376,0.03452587127685547,0.2806396484375,-0.33018556237220764
1789323506619713800,24.5137138671875,-0.15102672576904297,0.1635270118713379,-0.24031075835227966
1789323506638564400,24.532564453125,-0.10854148864746094,0.08716678619384766,-0.2280069887638092
1789323506657415200,24.551415283203124,-0.1248016357421875,0.019954681396484375,-0.3822072148323059
1789323506676265700,24.570265625,0.15483474731445312,0.19368696212768555,-0.6503855586051941
1789323506695116500,24.589116455078123,0.18111801147460938,0.10979843139648438,-0.5546969771385193
1789323506713967000,24.607967041015623,-0.18413639068603516,-0.12944793701171875,-0.1544182300567627
1789323506732818000,24.62681787109375,-0.05511474609375,-0.2949204444885254,-0.73008131980896
1789323506751668500,24.64566845703125,0.08660221099853516,0.33212947845458984,-1.5809950828552246
1789323506770519300,24.664519287109375,-0.05782604217529297,0.162933349609375,-0.49770259857177734
1789323506789369900,24.683369873046875,-0.5338139533996582,-0.24994134902954102,0.651327908039093
1789323506808220700,24.702220703125,-0.2168426513671875,0.45089244842529297,0.5071083903312683
1789323506827071200,24.7210712890625,-0.027947425842285156,0.4257521629333496,0.4040880799293518
1789323506845922000,24.739922119140626,0.20775222778320312,0.18988370895385742,-0.06024211645126343
1789323506864772900,24.75877294921875,0.21973800659179688,0.027387142181396484,-0.551735520362854
1789323506883623400,24.77762353515625,0.20737552642822266,-0.024184703826904297,-0.6438940763473511
1789323506911899400,24.8058994140625,0.2774982452392578,-0.06853866577148438,-0.4437233805656433
