time,seconds_elapsed,z,y,x
1789322963622364700,0.16736474609375,0,-0.1453816443681717,0.0012216945178806782
1789322963641217000,0.186217041015625,0.00916270911693573,-0.11117420345544815,-0.05008947476744652
1789322963660069400,0.2050693359375,-0.02076880633831024,-0.18691925704479218,-0.01038440316915512
1789322963678921700,0.223921630859375,-0.14660334587097168,-0.3500154912471771,-0.012216945178806782
1789322963697774000,0.242774169921875,-0.208298921585083,-0.25777754187583923,0.014049487188458443
1789322963744905000,0.289905029296875,-0.05008947476744652,-0.21929416060447693,-0.031153209507465363
1789322963763757300,0.30875732421875,-0.0922379344701767,-0.1557660549879074,0.06413896381855011
1789322963782609700,0.327609619140625,-0.10995250940322876,-0.01954711228609085,0.13316470384597778
1789322963801462000,0.3464619140625,-0.08796200156211853,-0.02076880633831024,0.1459924876689911
1789322963820314000,0.365314208984375,0.004275931045413017,-0.1575985997915268,0.15515519678592682
1789322963839166500,0.38416650390625,0.07207997888326645,-0.288930743932724,0.17531315982341766
1789322963858018800,0.403018798828125,0.033596597611904144,-0.3280249834060669,0.06047387793660164
1789322963886297300,0.43129736328125,0.006719320081174374,-0.7409577369689941,0.021990500390529633
1789322963905149700,0.450149658203125,0.04031591862440109,-1.152668833732605,0.18019993603229523
1789322963924002000,0.469001953125,-0.030542362481355667,-1.0494356155395508,0.208298921585083
1789322963942854400,0.4878544921875,-0.12827792763710022,-0.6145123243331909,0.009773556143045425
1789322963961706800,0.506706787109375,-0.3011476993560791,-0.4214846193790436,-0.09407047927379608
1789322963980559000,0.52555908203125,-0.45202696323394775,-0.18814095854759216,0.03665083646774292
1789322963999411500,0.544411376953125,-0.40010493993759155,0.21807247400283813,0.08674030750989914
1789322964018263800,0.563263916015625,-0.17653486132621765,0.6939224600791931,-0.009773556143045425
1789322964037116200,0.5821162109375,0.007941014133393764,0.5900784730911255,-0.042759306728839874
1789322964055968500,0.600968505859375,0.1056765764951706,0.13866232335567474,0.045202698558568954
1789322964074820900,0.61982080078125,0.18814095854759216,0.16737215220928192,-0.013438640162348747
1789322964093673200,0.638673095703125,0.1985253542661667,0.4074351191520691,-0.11422843486070633
1789322964112525600,0.657525634765625,0.12155860662460327,0.4178195297718048,-0.28282228112220764
1789322964131378000,0.6763779296875,0.05375456064939499,0.004886778071522713,-0.4434750974178314
1789322964150230000,0.69522998046875,0.07391251623630524,-0.20280128717422485,-0.4294256269931793
1789322964169082400,0.714082275390625,0.1563768982887268,-0.25716668367385864,-0.1960819661617279
1789322964187934700,0.732934814453125,0.04031591862440109,-0.3408527672290802,0.09407047927379608
1789322964206787000,0.751787109375,-0.18142163753509521,-0.8289197087287903,0.20402298867702484
1789322964225639400,0.770639404296875,0.008551862090826035,-0.8948912620544434,0.261442631483078
1789322964244491800,0.78949169921875,0.7678350210189819,-0.6994200944900513,0.13560809195041656
1789322964263344000,0.80834423828125,0.8527427911758423,-0.45385950803756714,-0.062306419014930725
1789322964282196500,0.827196533203125,0.5320479869842529,-0.25716668367385864,-0.11911521852016449
1789322964301048800,0.846048828125,0.4990622103214264,-0.13621893525123596,-0.14110571146011353
1789322964319901200,0.864901123046875,0.4593571424484253,-0.03542914241552353,-0.3958290219306946
1789322964348179700,0.8931796875,0.3946073353290558,0.2480039894580841,-0.7769976854324341
1789322964367032000,0.912031982421875,0.4434750974178314,-0.16370706260204315,-0.8038749694824219
1789322964385884400,0.930884521484375,0.444085955619812,-0.8570187091827393,-0.5876350402832031
1789322964404736800,0.94973681640625,0.23151111602783203,-1.1099094152450562,-0.07024743407964706
1789322964423589000,0.968589111328125,-0.1056765764951706,-0.6762079000473022,0.444085955619812
1789322964442441500,0.98744140625,-0.15515519678592682,-0.19058434665203094,0.8014315962791443
1789322964461293800,1.0062939453125,0.16370706260204315,0.5729747414588928,0.916270911693573
1789322964480146200,1.025146240234375,0.573585569858551,2.2907536029815674,0.6322268843650818
1789322964498998500,1.04399853515625,1.2736165523529053,2.4355244636535645,0.04337015375494957
1789322964517851000,1.062850830078125,1.734271764755249,1.4600013494491577,-0.4190412163734436
1789322964536703200,1.081703125,1.714113712310791,0.3170297145843506,-0.2724378705024719
1789322964555555800,1.100555908203125,1.7031185626983643,0.21929416060447693,-0.17592400312423706
1789322964574408000,1.119407958984375,1.8014649152755737,2.0537447929382324,-1.1441168785095215
1789322964593260300,1.13826025390625,1.7984106540679932,4.217442035675049,-2.5277624130249023
1789322964612113000,1.15711279296875,1.7483211755752563,4.255314826965332,-3.406771421432495
1789322964630965200,1.17596533203125,1.733049988746643,4.174683094024658,-4.358547687530518
1789322964649817600,1.194817626953125,1.5180318355560303,5.335903644561768,-5.932701110839844
1789322964668670000,1.213669921875,0.8478559851646423,2.552807092666626,-6.787353038787842
1789322964687522300,1.232522216796875,-0.5283828973770142,-1.1624423265457153,-3.822758436203003
1789322964706374700,1.251374755859375,-1.678073763847351,-4.070838928222656,-2.2541027069091797
1789322964725227000,1.27022705078125,-2.101390838623047,-2.153312921524048,-3.004223108291626
1789322964744079400,1.289079345703125,-1.95967435836792,0.9602518677711487,-3.9632532596588135
1789322964762931700,1.307931640625,-2.0048770904541016,2.3811590671539307,-3.5845279693603516
1789322964781784000,1.3267841796875,-2.254713535308838,3.094017744064331,-2.9742915630340576
1789322964800636400,1.345636474609375,-2.549752712249756,2.7110164165496826,-2.744002342224121
1789322964819488800,1.36448876953125,-2.5369250774383545,1.7739768028259277,-2.3603901863098145
1789322964838341000,1.383341064453125,-1.881485939025879,1.2821683883666992,-2.271817207336426
1789322964857193500,1.402193359375,-0.9639169573783875,1.8839292526245117,-2.5809059143066406
1789322964876045800,1.4210458984375,-0.12827792763710022,1.7409909963607788,-3.0750813484191895
1789322964894898200,1.439898193359375,0.5644228458404541,1.927910327911377,-2.7073514461517334
1789322964913750500,1.45875048828125,0.8020424246788025,3.0866875648498535,-1.770311713218689
1789322964932603000,1.477602783203125,0.9877400398254395,3.8594093322753906,-1.2100883722305298
1789322964951455200,1.496455322265625,0.9089407324790955,3.4134907722473145,-1.0683718919754028
1789322964970307800,1.515307861328125,1.3169866800308228,4.2394328117370605,-0.7385143637657166
1789322964989160200,1.53416015625,1.5045931339263916,3.6657707691192627,-0.7562289237976074
1789322965008012500,1.553012451171875,1.4923762083053589,2.26693058013916,-0.8167027831077576
1789322965045717200,1.59071728515625,1.0665392875671387,0.37261682748794556,-0.36284327507019043
1789322965064569600,1.609569580078125,1.4777158498764038,-0.28404396772384644,-0.3268032968044281
1789322965083422000,1.628421875,1.7043402194976807,-0.6743753552436829,-0.3799470067024231
1789322965102274300,1.6472744140625,1.6915124654769897,-0.9614735841751099,-0.2730487287044525
1789322965121126700,1.666126708984375,2.313354969024658,-1.249793529510498,-0.2113531529903412
1789322965139979300,1.684979248046875,2.486835479736328,-1.3384426832199097,-0.5479300022125244
1789322965158831600,1.70383154296875,1.7819178104400635,-1.0983033180236816,-0.7043069005012512
1789322965177684000,1.72268408203125,1.4166311025619507,-0.9309312105178833,-0.5515950918197632
1789322965196536300,1.741536376953125,1.389753818511963,-1.273005723953247,-0.39766156673431396
1789322965215388700,1.760388671875,1.1496145725250244,-1.4453409910202026,-0.365286648273468
1789322965234241000,1.779240966796875,0.10262233763933182,-0.4056025743484497,-0.4306473135948181
1789322965253093400,1.79809326171875,-0.30969956517219543,0.3408527672290802,0.030542362481355667
1789322965271945700,1.81694580078125,-0.1844758689403534,0.3555130958557129,0.6584933400154114
1789322965290798300,1.83579833984375,0.043981000781059265,0.45385950803756714,0.288930743932724
1789322965309650700,1.854650634765625,0.1960819661617279,-0.22051586210727692,-0.41537612676620483
1789322965328503000,1.8735029296875,-0.3158080279827118,-0.25716668367385864,-0.8820634484291077
1789322965347355400,1.89235546875,-1.0787562131881714,-1.2094775438308716,-0.818535327911377
1789322965366207700,1.911207763671875,-1.890648603439331,-3.4745755195617676,0.16615045070648193
1789322965385060000,1.93006005859375,-3.5271084308624268,-3.1612110137939453,0.8264763355255127
1789322965403912400,1.948912353515625,-3.721357822418213,0.26694026589393616,-0.0787992998957634
1789322965422764800,1.967764892578125,-2.205845832824707,2.315187454223633,-1.383034586906433
1789322965441617200,1.9866171875,-0.9614735841751099,2.506993532180786,-1.7251089811325073
1789322965460469500,2.005469482421875,-0.29381752014160156,1.568121314048767,-1.2491827011108398
1789322965479322000,2.024322021484375,-0.054365407675504684,-0.11300674080848694,-0.7146912813186646
1789322965498174500,2.043174560546875,0.10384403169155121,0.4575245976448059,-0.4862344264984131
1789322965517026800,2.06202685546875,0.418430358171463,0.605960488319397,-0.011606098152697086
1789322965535879200,2.080879150390625,-0.29259583353996277,-0.2473931461572647,0.4190412163734436
1789322965554731500,2.0997314453125,-0.7684458494186401,-0.7727217674255371,0.5259394645690918
1789322965573584000,2.118583984375,-0.5454866290092468,-1.2803359031677246,0.7507312893867493
1789322965592436200,2.137436279296875,-0.629172682762146,-1.5094798803329468,0.8820634484291077
1789322965611288600,2.15628857421875,-0.7330167293548584,-1.0280559062957764,1.1911520957946777
1789322965630141200,2.17514111328125,-0.5137225389480591,-0.2858765125274658,0.9718579649925232
1789322965648993500,2.19399365234375,-0.5137225389480591,-0.10078980028629303,0.6981984376907349
1789322965667846000,2.212845947265625,-0.5864133834838867,-0.3658975064754486,0.5033381581306458
1789322965686698200,2.2316982421875,-0.474017471075058,-0.4416425824165344,0.5894675850868225
1789322965705550600,2.250550537109375,-0.3549022674560547,-0.6432221531867981,1.0408837795257568
1789322965724403000,2.26940283203125,-0.31825143098831177,-0.841747522354126,1.686625599861145
1789322965743255300,2.28825537109375,0.41171106696128845,-0.5534276366233826,2.2999162673950195
1789322965762107600,2.307107666015625,1.3634874820709229,-0.7330167293548584,3.1037912368774414
1789322965780960300,2.325960205078125,1.6023286581039429,1.170383334159851,2.488668203353882
1789322965799812600,2.3448125,1.412966012954712,0.42759308218955994,1.436178207397461
1789322965818665000,2.3636650390625,0.9504783153533936,-0.9236010313034058,1.0207257270812988
1789322965837517300,2.382517333984375,0.9871291518211365,-0.8820634484291077,1.2736165523529053
1789322965856369700,2.40136962890625,0.8753440976142883,-0.6389462351799011,1.6151565313339233
1789322965875222000,2.420221923828125,0.8222004175186157,-1.0121738910675049,1.4734399318695068
1789322965894074400,2.439074462890625,1.300493836402893,-1.0695935487747192,1.235133171081543
1789322965912926700,2.4579267578125,1.395862340927124,-0.6096255779266357,1.568121314048767
1789322965931779300,2.476779296875,1.0060654878616333,-0.2223484069108963,1.2754490375518799
1789322965950631700,2.495631591796875,0.754396378993988,-0.5705313682556152,0.8026533126831055
1789322965969484000,2.514484130859375,0.5992411375045776,-0.3512371778488159,0.735460102558136
1789322965988336400,2.53333642578125,0.5876350402832031,-0.11117420345544815,0.4978405237197876
1789322966007188700,2.552188720703125,0.5980194807052612,0.08979454636573792,0.21623992919921875
1789322966026041000,2.571041015625,0.5100574493408203,0.35917818546295166,0.07391251623630524
1789322966044893400,2.5898935546875,0.4220954477787018,0.70308518409729,-0.06719319522380829
1789322966063745800,2.608745849609375,0.15515519678592682,0.8527427911758423,-0.29503923654556274
1789322966082598100,2.62759814453125,-0.1301104724407196,0.7898254990577698,-0.5118899941444397
1789322966101450800,2.64645068359375,-0.4599680006504059,0.6688777208328247,-0.6224533319473267
1789322966120303000,2.66530322265625,-0.8600729703903198,0.5833591222763062,-0.6664343476295471
1789322966139155500,2.684155517578125,-1.2180293798446655,0.47829338908195496,-0.8386932611465454
1789322966158007800,2.7030078125,-1.4978737831115723,0.5320479869842529,-1.081810474395752
1789322966176860200,2.721860107421875,-1.6017178297042847,0.5076140761375427,-1.2009257078170776
1789322966195712500,2.74071240234375,-1.6976208686828613,0.23151111602783203,-1.5143667459487915
1789322966214564900,2.75956494140625,-1.6121022701263428,0.1954711228609085,-1.926688551902771
1789322966233417500,2.77841748046875,-1.641422986984253,0.30603447556495667,-2.3860456943511963
1789322966252269800,2.797269775390625,-1.6096588373184204,-0.08674030750989914,-2.556472063064575
1789322966271122200,2.8161220703125,-1.442286729812622,-0.16737215220928192,-2.7256767749786377
1789322966289974500,2.834974609375,-1.4154094457626343,-0.2754921019077301,-2.9596314430236816
1789322966308827000,2.853826904296875,-1.5223077535629272,-1.142895221710205,-3.308425188064575
1789322966327679200,2.87267919921875,-1.6334819793701172,-1.3714284896850586,-4.0488481521606445
1789322966346531600,2.891531494140625,-1.6096588373184204,-0.8729007244110107,-3.518556594848633
1789322966365384200,2.91038427734375,-1.9505116939544678,-0.7049177289009094,-2.4929440021514893
1789322966384236500,2.929236572265625,-1.1551121473312378,-0.7568397521972656,-2.0158722400665283
1789322966403089000,2.9480888671875,-0.1716480851173401,1.5149775743484497,-2.41109037399292
1789322966421941200,2.966941162109375,0.07696675509214401,0.5943543910980225,-2.032365083694458
1789322966440793600,2.985793701171875,-0.007941014133393764,-0.9229902029037476,-1.3604332208633423
1789322966459646000,3.00464599609375,0.09834641218185425,-0.22601348161697388,-0.4679090082645416
1789322966478498300,3.023498291015625,0.04031591862440109,-0.27121618390083313,0.45447036623954773
1789322966497351000,3.042350830078125,0.15943112969398499,-0.7165238261222839,1.0231691598892212
1789322966525629400,3.07062939453125,-0.3249707520008087,-0.5558710098266602,1.6237083673477173
1789322966544481800,3.089481689453125,-1.9285211563110352,0.004275931045413017,2.0256459712982178
1789322966563334100,3.108334228515625,-2.5308165550231934,0.786160409450531,2.4617908000946045
1789322966582186500,3.1271865234375,-2.258378744125366,0.9743013978004456,2.7763772010803223
1789322966601038800,3.146038818359375,-1.0976924896240234,0.5949652194976807,2.11666202545166
1789322966619891500,3.164891357421875,0.1185043677687645,0.5595360994338989,1.2052016258239746
1789322966638743800,3.183743896484375,0.5308262705802917,-0.3310792148113251,1.0152281522750854
1789322966657596200,3.20259619140625,0.49173203110694885,0.4282039403915405,1.3127107620239258
1789322966676448500,3.221448486328125,0.3927747905254364,0.4868452548980713,1.6365361213684082
1789322966695300900,3.24030078125,0.30481278896331787,0.22784602642059326,1.753208041191101
1789322966714153200,3.2591533203125,0.3561239540576935,0.13316470384597778,1.9144716262817383
1789322966733005800,3.278005859375,0.3115321099758148,-0.30969956517219543,1.963950276374817
1789322966751858200,3.296858154296875,0.48012593388557434,-0.40010493993759155,2.006098747253418
1789322966770710500,3.31571044921875,0.5699204802513123,-0.342074453830719,2.205845832824707
1789322966789563000,3.33456298828125,0.6169557571411133,-0.8258655071258545,2.3927650451660156
1789322966808415200,3.353415283203125,0.6792621612548828,-1.0946383476257324,2.5308165550231934
1789322966827267600,3.372267578125,0.6707102656364441,-1.1270132064819336,2.5479202270507812
1789322966846120000,3.391119873046875,0.5070032477378845,-1.0866972208023071,2.5460877418518066
1789322966864972500,3.40997265625,0.2583884000778198,-1.3267602920532227,2.480116128921509
1789322966883825000,3.428824951171875,0.08979454636573792,-1.323706030845642,2.2064566612243652
1789322966902677200,3.44767724609375,0.07330167293548584,-0.8643488883972168,1.875988245010376
1789322966921529600,3.466529541015625,0.10628741979598999,-0.46241137385368347,1.5400222539901733
1789322966940382000,3.4853818359375,0.17470231652259827,-0.2993151545524597,1.1202938556671143
1789322966959234300,3.504234375,0.21318569779396057,-0.17470231652259827,0.7831062078475952
1789322966978087000,3.5230869140625,0.21196399629116058,-0.021990500390529633,0.503948986530304
1789322966996939300,3.541939208984375,0.18875180184841156,0.08124268800020218,0.284654825925827
1789322967015791600,3.56079150390625,0.13682979345321655,0.17897824943065643,0.05070032179355621
1789322967034644000,3.57964404296875,0.09345962852239609,0.27060532569885254,-0.2235700935125351
1789322967053496300,3.598496337890625,0.09345962852239609,0.32374903559684753,-0.4581354558467865
1789322967072348700,3.6173486328125,0.09590301662683487,0.3530697226524353,-0.7299624681472778
1789322967091201000,3.636200927734375,0.08368607610464096,0.5143333673477173,-1.0622633695602417
1789322967110053600,3.6550537109375,0.006719320081174374,0.6957550048828125,-1.3757044076919556
1789322967128906000,3.673906005859375,-0.11178504675626755,0.8044858574867249,-1.7092269659042358
1789322967147758300,3.69275830078125,-0.1985253542661667,0.869235634803772,-2.009152889251709
1789322967166610700,3.711610595703125,-0.32008397579193115,0.8600729703903198,-2.1691949367523193
1789322967185463000,3.730463134765625,-0.4355340898036957,0.7757760286331177,-2.3029704093933105
1789322967204315400,3.7493154296875,-0.5638120174407959,0.6163448691368103,-2.3640551567077637
1789322967223167700,3.768167724609375,-0.6719319820404053,0.41171106696128845,-2.4874463081359863
1789322967242020400,3.787020263671875,-0.6804838180541992,0.28404396772384644,-2.6334388256073
1789322967260872700,3.805872802734375,-0.6933116316795349,0.02870982140302658,-2.674365758895874
1789322967279725000,3.82472509765625,-0.6713211536407471,-0.1429382562637329,-2.6273303031921387
1789322967298577400,3.843577392578125,-0.5729747414588928,-0.2724378705024719,-2.5772409439086914
1789322967317429800,3.8624296875,-0.3689517378807068,-0.3035911023616791,-2.5680782794952393
1789322967336282000,3.8812822265625,-0.1588202863931656,-0.31825143098831177,-2.573575973510742
1789322967355134500,3.900134521484375,0.008551862090826035,-0.38666632771492004,-2.5460877418518066
1789322967373987000,3.918987060546875,0.20035789906978607,-0.4227063059806824,-2.353060007095337
1789322967392839400,3.93783935546875,0.2602209448814392,-0.18814095854759216,-1.9120283126831055
1789322967411691800,3.95669189453125,0.21562908589839935,0.12522368133068085,-1.3157650232315063
1789322967430544100,3.975544189453125,0.07635590434074402,0.41232189536094666,-0.7928797602653503
1789322967449396500,3.994396484375,0.034818295389413834,0.2608317732810974,-0.3384093940258026
1789322967468248800,4.013248779296875,0.12827792763710022,0.02870982140302658,0.07207997888326645
1789322967487101200,4.03210107421875,0.16615045070648193,0.0018325417768210173,0.37383851408958435
1789322967505953500,4.05095361328125,0.1588202863931656,0.12094775587320328,0.6646018028259277
1789322967524806100,4.06980615234375,0.20707722008228302,0.2107423096895218,0.9462023973464966
1789322967543658500,4.088658447265625,0.19119518995285034,0.15393351018428802,1.2168077230453491
1789322967562510800,4.1075107421875,0.16065283119678497,0.20219044387340546,1.5186426639556885
1789322967581363200,4.12636328125,0.15454435348510742,0.2486148327589035,1.7642031908035278
1789322967600215600,4.145215576171875,0.18753011524677277,0.21807247400283813,1.7678682804107666
1789322967619068000,4.16406787109375,0.17958909273147583,0.16187451779842377,1.5919443368911743
1789322967637920300,4.182920166015625,0.16126367449760437,0.05986303091049194,1.3848670721054077
1789322967656772600,4.201772705078125,0.22723518311977386,0.030542362481355667,1.1306782960891724
1789322967675625200,4.220625244140625,0.2901524603366852,0.01588202826678753,0.9981244206428528
1789322967694477300,4.239477294921875,0.2987042963504791,-0.12400199472904205,1.2766708135604858
1789322967713330000,4.258329833984375,0.40010493993759155,-0.3689517378807068,1.7776418924331665
1789322967732182300,4.277182373046875,0.6450546979904175,-0.5955760478973389,2.0745136737823486
1789322967751034600,4.29603466796875,0.8197570443153381,-0.656660795211792,2.125213861465454
1789322967769887000,4.314886962890625,0.652384877204895,-0.6780404448509216,2.1355984210968018
1789322967788739300,4.3337392578125,0.4837910234928131,-0.7207997441291809,2.185076951980591
1789322967807591700,4.352591796875,0.395218163728714,-0.684759795665741,2.1991264820098877
1789322967826444000,4.371444091796875,0.3555130958557129,-0.6743753552436829,2.240053176879883
1789322967845296400,4.39029638671875,0.23028941452503204,-0.9779664874076843,2.295640468597412
1789322967864149000,4.40914892578125,-0.031153209507465363,-1.3616548776626587,2.2296688556671143
1789322967883001300,4.42800146484375,-0.08612946420907974,-1.0714260339736938,1.968837022781372
1789322967901853700,4.446853759765625,0.17897824943065643,-0.38849884271621704,1.696399211883545
1789322967920706000,4.4657060546875,0.3439069986343384,-0.06780404597520828,1.3946406841278076
1789322967939558400,4.484558349609375,0.3255815804004669,-0.1588202863931656,1.0866972208023071
1789322967958410800,4.50341064453125,0.2877090573310852,-0.13316470384597778,0.7574505805969238
1789322967977263000,4.52226318359375,0.3054236173629761,-0.08246438205242157,0.416597843170166
1789322967996115500,4.541115478515625,0.27854636311531067,-0.011606098152697086,0.1185043677687645
1789322968024394000,4.56939404296875,0.1178935244679451,0.06291726976633072,-0.2107423096895218
1789322968043246600,4.58824658203125,0.08124268800020218,0.19058434665203094,-0.4825693368911743
1789322968062099000,4.607098876953125,0.0030542362947016954,0.33413344621658325,-0.8301414251327515
1789322968080951300,4.625951416015625,-0.1453816443681717,0.5357130169868469,-1.1264023780822754
1789322968099803600,4.6448037109375,-0.28404396772384644,0.7256865501403809,-1.42335045337677
1789322968118656000,4.663656005859375,-0.32191649079322815,0.9449806809425354,-1.7886371612548828
1789322968137508400,4.68250830078125,-0.3139754831790924,1.0524898767471313,-2.086730480194092
1789322968156360700,4.701360595703125,-0.40132665634155273,0.9309312105178833,-2.1979048252105713
1789322968175213000,4.720213134765625,-0.5754181146621704,0.8313631415367126,-2.3261826038360596
1789322968194065400,4.7390654296875,-0.7470661997795105,0.6487197875976562,-2.425750732421875
1789322968212917800,4.757917724609375,-0.896723747253418,0.3836120665073395,-2.4532389640808105
1789322968231770400,4.776770263671875,-0.9462023973464966,-0.010995250195264816,-2.573575973510742
1789322968250622500,4.79562255859375,-0.8790091872215271,-0.3286358118057251,-2.654207706451416
1789322968269475000,4.81447509765625,-0.6975875496864319,-0.4477510452270508,-2.6407690048217773
1789322968288327400,4.833327392578125,-0.4049917459487915,-0.4837910234928131,-2.6377148628234863
1789322968307179800,4.8521796875,-0.13499724864959717,-0.5363239049911499,-2.634049654006958
1789322968326032100,4.8710322265625,-0.023823043331503868,-0.5876350402832031,-2.575408458709717
1789322968344884500,4.889884521484375,0.045202698558568954,-0.6487197875976562,-2.3988735675811768
1789322968363736800,4.90873681640625,0.17775654792785645,-0.6615476012229919,-2.1111645698547363
1789322968382589200,4.927589111328125,0.4581354558467865,-0.6132906675338745,-1.7361042499542236
1789322968401441500,4.946441650390625,0.6908682584762573,-0.29381752014160156,-1.355546474456787
1789322968420294000,4.9652939453125,0.6163448691368103,0.03542914241552353,-0.8594620823860168
1789322968439146200,4.984146240234375,0.49051034450531006,0.0653606578707695,-0.28404396772384644
1789322968457998600,5.00299853515625,0.37322768568992615,0.0659715011715889,0.1820324808359146
1789322968476851000,5.021850830078125,0.363454133272171,0.04337015375494957,0.5711421966552734
1789322968495703300,5.040703369140625,0.30969956517219543,0.12461283802986145,0.8961129188537598
1789322968523982000,5.068982177734375,0.32374903559684753,0.12766708433628082,1.23940908908844
1789322968542834400,5.08783447265625,0.3255815804004669,0.261442631483078,1.299272060394287
1789322968561686500,5.1066865234375,0.261442631483078,0.24617144465446472,1.2791141271591187
1789322968580539100,5.1255390625,0.13438639044761658,0.15210096538066864,1.3500487804412842
1789322968599391500,5.1443916015625,-0.009773556143045425,-0.03237490355968475,1.4538928270339966
1789322968618243800,5.163243896484375,-0.020157959312200546,-0.19119518995285034,1.5693429708480835
1789322968637096200,5.18209619140625,0.12827792763710022,-0.15149012207984924,1.706783652305603
1789322968655948500,5.200948486328125,0.30847787857055664,0.02076880633831024,1.8711014986038208
1789322968674801000,5.21980078125,0.4984513521194458,0.0922379344701767,2.020759105682373
1789322968693653200,5.2386533203125,0.5974085927009583,-0.06963659077882767,2.124603033065796
1789322968712505600,5.257505615234375,0.656660795211792,-0.237008735537529,2.1722493171691895
1789322968731358000,5.27635791015625,0.6310052275657654,-0.3286358118057251,2.2296688556671143
1789322968750210300,5.295210205078125,0.5381564497947693,-0.37078428268432617,2.271817207336426
1789322968769062700,5.314062744140625,0.47829338908195496,-0.49295374751091003,2.2565460205078125
1789322968787915000,5.3329150390625,0.34940463304519653,-0.8661814332008362,2.2278363704681396
1789322968806767400,5.351767333984375,0.2516690790653229,-1.1465603113174438,2.13620924949646
1789322968825619700,5.37061962890625,0.261442631483078,-1.014006495475769,2.070237636566162
1789322968844472000,5.38947216796875,0.21990501880645752,-0.7250757217407227,1.970058798789978
1789322968863324400,5.408324462890625,0.1185043677687645,-0.5949652194976807,1.8014649152755737
1789322968882176800,5.4271767578125,0.1044548824429512,-0.3836120665073395,1.5540717840194702
1789322968901029000,5.446029052734375,0.15210096538066864,-0.2473931461572647,1.262621283531189
1789322968919881500,5.464881591796875,0.16309621930122375,-0.10628741979598999,0.8936695456504822
1789322968938733800,5.48373388671875,0.08857285231351852,0.031153209507465363,0.5118899941444397
1789322968957586200,5.502586181640625,0.011606098152697086,0.15332266688346863,0.1557660549879074
1789322968976438500,5.5214384765625,-0.10201149433851242,0.2473931461572647,-0.17592400312423706
1789322968995291000,5.540290771484375,-0.17714570462703705,0.32130566239356995,-0.48012593388557434
1789322969014143200,5.559143310546875,-0.2101314514875412,0.5234960913658142,-0.8246437907218933
1789322969032995600,5.57799560546875,-0.23212195932865143,0.6786513328552246,-1.2137534618377686
1789322969051848000,5.596847900390625,-0.2852656841278076,0.8350282311439514,-1.6029396057128906
1789322969070700300,5.6157001953125,-0.38605546951293945,0.9975135922431946,-1.8924812078475952
1789322969089552600,5.634552734375,-0.4978405237197876,1.0598199367523193,-2.0879523754119873
1789322969108405000,5.653405029296875,-0.6224533319473267,1.064706802368164,-2.2712063789367676
1789322969127257300,5.67225732421875,-0.7763868570327759,0.9376505613327026,-2.361611843109131
1789322969146109700,5.691109619140625,-0.9138274788856506,0.864959716796875,-2.422696590423584
1789322969164962000,5.709962158203125,-1.0506572723388672,0.6151232123374939,-2.4361352920532227
1789322969183814400,5.728814453125,-1.058598279953003,0.3775036036968231,-2.5430335998535156
1789322969202666800,5.747666748046875,-1.0207257270812988,0.16859383881092072,-2.6969668865203857
1789322969221519000,5.76651904296875,-0.860683798789978,-0.09773556143045425,-2.8081412315368652
1789322969240371500,5.785371337890625,-0.5448757410049438,-0.3151971995830536,-2.857008934020996
1789322969259223800,5.804223876953125,-0.2492256760597229,-0.30603447556495667,-2.8234124183654785
1789322969278076200,5.823076171875,-0.05864133685827255,-0.28404396772384644,-2.61694598197937
1789322969296928500,5.841928466796875,0.05375456064939499,-0.2608317732810974,-2.278536558151245
1789322969315780900,5.86078076171875,0.22601348161697388,-0.26999449729919434,-1.867436408996582
1789322969334633200,5.87963330078125,0.35978904366493225,-0.005497625097632408,-1.4502277374267578
1789322969353485600,5.898485595703125,0.3970507085323334,0.30847787857055664,-0.8246437907218933
1789322969372338000,5.917337890625,0.2632751762866974,0.32069480419158936,-0.09284878522157669
1789322969391190300,5.936190185546875,0.16248537600040436,0.25655585527420044,0.45202696323394775
1789322969410042600,5.955042724609375,0.13805148005485535,0.1850867122411728,0.809983491897583
1789322969428895000,5.97389501953125,0.14721418917179108,0.06413896381855011,1.0347752571105957
1789322969447747300,5.992747314453125,0.15454435348510742,0.07024743407964706,1.1856545209884644
1789322969466599700,6.011599609375,0.13805148005485535,0.09407047927379608,1.2229162454605103
1789322969485452000,6.0304521484375,0.10750912129878998,0.1313321590423584,1.115407109260559
1789322969504304000,6.04930419921875,0.09345962852239609,0.21440738439559937,0.9633061289787292
1789322969523156500,6.068156494140625,0.02504473738372326,0.2724378705024719,0.7605048418045044
1789322969542008800,6.0870087890625,-0.06780404597520828,0.2748812735080719,0.6169557571411133
1789322969560861200,6.105861083984375,-0.12094775587320328,0.16309621930122375,0.8069292306900024
1789322969579713500,6.124713623046875,-0.06963659077882767,0.018936265259981155,1.3989166021347046
1789322969598566000,6.14356591796875,0.2107423096895218,-0.16004198789596558,1.9340187311172485
1789322969617418200,6.162418212890625,0.5961869359016418,-0.16676130890846252,2.011596441268921
1789322969636270600,6.1812705078125,0.8240329623222351,-0.0024433890357613564,1.964561104774475
1789322969655123000,6.200123046875,0.582748293876648,-0.18630841374397278,2.0653510093688965
1789322969673975300,6.218975341796875,0.33535513281822205,-0.42698222398757935,2.1704165935516357
1789322969692827600,6.23782763671875,0.31886225938796997,-0.5357130169868469,2.2815909385681152
1789322969711680000,6.256679931640625,0.34757208824157715,-0.5063923597335815,2.3945975303649902
1789322969730532400,6.275532470703125,0.4282039403915405,-0.5717530250549316,2.417198896408081
1789322969749384400,6.294384521484375,0.49356457591056824,-0.6774296164512634,2.404982089996338
1789322969768236800,6.31323681640625,0.42759308218955994,-0.9773555994033813,2.3377888202667236
1789322969787089200,6.332089111328125,0.28404396772384644,-1.3390535116195679,2.13315486907959
1789322969805941500,6.35094140625,0.1820324808359146,-1.115407109260559,1.833839774131775
1789322969824793900,6.3697939453125,0.25655585527420044,-0.5851916670799255,1.5864466428756714
1789322969843646200,6.388646240234375,0.4593571424484253,-0.26694026589393616,1.3328686952590942
1789322969862498600,6.40749853515625,0.49356457591056824,-0.38422292470932007,1.0176715850830078
1789322969881351000,6.426350830078125,0.3280249834060669,-0.4159869849681854,0.6664343476295471
1789322969900203300,6.445203369140625,0.1185043677687645,-0.4300364851951599,0.33596599102020264
1789322969928481500,6.4734814453125,0.03420744836330414,-0.1301104724407196,-0.14965757727622986
1789322969947334000,6.492333984375,-0.0036650835536420345,0.053143709897994995,-0.46363306045532227
1789322969966186200,6.511186279296875,-0.036039989441633224,0.27915719151496887,-0.832584798336029
1789322969985038600,6.53003857421875,-0.09590301662683487,0.5717530250549316,-1.1935955286026
1789322970003891000,6.548890869140625,-0.19913621246814728,0.8655705451965332,-1.4887111186981201
1789322970022743300,6.567743408203125,-0.3243598937988281,1.0030112266540527,-1.8051300048828125
1789322970041595600,6.586595703125,-0.4575245976448059,1.0702043771743774,-2.136820077896118
1789322970060448000,6.605447998046875,-0.5839699506759644,1.1868761777877808,-2.4245290756225586
1789322970079300000,6.624300048828125,-0.7824953198432922,1.147171139717102,-2.5283732414245605
1789322970098152400,6.64315234375,-0.9517000317573547,0.8057075142860413,-2.4569039344787598
1789322970117004800,6.6620048828125,-1.0427162647247314,0.4300364851951599,-2.388489246368408
1789322970135857200,6.680857177734375,-1.0830321311950684,0.12522368133068085,-2.5143237113952637
1789322970154709500,6.69970947265625,-1.0011786222457886,-0.03298575058579445,-2.6994104385375977
1789322970173561900,6.718561767578125,-0.8044858574867249,-0.14049486815929413,-2.8295209407806396
1789322970192414200,6.737414306640625,-0.5216635465621948,-0.314586341381073,-2.857008934020996
1789322970211266300,6.756266357421875,-0.25594499707221985,-0.42514967918395996,-2.772711992263794
1789322970230118700,6.77511865234375,-0.08429691940546036,-0.4337015450000763,-2.6187784671783447
1789322970248971000,6.793970947265625,0.12094775587320328,-0.3830012381076813,-2.4043712615966797
1789322970267823400,6.8128232421875,0.3365768492221832,-0.30481278896331787,-2.121548891067505
1789322970286675700,6.83167578125,0.45019441843032837,-0.17531315982341766,-1.650585651397705
1789322970305528000,6.850528076171875,0.46241137385368347,-0.0390942245721817,-1.1477819681167603
1789322970324380200,6.869380126953125,0.42881476879119873,0.18691925704479218,-0.7207997441291809
1789322970343232500,6.888232421875,0.33535513281822205,0.27854636311531067,-0.3035911023616791
1789322970362084900,6.9070849609375,0.25289076566696167,0.25533416867256165,0.130721315741539
1789322970380937200,6.925937255859375,0.2363978922367096,0.13438639044761658,0.5796940326690674
1789322970399789600,6.94478955078125,0.208298921585083,0.08796200156211853,0.9962918758392334
1789322970418641700,6.9636416015625,0.19363857805728912,0.08124268800020218,1.2840009927749634
1789322970437494000,6.982493896484375,0.1954711228609085,0.021990500390529633,1.4209071397781372
1789322970456346400,7.001346435546875,0.17409147322177887,0.024433890357613564,1.4367891550064087
1789322970475198700,7.02019873046875,0.12094775587320328,0.04825693368911743,1.4282371997833252
1789322970494051000,7.039051025390625,0.017714571207761765,0.06780404597520828,1.4587795734405518
1789322970512903200,7.057903076171875,-0.07696675509214401,0.0018325417768210173,1.5949985980987549
1789322970531755500,7.076755615234375,-0.043981000781059265,-0.17775654792785645,1.8136818408966064
1789322970550608000,7.09560791015625,0.10140064358711243,-0.20157960057258606,2.0567991733551025
1789322970569460200,7.114460205078125,0.2632751762866974,-0.17225892841815948,2.205235004425049
1789322970588312600,7.1333125,0.47646087408065796,-0.0916270911693573,2.260822057723999
1789322970607164700,7.15216455078125,0.578472375869751,-0.1557660549879074,2.316409111022949
1789322970626017000,7.17101708984375,0.4825693368911743,-0.4886777997016907,2.425750732421875
1789322970644869400,7.189869384765625,0.37383851408958435,-0.5851916670799255,2.428805112838745
1789322970663721700,7.2087216796875,0.4086568057537079,-0.5259394645690918,2.321295976638794
1789322970682573800,7.22757373046875,0.4605788290500641,-0.5436540842056274,2.3048031330108643
1789322970701426200,7.24642626953125,0.38666632771492004,-1.0482138395309448,2.326793670654297
1789322970720278500,7.265278564453125,0.2779355049133301,-1.3078240156173706,2.0629074573516846
1789322970739131000,7.284130859375,0.2980934679508209,-0.9761339426040649,1.8454458713531494
1789322970757983200,7.302983154296875,0.3500154912471771,-0.5632011890411377,1.714113712310791
1789322970776835300,7.32183544921875,0.46851983666419983,-0.3811686933040619,1.438010811805725
1789322970795687700,7.340687744140625,0.42514967918395996,-0.2901524603366852,1.0891406536102295
1789322970814540000,7.3595400390625,0.2638860046863556,-0.0910162404179573,0.7928797602653503
1789322970833392400,7.378392333984375,0.09712471067905426,0.04031591862440109,0.5161659121513367
1789322970852244500,7.397244384765625,0.07024743407964706,0.1178935244679451,0.17714570462703705
1789322970871096800,7.416096923828125,0.12339114397764206,0.14965757727622986,-0.2217375487089157
1789322970889949200,7.43494921875,0.08246438205242157,0.23334364593029022,-0.6303943991661072
1789322970908801500,7.453801513671875,-0.03420744836330414,0.3970507085323334,-1.0017894506454468
1789322970927653600,7.472653564453125,-0.15515519678592682,0.6401679515838623,-1.2864443063735962
1789322970946506000,7.491506103515625,-0.2608317732810974,0.9132166504859924,-1.5638453960418701
1789322970965358300,7.5103583984375,-0.34818294644355774,1.0934165716171265,-1.8466676473617554
1789322970984210700,7.529210693359375,-0.47890424728393555,1.2009257078170776,-2.0971150398254395
1789322971003062800,7.548062744140625,-0.6365028619766235,1.2039799690246582,-2.338399648666382
1789322971021915100,7.5669150390625,-0.8625163435935974,1.0769237279891968,-2.4416327476501465
1789322971040767500,7.585767578125,-1.0848647356033325,0.9119949340820312,-2.4990525245666504
1789322971059619800,7.604619873046875,-1.2155860662460327,0.5674771070480347,-2.4098687171936035
1789322971078472000,7.623471923828125,-1.2491827011108398,0.20524467527866364,-2.5289840698242188
1789322971097324300,7.64232421875,-1.2070342302322388,-0.08918370306491852,-2.685971736907959
1789322971116176600,7.6611767578125,-0.9504783153533936,-0.2363978922367096,-2.7678253650665283
1789322971135028700,7.68002880859375,-0.5436540842056274,-0.20585553348064423,-2.7678253650665283
1789322971153881000,7.698881103515625,-0.29565006494522095,-0.1960819661617279,-2.6737546920776367
1789322971172733400,7.7177333984375,-0.16004198789596558,-0.21990501880645752,-2.566856622695923
1789322971191585800,7.736585693359375,-0.0012216945178806782,-0.37200596928596497,-2.381769895553589
1789322971210438000,7.75543798828125,0.2357870489358902,-0.3500154912471771,-1.9761672019958496
1789322971229290200,7.774290283203125,0.4068242609500885,-0.2229592502117157,-1.4966521263122559
1789322971248142600,7.793142578125,0.3683409094810486,-0.08124268800020218,-1.0298885107040405
1789322971266994700,7.81199462890625,0.3133646547794342,0.014049487188458443,-0.5375455617904663
1789322971285847000,7.830846923828125,0.3426853120326996,0.11545012891292572,-0.09651386737823486
1789322971304699400,7.849699462890625,0.30847787857055664,0.0787992998957634,0.21623992919921875
1789322971323551500,7.868551513671875,0.3017585575580597,-0.10384403169155121,0.5320479869842529
1789322971342403800,7.88740380859375,0.26755109429359436,-0.16248537600040436,0.8808417320251465
1789322971361256200,7.906256103515625,0.25289076566696167,-0.15515519678592682,1.1917630434036255
1789322971380108500,7.925108642578125,0.24617144465446472,-0.16248537600040436,1.3757044076919556
1789322971398960600,7.943960693359375,0.22723518311977386,-0.11606097966432571,1.35798978805542
1789322971417813000,7.96281298828125,0.1557660549879074,0.03420744836330414,1.400138258934021
1789322971436665000,7.9816650390625,0.0659715011715889,0.10628741979598999,1.5968310832977295
1789322971455517400,8.000517333984375,0.02993151545524597,0.017714571207761765,1.7861937284469604
1789322971474369800,8.019369873046875,0.04214845970273018,-0.12339114397764206,1.8625496625900269
1789322971493222100,8.03822216796875,0.17958909273147583,-0.16553960740566254,1.9517333507537842
1789322971512074200,8.05707421875,0.33352261781692505,-0.2229592502117157,2.0995583534240723
1789322971530926600,8.075926513671876,0.4691306948661804,-0.19424942135810852,2.2064566612243652
1789322971549778700,8.09477880859375,0.5467082858085632,-0.16676130890846252,2.2931969165802
1789322971568631000,8.113631103515624,0.5192201733589172,-0.33169007301330566,2.3744397163391113
1789322971587483400,8.1324833984375,0.42453885078430176,-0.42514967918395996,2.3487839698791504
1789322971606335500,8.15133544921875,0.4318690001964569,-0.43858832120895386,2.243107557296753
1789322971625187800,8.170187744140625,0.42576053738594055,-0.6065713167190552,2.1838552951812744
1789322971644040200,8.189040283203125,0.3787252902984619,-1.0934165716171265,2.231501340866089
1789322971662892300,8.207892333984375,0.3958290219306946,-1.2632321119308472,2.0891740322113037
1789322971681744600,8.22674462890625,0.40254834294319153,-0.9095515608787537,1.81246018409729
1789322971700596700,8.2455966796875,0.4049917459487915,-0.6731536984443665,1.6133239269256592
1789322971719449000,8.264448974609374,0.4214846193790436,-0.6139014959335327,1.404414176940918
1789322971738301400,8.283301513671875,0.4294256269931793,-0.4416425824165344,1.0237799882888794
1789322971757153500,8.302153564453125,0.3549022674560547,-0.20463383197784424,0.6865923404693604
1789322971776006000,8.321005859375,0.1820324808359146,-0.1050657257437706,0.4074351191520691
1789322971794858000,8.33985791015625,0.09407047927379608,0.03665083646774292,0.19241689145565033
1789322971813710300,8.35871044921875,0.10934165865182877,0.21562908589839935,-0.1453816443681717
1789322971832562700,8.377562744140626,0.08551861345767975,0.36284327507019043,-0.5668662786483765
1789322971851414800,8.396414794921874,0.01588202826678753,0.5796940326690674,-0.9938485026359558
1789322971870267100,8.41526708984375,-0.047646086663007736,0.938872218132019,-1.3604332208633423
1789322971889119500,8.434119384765625,-0.10628741979598999,1.1178505420684814,-1.6939557790756226
1789322971907971600,8.4529716796875,-0.18630841374397278,1.1685508489608765,-1.942570686340332
1789322971926824000,8.471823974609375,-0.3011476993560791,1.2039799690246582,-2.1789684295654297
1789322971945676000,8.490676025390625,-0.517998456954956,1.1587772369384766,-2.3048031330108643
1789322971964528400,8.5095283203125,-0.8246437907218933,1.0298885107040405,-2.3664987087249756
1789322971983380700,8.528380615234376,-1.0158389806747437,0.8521319031715393,-2.5161561965942383
1789322972002232800,8.54723291015625,-1.077534556388855,0.6035171151161194,-2.5521962642669678
1789322972021085200,8.566085205078124,-1.0427162647247314,0.36039987206459045,-2.6291630268096924
1789322972039937300,8.584937255859375,-0.9749122262001038,0.11483928561210632,-2.7653818130493164
1789322972058789600,8.60378955078125,-0.80937260389328,-0.15087927877902985,-2.844792127609253
1789322972077641700,8.622641845703125,-0.48012593388557434,-0.34696123003959656,-2.877166986465454
1789322972096494000,8.641494140625,-0.23884128034114838,-0.2767138183116913,-2.792870044708252
1789322972115346200,8.66034619140625,-0.062306419014930725,-0.02076880633831024,-2.6010639667510986
1789322972134198500,8.679198486328126,0.1050657257437706,0.13621893525123596,-2.2938077449798584
1789322972153051000,8.69805078125,0.183865025639534,0.1582094430923462,-1.8564411401748657
1789322972171903000,8.716903076171874,0.20219044387340546,0.054365407675504684,-1.3433294296264648
1789322972190755300,8.73575537109375,0.1960819661617279,0.025655584409832954,-0.8173136115074158
1789322972209607400,8.754607421875,0.19058434665203094,0.16615045070648193,-0.36162158846855164
1789322972228459800,8.773459716796875,0.21807247400283813,0.3298575282096863,-0.0006108472589403391
1789322972247312000,8.792311767578125,0.21929416060447693,0.25716668367385864,0.2993151545524597
1789322972266164200,8.811164306640626,0.2089097648859024,0.13438639044761658,0.652384877204895
1789322972285016300,8.830016357421876,0.11483928561210632,-0.062306419014930725,1.0427162647247314
1789322972303868700,8.84886865234375,0.056808795779943466,-0.11911521852016449,1.3616548776626587
1789322972322720800,8.867720703125,0.04886778071522713,-0.12094775587320328,1.4746615886688232
1789322972341573000,8.886572998046875,0.022601349279284477,-0.0018325417768210173,1.4569470882415771
1789322972360425500,8.905425537109375,-0.025655584409832954,0.056808795779943466,1.4997063875198364
1789322972379277600,8.924277587890625,-0.06413896381855011,0.09284878522157669,1.595609426498413
1789322972398129700,8.943129638671875,-0.06413896381855011,0.0653606578707695,1.700675129890442
1789322972416982000,8.96198193359375,-0.021990500390529633,-0.047646086663007736,1.833839774131775
1789322972435834400,8.98083447265625,0.11117420345544815,-0.1575985997915268,2.011596441268921
1789322972454686500,8.9996865234375,0.29748260974884033,-0.1710372269153595,2.179579257965088
1789322972473538600,9.01853857421875,0.47585001587867737,-0.1447708010673523,2.25715708732605
1789322972492391000,9.037390869140625,0.49417543411254883,-0.20463383197784424,2.3109116554260254
1789322972511243000,9.056242919921875,0.3775036036968231,-0.4581354558467865,2.3927650451660156
1789322972530095400,9.075095458984375,0.33413344621658325,-0.5296045541763306,2.391543388366699
1789322972548947700,9.09394775390625,0.3946073353290558,-0.43614494800567627,2.2650980949401855
1789322972567799800,9.1127998046875,0.4330907166004181,-0.41415444016456604,2.236999034881592
1789322972586652000,9.13165185546875,0.33413344621658325,-0.888171911239624,2.2852559089660645
1789322972605504300,9.150504150390624,0.2522799074649811,-1.2320789098739624,2.1178839206695557
1789322972624356400,9.1693564453125,0.18081079423427582,-1.0072871446609497,1.875988245010376
1789322972643208700,9.188208740234375,0.2602209448814392,-0.6737645268440247,1.595609426498413
1789322972662060800,9.207060791015625,0.31092125177383423,-0.47890424728393555,1.2937744855880737
1789322972680913200,9.2259130859375,0.24678228795528412,-0.41171106696128845,0.91566002368927
1789322972699765200,9.24476513671875,0.17714570462703705,-0.2089097648859024,0.5705313682556152
1789322972718617600,9.26361767578125,0.04947862774133682,-0.07330167293548584,0.24617144465446472
1789322972737469700,9.2824697265625,-0.0647498071193695,0.021990500390529633,-0.024433890357613564
1789322972756322000,9.301322021484374,-0.02748812735080719,0.21196399629116058,-0.32069480419158936
1789322972775174100,9.320174072265624,-0.023823043331503868,0.3701734244823456,-0.6700994372367859
1789322972794026500,9.339026611328125,-0.11972606182098389,0.5033381581306458,-1.012784719467163
1789322972812878600,9.357878662109375,-0.20768806338310242,0.6951441764831543,-1.3157650232315063
1789322972831731000,9.37673095703125,-0.2638860046863556,0.9327637553215027,-1.6066046953201294
1789322972850583000,9.3955830078125,-0.32008397579193115,1.0726478099822998,-1.8784316778182983
1789322972869435100,9.41443505859375,-0.4086568057537079,1.0567657947540283,-2.0317542552948
1789322972888287500,9.43328759765625,-0.5992411375045776,0.9174925684928894,-2.1814119815826416
1789322972907139600,9.4521396484375,-0.8069292306900024,0.8313631415367126,-2.3316802978515625
1789322972935417900,9.48041796875,-1.0451596975326538,0.5796940326690674,-2.4648449420928955
1789322972954270200,9.499270263671875,-0.9914051294326782,0.19119518995285034,-2.5607481002807617
1789322972973122300,9.518122314453125,-0.9339854717254639,0.15454435348510742,-2.717735767364502
1789322972991974700,9.536974609375,-0.8270871639251709,0.01710372418165207,-2.8588414192199707
1789322973010826800,9.55582666015625,-0.546097457408905,-0.32130566239356995,-2.876556158065796
1789322973029678800,9.574678955078125,-0.23334364593029022,-0.4068242609500885,-2.746445655822754
1789322973048531200,9.59353125,0.07635590434074402,-0.21379654109477997,-2.6145026683807373
1789322973067383300,9.61238330078125,0.3054236173629761,-0.15087927877902985,-2.3836023807525635
1789322973086235600,9.631235595703124,0.3573456406593323,-0.028098974376916885,-1.9731130599975586
1789322973105087700,9.650087646484375,0.33291175961494446,0.006719320081174374,-1.5632344484329224
1789322973123939800,9.66893994140625,0.2651077210903168,0.05986303091049194,-1.1086877584457397
1789322973142792200,9.687792236328125,0.15026842057704926,0.05131116881966591,-0.569309651851654
1789322973161644300,9.706644287109375,0.20035789906978607,0.26938363909721375,-0.14110571146011353
1789322973180496400,9.725496337890625,0.1832541823387146,0.22540263831615448,0.24067382514476776
1789322973199348700,9.7443486328125,0.11972606182098389,0.15026842057704926,0.5894675850868225
1789322973218200800,9.763200927734376,0.1301104724407196,0.0036650835536420345,0.9694145917892456
1789322973237053200,9.78205322265625,0.17470231652259827,-0.16676130890846252,1.2913310527801514
1789322973255905300,9.8009052734375,0.17470231652259827,-0.20463383197784424,1.4807701110839844
1789322973274757400,9.81975732421875,0.09773556143045425,-0.27976804971694946,1.557736873626709
1789322973293609700,9.838609619140625,-0.014049487188458443,-0.1850867122411728,1.4960412979125977
1789322973312461800,9.8574619140625,-0.13499724864959717,-0.012216945178806782,1.4178528785705566
1789322973331314000,9.87631396484375,-0.16737215220928192,-0.01038440316915512,1.5363571643829346
1789322973350166300,9.895166259765626,0.012216945178806782,-0.13866232335567474,1.8234554529190063
1789322973369018400,9.914018310546876,0.36162158846855164,0.01954711228609085,1.9938818216323853
1789322973387870500,9.932870361328124,0.6047387719154358,-0.0910162404179573,1.963950276374817
1789322973406722800,9.951722900390624,0.6389462351799011,-0.20463383197784424,2.032365083694458
1789322973425575000,9.970574951171875,0.5070032477378845,-0.30908870697021484,2.1979048252105713
1789322973444427000,9.989427001953125,0.4569137394428253,-0.4844018816947937,2.2815909385681152
1789322973463279000,10.008279052734375,0.601073682308197,-0.6395570635795593,2.1899638175964355
1789322973482131500,10.02713134765625,0.6682668924331665,-0.7201889157295227,2.09039568901062
1789322973500983600,10.045983642578125,0.5375455617904663,-0.8979454636573792,2.1404850482940674
1789322973519835600,10.064835693359376,0.3042019307613373,-1.133732557296753,2.139874219894409
1789322973538688000,10.08368798828125,0.22540263831615448,-0.9553651213645935,2.050079822540283
1789322973557540000,10.1025400390625,0.40193748474121094,-0.7110261917114258,1.9053089618682861
1789322973576392200,10.12139208984375,0.469741553068161,-0.5833591222763062,1.6249300241470337
1789322973595244300,10.140244384765625,0.4312581717967987,-0.45447036623954773,1.3011046648025513
1789322973614096600,10.1590966796875,0.22723518311977386,-0.32069480419158936,1.0555440187454224
1789322973632948700,10.17794873046875,0.09956810623407364,-0.12888877093791962,0.7006418108940125
1789322973651800800,10.19680078125,0.033596597611904144,0.03237490355968475,0.3836120665073395
1789322973670653200,10.215653076171876,0.02993151545524597,0.17531315982341766,0.09345962852239609
1789322973689505300,10.23450537109375,0.042759306728839874,0.28343313932418823,-0.23151111602783203
1789322973708357400,10.253357421875,0.012216945178806782,0.3261924386024475,-0.5809157490730286
1789322973727209500,10.27220947265625,-0.03298575058579445,0.47768256068229675,-0.9449806809425354
1789322973746061800,10.291061767578125,-0.10689827054738998,0.7739434838294983,-1.2791141271591187
1789322973764914000,10.309913818359375,-0.22845686972141266,1.0133955478668213,-1.625540852546692
1789322973783766000,10.32876611328125,-0.38666632771492004,1.1288456916809082,-1.904698133468628
1789322973802618000,10.3476181640625,-0.5094466209411621,1.1080769300460815,-2.0745136737823486
1789322973821470500,10.366470458984375,-0.7049177289009094,1.0427162647247314,-2.173470973968506
1789322973840322600,10.385322509765626,-0.9040539264678955,0.9681929349899292,-2.2858667373657227
1789322973859174700,10.404174560546876,-1.0195040702819824,0.9492566585540771,-2.4740078449249268
1789322973878026800,10.42302685546875,-1.1288456916809082,0.6126797795295715,-2.5430335998535156
1789322973896878800,10.44187890625,-1.1728267669677734,0.16553960740566254,-2.69208025932312
1789322973915731200,10.460731201171875,-1.0561549663543701,-0.11056335270404816,-2.8124170303344727
1789322973934583300,10.479583251953125,-0.7678350210189819,-0.182643324136734,-2.916872024536133
1789322973953435400,10.498435302734375,-0.38666632771492004,-0.1582094430923462,-2.9535229206085205
1789322973972287500,10.51728759765625,-0.25777754187583923,-0.0653606578707695,-2.714681625366211
1789322973991139600,10.5361396484375,-0.19302773475646973,-0.1319430023431778,-2.3463406562805176
1789322974009992000,10.554991943359376,-0.11239589750766754,-0.18081079423427582,-1.9578418731689453
1789322974028844000,10.573843994140624,0.0397050715982914,0.10140064358711243,-1.616989016532898
1789322974047696100,10.592696044921874,0.14965757727622986,0.20768806338310242,-1.2613996267318726
1789322974066548200,10.61154833984375,0.11545012891292572,0.1319430023431778,-0.8258655071258545
1789322974085400300,10.630400390625,0.0794101431965828,0.11972606182098389,-0.37200596928596497
1789322974104252400,10.64925244140625,0.12094775587320328,0.23028941452503204,0.03176405653357506
1789322974123104800,10.668104736328125,0.20524467527866364,0.22051586210727692,0.40193748474121094
1789322974141956900,10.686956787109375,0.22723518311977386,0.130721315741539,0.7421793937683105
1789322974160809000,10.70580908203125,0.23090025782585144,-0.05131116881966591,1.0640959739685059
1789322974179661000,10.7246611328125,0.25533416867256165,-0.08857285231351852,1.3292036056518555
1789322974198513200,10.74351318359375,0.2864873707294464,-0.07330167293548584,1.4306806325912476
1789322974217365200,10.762365234375,0.2473931461572647,0.026877280324697495,1.4575579166412354
1789322974236217300,10.78121728515625,0.11483928561210632,-0.012827792204916477,1.5333030223846436
1789322974255069700,10.800069580078125,0.02993151545524597,-0.1453816443681717,1.6267626285552979
1789322974273921800,10.818921875,0.02626643143594265,-0.1563768982887268,1.7037293910980225
1789322974292774000,10.83777392578125,0.1429382562637329,-0.14721418917179108,1.8142926692962646
1789322974311626000,10.8566259765625,0.291374146938324,-0.13438639044761658,1.9804431200027466
1789322974330478000,10.87547802734375,0.4049917459487915,-0.2363978922367096,2.081843852996826
1789322974349330200,10.894330078125,0.46241137385368347,-0.2761029601097107,2.1313223838806152
1789322974368182300,10.913182373046874,0.444085955619812,-0.34818294644355774,2.243718385696411
1789322974387034400,10.932034423828124,0.365286648273468,-0.44958359003067017,2.376272201538086
1789322974405886500,10.950886474609375,0.3243598937988281,-0.550373375415802,2.4611799716949463
1789322974424738600,10.969738525390625,0.4471401870250702,-0.5638120174407959,2.4153664112091064
1789322974443591000,10.9885908203125,0.5803049206733704,-0.5919110178947449,2.2883102893829346
1789322974462443000,11.007443115234375,0.5900784730911255,-1.0579874515533447,2.1869094371795654
1789322974481295000,11.026295166015625,0.5412106513977051,-1.4215179681777954,2.0250349044799805
1789322974500147200,11.045147216796876,0.4746283292770386,-1.1722159385681152,1.8656039237976074
1789322974528425200,11.07342529296875,0.42453885078430176,-0.6560499668121338,1.6609700918197632
1789322974547277300,11.09227734375,0.4043808877468109,-0.43797749280929565,1.1972606182098389
1789322974566129700,11.111129638671875,0.28343313932418823,-0.3408527672290802,0.6169557571411133
1789322974584981800,11.129981689453125,0.1692046970129013,-0.09468132257461548,0.1459924876689911
1789322974603833900,11.148833740234375,0.04031591862440109,0.16065283119678497,-0.16676130890846252
1789322974622686000,11.16768603515625,-0.009773556143045425,0.4355340898036957,-0.38849884271621704
1789322974641538000,11.1865380859375,-0.021379653364419937,0.6981984376907349,-0.7287407517433167
1789322974660390100,11.20539013671875,-0.031153209507465363,0.8466343283653259,-1.161220669746399
1789322974679242200,11.2242421875,-0.07330167293548584,0.999346137046814,-1.5064257383346558
1789322974698094300,11.24309423828125,-0.16859383881092072,1.1215155124664307,-1.7409909963607788
1789322974716946400,11.261946533203124,-0.31886225938796997,1.0243908166885376,-1.91386079788208
1789322974735798500,11.280798583984375,-0.5131117105484009,0.9474241137504578,-2.0054879188537598
1789322974754650600,11.299650634765625,-0.7501204609870911,0.897334635257721,-2.0971150398254395
1789322974773502700,11.318502685546875,-0.938872218132019,0.9547542929649353,-2.2528810501098633
1789322974792354800,11.337354736328125,-1.0176715850830078,0.9523108601570129,-2.436746120452881
1789322974811207000,11.35620703125,-1.123958945274353,0.7348492741584778,-2.4935548305511475
1789322974830059000,11.37505908203125,-1.1483927965164185,0.3781144618988037,-2.58762526512146
1789322974848911000,11.3939111328125,-1.111131191253662,0.05008947476744652,-2.6187784671783447
1789322974867763200,11.41276318359375,-0.9126058220863342,-0.16431790590286255,-2.6878042221069336
1789322974886615300,11.431615234375,-0.5833591222763062,-0.23334364593029022,-2.7721011638641357
1789322974905467400,11.45046728515625,-0.3555130958557129,-0.11300674080848694,-2.68902587890625
1789322974924319500,11.469319580078125,-0.19913621246814728,-0.009773556143045425,-2.425750732421875
1789322974943171600,11.488171630859375,-0.03176405653357506,-0.05131116881966591,-2.0476362705230713
1789322974962023700,11.507023681640625,0.13866232335567474,-0.0397050715982914,-1.6744086742401123
1789322974980875800,11.525875732421875,0.30908870697021484,0.008551862090826035,-1.3304253816604614
1789322974999727900,11.544727783203125,0.3390202224254608,0.02748812735080719,-0.975523054599762
1789322975018580000,11.563580078125,0.2895416021347046,0.1710372269153595,-0.5351021885871887
1789322975037432000,11.58243212890625,0.25655585527420044,0.30481278896331787,-0.11422843486070633
1789322975056284200,11.6012841796875,0.2620534598827362,0.24128466844558716,0.2498365342617035
1789322975075136300,11.62013623046875,0.23823043704032898,0.08124268800020218,0.5680879354476929
1789322975093988000,11.638988037109375,0.1832541823387146,-0.09834641218185425,0.8863393664360046
1789322975112840200,11.657840087890625,0.1698155403137207,-0.18081079423427582,1.1630531549453735
1789322975131692300,11.6766923828125,0.17286977171897888,-0.055587101727724075,1.3353121280670166
1789322975150544400,11.69554443359375,0.14721418917179108,0.05619794875383377,1.4025816917419434
1789322975169396500,11.714396484375,0.05986303091049194,0.183865025639534,1.5052039623260498
1789322975188248600,11.73324853515625,-0.04092676565051079,0.04153761267662048,1.5846141576766968
1789322975207100700,11.7521005859375,-0.03420744836330414,-0.07696675509214401,1.6340928077697754
1789322975225952800,11.770952880859374,0.07269082218408585,0.0030542362947016954,1.6609700918197632
1789322975244804900,11.789804931640624,0.2492256760597229,0.03237490355968475,1.751375436782837
1789322975263657000,11.808656982421875,0.36101073026657104,-0.09651386737823486,1.922412633895874
1789322975282509000,11.827509033203125,0.4868452548980713,-0.29626092314720154,2.098947525024414
1789322975301361000,11.84636083984375,0.6389462351799011,-0.34635040163993835,2.2131760120391846
1789322975320213000,11.865212890625,0.7018635272979736,-0.38788801431655884,2.275482416152954
1789322975339065000,11.884065185546875,0.6817055344581604,-0.37139514088630676,2.234555721282959
1789322975357917200,11.902917236328125,0.6639909744262695,-0.4850127100944519,2.1606431007385254
1789322975376769300,11.921769287109376,0.5741963982582092,-0.6865923404693604,2.236999034881592
1789322975395621400,11.940621337890626,0.4086568057537079,-1.1587772369384766,2.2626545429229736
1789322975414473500,11.959473388671874,0.3701734244823456,-1.211920976638794,2.072070360183716
1789322975433325600,11.97832568359375,0.40010493993759155,-0.837471604347229,1.8778208494186401
1789322975452177400,11.997177490234375,0.3402419090270996,-0.7055285573005676,1.7403801679611206
1789322975471029500,12.016029541015625,0.25350162386894226,-0.7434011101722717,1.3885321617126465
1789322975489881600,12.034881591796875,0.1698155403137207,-0.6432221531867981,0.9706363081932068
1789322975508733700,12.053733642578125,0.02870982140302658,-0.4477510452270508,0.6261184215545654
1789322975527585800,12.072585693359375,-0.08307522535324097,-0.2113531529903412,0.3946073353290558
1789322975546438000,12.09143798828125,-0.16004198789596558,-0.0390942245721817,0.17470231652259827
1789322975565289700,12.110289794921876,-0.13316470384597778,0.12522368133068085,-0.13499724864959717
1789322975584141800,12.129141845703124,-0.11667182296514511,0.32374903559684753,-0.5497625470161438
1789322975602994000,12.147993896484374,-0.13988402485847473,0.5454866290092468,-0.9413156509399414
1789322975621846000,12.166845947265625,-0.20341213047504425,0.7886037826538086,-1.300493836402893
1789322975640698000,12.185697998046875,-0.2980934679508209,0.9681929349899292,-1.659137487411499
1789322975659550200,12.20455029296875,-0.4178195297718048,1.060430884361267,-1.9816648960113525
1789322975678402000,12.223402099609375,-0.5919110178947449,1.0757020711898804,-2.171027421951294
1789322975697254100,12.242254150390625,-0.8680139780044556,0.9706363081932068,-2.2730391025543213
1789322975716106200,12.261106201171875,-1.0286667346954346,0.8533536195755005,-2.390932559967041
1789322975734958300,12.279958251953126,-1.0885298252105713,0.675597071647644,-2.466066837310791
1789322975753810200,12.29881005859375,-1.123958945274353,0.38483378291130066,-2.6273303031921387
1789322975772662300,12.317662353515624,-1.0946383476257324,0.13499724864959717,-2.740947961807251
1789322975791514400,12.336514404296874,-0.9046648144721985,-0.0397050715982914,-2.789815902709961
1789322975810366500,12.355366455078125,-0.5522059202194214,-0.09773556143045425,-2.8148605823516846
1789322975829218600,12.374218505859375,-0.2883199155330658,-0.07024743407964706,-2.726898431777954
1789322975848070400,12.3930703125,-0.10262233763933182,-0.1044548824429512,-2.51554536819458
1789322975866922500,12.411922607421875,0.04092676565051079,-0.15026842057704926,-2.2449400424957275
1789322975904626700,12.449626708984376,0.18630841374397278,-0.07024743407964706,-1.4789376258850098
1789322975923478500,12.468478515625,0.24678228795528412,-0.0647498071193695,-1.0298885107040405
1789322975942330600,12.48733056640625,0.2993151545524597,0.129499614238739,-0.6163448691368103
1789322975961182700,12.5061826171875,0.29626092314720154,0.12216944992542267,-0.2492256760597229
1789322975980034600,12.52503466796875,0.24433889985084534,0.05803048983216286,0.09834641218185425
1789322975998886700,12.54388671875,0.21990501880645752,0.055587101727724075,0.4434750974178314
1789322976027164700,12.57216455078125,0.21807247400283813,-0.017714571207761765,0.9547542929649353
1789322976046016800,12.591016845703125,0.2241809368133545,-0.1319430023431778,1.2363548278808594
1789322976064868900,12.609868896484375,0.21501824259757996,-0.18630841374397278,1.3488271236419678
1789322976083720700,12.628720703125,0.1588202863931656,-0.1319430023431778,1.3230952024459839
1789322976102572800,12.64757275390625,0.053143709897994995,-0.08979454636573792,1.382423758506775
1789322976121425000,12.6664248046875,-0.016492875292897224,-0.11545012891292572,1.5186426639556885
1789322976140276700,12.68527685546875,0.0036650835536420345,-0.1575985997915268,1.6566941738128662
1789322976159128800,12.70412890625,0.1325538605451584,-0.1172826737165451,1.7544296979904175
1789322976177981000,12.72298095703125,0.28160059452056885,-0.06658235192298889,1.8234554529190063
1789322976196833000,12.7418330078125,0.395218163728714,-0.13499724864959717,1.9211909770965576
1789322976215684900,12.760684814453125,0.5247178077697754,-0.25289076566696167,2.0012118816375732
1789322976234537000,12.779536865234375,0.6212316751480103,-0.337798535823822,2.086730480194092
1789322976253389000,12.79838916015625,0.6279509663581848,-0.42698222398757935,2.2327229976654053
1789322976272241000,12.817240966796875,0.5247178077697754,-0.5809157490730286,2.367109537124634
1789322976291093000,12.836093017578126,0.5192201733589172,-0.7605048418045044,2.301748752593994
1789322976309944800,12.85494482421875,0.5974085927009583,-0.8063184022903442,2.1404850482940674
1789322976328797000,12.873796875,0.555260181427002,-0.9193251132965088,2.0800113677978516
1789322976347649000,12.89264892578125,0.4190412163734436,-1.1807677745819092,1.95967435836792
1789322976366500900,12.9115009765625,0.34940463304519653,-1.2198619842529297,1.7275524139404297
1789322976385353000,12.93035302734375,0.3518480062484741,-1.003622055053711,1.5504066944122314
1789322976404205000,12.949205078125,0.33352261781692505,-0.6542174220085144,1.3604332208633423
1789322976423057000,12.968056884765625,0.26755109429359436,-0.5888567566871643,1.1209046840667725
1789322976441909000,12.986908935546875,0.13316470384597778,-0.5021164417266846,0.8490777015686035
1789322976460761000,13.005760986328125,0.07452336698770523,-0.3151971995830536,0.5448757410049438
1789322976479613000,13.024613037109376,0.09529217332601547,-0.07574506103992462,0.19180603325366974
1789322976498465000,13.043465087890626,0.12827792763710022,0.1178935244679451,-0.2211267054080963
1789322976526743000,13.071742919921874,0.0653606578707695,0.395218163728714,-0.7568397521972656
1789322976545595000,13.090594970703124,-0.0659715011715889,0.6022953987121582,-1.0958600044250488
1789322976564447000,13.109447021484375,-0.21929416060447693,0.8112051486968994,-1.3860887289047241
1789322976583299000,13.128299072265625,-0.2993151545524597,1.0811996459960938,-1.6450880765914917
1789322976602151000,13.14715087890625,-0.3524588644504547,1.2473500967025757,-1.9272994995117188
1789322976621003000,13.1660029296875,-0.43981003761291504,1.2565127611160278,-2.0977258682250977
1789322976639854800,13.184854736328125,-0.6090146899223328,1.2216944694519043,-2.278536558151245
1789322976658707000,13.20370703125,-0.7995990514755249,1.0518789291381836,-2.4758403301239014
1789322976677558800,13.222558837890626,-0.9620844125747681,0.7440119385719299,-2.6242761611938477
1789322976696411000,13.241410888671876,-1.0952491760253906,0.3408527672290802,-2.654207706451416
1789322976715262700,13.2602626953125,-1.0983033180236816,0.0653606578707695,-2.7452239990234375
1789322976734114800,13.27911474609375,-0.860683798789978,-0.11056335270404816,-2.8643391132354736
1789322976752966700,13.297966552734374,-0.46485477685928345,-0.17958909273147583,-2.923591375350952
1789322976771818800,13.31681884765625,-0.21562908589839935,-0.07635590434074402,-2.766603708267212
1789322976790670600,13.335670654296875,-0.05925218388438225,0.09407047927379608,-2.5076043605804443
1789322976809522700,13.354522705078125,0.13438639044761658,0.17836740612983704,-2.304192304611206
1789322976828374800,13.373374755859375,0.1966928243637085,0.054365407675504684,-2.0317542552948
1789322976847226600,13.3922265625,0.21501824259757996,-0.04947862774133682,-1.6279842853546143
1789322976866078500,13.411078369140625,0.2907632887363434,-0.030542362481355667,-1.1685508489608765
1789322976884930600,13.4299306640625,0.36101073026657104,0.042759306728839874,-0.7348492741584778
1789322976903782700,13.44878271484375,0.3176405727863312,0.07207997888326645,-0.26816195249557495
1789322976922634500,13.467634521484374,0.2596100866794586,0.01710372418165207,0.15943112969398499
1789322976941486300,13.486486328125,0.26877278089523315,-0.0030542362947016954,0.5913001298904419
1789322976960338400,13.50533837890625,0.25716668367385864,-0.005497625097632408,1.0048437118530273
1789322976979190500,13.5241904296875,0.25472331047058105,-0.013438640162348747,1.266897201538086
1789322976998042400,13.54304248046875,0.22662433981895447,-0.055587101727724075,1.3561573028564453
1789322977026320400,13.5713203125,0.12278030067682266,-0.047646086663007736,1.2846118211746216
1789322977045172200,13.590172119140625,0.029320668429136276,-0.03787253051996231,1.3353121280670166
1789322977064024300,13.6090244140625,-0.02626643143594265,-0.09407047927379608,1.4514493942260742
1789322977082876200,13.627876220703126,-0.0012216945178806782,-0.14965757727622986,1.6139347553253174
1789322977101728000,13.64672802734375,0.12705622613430023,-0.0794101431965828,1.8234554529190063
1789322977120580000,13.665580078125,0.33291175961494446,-0.030542362481355667,2.0305325984954834
1789322977139432000,13.684431884765624,0.4618005156517029,-0.11178504675626755,2.1808011531829834
1789322977158284000,13.703283935546875,0.5216635465621948,-0.30969956517219543,2.249216079711914
1789322977177135900,13.722135986328125,0.5063923597335815,-0.5125008225440979,2.3029704093933105
1789322977195988000,13.740988037109375,0.4330907166004181,-0.5900784730911255,2.4037604331970215
1789322977214839800,13.75983984375,0.38483378291130066,-0.6591041684150696,2.4379677772521973
1789322977233691600,13.778691650390625,0.3781144618988037,-0.8667922616004944,2.382380723953247
1789322977252543700,13.797543701171875,0.3396310806274414,-1.1923738718032837,2.2797582149505615
1789322977271395600,13.8163955078125,0.32313820719718933,-1.2681188583374023,2.1001691818237305
1789322977290247700,13.83524755859375,0.2718270421028137,-0.8380824327468872,1.831396460533142
1789322977309099500,13.854099609375,0.2980934679508209,-0.4734066128730774,1.7018967866897583
1789322977327951600,13.87295166015625,0.265718549489975,-0.45385950803756714,1.705561876296997
1789322977346803500,13.891803466796874,0.314586341381073,-0.2980934679508209,1.395862340927124
1789322977365655300,13.9106552734375,0.28343313932418823,-0.1313321590423584,1.007897973060608
1789322977384507400,13.92950732421875,0.23334364593029022,-0.010995250195264816,0.6365028619766235
1789322977403359200,13.948359130859375,0.17897824943065643,0.021990500390529633,0.28037887811660767
1789322977422211000,13.967211181640625,0.1301104724407196,0.11117420345544815,-0.06291726976633072
1789322977441063200,13.986063232421875,0.04581354558467865,0.18875180184841156,-0.418430358171463
1789322977459915000,14.0049150390625,-0.037261683493852615,0.3506263196468353,-0.7831062078475952
1789322977478767000,14.02376708984375,-0.0787992998957634,0.6407787799835205,-1.129456639289856
1789322977497619000,14.042618896484376,-0.13560809195041656,0.8582404255867004,-1.4636664390563965
1789322977525896700,14.070896728515624,-0.24311721324920654,1.022558331489563,-1.927910327911377
1789322977544748800,14.089748779296874,-0.34879377484321594,1.1221264600753784,-2.1465935707092285
1789322977563600600,14.1086005859375,-0.5748072862625122,1.133732557296753,-2.2534918785095215
1789322977582452500,14.127452392578125,-0.8612946271896362,1.0524898767471313,-2.287088394165039
1789322977601304600,14.1463046875,-1.0421054363250732,0.9272661209106445,-2.437356948852539
1789322977620156400,14.165156494140625,-1.109298586845398,0.8289197087287903,-2.5870144367218018
1789322977639008300,14.18400830078125,-1.180156946182251,0.6200099587440491,-2.7042970657348633
1789322977657860400,14.2028603515625,-1.1923738718032837,0.3555130958557129,-2.81974720954895
1789322977676712200,14.221712158203125,-0.9846857786178589,0.0024433890357613564,-2.8979358673095703
1789322977695564000,14.24056396484375,-0.569309651851654,-0.12216944992542267,-2.966350555419922
1789322977714416000,14.259416015625,-0.291374146938324,-0.08735115826129913,-2.838683605194092
1789322977733268000,14.27826806640625,-0.1844758689403534,0.0012216945178806782,-2.500885009765625
1789322977752119800,14.297119873046874,-0.07513421028852463,-0.014660334214568138,-2.038473606109619
1789322977770972000,14.315971923828124,0.02626643143594265,-0.008551862090826035,-1.5632344484329224
1789322977789823700,14.33482373046875,0.16370706260204315,0.10628741979598999,-1.1465603113174438
1789322977808675600,14.353675537109375,0.25655585527420044,0.08674030750989914,-0.712247908115387
1789322977827527400,14.37252734375,0.20585553348064423,0.2223484069108963,-0.2993151545524597
1789322977846379500,14.391379638671875,0.12033691257238388,0.3115321099758148,0.09040539711713791
1789322977865231400,14.4102314453125,0.06169557198882103,0.11911521852016449,0.46729815006256104
1789322977884083200,14.429083251953125,0.08490777015686035,0.012827792204916477,0.8081509470939636
1789322977902935000,14.44793505859375,0.1044548824429512,-0.15087927877902985,1.0598199367523193
1789322977921787100,14.466787109375,0.11911521852016449,-0.18142163753509521,1.254069447517395
1789322977940639000,14.485638916015626,0.11911521852016449,-0.1447708010673523,1.3096565008163452
1789322977959490800,14.50449072265625,0.09345962852239609,-0.05864133685827255,1.327981948852539
1789322977978342700,14.5233427734375,0.04153761267662048,-0.01038440316915512,1.4080792665481567
1789322977997194800,14.54219482421875,0.005497625097632408,0.05070032179355621,1.5400222539901733
1789322978025472500,14.570472412109375,0.10934165865182877,-0.03176405653357506,1.728163242340088
1789322978044324400,14.589324462890625,0.312142938375473,-0.09895725548267365,1.853997826576233
1789322978063176200,14.60817626953125,0.4862344264984131,-0.19974705576896667,1.9749455451965332
1789322978082028300,14.6270283203125,0.6151232123374939,-0.2516690790653229,1.9951034784317017
1789322978100880100,14.645880126953125,0.6786513328552246,-0.28037887811660767,2.058020830154419
1789322978119732000,14.66473193359375,0.6939224600791931,-0.41232189536094666,2.260822057723999
1789322978138583800,14.683583740234376,0.6432221531867981,-0.5522059202194214,2.41414475440979
1789322978157435600,14.702435546875,0.652384877204895,-0.5729747414588928,2.376272201538086
1789322978176287700,14.721287841796874,0.5570927262306213,-0.8026533126831055,2.2907536029815674
1789322978195139600,14.7401396484375,0.3927747905254364,-1.2846118211746216,2.2846450805664062
1789322978213991400,14.758991455078124,0.34635040163993835,-1.321873426437378,2.0965042114257812
1789322978232843300,14.77784326171875,0.3054236173629761,-0.892447829246521,1.7257198095321655
1789322978251695000,14.796695068359375,0.26938363909721375,-0.8289197087287903,1.572397232055664
1789322978270547000,14.815546875,0.25350162386894226,-0.7140804529190063,1.3255385160446167
1789322978289399000,14.83439892578125,0.1954711228609085,-0.45141613483428955,1.1343433856964111
1789322978308251000,14.8532509765625,0.06841489672660828,-0.3249707520008087,0.9248227477073669
1789322978327102700,14.872102783203125,0.021990500390529633,-0.3133646547794342,0.629172682762146
1789322978345954600,14.89095458984375,0.0397050715982914,-0.1319430023431778,0.3390202224254608
1789322978364806400,14.909806396484376,0.030542362481355667,-0.021379653364419937,-0.022601349279284477
1789322978383658500,14.928658447265626,-0.03237490355968475,0.2516690790653229,-0.5051707029342651
1789322978402510300,14.94751025390625,-0.16553960740566254,0.5913001298904419,-0.9529217481613159
1789322978421362200,14.966362060546874,-0.2583884000778198,0.80937260389328,-1.3041589260101318
1789322978440214000,14.985214111328125,-0.2522799074649811,0.9272661209106445,-1.6035504341125488
1789322978459065900,15.00406591796875,-0.27060532569885254,1.060430884361267,-1.9529550075531006
1789322978477917700,15.022917724609375,-0.4477510452270508,1.073258638381958,-2.092839002609253
1789322978496769500,15.04176953125,-0.6792621612548828,0.9761339426040649,-2.0732920169830322
1789322978525047600,15.070047607421875,-0.8118160367012024,0.8857285380363464,-2.295029401779175
1789322978543899100,15.088899169921875,-0.8655705451965332,0.6065713167190552,-2.5711324214935303
1789322978562751200,15.107751220703125,-0.9517000317573547,0.3158080279827118,-2.700021266937256
1789322978581603000,15.12660302734375,-0.9559759497642517,0.10323318839073181,-2.7372829914093018
1789322978600455000,15.145454833984376,-0.8252546191215515,-0.06291726976633072,-2.864949941635132
1789322978619306800,15.164306640625,-0.49173203110694885,-0.25777754187583923,-3.001779794692993
1789322978638158600,15.18315869140625,-0.20219044387340546,-0.20157960057258606,-2.990173578262329
1789322978657010400,15.202010498046874,-0.06963659077882767,-0.07452336698770523,-2.761716842651367
1789322978675862300,15.2208623046875,0.10140064358711243,-0.05008947476744652,-2.3634443283081055
1789322978694714000,15.239714111328125,0.1844758689403534,-0.03420744836330414,-1.919358491897583
1789322978713566000,15.25856591796875,0.25533416867256165,0.05986303091049194,-1.4905437231063843
1789322978732417800,15.277417724609375,0.33352261781692505,0.11483928561210632,-1.035386085510254
1789322978751269600,15.29626953125,0.3304683566093445,0.20463383197784424,-0.577861487865448
1789322978770121500,15.31512158203125,0.30725616216659546,0.24128466844558716,-0.1832541823387146
1789322978788973300,15.333973388671875,0.24311721324920654,0.17592400312423706,0.1301104724407196
1789322978807825200,15.3528251953125,0.22540263831615448,0.042759306728839874,0.4196520745754242
1789322978826677200,15.37167724609375,0.2608317732810974,-0.017714571207761765,0.70797199010849
1789322978845528800,15.39052880859375,0.26877278089523315,-0.16859383881092072,0.9767447710037231
1789322978864381000,15.409380859375,0.208298921585083,-0.23334364593029022,1.206423282623291
1789322978883232800,15.428232666015624,0.13316470384597778,-0.2602209448814392,1.3334795236587524
1789322978902084400,15.44708447265625,0.08185353130102158,-0.19241689145565033,1.4141877889633179
1789322978920936400,15.4659365234375,0.0397050715982914,0.07696675509214401,1.5168100595474243
1789322978939788300,15.484788330078125,0.008551862090826035,0.208298921585083,1.5901117324829102
1789322978958639900,15.503639892578125,-0.0006108472589403391,0.1569877415895462,1.7043402194976807
1789322978977492000,15.522491943359375,0.07757759839296341,0.025655584409832954,1.877210021018982
1789322978996343800,15.54134375,0.2492256760597229,-0.15087927877902985,2.0274784564971924
1789322979024621600,15.56962158203125,0.5357130169868469,-0.25533416867256165,2.219895362854004
1789322979043473200,15.58847314453125,0.629172682762146,-0.28282228112220764,2.26693058013916
1789322979062325000,15.607324951171876,0.5729747414588928,-0.4367557764053345,2.2858667373657227
1789322979081176800,15.6261767578125,0.42637139558792114,-0.5961869359016418,2.290142774581909
1789322979100028700,15.645028564453124,0.4159869849681854,-0.555260181427002,2.216840982437134
1789322979118880500,15.663880615234374,0.4953971207141876,-0.45263782143592834,2.1875205039978027
1789322979137732400,15.682732421875,0.4886777997016907,-0.8215895891189575,2.2486050128936768
1789322979156584200,15.701584228515625,0.45202696323394775,-1.2656755447387695,2.1148295402526855
1789322979175436000,15.72043603515625,0.4330907166004181,-1.0561549663543701,1.8173469305038452
1789322979194287900,15.739287841796875,0.38727715611457825,-0.8502993583679199,1.660359263420105
1789322979213139700,15.7581396484375,0.38849884271621704,-0.6505523324012756,1.3671525716781616
1789322979231991600,15.776991455078125,0.31825143098831177,-0.45019441843032837,0.8863393664360046
1789322979250843400,15.795843505859375,0.20768806338310242,-0.21685077250003815,0.550373375415802
1789322979269695200,15.8146953125,0.1441599577665329,-0.033596597611904144,0.261442631483078
1789322979288547000,15.833547119140626,0.09529217332601547,0.11545012891292572,-0.018936265259981155
1789322979307399000,15.85239892578125,0.042759306728839874,0.25716668367385864,-0.3054236173629761
1789322979326250500,15.87125048828125,-0.020157959312200546,0.45385950803756714,-0.648108959197998
1789322979345102300,15.890102294921874,-0.08796200156211853,0.6939224600791931,-0.9657495021820068
1789322979363954200,15.9089541015625,-0.1447708010673523,0.9352071285247803,-1.2339115142822266
1789322979382806000,15.927805908203124,-0.2480039894580841,1.1080769300460815,-1.5192534923553467
1789322979401657900,15.946657958984375,-0.38666632771492004,1.0793671607971191,-1.803908348083496
1789322979420509700,15.965509765625,-0.53143709897995,1.073258638381958,-2.0341978073120117
1789322979439361500,15.984361572265625,-0.7873821258544922,1.115407109260559,-2.1410961151123047
1789322979458213400,16.00321337890625,-1.0323318243026733,1.0970816612243652,-2.2101216316223145
1789322979477065200,16.022065185546875,-1.1245697736740112,1.058598279953003,-2.437356948852539
1789322979495916800,16.040916748046875,-1.1960389614105225,0.7623373866081238,-2.5405900478363037
1789322979524194600,16.069194580078126,-1.2339115142822266,0.3133646547794342,-2.61694598197937
1789322979543046400,16.08804638671875,-1.0439379215240479,-0.04153761267662048,-2.6505424976348877
1789322979561898200,16.106898193359374,-0.6749862432479858,-0.16370706260204315,-2.7513325214385986
1789322979580750000,16.12575,-0.363454133272171,-0.18875180184841156,-2.773322820663452
1789322979599602000,16.144601806640626,-0.2626643180847168,-0.21318569779396057,-2.524097204208374
1789322979627879400,16.17287939453125,-0.1319430023431778,-0.10017894953489304,-1.9163042306900024
1789322979646731300,16.191731201171876,0.04337015375494957,0.0018325417768210173,-1.5131449699401855
1789322979665583000,16.2105830078125,0.16309621930122375,0.16248537600040436,-1.1306782960891724
1789322979684435000,16.22943505859375,0.19424942135810852,0.16859383881092072,-0.6920899152755737
1789322979703286500,16.24828662109375,0.19180603325366974,0.28221142292022705,-0.25655585527420044
1789322979722138400,16.267138427734373,0.15087927877902985,0.2767138183116913,0.13316470384597778
1789322979740990200,16.285990234375,0.13805148005485535,0.17531315982341766,0.4575245976448059
1789322979759842000,16.304842041015625,0.15454435348510742,0.042759306728839874,0.7226322889328003
1789322979778694000,16.32369384765625,0.1441599577665329,-0.08674030750989914,0.9523108601570129
1789322979797545700,16.342545654296874,0.14171656966209412,-0.15149012207984924,1.1453386545181274
1789322979816397300,16.361397216796874,0.13744063675403595,-0.1453816443681717,1.2400199174880981
1789322979835249200,16.380249267578126,0.09040539711713791,-0.07635590434074402,1.3108782768249512
1789322979854101000,16.39910107421875,0.029320668429136276,0.03665083646774292,1.409911870956421
1789322979872952600,16.41795263671875,-0.007941014133393764,0.024433890357613564,1.5094798803329468
1789322979891804400,16.436804443359375,0.031153209507465363,-0.01832541823387146,1.6438663005828857
1789322979910656300,16.45565625,0.11667182296514511,-0.15332266688346863,1.802075743675232
1789322979929508000,16.474508056640627,0.3042019307613373,-0.35917818546295166,1.9608960151672363
1789322979948360000,16.49335986328125,0.4691306948661804,-0.3689517378807068,2.0445821285247803
1789322979967211500,16.51221142578125,0.6035171151161194,-0.3695625960826874,2.026256799697876
1789322979986063400,16.5310634765625,0.6224533319473267,-0.3793361485004425,2.058020830154419
1789322980004915200,16.549915283203124,0.550373375415802,-0.5045598149299622,2.176525115966797
1789322980023767000,16.56876708984375,0.5540384650230408,-0.5900784730911255,2.1899638175964355
1789322980042618600,16.58761865234375,0.6065713167190552,-0.6884248852729797,2.1746926307678223
1789322980061470500,16.606470458984376,0.5821374654769897,-1.040272831916809,2.2192845344543457
1789322980080322000,16.625322021484376,0.5296045541763306,-1.2833900451660156,2.0659618377685547
1789322980099174000,16.644173828125,0.5986303091049194,-1.0983033180236816,1.8436133861541748
1789322980118025700,16.663025634765624,0.5729747414588928,-0.818535327911377,1.687847375869751
1789322980136877600,16.681877685546876,0.3799470067024231,-0.8112051486968994,1.641422986984253
1789322980155729200,16.700729248046876,0.314586341381073,-0.6615476012229919,1.3702067136764526
1789322980174581000,16.7195810546875,0.23334364593029022,-0.47646087408065796,0.9743013978004456
1789322980193432800,16.738432861328125,0.17714570462703705,-0.18997350335121155,0.527161180973053
1789322980212284400,16.757284423828125,0.11300674080848694,0.0024433890357613564,0.24678228795528412
1789322980231136300,16.77613623046875,0.03665083646774292,0.1575985997915268,-0.04825693368911743
1789322980249988000,16.794988037109373,0.0024433890357613564,0.2492256760597229,-0.34635040163993835
1789322980268839700,16.813839599609373,-0.007330167107284069,0.45080527663230896,-0.7244648337364197
1789322980287691500,16.83269140625,-0.09345962852239609,0.7140804529190063,-1.1960389614105225
1789322980306543400,16.85154345703125,-0.20463383197784424,0.9126058220863342,-1.6334819793701172
1789322980325395000,16.87039501953125,-0.27854636311531067,1.1422843933105469,-1.8741557598114014
1789322980344246800,16.889246826171874,-0.418430358171463,1.1520578861236572,-2.0390844345092773
1789322980363098600,16.9080986328125,-0.6933116316795349,1.0042328834533691,-2.084287166595459
1789322980381950200,16.9269501953125,-0.9455915689468384,0.9920159578323364,-2.1777467727661133
1789322980400802000,16.945802001953126,-1.0445488691329956,0.943759024143219,-2.4043712615966797
1789322980419653600,16.964653564453126,-1.1538904905319214,0.7232431769371033,-2.535703420639038
1789322980438505500,16.98350537109375,-1.152668833732605,0.31031039357185364,-2.6499316692352295
1789322980457357300,17.002357421875,-1.0506572723388672,0.129499614238739,-2.7256767749786377
1789322980476209000,17.021208984375,-0.7995990514755249,0.0653606578707695,-2.86556077003479
1789322980495060700,17.040060791015627,-0.49356457591056824,-0.08979454636573792,-2.9529120922088623
1789322980513912300,17.058912353515623,-0.33352261781692505,-0.11117420345544815,-2.825244903564453
1789322980532764200,17.07776416015625,-0.11300674080848694,0.004275931045413017,-2.538146734237671
1789322980551616000,17.096615966796875,0.0659715011715889,0.012827792204916477,-2.0739028453826904
1789322980570467600,17.115467529296875,0.021990500390529633,0.09590301662683487,-1.6298168897628784
1789322980589319400,17.1343193359375,0.0030542362947016954,0.17470231652259827,-1.323706030845642
1789322980608171000,17.1531708984375,0.04092676565051079,0.12278030067682266,-0.9443698525428772
1789322980627022800,17.17202294921875,0.1172826737165451,0.08429691940546036,-0.43919917941093445
1789322980645874400,17.19087451171875,0.3023693859577179,0.15454435348510742,-0.0012216945178806782
1789322980664726300,17.209726318359376,0.4074351191520691,0.21501824259757996,0.25716668367385864
1789322980683577900,17.228577880859376,0.36039987206459045,0.10873081535100937,0.46729815006256104
1789322980702429700,17.2474296875,0.32191649079322815,-0.07757759839296341,0.7409577369689941
1789322980721281300,17.26628125,0.2638860046863556,-0.1459924876689911,1.0408837795257568
1789322980740133000,17.285133056640625,0.18019993603229523,-0.20402298867702484,1.3011046648025513
1789322980758984700,17.303984619140625,0.12155860662460327,-0.22967857122421265,1.376926064491272
1789322980777836500,17.32283642578125,0.1044548824429512,-0.10873081535100937,1.3476054668426514
1789322980796688400,17.3416884765625,0.08246438205242157,0.20707722008228302,1.38731050491333
1789322980815540000,17.3605400390625,0.06047387793660164,0.20219044387340546,1.540633201599121
1789322980834391800,17.379391845703125,0.13927318155765533,0.055587101727724075,1.7880263328552246
1789322980853243400,17.398243408203125,0.34573954343795776,-0.04886778071522713,1.9590635299682617
1789322980872095000,17.417094970703126,0.5625903010368347,-0.22662433981895447,1.9896059036254883
1789322980890946800,17.43594677734375,0.5699204802513123,-0.3506263196468353,2.051912307739258
1789322980909798700,17.454798583984374,0.45141613483428955,-0.42881476879119873,2.1154403686523438
1789322980928650200,17.473650146484374,0.38788801431655884,-0.4599680006504059,2.205845832824707
1789322980947501800,17.492501708984374,0.40132665634155273,-0.5717530250549316,2.3371779918670654
1789322980966353700,17.511353759765626,0.49051034450531006,-0.6823163628578186,2.4471304416656494
1789322980985205200,17.530205322265626,0.5595360994338989,-0.8002098798751831,2.3811590671539307
1789322981004057000,17.54905712890625,0.5448757410049438,-1.0250016450881958,2.164919137954712
1789322981022908700,17.56790869140625,0.5900784730911255,-1.0561549663543701,1.8833184242248535
1789322981041760500,17.586760498046875,0.5662553906440735,-0.7171346545219421,1.6206541061401367
1789322981060612000,17.605612060546875,0.555260181427002,-0.5980194807052612,1.4703856706619263
1789322981079464000,17.6244638671875,0.3701734244823456,-0.7794411182403564,1.4062467813491821
1789322981098315500,17.6433154296875,0.24128466844558716,-0.6994200944900513,1.1538904905319214
1789322981117167000,17.6621669921875,0.14904673397541046,-0.4947862923145294,0.8148702383041382
1789322981136019000,17.68101904296875,0.07024743407964706,-0.24678228795528412,0.4960079789161682
1789322981154870500,17.69987060546875,-0.01588202826678753,-0.05131116881966591,0.1954711228609085
1789322981173722400,17.718722412109376,-0.07207997888326645,0.1429382562637329,-0.2113531529903412
1789322981192574000,17.737573974609376,-0.09773556143045425,0.3836120665073395,-0.5491516590118408
1789322981211425800,17.75642578125,-0.17409147322177887,0.6181774139404297,-0.8594620823860168
1789322981230277400,17.77527734375,-0.25777754187583923,0.8222004175186157,-1.1202938556671143
1789322981249129000,17.79412890625,-0.31886225938796997,1.0482138395309448,-1.4581687450408936
1789322981267980800,17.812980712890624,-0.4306473135948181,1.123958945274353,-1.7507646083831787
1789322981286832400,17.831832275390624,-0.6029062271118164,1.081810474395752,-1.9535658359527588
1789322981305684000,17.85068408203125,-0.8246437907218933,1.0970816612243652,-2.0708484649658203
1789322981324535800,17.869535888671876,-0.9419264793395996,1.068982720375061,-2.277925729751587
1789322981343387400,17.888387451171877,-1.0176715850830078,0.9407047629356384,-2.5259296894073486
1789322981362239000,17.907239013671877,-1.1618314981460571,0.5754181146621704,-2.561969757080078
1789322981381090800,17.9260908203125,-1.1960389614105225,0.2742704153060913,-2.5399792194366455
1789322981399942400,17.9449423828125,-1.0787562131881714,0.10140064358711243,-2.5692999362945557
1789322981418794000,17.9637939453125,-0.8008207678794861,-0.04886778071522713,-2.7159032821655273
1789322981437645800,17.982645751953125,-0.4831801950931549,-0.1301104724407196,-2.81302809715271
1789322981456497400,18.001497314453125,-0.3011476993560791,-0.09590301662683487,-2.7446131706237793
1789322981475349000,18.020348876953125,-0.11667182296514511,-0.129499614238739,-2.486835479736328
1789322981494200800,18.039200927734374,0.06658235192298889,-0.14965757727622986,-2.0341978073120117
1789322981513052400,18.058052490234374,0.22662433981895447,0.02626643143594265,-1.5968310832977295
1789322981531904000,18.076904052734374,0.33535513281822205,0.12216944992542267,-1.226581335067749
1789322981550755800,18.095755859375,0.2919849753379822,0.1453816443681717,-0.8270871639251709
1789322981569607400,18.114607421875,0.14110571146011353,0.10201149433851242,-0.4282039403915405
1789322981588459000,18.133458984375,0.054365407675504684,0.10750912129878998,-0.009773556143045425
1789322981607310600,18.152310546875,0.10017894953489304,0.15332266688346863,0.3817795515060425
1789322981626162400,18.171162353515626,0.13744063675403595,0.062306419014930725,0.6902574300765991
1789322981645014000,18.190013916015626,0.16798299551010132,-0.12033691257238388,0.9657495021820068
1789322981663865600,18.208865478515627,0.19058434665203094,-0.3133646547794342,1.1856545209884644
1789322981682717200,18.22771728515625,0.1985253542661667,-0.3530697226524353,1.2662863731384277
1789322981701569000,18.246569091796875,0.1575985997915268,-0.29503923654556274,1.2876659631729126
1789322981720420600,18.265420654296875,0.11300674080848694,-0.17836740612983704,1.4154094457626343
1789322981739272200,18.284272216796875,0.11178504675626755,-0.08551861345767975,1.53452467918396
1789322981758123800,18.303123779296875,0.15149012207984924,-0.0024433890357613564,1.6756303310394287
1789322981786401300,18.3314013671875,0.3127537965774536,-0.05619794875383377,1.8735449314117432
1789322981805253000,18.350253173828126,0.4856235682964325,-0.1575985997915268,1.9834973812103271
1789322981824104700,18.369104736328126,0.6316160559654236,-0.29748260974884033,2.078178644180298
1789322981842956300,18.387956298828126,0.6774296164512634,-0.38727715611457825,2.101390838623047
1789322981861807900,18.406807861328126,0.6389462351799011,-0.446529358625412,2.174081802368164
1789322981880659500,18.425659423828126,0.6529957056045532,-0.5412106513977051,2.246161699295044
1789322981899511300,18.44451123046875,0.7104153633117676,-0.578472375869751,2.2131760120391846
1789322981918363000,18.46336279296875,0.679872989654541,-0.8228112459182739,2.1728601455688477
1789322981937214500,18.48221435546875,0.5100574493408203,-1.1691616773605347,2.0995583534240723
1789322981956066000,18.501066162109375,0.45324867963790894,-1.1129636764526367,1.9346296787261963
1789322981974917600,18.519917724609375,0.4349232614040375,-0.7684458494186401,1.77642023563385
1789322981993769200,18.538769287109375,0.4355340898036957,-0.7293516397476196,1.5870575904846191
1789322982012621000,18.55762109375,0.29442837834358215,-0.70797199010849,1.2565127611160278
1789322982031472600,18.57647265625,0.1820324808359146,-0.5302154421806335,0.9284878373146057
1789322982050324200,18.59532421875,0.12094775587320328,-0.2858765125274658,0.7317950129508972
1789322982069175800,18.61417578125,0.11361759155988693,-0.12705622613430023,0.499673068523407
1789322982088027400,18.63302734375,0.06291726976633072,-0.04214845970273018,0.22662433981895447
1789322982106879000,18.65187890625,0.012827792204916477,0.04092676565051079,-0.11972606182098389
1789322982125730800,18.670730712890624,-0.004886778071522713,0.2357870489358902,-0.49234288930892944
1789322982144582400,18.68958251953125,-0.05070032179355621,0.5216635465621948,-0.8307522535324097
1789322982163434000,18.70843408203125,-0.14110571146011353,0.7928797602653503,-1.161220669746399
1789322982182285600,18.72728564453125,-0.2510582208633423,1.0622633695602417,-1.49848473072052
1789322982201137200,18.74613720703125,-0.3555130958557129,1.1734375953674316,-1.7623707056045532
1789322982219988700,18.76498876953125,-0.4434750974178314,1.1099094152450562,-1.9792214632034302
1789322982238840300,18.78384033203125,-0.652384877204895,0.9926267862319946,-2.086730480194092
1789322982257692000,18.80269189453125,-0.9468132257461548,0.8991671800613403,-2.1435394287109375
1789322982276543500,18.82154345703125,-1.0610417127609253,0.8631271719932556,-2.3579468727111816
1789322982295395000,18.84039501953125,-1.0891406536102295,0.7207997441291809,-2.48927903175354
1789322982314247000,18.859246826171876,-1.1068552732467651,0.38605546951293945,-2.543644428253174
1789322982333098500,18.878098388671877,-1.0421054363250732,0.12461283802986145,-2.605340003967285
1789322982351950000,18.8969501953125,-0.8075400590896606,0.08551861345767975,-2.6462666988372803
1789322982370801700,18.9158017578125,-0.46424391865730286,0.1716480851173401,-2.640158176422119
1789322982389653200,18.9346533203125,-0.3164188861846924,0.23151111602783203,-2.4092578887939453
1789322982408504800,18.9535048828125,-0.2895416021347046,0.12400199472904205,-2.122159719467163
1789322982427356400,18.9723564453125,-0.16309621930122375,-0.01710372418165207,-1.8601062297821045
1789322982446208000,18.9912080078125,0.028098974376916885,0.07696675509214401,-1.6347036361694336
1789322982465059600,19.0100595703125,0.18081079423427582,0.33169007301330566,-1.4135769605636597
1789322982483911200,19.0289111328125,0.20341213047504425,0.4282039403915405,-1.1422843933105469
1789322982502762800,19.0477626953125,0.03787253051996231,0.2907632887363434,-0.7244648337364197
1789322982521614300,19.0666142578125,-0.029320668429136276,0.0781884491443634,-0.25472331047058105
1789322982540466000,19.0854658203125,0.07269082218408585,0.045202698558568954,0.18997350335121155
1789322982559317500,19.1043173828125,0.130721315741539,0.05131116881966591,0.6358919739723206
1789322982578169000,19.123169189453126,0.14660334587097168,0.02626643143594265,1.0237799882888794
1789322982597020700,19.142020751953126,0.16126367449760437,-0.07696675509214401,1.465498924255371
1789322982615872300,19.160872314453126,0.2113531529903412,-0.13377554714679718,1.9352405071258545
1789322982634723800,19.179723876953126,0.2736595869064331,-0.11911521852016449,2.1814119815826416
1789322982653575400,19.198575439453126,0.2858765125274658,-0.025655584409832954,2.116051197052002
1789322982672427000,19.217427001953126,0.2748812735080719,0.009773556143045425,1.8711014986038208
1789322982691278600,19.236278564453126,0.33596599102020264,0.0397050715982914,1.5143667459487915
1789322982710130200,19.255130126953127,0.390942245721817,-0.04337015375494957,1.2406307458877563
1789322982728981800,19.273981689453127,0.34879377484321594,-0.21257483959197998,1.1483927965164185
1789322982747833300,19.292833251953127,0.3133646547794342,-0.39949411153793335,1.3120999336242676
1789322982766685000,19.311684814453123,0.35856732726097107,-0.499673068523407,1.7599272727966309
1789322982785536500,19.33053662109375,0.5125008225440979,-0.5772506594657898,2.1172728538513184
1789322982804388000,19.34938818359375,0.6139014959335327,-0.633448600769043,2.179579257965088
1789322982823239700,19.36823974609375,0.5063923597335815,-0.7550072073936462,2.1355984210968018
1789322982842091000,19.387091064453124,0.36162158846855164,-0.8857285380363464,2.0305325984954834
1789322982860942600,19.405942626953124,0.30481278896331787,-0.9052756428718567,1.9077523946762085
1789322982879794200,19.424794189453124,0.2351761907339096,-0.9431481957435608,1.8393374681472778
1789322982898645800,19.443645751953124,0.11545012891292572,-1.110520362854004,1.8026865720748901
1789322982917497300,19.462497314453124,0.06169557198882103,-0.9266552925109863,1.7556513547897339
1789322982936349000,19.481348876953124,0.21807247400283813,-0.5723638534545898,1.5882792472839355
1789322982955200500,19.500200439453124,0.288930743932724,-0.5436540842056274,1.4447301626205444
1789322982974052000,19.519052001953124,0.29442837834358215,-0.577861487865448,1.1251806020736694
1789322982992903700,19.537903564453124,0.21440738439559937,-0.5143333673477173,0.841747522354126
1789322983011755300,19.55675537109375,0.1588202863931656,-0.2767138183116913,0.6145123243331909
1789322983030606600,19.575606689453124,0.12461283802986145,-0.10384403169155121,0.3127537965774536
1789322983049458200,19.594458251953125,0.07024743407964706,0.05925218388438225,-0.05375456064939499
1789322983068309800,19.613309814453125,-0.010995250195264816,0.1692046970129013,-0.4312581717967987
1789322983087161300,19.632161376953125,-0.055587101727724075,0.34879377484321594,-0.726908266544342
1789322983106013000,19.651012939453125,-0.0647498071193695,0.5522059202194214,-1.0262234210968018
1789322983124864500,19.669864501953125,-0.0659715011715889,0.7892146706581116,-1.3995274305343628
1789322983143716000,19.688716064453125,-0.15087927877902985,0.9016105532646179,-1.6896798610687256
1789322983162567400,19.7075673828125,-0.284654825925827,1.0054545402526855,-1.8998113870620728
1789322983181419000,19.7264189453125,-0.5033381581306458,0.9651386737823486,-2.003655433654785
1789322983200270600,19.7452705078125,-0.7898254990577698,0.9498674869537354,-2.0806221961975098
1789322983219122200,19.7641220703125,-0.8985562920570374,0.8704573512077332,-2.2589895725250244
1789322983237973800,19.782973876953125,-0.9144383668899536,0.7366818189620972,-2.4507956504821777
1789322983256825000,19.8018251953125,-0.9303203821182251,0.5051707029342651,-2.5051610469818115
1789322983275676700,19.8206767578125,-0.9425373077392578,0.2877090573310852,-2.6432125568389893
1789322983294528300,19.8395283203125,-0.8191461563110352,-0.021990500390529633,-2.7562191486358643
1789322983313379800,19.8583798828125,-0.5326588153839111,-0.16615045070648193,-2.830131769180298
1789322983332231200,19.877231201171874,-0.28343313932418823,-0.21929416060447693,-2.847846269607544
1789322983351082800,19.896082763671874,-0.1557660549879074,-0.19363857805728912,-2.700021266937256
1789322983369934300,19.914934326171874,0.0012216945178806782,-0.21440738439559937,-2.408647060394287
1789322983388786000,19.933785888671874,0.14171656966209412,-0.24067382514476776,-1.9499008655548096
1789322983407637500,19.952637451171874,0.2999260127544403,-0.05497625470161438,-1.5296379327774048
1789322983426488800,19.97148876953125,0.3970507085323334,0.0018325417768210173,-1.1435060501098633
1789322983445340400,19.99034033203125,0.38422292470932007,0.06291726976633072,-0.7262973785400391
1789322983464192000,20.00919189453125,0.2999260127544403,0.03420744836330414,-0.33535513281822205
1789322983492469200,20.03746923828125,0.33352261781692505,0.02076880633831024,0.21440738439559937
1789322983511320800,20.05632080078125,0.3939964771270752,-0.04459185153245926,0.5137225389480591
1789322983530172200,20.075172119140625,0.3915531039237976,-0.07269082218408585,0.7495095729827881
1789322983549023700,20.094023681640625,0.32130566239356995,-0.20219044387340546,0.9694145917892456
1789322983567875300,20.112875244140625,0.2870981991291046,-0.32313820719718933,1.1123528480529785
1789322983586727000,20.131726806640625,0.2742704153060913,-0.1698155403137207,1.1667182445526123
1789322983605578200,20.150578125,0.2724378705024719,-0.03237490355968475,1.226581335067749
1789322983624429800,20.169429931640625,0.22479179501533508,0.020157959312200546,1.385477900505066
1789322983643281400,20.188281494140625,0.18142163753509521,-0.04214845970273018,1.5638453960418701
1789322983662132700,20.2071328125,0.17286977171897888,-0.10811996459960938,1.6762412786483765
1789322983680984300,20.225984375,0.30786702036857605,-0.21257483959197998,1.7996324300765991
1789322983699836000,20.2448359375,0.5467082858085632,-0.19424942135810852,1.9749455451965332
1789322983718687200,20.263687255859374,0.7684458494186401,-0.22479179501533508,2.1374309062957764
1789322983737538800,20.282538818359374,0.8509102463722229,-0.3762819170951843,2.303581476211548
1789322983756390400,20.301390380859374,0.7757760286331177,-0.6444438695907593,2.4062037467956543
1789322983784667600,20.329667724609376,0.6420004963874817,-0.6340594291687012,2.338399648666382
1789322983803519000,20.34851904296875,0.5821374654769897,-0.6175665855407715,2.2278363704681396
1789322983822370600,20.36737060546875,0.4337015450000763,-0.8906152844429016,2.1527020931243896
1789322983841222100,20.38622216796875,0.2473931461572647,-1.1935955286026,2.0317542552948
1789322983860073500,20.405073486328124,0.1423274129629135,-0.938872218132019,1.7709225416183472
1789322983878925000,20.423925048828124,0.3035911023616791,-0.5528167486190796,1.6640242338180542
1789322983897776400,20.4427763671875,0.3573456406593323,-0.5241069197654724,1.5400222539901733
1789322983916628000,20.4616279296875,0.3805578351020813,-0.4819584786891937,1.0805888175964355
1789322983935479600,20.4804794921875,0.2901524603366852,-0.40132665634155273,0.6358919739723206
1789322983954331000,20.499330810546876,0.08612946420907974,-0.2632751762866974,0.5033381581306458
1789322983973182500,20.518182373046876,0.030542362481355667,-0.05131116881966591,0.3970507085323334
1789322983992033800,20.53703369140625,0.03787253051996231,0.15026842057704926,0.06963659077882767
1789322984010885400,20.555885498046877,-0.024433890357613564,0.2870981991291046,-0.32130566239356995
1789322984029737000,20.574737060546877,-0.1056765764951706,0.48012593388557434,-0.6022953987121582
1789322984048588300,20.59358837890625,-0.17348061501979828,0.7281299233436584,-0.8845068216323853
1789322984067439900,20.61243994140625,-0.22967857122421265,0.9938485026359558,-1.2339115142822266
1789322984086291200,20.631291259765625,-0.3164188861846924,1.2094775438308716,-1.566288709640503
1789322984105142800,20.650142822265625,-0.4947862923145294,1.3372210264205933,-1.8521652221679688
1789322984123994000,20.668994140625,-0.6694886088371277,1.3384426832199097,-2.0635182857513428
1789322984142845700,20.687845703125,-0.8875610828399658,1.1587772369384766,-2.1661407947540283
1789322984161697300,20.706697265625,-1.0695935487747192,0.8643488883972168,-2.164919137954712
1789322984180548600,20.725548583984374,-1.1044118404388428,0.7476770281791687,-2.312133312225342
1789322984199400200,20.744400146484374,-1.1129636764526367,0.5167768001556396,-2.4385786056518555
1789322984218251500,20.76325146484375,-1.1074661016464233,0.26877278089523315,-2.5131020545959473
1789322984237103000,20.78210302734375,-0.9840749502182007,0.16370706260204315,-2.6334388256073
1789322984255954400,20.800954345703126,-0.8050966858863831,0.04825693368911743,-2.720790147781372
1789322984274806000,20.819805908203126,-0.5638120174407959,-0.0781884491443634,-2.795924186706543
1789322984293657300,20.8386572265625,-0.3836120665073395,-0.06291726976633072,-2.731785297393799
1789322984312509000,20.857509033203126,-0.2596100866794586,0.01832541823387146,-2.457514762878418
1789322984331360300,20.8763603515625,-0.09040539711713791,0.1325538605451584,-1.9853299856185913
1789322984350211800,20.8952119140625,0.03420744836330414,0.2492256760597229,-1.4587795734405518
1789322984369063200,20.914063232421874,0.05375456064939499,0.3243598937988281,-1.0109522342681885
1789322984387914800,20.932914794921874,0.07207997888326645,0.34879377484321594,-0.5558710098266602
1789322984406766000,20.95176611328125,0.055587101727724075,0.38910970091819763,-0.12827792763710022
1789322984425617700,20.97061767578125,0.02626643143594265,0.2583884000778198,0.2345653474330902
1789322984444469000,20.989468994140626,0.07391251623630524,0.20646637678146362,0.577861487865448
1789322984463320600,21.008320556640626,0.10384403169155121,0.13988402485847473,0.8441908955574036
1789322984482172000,21.027171875,0.08796200156211853,-0.06902574002742767,1.0531007051467896
1789322984501023200,21.046023193359375,0.08490777015686035,-0.16431790590286255,1.1954281330108643
1789322984519874800,21.064874755859375,0.08857285231351852,-0.09773556143045425,1.2797249555587769
1789322984538726100,21.08372607421875,0.0653606578707695,0.07024743407964706,1.3249276876449585
1789322984557577700,21.10257763671875,-0.021990500390529633,0.15271180868148804,1.3732609748840332
1789322984576429000,21.121428955078127,-0.10750912129878998,0.07452336698770523,1.4428975582122803
1789322984595280400,21.1402802734375,-0.10628741979598999,-0.12094775587320328,1.598052740097046
1789322984614132000,21.159132080078123,0.08857285231351852,-0.2596100866794586,1.7800853252410889
1789322984632983600,21.177983642578123,0.3671191930770874,-0.1698155403137207,1.9132499694824219
1789322984651835000,21.1968349609375,0.5796940326690674,-0.21257483959197998,1.9560092687606812
1789322984670686200,21.215686279296875,0.6041279435157776,-0.36223241686820984,1.9389055967330933
1789322984689537800,21.234537841796875,0.5748072862625122,-0.6151232123374939,1.9993793964385986
1789322984708389000,21.25338916015625,0.5234960913658142,-0.8044858574867249,2.1209380626678467
1789322984727240400,21.272240478515624,0.503948986530304,-0.7928797602653503,2.2449400424957275
1789322984746092000,21.291092041015624,0.5479300022125244,-0.8215895891189575,2.330458641052246
1789322984764943400,21.309943359375,0.5210527181625366,-1.192984700202942,2.2327229976654053
1789322984783795000,21.328794921875,0.4844018816947937,-1.450838565826416,2.084287166595459
1789322984802646300,21.347646240234376,0.4190412163734436,-1.1948171854019165,1.858884572982788
1789322984821497600,21.36649755859375,0.38666632771492004,-0.9266552925109863,1.863160490989685
1789322984840349200,21.38534912109375,0.43797749280929565,-0.7207997441291809,1.7043402194976807
1789322984859200500,21.404200439453124,0.4086568057537079,-0.5638120174407959,1.334777593612671
1789322984878051800,21.4230517578125,0.27915719151496887,-0.40071579813957214,0.9242119193077087
1789322984896903400,21.4419033203125,0.15087927877902985,-0.25594499707221985,0.6316160559654236
1789322984915754800,21.460754638671876,0.10750912129878998,-0.16737215220928192,0.36039987206459045
1789322984934606300,21.4796064453125,0.1447708010673523,-0.04947862774133682,0.03665083646774292
1789322984953457700,21.498457763671876,0.08918370306491852,0.15454435348510742,-0.3249707520008087
1789322984972309000,21.51730908203125,-0.0030542362947016954,0.37383851408958435,-0.7262973785400391
1789322984991160600,21.53616064453125,-0.08857285231351852,0.6658235192298889,-1.0824213027954102
1789322985010012000,21.555011962890624,-0.13744063675403595,0.9779664874076843,-1.412966012954712
1789322985028863200,21.57386328125,-0.18753011524677277,1.1740484237670898,-1.7464886903762817
1789322985047714800,21.59271484375,-0.288930743932724,1.2333005666732788,-2.048858165740967
1789322985066566100,21.611566162109376,-0.4605788290500641,1.2504043579101562,-2.240053176879883
1789322985085417500,21.63041748046875,-0.7379034757614136,1.222305417060852,-2.3029704093933105
1789322985104269000,21.64926904296875,-0.9895725846290588,1.0763128995895386,-2.341453790664673
1789322985123120400,21.668120361328125,-1.0304993391036987,0.8393041491508484,-2.469120979309082
1789322985141971700,21.6869716796875,-1.041494607925415,0.522885262966156,-2.543644428253174
1789322985160823000,21.705822998046877,-1.0030112266540527,0.37139514088630676,-2.703075408935547
1789322985179674600,21.724674560546877,-0.971247136592865,0.10628741979598999,-2.8087520599365234
1789322985198526000,21.74352587890625,-0.8105943202972412,-0.18142163753509521,-2.7476673126220703
1789322985217377300,21.762377197265625,-0.47707170248031616,-0.2644968628883362,-2.7427804470062256
1789322985236228900,21.781228759765625,-0.24678228795528412,-0.24067382514476776,-2.645045042037964
1789322985255080200,21.800080078125,-0.11239589750766754,-0.20585553348064423,-2.3512275218963623
1789322985273931500,21.818931640625,0.07269082218408585,-0.09651386737823486,-1.9272994995117188
1789322985292782800,21.837782958984373,0.22906772792339325,0.0018325417768210173,-1.4789376258850098
1789322985311634400,21.856634521484374,0.2736595869064331,0.043981000781059265,-1.0640959739685059
1789322985330485800,21.87548583984375,0.2113531529903412,-0.03787253051996231,-0.6365028619766235
1789322985349337000,21.894337158203125,0.20646637678146362,0.0525328628718853,-0.1704263836145401
1789322985368188400,21.9131884765625,0.17653486132621765,0.2626643180847168,0.2516690790653229
1789322985387040000,21.9320400390625,0.2510582208633423,0.13805148005485535,0.6163448691368103
1789322985405891300,21.950891357421874,0.25777754187583923,0.07085828483104706,0.91566002368927
1789322985424742700,21.96974267578125,0.21501824259757996,-0.012827792204916477,1.0805888175964355
1789322985443594000,21.988593994140626,0.1716480851173401,-0.12339114397764206,1.1899304389953613
1789322985462445600,22.007445556640626,0.1575985997915268,-0.15393351018428802,1.248571753501892
1789322985481297000,22.026296875,0.14782503247261047,-0.06963659077882767,1.3182083368301392
1789322985500148200,22.045148193359374,0.12522368133068085,-0.03542914241552353,1.4184637069702148
1789322985528425200,22.07342529296875,0.16004198789596558,-0.12400199472904205,1.612713098526001
1789322985547276500,22.092276611328124,0.32191649079322815,-0.13438639044761658,1.7220547199249268
1789322985566128000,22.111128173828124,0.5002838969230652,-0.14843589067459106,1.8240662813186646
1789322985584979500,22.1299794921875,0.605960488319397,-0.18814095854759216,1.9773889780044556
1789322985603830800,22.148830810546876,0.6432221531867981,-0.24128466844558716,2.087341547012329
1789322985622682000,22.16768212890625,0.6267293095588684,-0.4990622103214264,2.1862986087799072
1789322985641533400,22.186533447265624,0.5796940326690674,-0.7220214605331421,2.3524491786956787
1789322985660384800,22.205384765625,0.573585569858551,-0.6780404448509216,2.3518383502960205
1789322985679236400,22.224236328125,0.648108959197998,-0.546097457408905,2.139874219894409
1789322985698087700,22.243087646484376,0.648108959197998,-0.7727217674255371,2.01526141166687
1789322985716939000,22.26193896484375,0.5717530250549316,-1.2552911043167114,1.9230235815048218
1789322985735790300,22.280790283203125,0.4709632396697998,-1.1331216096878052,1.7623707056045532
1789322985754641700,22.2996416015625,0.5057815313339233,-0.7006418108940125,1.7293848991394043
1789322985773493000,22.318492919921876,0.416597843170166,-0.5809157490730286,1.7489320039749146
1789322985792344300,22.33734423828125,0.3683409094810486,-0.517998456954956,1.5045931339263916
1789322985811195600,22.356195556640625,0.2492256760597229,-0.42698222398757935,1.1031901836395264
1789322985830047200,22.375047119140625,0.20096874237060547,-0.12278030067682266,0.6077930331230164
1789322985848898600,22.393898681640625,0.19058434665203094,0.13560809195041656,0.1820324808359146
1789322985867750000,22.41275,0.07574506103992462,0.22845686972141266,-0.21562908589839935
1789322985886601200,22.431601318359377,-0.030542362481355667,0.3817795515060425,-0.5711421966552734
1789322985905452500,22.45045263671875,-0.09895725548267365,0.6548282504081726,-0.8887827396392822
1789322985924304000,22.469303955078125,-0.13988402485847473,0.9119949340820312,-1.1966497898101807
1789322985943155200,22.4881552734375,-0.20341213047504425,1.1123528480529785,-1.5100908279418945
1789322985962006500,22.507006591796873,-0.3158080279827118,1.175881028175354,-1.728774070739746
1789322985980857900,22.52585791015625,-0.5088357925415039,1.2052016258239746,-1.926688551902771
1789322985999709200,22.544709228515625,-0.7531746625900269,1.1392301321029663,-2.0103747844696045
1789322986018560800,22.563560791015625,-0.9663603901863098,1.161220669746399,-2.139263391494751
1789322986037412000,22.582412109375,-1.105022668838501,1.01706063747406,-2.38482403755188
1789322986056263400,22.601263427734374,-1.222305417060852,0.7067502737045288,-2.4788944721221924
1789322986075114800,22.62011474609375,-1.271173119544983,0.503948986530304,-2.5088260173797607
1789322986093966000,22.638966064453125,-1.2345223426818848,0.3823903799057007,-2.700021266937256
1789322986112817400,22.6578173828125,-1.1318999528884888,0.1966928243637085,-2.804476022720337
1789322986131668700,22.676668701171874,-0.8173136115074158,0.12155860662460327,-2.8460137844085693
1789322986150520000,22.69552001953125,-0.46424391865730286,0.07574506103992462,-2.761716842651367
1789322986169371400,22.714371337890626,-0.3005368411540985,0.054365407675504684,-2.509436845779419
1789322986188222700,22.73322265625,-0.10873081535100937,0.07574506103992462,-2.1264357566833496
1789322986207074000,22.752073974609374,0.06413896381855011,0.14171656966209412,-1.6786845922470093
1789322986225925400,22.77092529296875,0.1569877415895462,0.21685077250003815,-1.2607887983322144
1789322986244776700,22.789776611328126,0.1588202863931656,0.16248537600040436,-0.8667922616004944
1789322986263628000,22.8086279296875,0.0910162404179573,-0.05008947476744652,-0.393385648727417
1789322986282479400,22.827479248046874,0.09407047927379608,0.08918370306491852,0.0397050715982914
1789322986301330700,22.84633056640625,0.17225892841815948,0.17409147322177887,0.3549022674560547
1789322986320182000,22.86518212890625,0.21379654109477997,0.05864133685827255,0.6603258848190308
1789322986339033300,22.884033447265626,0.21685077250003815,-0.047646086663007736,0.9706363081932068
1789322986357884700,22.902884765625,0.2241809368133545,-0.1319430023431778,1.2180293798446655
1789322986376736000,22.921736083984374,0.2217375487089157,-0.182643324136734,1.3359229564666748
1789322986395587300,22.94058740234375,0.1692046970129013,-0.21990501880645752,1.3273711204528809
1789322986414438700,22.959438720703126,0.11972606182098389,-0.13805148005485535,1.3720393180847168
1789322986433290000,22.9782900390625,0.0916270911693573,0.05070032179355621,1.4832135438919067
1789322986452141300,22.997141357421874,0.09895725548267365,0.09712471067905426,1.6279842853546143
1789322986470992400,23.015992431640626,0.1704263836145401,-0.004886778071522713,1.7923022508621216
1789322986489844000,23.034843994140626,0.34451785683631897,-0.10140064358711243,1.9676153659820557
1789322986508695000,23.053695068359374,0.5173876285552979,-0.26877278089523315,2.075735330581665
1789322986527546400,23.07254638671875,0.6542174220085144,-0.3658975064754486,2.1325440406799316
1789322986546397700,23.091397705078126,0.675597071647644,-0.48806697130203247,2.2626545429229736
1789322986565249000,23.1102490234375,0.5974085927009583,-0.7250757217407227,2.3756613731384277
1789322986584100400,23.129100341796875,0.5351021885871887,-0.7421793937683105,2.3139657974243164
1789322986602951700,23.14795166015625,0.5369347333908081,-0.6719319820404053,2.1899638175964355
1789322986621803000,23.166802978515626,0.4874561131000519,-0.8338065147399902,2.1490371227264404
1789322986640654300,23.185654296875,0.3658975064754486,-1.290109395980835,2.156367063522339
1789322986659505700,23.204505615234375,0.2620534598827362,-1.3194301128387451,2.0012118816375732
1789322986678356700,23.223356689453126,0.2980934679508209,-0.8985562920570374,1.7135028839111328
1789322986697208000,23.2422080078125,0.2730487287044525,-0.8240329623222351,1.492987036705017
1789322986716059400,23.261059326171875,0.27060532569885254,-0.7757760286331177,1.0702043771743774
1789322986734910700,23.27991064453125,0.1692046970129013,-0.5955760478973389,0.7678350210189819
1789322986753762000,23.298761962890627,0.0781884491443634,-0.3567348122596741,0.6297835111618042
1789322986772613400,23.31761328125,0.03665083646774292,-0.12278030067682266,0.33535513281822205
1789322986791464700,23.336464599609375,-0.008551862090826035,0.0525328628718853,0.006719320081174374
1789322986810316000,23.35531591796875,-0.03420744836330414,0.21929416060447693,-0.32252734899520874
1789322986829167000,23.3741669921875,-0.08368607610464096,0.47768256068229675,-0.6529957056045532
1789322986848018400,23.393018310546875,-0.14049486815929413,0.7403468489646912,-1.0164498090744019
1789322986866869800,23.411869873046875,-0.21929416060447693,1.0347752571105957,-1.4154094457626343
1789322986885721000,23.43072119140625,-0.35795649886131287,1.0854755640029907,-1.7306066751480103
1789322986904572400,23.449572509765623,-0.4874561131000519,1.1874871253967285,-1.9303536415100098
1789322986923423700,23.468423828125,-0.6774296164512634,1.1636639833450317,-2.029310941696167
1789322986942274800,23.48727490234375,-0.9779664874076843,1.077534556388855,-2.1111645698547363
1789322986961126100,23.506126220703123,-1.1636639833450317,0.9443698525428772,-2.2302796840667725
1789322986979977500,23.5249775390625,-1.155722975730896,0.70797199010849,-2.434302568435669
1789322986998828800,23.543828857421875,-1.1795459985733032,0.469741553068161,-2.5485310554504395
1789322987017680100,23.56268017578125,-1.1587772369384766,0.21318569779396057,-2.6780307292938232
1789322987036531500,23.581531494140624,-0.9810206890106201,-0.037261683493852615,-2.705518960952759
1789322987055382500,23.600382568359375,-0.6407787799835205,-0.12766708433628082,-2.755608320236206
1789322987074233900,23.61923388671875,-0.33596599102020264,-0.09651386737823486,-2.729341983795166
1789322987093085200,23.638085205078124,-0.23151111602783203,-0.11422843486070633,-2.520432233810425
1789322987111936500,23.6569365234375,-0.10262233763933182,-0.12888877093791962,-2.1869094371795654
1789322987130787600,23.67578759765625,0.09773556143045425,0.015271181240677834,-1.806351661682129
1789322987149639000,23.694638916015624,0.20096874237060547,0.1820324808359146,-1.4074684381484985
1789322987168490200,23.713490234375,0.16615045070648193,0.06413896381855011,-0.9590302109718323
1789322987187341600,23.732341552734376,0.16553960740566254,-0.015271181240677834,-0.4746283292770386
1789322987206192600,23.751192626953124,0.1954711228609085,-0.05131116881966591,-0.05925218388438225
1789322987225044000,23.7700439453125,0.20157960057258606,-0.10323318839073181,0.2516690790653229
1789322987243895300,23.788895263671876,0.2211267054080963,-0.12400199472904205,0.5467082858085632
1789322987262746600,23.80774658203125,0.2480039894580841,-0.2211267054080963,0.8747332692146301
