time,seconds_elapsed,z,y,x
1789031863805314600,0.041314453125,1.376516316986084,-9.438391857147217,1.401954709625244
1789031863815317500,0.0513173828125,1.2346598686218262,-9.434202004241943,1.3901333389282227
1789031863825320700,0.06132080078125,1.246181964111328,-9.430610701751709,1.3608043685913085
1789031863835324700,0.07132470703125,1.281346800994873,-9.522937103271484,1.3283330085754395
1789031863845327600,0.08132763671875,1.383399646759033,-9.56363853149414,1.2535142066955565
1789031863855330800,0.091330810546875,1.4878466941833495,-9.587131635284424,1.2684779670715332
1789031863865334800,0.101334716796875,1.6201263359069824,-9.543886367797851,1.3099275833129882
1789031863875337700,0.111337646484375,1.7042226692199707,-9.49914472427368,1.2758102096557618
1789031863885340700,0.121340576171875,1.7497125007629393,-9.456797282409667,1.2220903099060059
1789031863895344600,0.1313447265625,1.650951682281494,-9.471611405181884,1.2413935607910156
1789031863905347600,0.14134765625,1.5240589942932128,-9.535207386779785,1.2418424736022948
1789031863915350800,0.151350830078125,1.4321815055847167,-9.545532381439209,1.2636895637512207
1789031863925353700,0.161353759765625,1.4333786064147949,-9.595062428283692,1.2993033134460448
1789031863935357700,0.171357666015625,1.5538368774414062,-9.709984107971191,1.1730091758728027
1789031863945360600,0.181360595703125,1.6361375595092773,-10.090512534332275,1.211166764831543
1789031863955363800,0.19136376953125,1.622221262359619,-10.71958902053833,1.3013982398986816
1789031863965367600,0.201367431640625,1.7381904052734374,-10.92414362487793,0.9959878906249999
1789031863975370800,0.211370849609375,1.8180968856811521,-10.89840595703125,0.5494692810058593
1789031863985373700,0.221373779296875,1.8463783927917479,-10.816554187774658,0.5208884986877441
1789031863995377700,0.231377685546875,1.7829320487976072,-10.784681378173827,0.6628945846557617
1789031864005380600,0.241380615234375,1.6536451591491699,-10.858751992034911,0.8511386901855468
1789031864015383800,0.2513837890625,1.5153800132751465,-10.970082369232177,0.9463082061767577
1789031864025387800,0.2613876953125,1.4854524925231933,-10.945392164611816,0.8880991783142089
1789031864035390700,0.271390625,1.5159785636901855,-10.8409451171875,0.8179191421508789
1789031864045393700,0.2813935546875,1.6572364616394042,-10.579378585815428,0.886752439880371
1789031864055396600,0.291396728515625,1.6781857261657713,-10.173860679626465,1.0446201118469238
1789031864065400600,0.301400634765625,1.7570447433471679,-9.584438158416747,1.603666199493408
1789031864075403800,0.31140380859375,1.9565116691589355,-9.27588541946411,2.2411223915100096
1789031864085406500,0.321406494140625,1.6840215927124023,-9.311648806762694,2.4363994644165037
1789031864095410700,0.33141064453125,2.179770973968506,-9.172785110473633,2.7789199394226074
1789031864105413600,0.34141357421875,2.0682909591674803,-9.471611405181884,3.0062194595336913
1789031864115416800,0.351416748046875,2.1570260581970215,-9.700706576538085,3.126977005767822
1789031864125420500,0.361420654296875,2.0883423980712887,-9.821015209960937,3.16019655380249
1789031864135423700,0.371423828125,2.018162361907959,-9.664943189239501,3.328089945220947
1789031864145426700,0.3814267578125,1.721131718444824,-9.650278704071045,3.2213983337402343
1789031864155430700,0.3914306640625,1.3651438591003417,-9.717465988159178,3.0533553047180173
1789031864165433600,0.40143359375,1.141585279083252,-9.678260935974121,3.0545524055480957
1789031864175436800,0.411436767578125,1.0173860679626465,-9.580697218322753,2.916287259674072
1789031864185440500,0.4214404296875,1.227626901245117,-9.29533830795288,3.282749751281738
1789031864195443700,0.431443603515625,1.197100830078125,-9.222764070129394,3.4913445709228514
1789031864205446700,0.44144677734375,1.070058504486084,-9.49989291229248,3.2855928657531734
1789031864215449600,0.45144970703125,0.8952817832946777,-9.818172095489501,2.925714428710937
1789031864225453600,0.46145361328125,0.9139864837646484,-9.752181912231444,2.8101941986083983
1789031864235456800,0.471456787109375,0.9217676391601562,-9.293393019104004,2.9851205574035644
1789031864245459500,0.48145947265625,0.8860042518615722,-8.84837078552246,3.031358576965332
1789031864255463700,0.491463623046875,0.955735375213623,-8.505251760101318,2.9932009880065915
1789031864265466600,0.501466552734375,0.8333318153381347,-8.316259466552735,2.998587941741943
1789031864275469600,0.511469482421875,0.726490566253662,-8.334066341400145,3.1748610389709473
1789031864285473500,0.5214736328125,0.5409399375915527,-8.407239129638672,3.089417967224121
1789031864295476700,0.531476806640625,0.5219359619140624,-8.494777127838134,3.1292215698242187
1789031864305479700,0.541479736328125,0.3721487205505371,-8.50375538406372,2.986018383026123
1789031864315483600,0.551483642578125,0.42377369384765623,-8.5678002784729,2.9728502738952636
1789031864325486600,0.561486572265625,0.3963900123596191,-8.610895908355712,2.9358897857666015
1789031864335489800,0.57148974609375,0.2763806541442871,-8.442254328918457,2.8688521392822266
1789031864345492500,0.581492431640625,0.3711012573242187,-8.138489993286132,3.1932664642333983
1789031864355496700,0.59149658203125,0.39220015945434566,-7.959972332000732,3.2583588218688964
1789031864365499600,0.601499755859375,0.356885684967041,-7.84639739074707,3.088819416809082
1789031864375502600,0.611502685546875,0.4707599014282226,-7.930493724060058,3.1904233497619625
1789031864385506600,0.621506591796875,0.34386721343994137,-8.148964625549317,3.0909143432617188
1789031864395509800,0.631509765625,0.2859574607849121,-8.42025760116577,3.084928839111328
1789031864405512400,0.641512451171875,0.364517202758789,-8.79749400024414,3.081038261413574
1789031864415516700,0.6515166015625,0.10489596023559569,-9.05367357788086,2.6785131072998047
1789031864425519600,0.66151953125,-0.22969372177124023,-9.068188425445555,2.734477571105957
1789031864435522600,0.6715224609375,-0.2765302917480469,-9.16156229019165,2.987365121459961
1789031864445526500,0.681526611328125,-0.5119102424621582,-9.165003955078124,2.761412339782715
1789031864455529700,0.69152978515625,-0.5153519073486328,-9.165752143096924,2.929754644012451
1789031864465532400,0.701532470703125,-0.6657376991271973,-9.081057259368896,2.871096703338623
1789031864475534800,0.711534912109375,-0.8295908752441405,-8.799140013885497,3.093158907318115
1789031864485538800,0.721538818359375,-0.735468822479248,-8.563909700775145,3.788225576782226
1789031864495541800,0.731541748046875,-0.8207622566223144,-8.582614401245117,3.844040402984619
1789031864505545000,0.741544921875,-0.9382277755737304,-8.821884929656981,3.510797459411621
1789031864515548700,0.751548583984375,-0.8234557334899902,-9.252841228485106,3.6551977470397947
1789031864525551900,0.7615517578125,-0.9136872085571288,-9.561693242645264,3.284695040130615
1789031864535554800,0.771554931640625,-1.0914566818237303,-9.600599019622802,3.097049485015869
1789031864545559000,0.78155908203125,-1.2378022583007813,-9.562441430664062,3.424606199645996
1789031864555561700,0.791561767578125,-1.5593734687805174,-9.631274728393555,3.3509844985961914
1789031864565565000,0.80156494140625,-1.6328455322265625,-9.700856214141846,3.4088942512512204
1789031864575569000,0.81156884765625,-1.5586252807617187,-9.720309102630615,3.3653497085571287
1789031864585571800,0.82157177734375,-1.3781623306274413,-9.670030867767334,3.551049974822998
1789031864595574800,0.83157470703125,-1.2301707405090332,-9.573664250946045,3.6659716545104977
1789031864605577700,0.84157763671875,-1.1918635139465332,-9.412654189300536,3.4358290199279784
1789031864615581700,0.851581787109375,-1.1637316444396972,-9.318083223724365,3.6840778045654297
1789031864625585000,0.8615849609375,-1.281346800994873,-9.286360051727295,3.8206969367980954
1789031864635587800,0.871587890625,-1.5904980903625487,-9.246257173919677,3.794360718536377
1789031864645591800,0.881591796875,-1.85775085067749,-9.291148455047606,3.837755623626709
1789031864655594800,0.8915947265625,-2.221070952606201,-9.167398156738281,3.621080373382568
1789031864665598000,0.901597900390625,-2.1077952865600587,-9.235782541656494,3.7440824836730955
1789031864675601700,0.9116015625,-2.259378179168701,-9.286509689331055,3.3418566047668454
1789031864685604900,0.92160498046875,-2.379387537384033,-9.249399563598633,3.0609868225097654
1789031864695607800,0.93160791015625,-2.4167969383239747,-9.153930772399901,2.8377275177001953
1789031864705611800,0.94161181640625,-2.3796868125915527,-9.157671712493896,2.784905443572998
1789031864715614700,0.95161474609375,-2.426673020172119,-9.176526050567626,2.7257985900878903
1789031864725618000,0.961617919921875,-2.3527520439147946,-9.225607184600829,2.9673136825561524
1789031864735620900,0.971620849609375,-2.0834043571472165,-9.217526753997802,3.247734552001953
1789031864745624800,0.981624755859375,-1.990030492401123,-9.145251791381835,3.0406361083984375
1789031864755627800,0.991627685546875,-1.8396447006225585,-9.00100114135742,2.9173347229003905
1789031864765630700,1.001630615234375,-1.5875053382873534,-8.823979856109618,3.0142998901367184
1789031864775634700,1.011634765625,-1.6678607315063476,-8.615534674072265,2.9792846908569333
1789031864785638000,1.021637939453125,-1.9303250885009764,-8.336610180664062,3.146130619049072
1789031864795640800,1.031640869140625,-2.1621137367248533,-8.373271393585204,3.486855442810058
1789031864805644800,1.041644775390625,-2.378788986968994,-8.82921717224121,3.508253620147705
1789031864815647700,1.051647705078125,-2.5285762283325193,-9.132981507873534,3.395875779724121
1789031864825651000,1.06165087890625,-2.5260323890686034,-9.247304637145996,3.2228947097778318
1789031864835654000,1.07165380859375,-2.3569418968200684,-9.275137231445312,2.9869162086486813
1789031864845657900,1.081657958984375,-2.25997672958374,-9.163657216644287,2.726546778106689
1789031864855660800,1.091660888671875,-2.3630770385742186,-8.883685260009765,2.5240871002197265
1789031864865663700,1.101663818359375,-2.532466806030273,-8.645162919616698,2.420837153625488
1789031864875667700,1.111667724609375,-2.525134563446045,-8.403947102355957,2.5508722312927246
1789031864885671000,1.1216708984375,-1.9915268684387206,-8.143128759002686,2.8125884002685546
1789031864895673900,1.131673828125,-1.8224363761901854,-8.124274420928955,3.3162685745239258
1789031864905677800,1.141677734375,-1.6928502113342283,-9.118017747497557,3.383006945800781
1789031864915680800,1.1516806640625,-2.0356699615478515,-9.760262342834473,3.471143494415283
1789031864925683700,1.16168359375,-2.574365335083008,-10.076895512390136,3.87531466217041
1789031864935687700,1.171687744140625,-3.0238766967773434,-9.765050746154785,3.761590083312988
1789031864945691000,1.18169091796875,-3.423708374023437,-9.17428148651123,3.2480338272094724
1789031864955693800,1.19169384765625,-3.7906197784423825,-8.979154051208496,3.4289456901550293
1789031864965696800,1.20169677734375,-3.708019821166992,-9.093028267669677,3.490147470092773
1789031864975700700,1.21170068359375,-3.488351818847656,-8.971821808624266,3.2851439529418944
1789031864985703700,1.22170361328125,-3.0214824951171875,-8.958354424285888,3.554042726898193
1789031864995707000,1.231706787109375,-2.6241946571350097,-9.287856427764892,3.7434839332580565
1789031865005710800,1.2417109375,-2.5610475883483885,-9.55121861038208,3.629310441589355
1789031865015714000,1.251714111328125,-2.6713305023193357,-9.555258825683593,3.3898902755737303
1789031865025716700,1.261716796875,-2.8291981742858887,-9.342174877929686,3.1426889541625975
1789031865035720700,1.271720703125,-2.8495488883972167,-8.94533595275879,3.1940146522521973
1789031865045724000,1.281723876953125,-2.702604761505127,-8.505700672912598,3.60716407623291
1789031865055726800,1.291726806640625,-2.5104700782775877,-8.414272097015381,3.8895302345275877
1789031865065729800,1.301729736328125,-2.3790882621765137,-8.573037594604491,3.9215526817321775
1789031865075734000,1.311734130859375,-2.341678861236572,-8.659528129577636,3.9297827499389646
1789031865085736700,1.32173681640625,-2.286612223052978,-8.680776669311523,3.8166567214965816
1789031865095740000,1.331739990234375,-2.3318027793884277,-8.661623056030272,3.6469676788330077
1789031865105744000,1.341743896484375,-2.3919570960998535,-8.749011416625976,3.3418566047668454
1789031865115746800,1.351746826171875,-2.4492682983398435,-8.886229099273681,3.180547267913818
1789031865125749800,1.361749755859375,-2.4793454566955564,-8.915258794403076,3.2814030128479
1789031865135754000,1.37175390625,-2.568230193328857,-8.751405618286132,3.5161844131469726
1789031865145756700,1.381756591796875,-2.5474305664062498,-8.698134631347656,3.782838623046875
1789031865155759900,1.391759765625,-2.539050860595703,-8.782230964660645,3.9029976188659665
1789031865165762800,1.4017626953125,-2.646191384887695,-8.812906673431396,3.8982092155456542
1789031865175766800,1.411766845703125,-2.872293804168701,-8.788515744018554,3.8798037902832028
1789031865185769700,1.421769775390625,-2.944419129180908,-8.838494703674316,3.7548563911437984
1789031865195773000,1.43177294921875,-2.8591256950378416,-8.887725475311278,3.6228760246276854
1789031865205777000,1.44177685546875,-2.7914894981384277,-8.81709652633667,3.576488367462158
1789031865215779800,1.45177978515625,-2.7557261108398436,-8.763077351379394,3.61359849319458
1789031865225782800,1.46178271484375,-2.6996120094299316,-8.84208600616455,3.6240731254577634
1789031865235787000,1.471787109375,-2.6200048042297364,-8.90657981338501,3.4645594398498534
1789031865245789700,1.481789794921875,-2.525583476257324,-8.913014230346679,3.3803134689331054
1789031865255793000,1.49179296875,-2.448520110321045,-8.87395881576538,3.464110527038574
1789031865265795600,1.501795654296875,-2.484732410430908,-8.869020774841308,3.5601778686523438
1789031865275799800,1.5117998046875,-2.5336639068603515,-8.900893584442137,3.6342484825134274
1789031865285802800,1.521802734375,-2.5635914276123044,-8.960449350738525,3.6553473846435547
1789031865295806000,1.531805908203125,-2.4932617538452146,-8.98364317932129,3.7050270690917966
1789031865305809700,1.5418095703125,-2.4595932929992674,-9.051728289031981,3.7548563911437984
1789031865315812900,1.551812744140625,-2.513612467956543,-8.927977990722656,3.822941500854492
1789031865325815800,1.56181591796875,-2.526481301879883,-8.858396504974365,3.7849335494995113
1789031865335819800,1.57181982421875,-2.529324416351318,-8.951171819305419,3.7096658348083493
1789031865345822700,1.58182275390625,-2.578555187988281,-8.96927796936035,3.6444238395690918
1789031865355826000,1.591825927734375,-2.64948341217041,-8.883834897613525,3.7089176467895504
1789031865365829600,1.60182958984375,-2.651279063415527,-8.838345066070556,3.7946599937438963
1789031865375832800,1.611832763671875,-2.621501180267334,-8.831461736297607,3.7850831871032713
1789031865385835800,1.621835693359375,-2.563441790008545,-8.846126221466063,3.7665281242370603
1789031865395838700,1.631838623046875,-2.569726569366455,-8.84178673095703,3.704877431488037
1789031865405842700,1.6418427734375,-2.6038439430236813,-8.885780186462402,3.6258687767028808
1789031865415846000,1.651845947265625,-2.6228479187011717,-8.996212738037109,3.58142640838623
1789031865425848800,1.661848876953125,-2.539499773406982,-8.971971446228027,3.6258687767028808
1789031865435852800,1.671852783203125,-2.4690204620361325,-8.812008847808837,3.699789752960205
1789031865445855700,1.681855712890625,-2.314893730163574,-8.722226285552978,3.7945103561401363
1789031865455858700,1.691858642578125,-2.2828712829589843,-8.750956705474852,3.967790701293945
1789031865465862700,1.701862548828125,-2.327014376068115,-8.676886091613769,3.9845501129150387
1789031865475866400,1.711866455078125,-2.3814824638366696,-8.613140472412109,3.9688381645202635
1789031865485869300,1.721869384765625,-2.4072201316833493,-8.705017961120605,3.872471547698974
1789031865495872500,1.73187255859375,-2.390759995269775,-8.819191452789306,3.7515643638610836
1789031865505876200,1.741876220703125,-2.3535002319335936,-8.913463143157959,3.5143887619018552
1789031865515879400,1.75187939453125,-2.3042694602966307,-8.777442561340331,3.324349005126953
1789031865525882400,1.76188232421875,-2.2936451904296873,-8.657433203124999,3.246387813568115
1789031865535886300,1.77188623046875,-2.3294085777282714,-8.719383171081542,3.2863410537719724
1789031865545889300,1.78188916015625,-2.404526654815674,-8.808866458129883,3.3455975448608397
1789031865555892500,1.791892578125,-2.5790041007995606,-8.84253491897583,3.2652421516418455
1789031865565896400,1.801896484375,-2.881421697998047,-8.800337114715576,3.2604537483215332
1789031865575899400,1.8118994140625,-3.0916625312805173,-8.788366106414795,3.4681507423400877
1789031865585902300,1.82190234375,-2.910002480316162,-8.756044384002685,3.895066825866699
1789031865595905300,1.8319052734375,-2.5650878036499023,-8.81649797592163,3.9661446876525877
1789031865605909200,1.8419091796875,-2.428468671417236,-8.985887743377685,3.8298248306274414
1789031865615912400,1.851912353515625,-2.5561095474243163,-9.028684098052977,3.7428853828430175
1789031865625915400,1.861915283203125,-2.7343279335021973,-8.91974792251587,3.479972113037109
1789031865635919400,1.87191943359375,-2.9384336250305174,-8.917652996063232,3.1352070739746094
1789031865645922300,1.88192236328125,-2.8975825592041016,-9.031527212524413,3.0838813758850097
1789031865655925500,1.891925537109375,-2.914341970825195,-9.157821350097656,3.074454206848144
1789031865665929200,1.90192919921875,-3.0508114654541014,-9.222464794921875,3.033303865814209
1789031865675932400,1.911932373046875,-3.3174656753540037,-8.992771073150633,3.12188932723999
1789031865685935600,1.921935546875,-3.508103982543945,-8.704269773101807,3.437923946380615
1789031865695938300,1.931938232421875,-3.736151690673828,-8.82981572265625,3.7172973526000974
1789031865705942300,1.9419423828125,-3.9405566574096675,-9.125798902893067,3.984400475311279
1789031865715945500,1.951945556640625,-4.077175789642334,-9.15512787322998,4.207659780120849
1789031865725948400,1.961948486328125,-4.1383775695800775,-8.640524153900145,4.074931225585937
1789031865735952400,1.971952392578125,-4.093336650848388,-7.8152727691650385,3.6743513603210447
1789031865745955600,1.98195556640625,-4.15648371963501,-7.375936764526367,3.416376131439209
1789031865755958300,1.991958251953125,-4.515464331054687,-7.792527853393554,3.202543995666504
1789031865765962200,2.001962158203125,-4.4199955398559565,-8.366537701416014,3.1850363960266113
1789031865775965400,2.01196533203125,-4.358644122314453,-8.460210841369628,3.1913211753845214
1789031865785968400,2.021968505859375,-4.4479777717590325,-8.06352155380249,3.2231939849853513
1789031865795971300,2.031971435546875,-4.5139679550170895,-7.664138789367676,3.1853356712341307
1789031865805975600,2.0419755859375,-4.547786053466797,-7.68029965057373,3.1194951255798338
1789031865815978200,2.051978271484375,-4.584596903991699,-8.117091815948486,3.2261867370605466
1789031865825981400,2.0619814453125,-4.59671754989624,-8.441955053710936,3.3028011901855465
1789031865835985400,2.0719853515625,-4.60958638381958,-8.468740184783934,3.1227871528625486
1789031865845988600,2.081988525390625,-4.6724341773986815,-8.179341059112549,2.8535891036987304
1789031865855991300,2.0919912109375,-4.812494974517822,-8.060828076934815,2.6255413955688476
1789031865865995500,2.10199560546875,-5.153070160675049,-8.251017471313476,2.4283190338134766
1789031865875998500,2.11199853515625,-5.388599748992919,-8.510788351440429,2.0561703132629394
1789031865886001400,2.12200146484375,-5.352537086486816,-8.648006034088134,1.806125877380371
1789031865896004400,2.13200439453125,-5.389796849822997,-8.452130410766602,1.8344073844909667
1789031865906008600,2.142008544921875,-5.206041872406005,-8.269871809387206,1.8736124366760252
1789031865916011300,2.15201123046875,-4.96677134399414,-8.194454457092284,1.9502268898010253
1789031865926014500,2.162014404296875,-4.941033676147461,-8.601468739318847,2.016665985870361
1789031865936018400,2.172018310546875,-4.810699323272705,-8.88667801208496,2.227655007171631
1789031865946021400,2.182021484375,-4.733187044525146,-8.709507089233398,2.580650114440918
1789031865956024300,2.1920244140625,-4.78181926574707,-8.43387462310791,2.9109003059387204
1789031865966028500,2.202028564453125,-4.81399135055542,-8.195501920318604,2.842815196228027
1789031865976031200,2.21203125,-4.905270288848877,-8.314912728118896,2.7103859169006346
1789031865986034400,2.222034423828125,-4.855740242004394,-8.570344117736816,2.348113278198242
1789031865996037400,2.232037353515625,-4.684554823303222,-8.592490483093261,2.1065981857299803
1789031866006041300,2.242041259765625,-4.601356315612793,-8.339752570343016,1.9264345108032226
1789031866016044300,2.252044189453125,-4.400692288970947,-8.252064934539794,2.3847744911193844
1789031866026047500,2.262047607421875,-4.247912295532227,-8.547449564361571,3.086275577545166
1789031866036051500,2.272051513671875,-4.266018445587158,-8.819041815185546,3.2760160591125485
1789031866046054400,2.282054443359375,-4.154538430786133,-8.852560638427734,3.374477602386474
1789031866056057300,2.292057373046875,-4.22651411819458,-8.639327053070067,3.4050036735534666
1789031866066061600,2.3020615234375,-4.472667976379395,-8.207323291015625,2.9644705680847165
1789031866076064300,2.312064208984375,-4.474613265228271,-7.799860095977783,2.598905902099609
1789031866086067500,2.3220673828125,-4.677970768737793,-7.8058456001281735,2.23453833694458
1789031866096070400,2.3320703125,-4.680963520812988,-8.355015605926512,1.6593313880920408
1789031866106074400,2.342074462890625,-4.434959300231934,-8.362497486114501,1.0966939979553223
1789031866116077300,2.352077392578125,-4.43076944732666,-8.226776179504395,0.8219593574523926
1789031866126080500,2.36208056640625,-4.62230558013916,-8.31955149383545,0.917428148651123
1789031866136084200,2.372084228515625,-4.752639933013915,-8.423250353240967,0.9983820922851562
1789031866146087400,2.38208740234375,-4.626046520233154,-8.30623374710083,1.2009914077758788
1789031866156090600,2.392090576171875,-4.282029669189453,-7.992593329620361,1.537227103424072
1789031866166094300,2.40209423828125,-3.9501334640502925,-7.611316715240478,1.8927660499572754
1789031866176097300,2.41209716796875,-3.8907273353576657,-7.281814711761474,2.1570260581970215
1789031866186100500,2.4221005859375,-3.919158480072021,-7.085939088439941,2.1238065101623533
1789031866196103400,2.432103515625,-3.9242461585998534,-7.15028325805664,1.9786580345153808
1789031866206107400,2.442107421875,-4.109647149658203,-7.372944012451171,1.671452033996582
1789031866216110600,2.452110595703125,-4.5039422355651855,-7.957129217529296,1.3844471099853515
1789031866226113300,2.46211328125,-4.767753330993652,-8.465897070312499,0.9473556694030761
1789031866236117200,2.4721171875,-4.780023614501953,-8.80332986679077,0.37184944534301756
1789031866246120400,2.482120361328125,-4.712237779998779,-9.033472501373291,-0.15652093353271485
1789031866256123400,2.492123291015625,-4.773888472747802,-9.244012609863281,-0.31708208236694335
1789031866266126300,2.502126220703125,-4.998045603179931,-9.164255767059325,0.04115034103393554
1789031866276130600,2.512130615234375,-5.332934560394286,-8.769362130737305,0.7577648254394531
1789031866286133200,2.52213330078125,-5.7502738372802735,-8.659977042388915,1.406443837738037
1789031866296136400,2.532136474609375,-6.384587639617919,-8.897302281951903,3.0692168907165525
1789031866306140400,2.542140380859375,-7.123647764587402,-9.333046984100342,5.091718743133544
1789031866316143600,2.5521435546875,-7.814823856353759,-9.673472532653808,5.342960279846191
1789031866326146300,2.562146240234375,-8.140435282135009,-9.795876092529296,5.099499898529053
1789031866336150500,2.572150634765625,-7.519888139343261,-9.331849883270262,4.916792384338379
1789031866346153500,2.582153564453125,-6.692242552947998,-8.689605287933349,4.704306986999511
1789031866356156400,2.592156494140625,-6.166416013336181,-8.423998541259765,4.184765226745605
1789031866366159400,2.602159423828125,-5.549460173034667,-8.315361640930176,3.4898481948852536
1789031866376163600,2.61216357421875,-4.8129438873291015,-7.973439716339111,3.0885201416015624
1789031866386166300,2.622166259765625,-4.017320748138427,-7.46317548751831,2.980781066894531
1789031866396169500,2.63216943359375,-3.197157041931152,-7.1984665664672844,3.1886276985168456
1789031866406173400,2.64217333984375,-2.6409540687561033,-7.505373291778564,3.330633784484863
1789031866416176400,2.65217626953125,-2.5288755035400388,-8.047659967803954,3.6170401580810543
1789031866426179300,2.662179443359375,-2.608033795928955,-8.291269986724853,3.8181530975341795
1789031866436183600,2.67218359375,-2.3445219757080076,-8.469638010406493,4.155286618804931
1789031866446186200,2.682186279296875,-1.8360533981323242,-8.671199862670898,4.436605313873291
1789031866456189400,2.692189453125,-1.20667763671875,-8.662670519256592,4.1472061882019045
1789031866466192400,2.7021923828125,-0.9187748870849609,-7.915230688476562,4.1463083625793455
1789031866476196900,2.71219677734375,-1.1555015762329102,-7.157615500640869,4.282179306793212
1789031866486199600,2.722199462890625,-1.39177935256958,-6.797288150787353,4.423137929534912
1789031866496202800,2.73220263671875,-1.6124948181152343,-6.859238118743896,4.2509050476074215
1789031866506206700,2.742206787109375,-2.289904250335693,-7.261015084838867,3.7734114540100094
1789031866516209700,2.752209716796875,-2.786850732421875,-7.756315553283691,3.2085294998168945
1789031866526212600,2.762212646484375,-3.5613749694824217,-8.060379164123535,2.920177837371826
1789031866536215800,2.7722158203125,-4.395754248046875,-8.35007756500244,2.851194902038574
1789031866546219500,2.782219482421875,-5.249287139892578,-8.64396581878662,2.906860090637207
1789031866556222700,2.79222265625,-5.590011963653565,-9.151835845947264,3.066822689056396
1789031866566225700,2.8022255859375,-5.908291146850585,-9.599551556396484,3.293673296356201
1789031866576230000,2.81222998046875,-6.067206282043457,-9.304017288970947,3.426551488494873
1789031866586232600,2.822232666015625,-5.949591125488281,-8.724919762420654,3.59429524230957
1789031866596235800,2.83223583984375,-5.863250228118896,-8.008754190826416,3.4421137992858886
1789031866606239700,2.84223974609375,-5.861454576873779,-7.120655012512207,3.2513258544921873
1789031866616242700,2.85224267578125,-5.885546231079101,-6.700173345947265,3.0725089179992673
1789031866626245600,2.86224560546875,-5.928492223358154,-6.7106479782104484,3.1311668586730956
1789031866636248600,2.87224853515625,-5.9774237197875975,-6.726210289001465,2.9713538978576657
1789031866646252500,2.88225244140625,-5.987748714447021,-6.788609169769287,2.6179098777770995
1789031866656255700,2.892255859375,-5.886444056701659,-6.62026686553955,2.3699603683471677
1789031866666258700,2.9022587890625,-6.05867693862915,-6.345382587432861,2.204610816192627
1789031866676262700,2.9122626953125,-6.4257379806518555,-6.46733723449707,1.7604864082336424
1789031866686265600,2.922265625,-6.8779428192138665,-7.059153957366943,1.1809399688720703
1789031866696268800,2.932268798828125,-7.43100340270996,-7.634061631011963,0.9047089523315429
1789031866706271700,2.942271728515625,-7.942913645172118,-7.8399629737854,0.8454524612426757
1789031866716275700,2.952275634765625,-8.591891932678221,-7.876474549102783,0.9464578437805176
1789031866726278700,2.962278564453125,-9.057863430786131,-7.782651771545409,1.1399392654418945
1789031866736281600,2.972281494140625,-9.102455436706542,-7.485920403289795,1.543062969970703
1789031866746285600,2.98228564453125,-8.88712692489624,-7.078157933044433,1.7401356941223143
1789031866756288800,2.992288818359375,-8.647407483673096,-6.967875019073486,1.9123685760498046
1789031866766291700,3.002291748046875,-8.511237264251708,-7.258022332763671,2.0802619674682616
1789031866776295700,3.012295654296875,-8.321047869873047,-7.615057655334472,2.1224597717285154
1789031866786298600,3.022298583984375,-7.949198424530029,-7.553855875396728,2.3579893600463864
1789031866796301600,3.032301513671875,-7.362020467376708,-7.3663599578857415,2.57915373840332
1789031866806304800,3.0423046875,-6.583007102203369,-7.257124507141113,2.601599378967285
1789031866816308700,3.052308837890625,-5.871330658721924,-6.968473569488525,2.6951228813171384
1789031866826311700,3.062311767578125,-5.458330872344971,-6.834099001312255,2.805854708099365
1789031866836314600,3.072314697265625,-5.218761068725586,-7.057956856536864,2.6316765373229978
1789031866846318800,3.08231884765625,-5.078251358795166,-7.420678408050537,2.2092495819091797
1789031866856321800,3.09232177734375,-4.934599259185791,-7.79552060546875,1.7420809829711914
1789031866866324700,3.10232470703125,-4.983680393218994,-8.135048328399657,1.4496891052246093
1789031866876327700,3.11232763671875,-4.931756144714355,-8.617629600524902,1.316362000274658
1789031866886332000,3.122331787109375,-4.923825351715087,-9.128941292572021,1.2786533241271971
1789031866896334600,3.13233447265625,-5.269338578796386,-9.30162308731079,1.178545767211914
1789031866906337800,3.142337890625,-5.897517239379883,-9.210044873809814,0.958877764892578
1789031866916341800,3.152341796875,-6.484246283721923,-9.09796630859375,0.5243301635742187
1789031866926344700,3.1623447265625,-6.957400386810303,-8.908076189422607,0.3687070556640625
1789031866936347600,3.17234765625,-6.860584857177734,-8.65054987335205,0.4836287353515625
1789031866946351900,3.182351806640625,-6.446238332366943,-8.368931903076172,0.3904045082092285
1789031866956354600,3.1923544921875,-5.895272675323486,-7.997232095336914,0.4857236618041992
1789031866966357800,3.202357666015625,-5.3119852958679195,-7.525574368286132,0.6887818901062012
1789031866976360700,3.212360595703125,-4.835988078308105,-7.053318090820312,0.8370727554321289
1789031866986364700,3.22236474609375,-4.3436803619384765,-6.6891001632690426,0.9922469505310058
1789031866996367600,3.23236767578125,-3.841047650909424,-6.572831745147704,1.196352642059326
1789031867006370800,3.242370849609375,-3.4305917037963867,-6.61443099899292,1.3813047203063964
1789031867016374500,3.25237451171875,-2.936039423370361,-6.711845079040527,1.55129303817749
1789031867026377700,3.262377685546875,-2.466326985168457,-6.866869636535644,1.553238327026367
1789031867036380700,3.272380615234375,-2.1164742675781247,-7.004985144805908,1.376516316986084
1789031867046383600,3.282383544921875,-1.9823989746093749,-7.258321607971191,1.3774141426086426
1789031867056387600,3.2923876953125,-2.3253683624267576,-7.502979090118408,1.3504793739318848
1789031867066390800,3.302390869140625,-2.7373206855773926,-7.76978293762207,1.1215338401794432
1789031867076393700,3.312393798828125,-2.9536966606140136,-8.221089950561524,0.5901707092285156
1789031867086397700,3.322397705078125,-3.3641526077270507,-8.538620945739746,0.5135562561035156
1789031867096400600,3.332400634765625,-3.6885669326782224,-8.85495484008789,0.5047276374816895
1789031867106403600,3.342403564453125,-3.7078701835632324,-9.231293413543701,0.18375497741699218
1789031867116407600,3.352407470703125,-3.8560114112854,-9.484779514312743,0.1370680450439453
1789031867126410800,3.36241064453125,-4.17503878250122,-9.470414304351806,0.2380734275817871
1789031867136413700,3.37241357421875,-4.53282229309082,-9.562740705871581,0.4632780212402344
1789031867146416600,3.382416748046875,-4.731840306091308,-9.892990897369383,0.9382277755737304
1789031867156420600,3.392420654296875,-5.271134230041503,-10.1889740776062,1.2165537185668944
1789031867166423800,3.402423828125,-5.666177503967285,-10.398017810058594,1.3308768478393553
1789031867176426800,3.4124267578125,-5.704784005737304,-10.552892729949951,1.5435118827819823
1789031867186430700,3.4224306640625,-5.346252307128906,-10.746823064422607,1.597979970550537
1789031867196433700,3.43243359375,-4.759223987579346,-11.093383754730224,1.6831237670898436
1789031867206436600,3.4424365234375,-4.3914147575378415,-11.091737741088867,1.6136919189453125
1789031867216439800,3.452439697265625,-4.238634764099121,-10.315118577575683,1.366939510345459
1789031867226443800,3.46244384765625,-4.107402585601807,-9.14300722732544,0.9277531433105468
1789031867236446700,3.47244677734375,-4.012981257629394,-8.628553145599366,0.6464344482421874
1789031867246449700,3.48244970703125,-4.1760862457275385,-8.879794682312012,0.41359833679199215
1789031867256453600,3.49245361328125,-4.382735776519775,-9.198522778320312,0.4412812934875488
1789031867266456600,3.50245654296875,-4.412663297271728,-9.310750981140137,0.8572738319396972
1789031867276459800,3.512459716796875,-4.106654397583007,-9.334393722534179,1.185578734588623
1789031867286462700,3.522462646484375,-2.8309938255310056,-9.313145182800293,1.7037737564086912
1789031867296466700,3.532466796875,-1.8742109870910644,-9.046790248107909,2.126350349426269
1789031867306469600,3.5424697265625,-1.7634791603088378,-8.672546601104736,2.3861212295532224
1789031867316472800,3.552472900390625,-2.2622212936401365,-8.326734098815917,2.3343466186523436
1789031867326476800,3.562476806640625,-2.699911284637451,-8.060528801727294,2.1088427497863766
1789031867336479700,3.572479736328125,-3.085377751922607,-7.769184387207031,1.7254712089538573
1789031867346482700,3.582482666015625,-3.3865982482910155,-7.64827720336914,1.1942577156066894
1789031867356487000,3.59248681640625,-3.520523903656006,-7.929895173645019,0.5632359405517577
1789031867366489600,3.602489501953125,-3.534290563201904,-8.666710734558105,-0.13063362808227538
1789031867376492800,3.612492919921875,-3.301155176544189,-9.45574981918335,-0.7448959915161132
1789031867386495500,3.62249560546875,-3.237409557342529,-10.187926614379883,-1.3486837226867674
1789031867396499700,3.632499755859375,-3.425803300476074,-10.795006372833251,-1.8525135345458983
1789031867406502700,3.642502685546875,-3.4911949333190915,-11.102661286163329,-1.9288287124633787
1789031867416505900,3.652505859375,-3.358765653991699,-11.004050105285645,-1.8459294799804686
1789031867426509600,3.662509521484375,-3.2851439529418944,-10.534487304687499,-1.7194857048034666
1789031867436512800,3.6725126953125,-3.417722869873047,-9.938630366516113,-1.5391723922729492
1789031867446515700,3.682515625,-3.5022681159973144,-9.334393722534179,-1.1768997535705565
1789031867456518700,3.6925185546875,-3.3584663787841795,-8.954463846588133,-0.7965209648132324
1789031867466522600,3.702522705078125,-3.145083155822754,-8.985588468170166,-0.514603719329834
1789031867476525000,3.712525146484375,-3.0419828468322754,-9.166949243927002,0.05252279891967773
1789031867486528000,3.722528076171875,-3.3315316101074215,-9.12968948059082,0.4255693450927734
1789031867496532000,3.732531982421875,-3.5206735412597654,-9.112481156158447,0.7790133651733397
1789031867506535200,3.74253515625,-3.3647511581420897,-9.197026402282715,1.133804123687744
1789031867516538000,3.7525380859375,-3.2302269523620604,-9.27648396987915,1.2654852149963378
1789031867526541000,3.762541015625,-3.0985458610534664,-9.242665871429443,1.2808978881835937
1789031867536545000,3.772544921875,-2.990357873535156,-9.15512787322998,1.239897184753418
1789031867546548200,3.78254833984375,-2.985868745422363,-9.114875357818603,1.120486376953125
1789031867556551000,3.792551025390625,-2.84086990737915,-9.178172064208983,0.960224503326416
1789031867566555100,3.80255517578125,-2.6810569465637206,-9.336787924194335,0.7317278823852539
1789031867576558000,3.81255810546875,-2.59202257232666,-9.491812481689452,0.5587468124389648
1789031867586561000,3.82256103515625,-2.7507880699157714,-9.448267938995361,0.4305073860168457
1789031867596565000,3.83256494140625,-2.9845220069885254,-9.306860403442382,0.4617816452026367
1789031867606568200,3.842568115234375,-3.056048781585693,-9.050830463409424,0.6552630668640136
1789031867616571000,3.85257080078125,-3.018938655853271,-8.75320126953125,0.7668927192687988
1789031867626574000,3.862573974609375,-2.8746880058288573,-8.662670519256592,0.8330325401306152
1789031867636578000,3.872578125,-2.722207287597656,-8.776844010925293,1.0003273811340332
1789031867646581000,3.8825810546875,-2.801365579986572,-8.954463846588133,1.2885294059753418
1789031867656584000,3.892583984375,-3.0570962448120116,-9.147795630645751,1.467047067260742
1789031867666588200,3.902588134765625,-2.9382839874267574,-9.277681070709228,1.4648025032043457
1789031867676590800,3.9125908203125,-2.6876410011291503,-9.37240167388916,1.5514426757812498
1789031867686594000,3.922593994140625,-2.581996852874756,-9.460538222503661,1.6346411834716796
1789031867696597000,3.932596923828125,-2.6542718154907226,-9.548375495910644,1.6243161888122557
1789031867706601200,3.942601318359375,-2.5567080978393553,-9.564835632324218,1.5933412048339843
1789031867716604000,3.95260400390625,-2.3904607200622556,-9.73018518447876,1.4829086532592772
1789031867726607000,3.962607177734375,-2.456750178527832,-9.836727158355712,1.2442366752624512
1789031867736611000,3.972611083984375,-2.552368607330322,-9.700257663726806,1.1137526847839354
1789031867746614000,3.982614013671875,-2.6657939109802244,-9.531017533874511,1.1358990501403807
1789031867756617000,3.992616943359375,-2.9138930580139157,-9.570521861267089,0.9925462257385254
1789031867766620000,4.002619873046875,-3.031807489776611,-9.676614922332764,0.831236888885498
1789031867776623900,4.012623779296875,-3.0454245117187497,-9.632771104431152,0.7101800674438477
1789031867786627000,4.022626953125,-3.0761002204895016,-9.425373385620116,0.7148188331604004
1789031867796630300,4.03263037109375,-3.278410260772705,-9.320178150177002,0.886752439880371
1789031867806634000,4.042634033203125,-3.26224939956665,-9.374795875549315,0.9452607429504394
1789031867816637000,4.052636962890625,-3.1530139488220215,-9.477746546936034,0.9962871658325195
1789031867826640100,4.06264013671875,-3.1411925781249996,-9.652223992919922,0.9057564155578612
1789031867836643000,4.07264306640625,-2.9888614974975583,-9.792733702850342,0.898274535369873
1789031867846647000,4.08264697265625,-2.869151414489746,-9.79393080368042,1.0627262619018554
1789031867856650200,4.092650146484375,-2.9994857673645017,-9.714323598480224,1.127519344329834
1789031867866653000,4.10265283203125,-3.4178725074768064,-9.500491462707519,1.0818798751831054
1789031867876657000,4.112656982421875,-3.7015854042053222,-9.164405404663086,1.0770914718627929
1789031867886660000,4.12266015625,-3.7618893585205075,-8.910171115875244,1.1763012031555176
1789031867896663000,4.1326630859375,-3.610755378723144,-8.881590333557128,1.2171522689819336
1789031867906666000,4.142666015625,-3.4388217720031737,-8.980650427246093,1.2837410026550293
1789031867916670200,4.152670166015625,-3.5103485466003415,-9.083152185821532,1.3826514587402343
1789031867926673000,4.1626728515625,-3.6950013496398926,-9.177723151397705,1.4592659118652342
1789031867936676000,4.172676025390625,-3.769221601104736,-9.350255308532715,1.6268600280761718
1789031867946680000,4.18268017578125,-3.7829882606506344,-9.42312882156372,1.6181810470581053
1789031867956683000,4.19268310546875,-3.7831378982543944,-9.308805692291259,1.4945803863525389
1789031867966686000,4.20268603515625,-3.4919431213378904,-9.256133255767821,1.7155951271057128
1789031867976689200,4.212689208984375,-3.2468367263793945,-9.292046280670165,1.8791490280151366
1789031867986693000,4.222693115234375,-3.3206080650329586,-9.339032488250732,1.7666215499877929
1789031867996696000,4.232696044921875,-3.501968840789795,-9.276633607482909,1.6750433364868162
1789031868006699000,4.242698974609375,-3.270629105377197,-9.32706147994995,2.124255422973633
1789031868016703200,4.252703125,-2.8821698860168454,-9.515754498291015,2.690334477996826
1789031868026706000,4.262705810546875,-2.9940988136291504,-9.516801961517334,2.588131994628906
1789031868036709000,4.272709228515625,-2.7537808219909667,-9.606434886169433,2.9703064346313477
1789031868046711800,4.2827119140625,-2.375496959686279,-9.732729023742674,3.3373674766540526
1789031868056716000,4.292716064453125,-2.570325119781494,-9.704297879028319,2.9695582466125487
1789031868066719000,4.302718994140625,-2.809745285797119,-9.685892453765868,2.510769353485107
1789031868076722200,4.31272216796875,-2.96222600402832,-9.687089554595946,2.1930887207031247
1789031868086726000,4.322725830078125,-2.7717373344421383,-9.726893157196045,2.0968717414855957
1789031868096729000,4.33272900390625,-2.6651953605651855,-9.749638072967528,1.8933646003723144
1789031868106732000,4.34273193359375,-2.6783634696960448,-9.6656913772583,1.7135002006530762
1789031868116735000,4.35273486328125,-2.746448579406738,-9.529521157836914,1.599177071380615
1789031868126739000,4.362739013671875,-2.780565953063965,-9.395296227264403,1.5023615417480467
1789031868136742100,4.3727421875,-2.7638065414428707,-9.280075272369384,1.4332289688110351
1789031868146745000,4.3827451171875,-2.8482021499633787,-9.066991324615477,1.2936170845031738
1789031868156749000,4.3927490234375,-2.9761423011779784,-8.908674739837647,1.1671733093261718
1789031868166752000,4.402751953125,-3.158999452972412,-8.901192859649658,1.1221323905944824
1789031868176755000,4.4127548828125,-3.448697853851318,-8.826822970581054,1.1125555839538575
1789031868186758100,4.422758056640625,-3.5761890922546384,-8.662670519256592,1.210418576812744
1789031868196762000,4.43276220703125,-3.4407670608520506,-8.436418462371826,1.413476805114746
1789031868206765000,4.44276513671875,-3.4201170715332028,-8.277802602386474,1.495777487182617
1789031868216768000,4.45276806640625,-3.5384804161071775,-8.246677980804442,1.5433622451782225
1789031868226772000,4.46277197265625,-3.6921582351684568,-8.253860585784912,1.5547347030639647
1789031868236775000,4.47277490234375,-3.8130654190063473,-8.362048573303221,1.392976453399658
1789031868246778000,4.482778076171875,-3.9203555809020996,-8.462455405426025,1.100584575653076
1789031868256781000,4.492781005859375,-3.8711248092651367,-8.45886410293579,0.9135375709533691
1789031868266785000,4.502784912109375,-3.751863639068603,-8.384643851470948,0.7923311119079589
1789031868276788000,4.5127880859375,-3.631555005645752,-8.339602932739258,0.8643067993164062
1789031868286791200,4.522791259765625,-3.6412814498901365,-8.428786944580077,1.2259808876037597
1789031868296795100,4.532795166015625,-3.787178113555908,-8.538172032928466,1.5203180541992187
1789031868306798000,4.542798095703125,-4.043956241607666,-8.546851013946533,1.7362451164245605
1789031868316801000,4.552801025390625,-4.336497756958008,-8.327482286834716,1.9000982925415038
1789031868326804000,4.562803955078125,-4.530577729034423,-8.064569017028807,1.8861819953918455
1789031868336808000,4.572807861328125,-4.6818613464355465,-7.930643361663818,1.6717513092041014
1789031868346811100,4.58281103515625,-4.940734400939941,-8.014440419769286,1.5831658477783201
1789031868356814000,4.59281396484375,-5.231031352233886,-8.33735836868286,1.6285060417175292
1789031868366818000,4.602818115234375,-5.213523752593994,-8.738985697174071,2.0714333488464356
1789031868376821000,4.612821044921875,-5.401917495727539,-8.88682764968872,2.2463597076416013
1789031868386824200,4.62282421875,-5.576245304107665,-8.851363537597656,2.3458687141418455
1789031868396827000,4.632826904296875,-5.430797553253173,-8.974066372680664,2.747795317840576
1789031868406831000,4.6428310546875,-5.166687182617188,-9.13028803100586,2.4794950942993164
1789031868416834000,4.652833984375,-5.175066888427734,-9.288903890991211,2.738068873596191
1789031868426837000,4.6628369140625,-5.443217474365234,-9.452158516693114,3.008314385986328
1789031868436841000,4.672841064453125,-5.437680883026123,-9.64728595199585,2.886808651733398
1789031868446844200,4.68284423828125,-5.007472772216796,-9.836876795959473,2.7033529495239255
1789031868456846800,4.692846923828125,-4.508880276489258,-9.661202249145507,2.384026303100586
1789031868466850000,4.70285009765625,-4.216638036346435,-9.141211576080321,2.1562778701782226
1789031868476854500,4.7128544921875,-4.100818531036377,-8.554332894134522,2.1411644721984864
1789031868486857700,4.722857666015625,-4.2506057723999024,-8.239645013427733,2.291250988769531
1789031868496860700,4.732860595703125,-4.803067805480957,-7.99992557220459,1.947832688140869
1789031868506864600,4.74286474609375,-5.129577056884766,-7.952789727020263,1.5586252807617187
1789031868516867600,4.75286767578125,-5.003282919311523,-8.026860340881347,1.267280866241455
1789031868526870800,4.762870849609375,-4.721664949035644,-8.13370158996582,1.1167454368591307
1789031868536873500,4.77287353515625,-4.5407530860900875,-7.987505651092529,1.1572972274780273
1789031868546877700,4.782877685546875,-4.470273774719238,-7.558195365905761,1.4475941787719726
1789031868556880600,4.792880615234375,-4.5213001976013185,-7.34810417022705,1.772307778930664
1789031868566883600,4.802883544921875,-4.959888014221191,-7.48861388015747,1.8388965126037597
1789031868576887600,4.812887451171875,-5.560084442901611,-7.785345248413085,1.8611925155639648
1789031868586890800,4.822890869140625,-5.897068326568603,-7.912686849212646,1.9021932189941406
1789031868596893400,4.8328935546875,-5.80997924118042,-7.854328183746337,1.9604022468566893
1789031868606896600,4.842896728515625,-5.520430477905273,-7.925555683135986,1.8920178619384764
1789031868616900600,4.852900634765625,-5.372289250183105,-8.290521798706054,1.7718588661193846
1789031868626903800,4.86290380859375,-5.505167442321777,-9.121609049987793,1.6603788513183593
1789031868636906500,4.872906494140625,-5.827337203216552,-9.976339042663573,1.3518261123657225
1789031868646910700,4.88291064453125,-6.0519432464599605,-9.829394915771484,1.0057143348693847
1789031868656913700,4.89291357421875,-6.091597211456299,-8.601618376922607,0.8415618835449218
1789031868666916600,4.90291650390625,-5.895123037719726,-7.370549810791015,0.8810662109374999
1789031868676919800,4.912919921875,-5.702240166473389,-6.986130806732177,0.8985738105773925
1789031868686923800,4.922923828125,-5.217863243103027,-7.480084536743163,0.8804676605224608
1789031868696926700,4.9329267578125,-4.880131171417236,-8.136843979644775,0.8665513633728027
1789031868706929700,4.9429296875,-5.105036489868164,-8.570793030548096,0.8135796516418456
1789031868716933600,4.95293359375,-5.1213469886779786,-8.619125976562499,1.0245686729431152
1789031868726936600,4.9629365234375,-4.824017070007324,-8.754847283172607,1.2069769119262694
1789031868736939800,4.972939697265625,-4.46279189453125,-8.917652996063232,1.3412018424987793
1789031868746942700,4.982942626953125,-4.327220225524902,-8.980800064849854,1.4918869094848632
1789031868756946700,4.99294677734375,-4.1654619758605955,-8.724021936798096,1.7304092498779295
1789031868766949600,5.00294970703125,-3.9420530334472654,-8.158391794586182,1.9023428565979004
1789031868776952800,5.012952880859375,-3.997119671630859,-7.858518036651611,1.8382979621887205
1789031868786956500,5.02295654296875,-4.105906209564209,-7.831583267974853,1.5483002861022948
1789031868796959700,5.032959716796875,-4.178929360198975,-7.9643118225097655,1.281945351409912
1789031868806962700,5.042962646484375,-4.171896392822266,-8.112303412628174,1.22583125
1789031868816965600,5.052965576171875,-4.2205286140441896,-8.378508709716796,1.2226888603210448
1789031868826969600,5.062969482421875,-4.1858126899719235,-8.52320827255249,1.1546037506103515
1789031868836972800,5.072972900390625,-3.930231662750244,-8.487444885253906,1.1221323905944824
1789031868846975500,5.0829755859375,-3.794809631347656,-8.211363506317138,0.9867103591918944
1789031868856979700,5.092979736328125,-3.850624457550049,-8.170961353302001,0.7894879974365234
1789031868866982700,5.102982666015625,-4.067598983001709,-8.476670977783202,0.7490858444213867
1789031868876985600,5.112985595703125,-4.245218818664551,-8.811111022186278,0.9665092826843261
1789031868886988500,5.122988525390625,-4.0538323234558105,-8.96942760696411,1.3678373359680176
1789031868896992800,5.13299267578125,-3.8365585227966306,-8.986187018585204,1.5795745452880858
1789031868906995500,5.142995361328125,-3.9496845512390135,-8.674192614746094,1.7344494651794433
1789031868916998700,5.15299853515625,-4.294748865509033,-8.582015850830077,1.805527326965332
1789031868927001600,5.163001708984375,-4.888810152435302,-8.7087589012146,1.748665037536621
1789031868937005800,5.173005859375,-5.311237107849121,-8.88667801208496,1.5614683952331543
1789031868947008500,5.183008544921875,-5.4035635093688965,-9.00115077896118,1.4776713371276855
1789031868957011700,5.19301171875,-5.175964714050292,-8.897601557159422,1.6093524284362792
1789031868967015700,5.203015625,-5.022885445404053,-8.586056066131592,1.7868226264953613
1789031868977018600,5.2130185546875,-5.221604183197021,-8.330325401306151,1.699583903503418
1789031868987021600,5.223021484375,-5.69445901107788,-8.235006247711182,1.3425485809326172
1789031868997024500,5.2330244140625,-5.961711771392822,-8.196250108337402,1.0121487518310546
1789031869007028500,5.243028564453125,-5.936722291564941,-8.052897283935547,0.9817723182678222
1789031869017031700,5.25303173828125,-5.828534304046631,-7.933187200927734,1.018882444000244
1789031869027035000,5.263034912109375,-5.768529624938965,-7.708581157684326,1.038185694885254
1789031869037038600,5.27303857421875,-5.576694216918945,-7.522581616210937,1.0721534309387206
1789031869047041500,5.28304150390625,-5.342062454223632,-7.513902635192871,1.2161048057556152
1789031869057044700,5.293044677734375,-5.317372249603271,-7.646481552124023,1.207276187133789
1789031869067047700,5.303047607421875,-5.504119979095458,-7.806294512939453,1.1053729789733886
1789031869077051600,5.3130517578125,-5.690119520568848,-7.860463325500488,0.9042600395202636
1789031869087054800,5.323054931640625,-5.522675041961669,-7.805097412109374,0.7600093894958496
1789031869097057500,5.3330576171875,-5.026776023101807,-7.581239556884765,0.9132382957458496
1789031869107061500,5.3430615234375,-4.653729476928711,-7.640944960784911,1.0076596237182616
1789031869117064700,5.353064697265625,-4.4662335594177245,-7.802403935241699,1.0019733947753906
1789031869127067600,5.363067626953125,-4.51351904220581,-7.925705320739746,1.035492218017578
1789031869137070600,5.373070556640625,-4.770297170257568,-8.069058145141602,1.0863690032958984
1789031869147074800,5.38307470703125,-5.1152118469238275,-8.460510116577147,1.0748469078063965
1789031869157077500,5.393077392578125,-5.298667549133301,-8.84881969833374,1.1429320175170898
1789031869167080700,5.403080810546875,-5.284451976776123,-8.8742580909729,1.4384662849426268
1789031869177084700,5.413084716796875,-5.276970096588134,-8.865429472351074,1.5976806953430174
1789031869187087600,5.423087646484375,-5.274575894927978,-8.703820860290527,1.6174328590393066
1789031869197090600,5.433090576171875,-5.076455707550049,-8.47128402404785,1.7287632362365721
1789031869207093800,5.44309375,-4.945373166656494,-8.335263442230223,1.7600374954223632
1789031869217097700,5.45309765625,-4.8138417129516595,-8.400355799865721,1.590348452758789
1789031869227100700,5.4631005859375,-4.71762473373413,-8.625859668731689,1.1917138763427733
1789031869237103600,5.473103515625,-4.614674062347412,-8.845228395843506,0.9376292251586914
1789031869247106600,5.4831064453125,-4.5516766311645505,-8.95745659866333,0.8670002761840819
1789031869257110500,5.493110595703125,-4.5802574134826655,-8.923039949798584,0.7371148361206055
1789031869267113700,5.50311376953125,-4.6724341773986815,-8.812457760620116,0.7055413017272949
1789031869277116400,5.513116455078125,-4.854393503570557,-8.67568899078369,0.8789712844848633
1789031869287120600,5.52312060546875,-4.9723079353332515,-8.553435068511963,1.0758943710327147
1789031869297123600,5.53312353515625,-4.8980876838684075,-8.476371702575683,1.2147580673217773
1789031869307126800,5.543126708984375,-4.698321482849121,-8.462605043029784,1.442207225036621
1789031869317129700,5.553129638671875,-4.753537758636474,-8.527547763061524,1.4827590156555175
1789031869327133700,5.5631337890625,-4.593874435424804,-8.65623610229492,1.3078326568603516
1789031869337136600,5.57313671875,-4.4285248832702635,-8.751854531097411,1.2611457244873046
1789031869347139600,5.5831396484375,-4.416104962158203,-8.771457057189942,1.271171443939209
1789031869357143600,5.5931435546875,-4.27754054107666,-8.776544735717772,1.2310685661315917
1789031869367146800,5.603146728515625,-4.2149920227050774,-8.734945481872558,1.4631564895629883
1789031869377149700,5.613149658203125,-4.09872360458374,-8.736292220306396,1.4541782333374023
1789031869387152600,5.623152587890625,-4.157082270050049,-8.823979856109618,1.470339094543457
1789031869397156600,5.633156494140625,-4.2971430671691895,-9.00773483352661,1.4972738632202147
1789031869407159600,5.64315966796875,-4.574271909332275,-9.124003251647949,1.303044253540039
1789031869417162800,5.653162841796875,-4.721814586639404,-9.164704679870605,1.2886790435791016
1789031869427165700,5.663165771484375,-4.539855260467529,-9.171887284851074,1.2587515228271484
1789031869437169700,5.673169677734375,-4.253299249267578,-9.01476780090332,1.3410522048950195
1789031869447172600,5.683172607421875,-3.9426515838623044,-8.729857803344727,1.5173253021240234
1789031869457175800,5.69317578125,-3.90060341720581,-8.468141634368896,1.453729320526123
1789031869467179500,5.703179443359375,-3.9131729759216305,-8.309675411987305,1.490091258239746
1789031869477182200,5.71318212890625,-4.125658373260498,-8.330325401306151,1.46839380569458
1789031869487185000,5.723184814453125,-4.329913702392578,-8.540715872192383,1.3166612754821776
1789031869497188000,5.73318798828125,-4.131344602203369,-8.953865296173095,1.4251485382080078
1789031869507192000,5.743192138671875,-4.150198940277099,-9.321973801422118,1.456273159790039
1789031869517195000,5.753195068359375,-4.171447480010986,-9.582193594360351,1.4330793312072754
1789031869527198000,5.763197998046875,-4.130746051788329,-9.64070189743042,1.5770307060241697
1789031869537202200,5.7732021484375,-4.20107572555542,-9.463680612182616,1.7428291709899901
1789031869547204900,5.783204833984375,-4.261978230285644,-9.175628224945068,2.054374662017822
1789031869557208000,5.7932080078125,-4.06041637802124,-8.909722203063964,2.1643583007812497
1789031869567211300,5.803211181640625,-3.9395091941833495,-8.884732723236084,2.3150433677673337
1789031869577215000,5.813215087890625,-3.9272389106750487,-9.086294575500487,2.1818659004211423
1789031869587218000,5.823218017578125,-3.8429929397583007,-9.381679205322266,1.995118170928955
1789031869597221000,5.83322119140625,-3.831470844268799,-9.681552963256836,1.7265186721801757
1789031869607225000,5.84322509765625,-3.7618893585205075,-9.811288765716553,1.4621090263366698
1789031869617228000,5.85322802734375,-3.72866981048584,-9.69831237487793,1.1903671379089356
1789031869627231200,5.863231201171875,-3.656694123077392,-9.3715038482666,1.0203788200378416
1789031869637234000,5.87323388671875,-3.4332851806640625,-8.983792816925048,1.0356418556213378
1789031869647238100,5.883238037109375,-3.205387110137939,-8.633640824127196,1.1646294700622557
1789031869657241000,5.893240966796875,-3.026719811248779,-8.309226499176026,1.389983701324463
1789031869667244000,5.903244140625,-2.766799293518066,-8.344840248870849,1.6916531105041503
1789031869677247000,5.9132470703125,-2.446425183868408,-8.860042518615723,1.5108908851623535
1789031869687251200,5.923251220703125,-2.4238299057006834,-9.426420848846435,1.0108020133972166
1789031869697254100,5.933254150390625,-2.485330960845947,-9.795277542114258,0.7948749511718749
1789031869707257000,5.943257080078125,-2.5297733291625977,-9.993547367095946,0.7618050407409668
1789031869717261000,5.953260986328125,-2.4785972686767574,-9.996540119171142,0.9074024291992187
1789031869727264300,5.96326416015625,-2.38776724319458,-9.858424610900878,0.9789292037963867
1789031869737267000,5.973266845703125,-2.2565350646972653,-9.569025485229492,0.9232640151977538
1789031869747270100,5.983270263671875,-2.3904607200622556,-9.425672660827637,0.7517793212890624
1789031869757274000,5.993274169921875,-2.867804676055908,-9.451559966278076,0.63206923828125
1789031869767277000,6.003277099609375,-3.4165257690429685,-9.487173715972899,0.521636686706543
1789031869777280000,6.013280029296875,-3.723881407165527,-9.535955574798583,0.43065702362060543
1789031869787284200,6.0232841796875,-3.61344885559082,-9.663297175598144,0.5288192916870117
1789031869797287000,6.033286865234375,-3.2275334754943845,-9.78689783630371,0.515202269744873
1789031869807290000,6.0432900390625,-3.03899009475708,-9.59476315307617,0.5843348426818847
1789031869817293000,6.05329296875,-3.1649849571228024,-9.022997869110107,1.0274117874145507
1789031869827297000,6.063297119140625,-3.3637036949157713,-8.446893094635008,1.5810709213256835
1789031869837300000,6.073300048828125,-3.388094624328613,-8.106168270874022,1.9961656341552734
1789031869847303200,6.08330322265625,-3.30070626373291,-8.253710948181151,2.1160253547668457
1789031869857306000,6.09330615234375,-3.0430303100585934,-8.831312098693846,1.8103157302856445
1789031869867310000,6.10331005859375,-2.9749452003479,-9.324667278289795,1.4267945518493652
1789031869877313000,6.11331298828125,-3.1293712074279783,-9.510217906951905,1.2298714653015137
1789031869887316000,6.12331591796875,-3.2495302032470703,-9.484629876708984,1.3353659759521483
1789031869897320000,6.13331982421875,-3.303848653411865,-9.338733213043213,1.5075988578796387
1789031869907323100,6.1433232421875,-3.2468367263793945,-9.156773886871337,1.6020201858520506
1789031869917326000,6.153326171875,-2.9583354263305663,-9.120561586761474,1.5144821876525878
1789031869927329000,6.1633291015625,-2.787299645233154,-9.251644127655029,1.2502221794128416
1789031869937333000,6.1733330078125,-2.6307787117004393,-9.504082765197753,1.259050798034668
1789031869947336000,6.1833359375,-2.572270408630371,-9.61481459197998,1.3952210174560546
1789031869957339100,6.193339111328125,-2.8363807792663573,-9.414599478149414,1.427542739868164
1789031869967342000,6.203342041015625,-3.1248820793151855,-9.163657216644287,1.6165350334167479
1789031869977346300,6.21334619140625,-3.134159610748291,-9.22575682220459,1.8499696952819824
1789031869987349000,6.223348876953125,-2.784755805969238,-9.472509230804443,2.0519804603576657
1789031869997352200,6.233352294921875,-2.704550050354004,-9.516801961517334,2.0245967788696286
1789031870007356200,6.243356201171875,-2.8048072448730466,-9.50004254989624,2.0808605178833006
1789031870017359000,6.253359130859375,-2.9219734886169433,-9.656264208221435,2.0542250244140625
1789031870027362000,6.263362060546875,-2.95579158706665,-9.95239702606201,1.7203835304260253
1789031870037365000,6.273364990234375,-2.9085061042785645,-10.236858110809326,1.3643956710815428
1789031870047369000,6.283368896484375,-2.957886513519287,-10.283096130371094,1.1213842025756835
1789031870057372200,6.2933720703125,-3.1012393379211423,-10.138995117950438,0.9412205276489257
1789031870067375000,6.303375,-3.2466870887756345,-9.947608622741699,0.9735422500610351
1789031870077379000,6.313379150390625,-3.458274660491943,-9.71013374557495,1.0905588562011719
1789031870087382000,6.323382080078125,-3.3234511795043944,-9.650129066467285,1.0761936462402344
1789031870097385200,6.33338525390625,-2.872443441772461,-9.75472575149536,0.9358335739135741
1789031870107388000,6.343387939453125,-2.6981156333923337,-9.560346504211426,0.7529764221191406
1789031870117392100,6.35339208984375,-2.714126856994629,-9.297283596801757,0.6793547210693359
1789031870127395000,6.36339501953125,-2.7629087158203123,-9.268702814483643,0.6826467483520507
1789031870137398000,6.37339794921875,-3.0719103675842283,-9.192088361358643,0.7151181083679199
1789031870147401200,6.383401123046875,-3.2002994316101074,-9.229497762298584,0.7540238853454589
1789031870157405200,6.3934052734375,-3.0538042175292968,-9.380182829284667,0.847248112487793
1789031870167407900,6.403407958984375,-2.854636566925049,-9.35863501434326,0.9669581954956055
1789031870177411000,6.4134111328125,-2.62389538192749,-9.260622383880614,1.0280103378295897
1789031870187414300,6.423414306640625,-2.499546533203125,-9.16784706954956,1.0703577796936035
1789031870197418000,6.43341796875,-2.4594436553955075,-9.086593850708008,1.230918928527832
1789031870207421200,6.443421142578125,-2.5383026725769042,-9.111732968139648,1.3623007446289062
1789031870217424100,6.453424072265625,-2.746448579406738,-9.03990691833496,1.4407108489990235
1789031870227427800,6.463427734375,-3.0500632774353025,-8.881889608764649,1.430685129547119
1789031870237431000,6.47343115234375,-3.0569466072082516,-8.885929824066162,1.3941735542297362
1789031870247434200,6.483434326171875,-3.0003835929870606,-8.864980559539795,1.2597989860534666
1789031870257437000,6.49343701171875,-3.080589348602295,-8.729259252929687,1.103278052520752
1789031870267441200,6.503441162109375,-3.1994016059875485,-8.653841900634765,1.0910077690124511
1789031870277444000,6.513444091796875,-3.6094086402893066,-8.583212951660157,1.0633248123168946
1789031870287447000,6.523447021484375,-4.221276802062988,-8.66386762008667,1.0703577796936035
1789031870297451000,6.533450927734375,-4.7667058677673335,-8.819939640808105,1.1465233200073242
1789031870307454200,6.5434541015625,-5.016750303649902,-8.966434854888915,1.4148235435485839
1789031870317457000,6.553456787109375,-5.13930350112915,-8.927828353118896,1.6696563827514648
1789031870327460000,6.563460205078125,-5.154267261505127,-8.819191452789306,1.9921254188537596
1789031870337464000,6.573464111328125,-5.0775031707763665,-8.863334545898438,2.1306898399353025
1789031870347467300,6.58346728515625,-4.92232897567749,-9.143605777740477,1.8186954360961913
1789031870357470000,6.593469970703125,-4.83942974319458,-9.512163195800781,1.4953285743713378
1789031870367473200,6.60347314453125,-4.450521611022949,-9.764751470947266,1.499668064880371
1789031870377477000,6.61347705078125,-3.930082025146484,-9.867702142333984,1.6084546028137205
1789031870387480000,6.62347998046875,-3.4555811836242674,-9.925911170196533,1.9189526306152342
1789031870397483000,6.63348291015625,-3.1497219215393066,-9.578153379058838,2.438045478057861
1789031870407487200,6.6434873046875,-3.2878374298095703,-8.883984535217285,2.5055320373535155
1789031870417490000,6.653489990234375,-3.6783915756225585,-8.20373198852539,2.0772692153930663
1789031870427493000,6.6634931640625,-4.39216294555664,-7.951293350982666,2.461089669036865
1789031870437496000,6.67349609375,-5.133467634582519,-8.489839086914062,2.4392425788879395
1789031870447500000,6.6835,-5.510105483245849,-9.162310478210449,2.224362979888916
1789031870457503000,6.6935029296875,-5.4610243492126465,-9.134028971099854,2.0796634170532227
1789031870467506200,6.703506103515625,-5.036652104949951,-8.639775965881347,2.0504840843200682
1789031870477509400,6.71350927734375,-4.381837950897217,-8.138789268493651,1.999008748626709
1789031870487513600,6.723513671875,-3.9565678810119627,-7.989002027130127,1.7899650161743164
1789031870497516500,6.7335166015625,-3.871872997283935,-8.116044352722167,1.5316905120849609
1789031870507519500,6.74351953125,-4.043357691192627,-8.206724740600585,1.3365630767822265
1789031870517523500,6.7535234375,-4.212448183441162,-8.011746942901611,1.3521253875732422
1789031870527526700,6.763526611328125,-4.226963031005859,-7.650970680236816,1.5327379753112793
1789031870537529300,6.773529296875,-4.133289891052246,-7.423521522521972,1.8127099319458007
1789031870547532500,6.783532470703125,-3.9062896461486813,-7.653215244293213,1.901295393371582
1789031870557536500,6.79353662109375,-3.6604350631713864,-8.009053466033935,1.7127520126342772
1789031870567539500,6.80353955078125,-3.665822016906738,-7.621492072296142,1.7338509147644041
1789031870577542700,6.813542724609375,-3.724629595184326,-7.191134323883056,1.7757494438171386
1789031870587545600,6.823545654296875,-3.6112042915344236,-7.9165774269104,1.3853449356079102
1789031870597549300,6.83354931640625,-3.5468601219177245,-9.213486538696289,0.9739911628723144
1789031870607552500,6.843552490234375,-3.6920085975646972,-10.041281762695311,0.8007108177185058
1789031870617555700,6.8535556640625,-3.754108203125,-9.769539874267577,0.7977180656433105
1789031870627558400,6.863558349609375,-3.483413777923584,-8.790461032867432,1.0431237358093262
1789031870637562600,6.873562744140625,-3.272574394226074,-8.248772907257079,1.1831845329284667
1789031870647565600,6.883565673828125,-3.3687913734436035,-8.587552442169189,0.8572738319396972
1789031870657568500,6.893568603515625,-3.7108629356384277,-9.343970529174804,0.45235447616577146
1789031870667572500,6.903572509765625,-3.9954736579895016,-9.852588744354247,0.3274070770263672
1789031870677575700,6.91357568359375,-4.155585894012451,-9.667337390899657,0.45235447616577146
1789031870687578400,6.923578369140625,-4.184316313934326,-8.894159892272949,0.6766612442016601
1789031870697581600,6.93358154296875,-4.324676386260986,-7.862258976745605,0.9273042304992676
1789031870707585500,6.94358544921875,-4.517409619903564,-7.491008081817626,0.9623194297790527
1789031870717588500,6.95358837890625,-4.66076244430542,-8.31281780166626,0.5593453628540038
1789031870727591400,6.96359130859375,-4.919785136413574,-9.262118759918213,0.30151977157592774
1789031870737594600,6.9735947265625,-4.996998139953613,-9.514557397460937,0.44487259597778317
1789031870747598300,6.983598388671875,-4.885218849945068,-9.303418738555907,0.6748655929565429
1789031870757601500,6.9936015625,-4.788852233123779,-8.710853827667236,0.7951742263793945
1789031870767604500,7.0036044921875,-4.835988078308105,-8.084470818328857,0.873434693145752
1789031870777608700,7.013608642578125,-5.103091201019287,-7.855824559783935,0.896329246520996
1789031870787611400,7.023611328125,-5.0854339637756345,-8.21645118484497,0.8194155181884765
1789031870797614600,7.033614501953125,-4.893897830963135,-8.443601067352294,0.8515876029968261
1789031870807617500,7.043617431640625,-4.871901103210449,-8.61897633895874,0.7414543266296386
1789031870817621500,7.05362158203125,-4.8397290184021,-8.756792572021483,0.7140706451416016
1789031870827624400,7.06362451171875,-4.658368242645263,-8.612990834808349,0.8596680335998534
1789031870837627400,7.07362744140625,-4.42418539276123,-8.323292433929442,0.884208600616455
1789031870847630600,7.083630615234375,-4.26482134475708,-8.038831349182129,1.054645831298828
1789031870857634600,7.093634521484375,-4.2506057723999024,-7.854028908538818,1.0271125122070313
1789031870867637800,7.1036376953125,-4.194940583801269,-7.991396228790283,1.1074679054260252
1789031870877640400,7.113640380859375,-4.099022879791259,-8.304288458251953,1.1423334671020506
1789031870887644400,7.12364453125,-4.046051168060303,-8.533832542419432,0.8866028022766113
1789031870897647600,7.133647705078125,-4.038569287872314,-8.67015239944458,0.8309376136779785
1789031870907650600,7.143650634765625,-4.0441058792114255,-8.730755628967284,0.6368576416015624
1789031870917653500,7.153653564453125,-3.9727287422180173,-8.738686421966552,0.723946726989746
1789031870927657700,7.16365771484375,-3.90718747177124,-8.687809636688232,0.900818374633789
1789031870937660400,7.173660400390625,-3.8316204818725583,-8.725368675231934,1.0474632263183594
1789031870947663600,7.18366357421875,-3.7994483970642086,-8.78477480392456,1.220743571472168
1789031870957666600,7.19366650390625,-3.8284780921936035,-8.992471797943114,1.3114239593505859
1789031870967670500,7.20367041015625,-3.8750153869628905,-9.07192936553955,1.520168416595459
1789031870977673500,7.213673583984375,-4.020014225006103,-9.081506172180175,1.4336778816223144
1789031870987676700,7.2236767578125,-4.101267443847656,-9.151835845947264,1.3109750465393066
1789031870997680400,7.233680419921875,-4.154688068389892,-9.131185856628418,1.3210007659912109
1789031871007683600,7.24368359375,-4.237886576080322,-9.158419900512694,1.334917063140869
1789031871017686500,7.2536865234375,-4.180425736236572,-9.194332925415038,1.0541969184875488
1789031871027689500,7.263689453125,-3.999214598083496,-9.211840525054932,0.7558195365905761
1789031871037693400,7.273693359375,-3.8959646514892574,-9.351302771759032,0.5312134933471679
1789031871047696600,7.283696533203125,-3.953874404144287,-9.370157109832762,0.44966099929809566
1789031871057699300,7.29369921875,-3.803338974761963,-9.21273835067749,0.4029740669250488
1789031871067702500,7.30370263671875,-3.7571009552001953,-8.990676146697998,0.41838674011230464
1789031871077706500,7.31370654296875,-3.6891654830932614,-8.859294330596923,0.6157587394714356
1789031871087709400,7.32370947265625,-3.584269522857666,-8.794950160980225,0.7220014381408691
1789031871097712600,7.333712646484375,-3.688118019866943,-8.765770828247069,0.6878840644836426
1789031871107715600,7.343715576171875,-3.5839702476501465,-8.793603422546386,0.6497264755249023
1789031871117719300,7.35371923828125,-3.5440170074462887,-8.744223013305664,0.5894225212097167
1789031871127722500,7.363722412109375,-3.4522891563415525,-8.693795140838622,0.6578069061279297
1789031871137725700,7.3737255859375,-3.374477602386474,-8.735394394683837,0.7206546997070312
1789031871147729700,7.383729736328125,-3.3797149185180664,-8.849867161560057,0.7679401824951172
1789031871157732600,7.393732666015625,-3.525162669372558,-9.010129035186766,0.8337807281494141
1789031871167735600,7.403735595703125,-3.672256433868408,-9.191040898132323,0.9039607643127441
1789031871177738500,7.413738525390625,-3.7989994842529295,-9.354594799041747,0.9828197814941406
1789031871187742500,7.423742431640625,-3.9374142677307127,-9.427169036865234,1.2229881355285643
1789031871197745700,7.43374560546875,-4.150198940277099,-9.422081358337401,1.3875894996643066
1789031871207748400,7.443748291015625,-4.339490509033203,-9.381379930114745,1.452981132507324
1789031871217751600,7.45375146484375,-4.3819875885009765,-9.347262556457519,1.4911387214660643
1789031871227755500,7.463755615234375,-4.359392310333252,-9.312396994781494,1.5529390518188475
1789031871237758700,7.4737587890625,-4.147804738616943,-9.277830708312989,1.7393875061035156
1789031871247761400,7.483761474609375,-3.658789049530029,-9.179518802642821,2.1248539733886718
1789031871257764600,7.4937646484375,-3.0796915229797364,-9.21199016265869,2.436848377227783
1789031871267768600,7.5037685546875,-2.8857611885070797,-9.318981049346924,2.4633342330932617
1789031871277771500,7.513771484375,-3.127276280975342,-9.38422304458618,2.3367408203125
1789031871287774500,7.5237744140625,-3.353677975463867,-9.520842176818848,2.2813749069213864
1789031871297778700,7.53377880859375,-3.1856349464416502,-9.755922852325439,2.3056161987304686
1789031871307781400,7.543781494140625,-2.824409770965576,-9.892990897369383,2.1351789680480957
1789031871317784600,7.55378466796875,-2.578405550384521,-10.006715476226805,1.8179472480773924
1789031871327787500,7.56378759765625,-2.572120771026611,-10.142736058044433,1.4101847778320311
1789031871337791500,7.57379150390625,-2.9288568183898924,-10.334122553253174,0.9543886367797851
1789031871347794400,7.58379443359375,-3.3069910430908203,-10.491391674804687,0.5720645591735839
1789031871357797600,7.593797607421875,-3.405452586364746,-10.472686974334716,0.6253355461120605
1789031871367800600,7.603800537109375,-3.178751616668701,-10.178050532531739,0.8527847038269043
1789031871377804500,7.613804443359375,-2.9990368545532227,-9.643096099090576,1.0411784469604493
1789031871387807500,7.623807373046875,-3.097049485015869,-8.991723609924316,1.4012065216064453
1789031871397810400,7.633810546875,-3.1693244476318356,-8.49836843032837,1.8019360244750975
1789031871407813600,7.643813720703125,-3.011606413269043,-8.228422193145752,2.048089882659912
1789031871417817600,7.653817626953125,-2.742109088897705,-8.199691773223876,1.8703204093933103
1789031871427820500,7.663820556640625,-2.467524085998535,-8.370877191925048,1.4167688323974608
1789031871437823500,7.673823486328125,-2.3786393493652342,-8.647856396484375,0.9515455223083495
1789031871447827500,7.683827392578125,-2.1465514259338376,-8.876502655029297,0.6789058082580566
1789031871457830400,7.693830322265625,-1.835604485321045,-9.006986645507812,0.5328595069885254
1789031871467833600,7.70383349609375,-1.6572364616394042,-9.068487700653076,0.3781342247009277
1789031871477836800,7.7138369140625,-1.8376994117736816,-9.172336197662354,0.232387198638916
1789031871487840800,7.7238408203125,-2.104203984069824,-9.381080654907226,0.4029740669250488
1789031871497844000,7.733843994140625,-2.2471078956604003,-9.587879823303222,0.6197989547729492
1789031871507847000,7.743846923828125,-2.2884078742980956,-9.728688808441161,0.7127239067077636
1789031871517849900,7.753849853515625,-2.3027730842590333,-9.71058265838623,0.9350853858947753
1789031871527854000,7.76385400390625,-2.4911668273925778,-9.534459198760986,1.1502642601013182
1789031871537856800,7.773856689453125,-2.8458079483032224,-9.29578722076416,1.2527660186767577
1789031871547860000,7.78385986328125,-3.1907226249694824,-9.299528160858154,1.4671967048645018
1789031871557863000,7.79386279296875,-3.283348301696777,-9.64025298461914,1.5216647926330567
1789031871567867000,7.803866943359375,-3.210025875854492,-10.08063645248413,1.405695649719238
1789031871577869800,7.813869873046875,-3.087622315979004,-10.328436324310303,1.3229460548400878
1789031871587873000,7.823873046875,-2.982127805328369,-10.203040012359619,1.5050550186157226
1789031871597876700,7.833876708984375,-3.023577421569824,-9.750984811401366,1.7063175956726073
1789031871607880000,7.8438798828125,-3.070413991546631,-9.369708197021485,1.8360533981323242
1789031871617883000,7.8538828125,-3.0289643753051756,-9.182960467529297,1.9656395629882812
1789031871627885800,7.8638857421875,-2.9097032051086424,-9.267804988861084,1.9719243423461912
1789031871637889800,7.873889892578125,-2.780416315460205,-9.50647696685791,1.771559590911865
1789031871647893000,7.88389306640625,-2.7419594512939454,-9.703848966217041,1.5596727439880371
1789031871657895700,7.893895751953125,-2.810343836212158,-9.784653272247313,1.331774673461914
1789031871667899000,7.90389892578125,-2.8687025016784666,-9.620051908111572,1.1884218490600584
1789031871677902800,7.91390283203125,-2.9198785621643064,-9.381529567718506,1.142183829498291
1789031871687905800,7.92390576171875,-2.760514514160156,-9.269600640106201,1.2331634925842285
1789031871697909000,7.933908935546875,-2.586785256195068,-9.298181422424316,1.250072541809082
1789031871707912000,7.943911865234375,-2.5041852989196776,-9.516203411102294,1.0639233627319336
1789031871717916000,7.953916015625,-2.565387078857422,-9.64578957595825,0.8900444671630859
1789031871727918800,7.9639189453125,-2.7651532798767087,-9.583241057586669,0.8204629814147949
1789031871737922000,7.973922119140625,-2.973748099517822,-9.40412484588623,0.7754220626831054
1789031871747924700,7.9839248046875,-2.9782372276306153,-9.286210414123534,0.865054987335205
1789031871757929000,7.993928955078125,-2.85388837890625,-9.349357482910156,0.900818374633789
1789031871767932000,8.003931884765626,-2.6219500930786133,-9.423577734375,0.9657610946655273
1789031871777934800,8.013934814453124,-2.629731248474121,-9.262118759918213,1.2150573425292968
1789031871787938800,8.023938720703125,-2.8118402122497557,-8.98259571609497,1.2892775939941405
1789031871797942000,8.03394189453125,-2.924666965484619,-8.81724616394043,1.2153566177368162
1789031871807945000,8.043945068359376,-3.114257809448242,-8.833556662750244,1.2125135032653809
1789031871817948000,8.053947998046874,-2.9984383041381832,-9.05965908203125,1.4200608596801756
1789031871827951900,8.063951904296875,-2.8356325912475584,-9.152584033966065,1.5026608169555664
1789031871837955000,8.073955078125,-2.8393735313415527,-8.998906214904785,1.5355810897827147
1789031871847957800,8.083957763671876,-2.784007617950439,-8.912415679931641,1.5499462997436522
1789031871857961000,8.0939609375,-2.916436897277832,-8.993070348358154,1.5901988151550293
1789031871867965000,8.10396484375,-3.1591490905761717,-9.273341580200194,1.563563321685791
1789031871877968000,8.1139677734375,-3.4687492927551267,-9.648632690429688,1.4456488899230957
1789031871887970800,8.123970703125,-3.8850411064147945,-9.874585472106933,1.291522158050537
1789031871897974000,8.13397412109375,-4.330212977600097,-9.926509720611572,1.2051812606811523
1789031871907977700,8.143977783203125,-4.619013552856445,-9.733327574157714,1.276259122467041
1789031871917981000,8.15398095703125,-4.656123678588867,-9.39739115371704,1.2267290756225586
1789031871927983900,8.16398388671875,-4.540004898071289,-9.11083514251709,1.1037269653320312
1789031871937986800,8.17398681640625,-4.441244079589843,-8.868571862030029,1.2045827102661133
1789031871947990800,8.18399072265625,-4.314949942016601,-8.730755628967284,1.3991115951538085
1789031871957994000,8.193993896484375,-4.09842432937622,-8.922591036987304,1.601870548248291
1789031871967997000,8.203996826171876,-3.8943186378479,-9.203909732055664,1.5397709426879882
1789031871978001000,8.2140009765625,-3.5122938354492184,-9.687538467407226,1.5426140571594238
1789031871988004000,8.224004150390625,-3.473836971282959,-9.936236164855956,1.5313912368774414
1789031871998006800,8.2340068359375,-3.81141940536499,-9.72390040512085,1.490689808654785
1789031872008010000,8.244010009765624,-4.17533805770874,-8.905233074951171,1.482459740447998
1789031872018014000,8.254013916015625,-4.230255058288574,-8.183081999206543,1.6115969924926756
1789031872028017000,8.264016845703125,-3.918410292053222,-8.29336491317749,1.5824176597595214
1789031872038019800,8.274019775390625,-3.7548563911437984,-9.256133255767821,1.1662754837036131
1789031872048023000,8.28402294921875,-3.9956232955932616,-10.213215369415282,0.6308721374511719
1789031872058026800,8.29402685546875,-4.777928688049316,-9.76849241104126,0.49859249572753905
1789031872068030000,8.304030029296875,-5.710470234680176,-8.267178332519531,0.9044096771240234
1789031872078033000,8.314032958984376,-5.843198789215087,-7.0461354858398435,1.594089392852783
1789031872088035800,8.324035888671874,-5.063287598419189,-6.781725839996337,1.9825486122131346
1789031872098039800,8.334039794921875,-4.227411943817138,-7.438634920501708,1.8459294799804686
1789031872108043000,8.34404296875,-4.095730852508544,-8.268076158142089,1.4353238952636718
1789031872118045700,8.354045654296876,-4.4559085647583005,-8.57408505783081,1.112854859161377
1789031872128049000,8.364048828125,-4.833893151855468,-8.057984962463378,1.2832920898437499
1789031872138052900,8.374052978515625,-4.781071077728271,-7.4025722579956055,1.4896423454284666
1789031872148055800,8.384055908203125,-4.025850091552734,-7.864054627990722,1.2918214332580567
1789031872158059000,8.39405908203125,-3.1061773788452145,-9.028235185241698,0.8996212738037109
1789031872168063000,8.40406298828125,-2.893542343902588,-9.645191025543213,0.6730699417114258
1789031872178066000,8.41406591796875,-3.089567604827881,-9.266158975219726,0.7178115852355956
1789031872188068900,8.42406884765625,-3.1349077987670895,-8.148964625549317,0.985064345550537
1789031872198072000,8.434072021484376,-2.6240450195312497,-7.54622435760498,1.1405378158569335
1789031872208076000,8.444075927734374,-2.118269918823242,-8.1717095413208,0.9231143775939941
1789031872218079000,8.454078857421875,-2.4096143333435056,-9.062801471710204,0.5472247169494628
1789031872228082000,8.46408203125,-3.1859342216491697,-9.44183352203369,0.4704606262207031
1789031872238084900,8.4740849609375,-3.5839702476501465,-9.200468067169188,0.6317699630737305
1789031872248088800,8.4840888671875,-3.8763621253967284,-8.608651344299316,0.7556698989868164
1789031872258092000,8.494092041015625,-4.105756571960449,-8.163479473114013,0.8280944992065429
1789031872268095000,8.504094970703125,-4.120271419525146,-8.347533725738526,0.7908347358703612
1789031872278098000,8.514097900390626,-4.172345305633545,-8.917652996063232,0.5237316131591797
1789031872288102000,8.524101806640624,-4.463091169738769,-9.053823215484618,0.29718028106689454
1789031872298105000,8.53410498046875,-4.793640636444091,-8.613140472412109,0.3838204536437988
1789031872308107800,8.544107666015625,-4.744409864807128,-8.551789054870605,0.45235447616577146
1789031872318111000,8.554111083984376,-4.471919788360595,-9.036016340637207,0.3773860366821289
1789031872328115000,8.564114990234375,-4.576067560577393,-9.264961874389648,0.20994155807495116
1789031872338118000,8.574117919921875,-4.844816696929931,-9.050680825805664,0.1227028350830078
1789031872348120800,8.584120849609375,-4.906467389678955,-8.726865051269531,0.18121113815307616
1789031872358124000,8.5941240234375,-4.835389527893066,-8.546252463531493,0.33922844772338867
1789031872368127700,8.604127685546874,-4.613177686309815,-8.66282015686035,0.4064157318115234
1789031872378131000,8.614130859375,-4.561552713012695,-9.227851748657226,0.22700024490356444
1789031872388134000,8.6241337890625,-4.670189613342285,-9.48178676223755,0.1924339584350586
1789031872398137900,8.634137939453124,-4.693233804321289,-9.157821350097656,0.10564414825439453
1789031872408140800,8.644140869140625,-4.7283986412048336,-8.545803550720214,0.34820670394897457
1789031872418144000,8.65414404296875,-4.577264661407471,-8.124124783325195,0.7490858444213867
1789031872428147000,8.66414697265625,-4.204218115234375,-8.379107260131835,0.946158568572998
1789031872438151000,8.67415087890625,-3.927538185882568,-9.005639907073974,0.9059060531616211
1789031872448153900,8.68415380859375,-3.858106337738037,-9.438691132354736,0.704194563293457
1789031872458156800,8.69415673828125,-3.9234979705810544,-9.373598774719238,0.4875193130493164
1789031872468160000,8.704159912109375,-3.8576574249267575,-9.138967012023926,0.5765536872863769
1789031872478164000,8.7141640625,-3.6821325157165523,-8.81051247177124,0.922515827178955
1789031872488166700,8.724166748046875,-3.5517981628417967,-8.504204296874999,1.1936591651916504
1789031872498169600,8.734169677734375,-3.449446041870117,-8.437166650390624,1.412878254699707
1789031872508172500,8.744172607421875,-3.341557329559326,-8.77923821258545,1.5227122558593749
1789031872518176500,8.754176513671876,-3.2692823669433593,-9.391106374359131,1.4009072463989256
1789031872528179700,8.7641796875,-3.329287046051025,-9.796773918151855,1.0185831687927245
1789031872538182400,8.774182373046875,-3.4433109001159665,-9.629030164337157,0.9630676177978515
1789031872548185600,8.784185546875,-3.4810195762634275,-9.166350693511962,1.3479355346679687
1789031872558189600,8.794189453125,-3.5339912879943847,-8.831761011505126,1.7319056259155272
1789031872568192500,8.804192626953125,-3.554042726898193,-8.757690397644042,1.7316063507080077
1789031872578195500,8.814195556640625,-3.535637301635742,-8.788665381622314,1.0595838722229003
1789031872588198700,8.82419873046875,-3.399766357421875,-8.777592198944092,0.32995091629028317
1789031872598202400,8.834202392578124,-3.344250806427002,-8.789862482452392,-0.07811082916259765
1789031872608205600,8.84420556640625,-3.0934581825256346,-8.967931230926514,-0.20380641632080077
1789031872618208800,8.854208740234375,-2.8203695556640622,-9.266907163238525,-0.13572130661010742
1789031872628211500,8.86421142578125,-2.881122422790527,-9.578751929473876,0.07317278823852538
1789031872638215400,8.87421533203125,-3.1563059761047363,-9.918429290008545,0.06404489440917968
1789031872648218600,8.884218505859375,-3.5872622749328613,-10.24044941329956,-0.09172785110473632
1789031872658221600,8.8942216796875,-3.980659535217285,-10.475230813598632,-0.18121113815307616
1789031872668224500,8.904224609375,-4.192696019744873,-10.61738653717041,0.042945992279052735
1789031872678228700,8.914228759765624,-4.18835652923584,-10.670807161712645,0.6290764862060546
1789031872688231400,8.9242314453125,-3.9625533851623533,-10.583718076324462,1.0155904167175291
1789031872698234600,8.934234619140625,-3.7382466171264648,-10.358363845062255,1.2123638656616211
1789031872708238600,8.944238525390626,-3.626916239929199,-10.036942272186279,1.2195464706420898
1789031872718241500,8.954241455078124,-3.67105933303833,-9.72958663406372,1.0341454795837401
1789031872728244500,8.964244384765625,-3.6433763763427733,-9.48178676223755,1.0871171913146973
1789031872738247700,8.97424755859375,-3.4299931533813472,-9.261071296691894,1.2122142280578612
1789031872748251600,8.984251708984376,-3.2609026611328122,-9.13492679672241,1.311872872161865
1789031872758254600,8.994254638671874,-3.0629321113586423,-9.05292538986206,1.3007996894836424
1789031872768257500,9.004257568359375,-2.7519851707458494,-8.901192859649658,1.3268366325378418
1789031872778260500,9.014260498046875,-2.6300305236816404,-8.73988352279663,1.5176245773315429
1789031872788264400,9.024264404296876,-2.6396073303222654,-8.602665840148925,1.7293617866516113
1789031872798267600,9.034267578125,-2.5197476097106932,-8.615684311676025,1.8206407249450682
1789031872808270300,9.044270263671875,-2.2819734573364254,-8.811709572601318,1.9648913749694823
1789031872818273500,9.0542734375,-2.1076456489562987,-9.071330815124512,1.8822914176940917
1789031872828277500,9.064277587890626,-2.120364845275879,-9.201665167999266,1.5875053382873534
1789031872838280700,9.07428076171875,-2.2035633529663086,-9.301024536895751,1.229572190093994
1789031872848283600,9.08428369140625,-2.2093992195129393,-9.355642262268066,0.9847650703430175
1789031872858286600,9.09428662109375,-2.131737303161621,-9.216628928375243,0.9650129066467285
1789031872868290600,9.10429052734375,-1.8213889129638672,-9.069535163879394,1.125574055480957
1789031872878293500,9.11429345703125,-1.5771803436279297,-9.019855479431152,1.107767180633545
1789031872888296700,9.124296630859375,-1.6093524284362792,-9.209745598602295,0.8813654861450195
1789031872898299400,9.13429931640625,-1.76841720123291,-9.476250170898437,0.5975029518127442
1789031872908303600,9.1443037109375,-2.0609587165832517,-9.762506906890868,0.4382885414123535
1789031872918306600,9.154306640625,-2.267009696960449,-10.039037198638916,0.2645592834472656
1789031872928309800,9.164309814453125,-2.287360411071777,-10.147075548553467,0.07272387542724609
1789031872938312400,9.1743125,-2.1351789680480957,-10.107421583557128,0.022445640563964843
1789031872948316700,9.184316650390626,-1.9960159965515136,-10.102483542633056,0.04578910675048828
1789031872958319600,9.194319580078124,-2.04285256652832,-9.995043743133545,0.26396073303222656
1789031872968322600,9.204322509765625,-2.1217115837097165,-9.782259070587157,0.3887584945678711
1789031872978325500,9.214325439453125,-2.129941651916504,-9.592069676208496,0.6109703361511231
1789031872988329700,9.224329833984376,-2.0509329971313477,-9.538798689270019,0.8150760276794433
1789031872998332400,9.23433251953125,-1.9328689277648925,-9.560496141815184,0.9177274238586425
1789031873008335600,9.244335693359375,-2.0473416946411134,-9.61406640396118,0.9311948081970214
1789031873018338600,9.254338623046875,-2.275987953186035,-9.670030867767334,1.0311527275085448
1789031873028342500,9.264342529296876,-2.41320563583374,-9.760860893249511,1.139639990234375
1789031873038345500,9.274345458984374,-2.4155998374938963,-9.941473480987549,1.140837091064453
1789031873048348700,9.2843486328125,-2.3882161560058592,-10.109666147613526,1.0185831687927245
1789031873058351600,9.2943515625,-2.4256255569458007,-10.130016861724853,0.979976667022705
1789031873068355600,9.30435546875,-2.563441790008545,-9.964966584777832,0.9241618408203125
1789031873078358500,9.314358642578124,-2.6396073303222654,-9.642198273468017,0.8869020774841309
1789031873088361500,9.324361572265625,-2.6515783386230467,-9.292195918273926,0.7915829238891601
1789031873098364700,9.33436474609375,-2.6050410438537597,-9.049633362579344,0.7155670211791991
1789031873108368600,9.34436865234375,-2.5172037704467773,-8.941146099853515,0.7342717216491699
1789031873118371600,9.35437158203125,-2.2972364929199216,-9.011924686431884,0.7612064903259277
1789031873128374500,9.36437451171875,-2.1027076080322264,-9.192237998962401,0.7332242584228515
1789031873138378500,9.37437841796875,-2.2285528327941893,-9.22500863418579,0.6995557975769042
1789031873148381400,9.38438134765625,-2.5035867485046386,-9.066991324615477,0.75971011428833
1789031873158384600,9.394384521484374,-2.620752992248535,-8.904933799743652,0.9442132797241211
1789031873168387600,9.4043876953125,-2.6165631393432616,-8.89326206665039,1.087266828918457
1789031873178391600,9.4143916015625,-2.61132582321167,-9.187898508453369,1.3105261337280272
1789031873188394500,9.42439453125,-2.5383026725769042,-9.694721072387695,1.368735161590576
1789031873198397700,9.434397705078124,-2.6556185539245605,-10.218452685546874,1.2158055305480957
1789031873208400400,9.444400390625,-2.7240029388427733,-10.509348187255858,1.1975497428894042
1789031873218404600,9.454404541015625,-2.768744582366943,-10.444106192016601,0.9579799392700195
1789031873228407600,9.464407470703126,-2.8809727851867675,-10.166378799438476,0.5832873794555664
1789031873238410500,9.474410400390624,-2.9946973640441894,-9.792284790039062,0.5855319435119628
1789031873248413400,9.484413330078125,-3.1325135971069336,-9.364620518493652,0.6072293960571289
1789031873258417700,9.494417724609375,-3.059340808868408,-9.227402835845947,0.5741594856262207
1789031873268420400,9.50442041015625,-2.9735984619140625,-9.28905352859497,0.6637924102783203
1789031873278423600,9.514423583984374,-2.9679122329711913,-9.346065455627441,0.7109282554626465
1789031873288426800,9.5244267578125,-2.9797336036682127,-9.402927745056152,0.6533177780151367
1789031873298430700,9.5344306640625,-3.1051299156188965,-9.319280324554443,0.4299088356018066
1789031873308433400,9.544433349609376,-3.168276984405517,-9.243264421844481,0.2823661582946777
1789031873318436600,9.5544365234375,-3.1132103462219236,-9.262418035125732,0.29972412033081053
1789031873328439600,9.564439453125,-3.170970461273193,-9.288006065368652,0.28221652069091796
1789031873338443500,9.574443603515626,-3.153313224029541,-9.449913952636718,0.3630208267211914
1789031873348446700,9.58444677734375,-3.2507273040771483,-9.58967547454834,0.28655601119995117
1789031873358449400,9.594449462890625,-3.4549826332092284,-9.596558804321289,0.3251625129699707
1789031873368452600,9.60445263671875,-3.808725928497314,-9.529221882629393,0.5802946273803711
1789031873378456600,9.61445654296875,-4.181323561859131,-9.400383905792236,0.9452607429504394
1789031873388459800,9.624459716796874,-4.440196616363525,-9.338134662628173,1.4465467155456542
1789031873398462500,9.63446240234375,-4.514117592620849,-9.3975407913208,1.6602292137145995
1789031873408465700,9.644465576171875,-4.431966548156738,-9.501838201141357,1.490091258239746
1789031873418469600,9.6544697265625,-4.125209460449218,-9.6273841506958,1.2662334030151365
1789031873428472600,9.66447265625,-4.0355765357971185,-9.488520454406737,1.3302782974243164
1789031873438475500,9.6744755859375,-4.223671003723144,-8.871564614105225,1.1198878265380858
1789031873448478500,9.684478515625,-4.112639901733398,-8.33227069015503,0.9690531219482421
1789031873458482400,9.694482421875,-3.469796755981445,-8.205228364562988,0.9072527915954589
1789031873468485600,9.704485595703124,-2.9548937614440915,-8.516474580383301,0.888697728729248
1789031873478488600,9.714488525390625,-3.0220810455322265,-8.877101205444335,0.2876034744262695
1789031873488491300,9.7244912109375,-3.572597789764404,-8.645312557220459,-0.2781763053894043
1789031873498495200,9.7344951171875,-4.169951103973388,-8.342146772003174,0.16879121704101563
1789031873508498200,9.744498291015624,-4.387673817443847,-8.409334056091309,0.5753565864562988
1789031873518501400,9.75450146484375,-4.362684337615967,-8.802880953979491,0.5612906517028808
1789031873528504300,9.76450439453125,-4.203918840026855,-9.247005361938475,0.7396586753845215
1789031873538508300,9.77450830078125,-4.287117347717285,-8.865130197143554,0.6898293533325195
1789031873548511200,9.78451123046875,-4.553023369598389,-7.918223440551757,0.8047510330200195
1789031873558514400,9.794514404296875,-4.304624947357177,-7.50791713104248,1.3037924415588378
1789031873568517000,9.80451708984375,-3.590255027008056,-8.246378705596923,1.2744634712219238
1789031873578521300,9.814521240234376,-3.0343513290405273,-9.436895481109618,0.6989572471618652
1789031873588524300,9.824524169921874,-2.958485063934326,-9.645490300750732,0.3437175758361816
1789031873598527200,9.83452734375,-3.380014193725586,-8.70830998840332,0.5327098693847656
1789031873608530200,9.8445302734375,-3.758896606445312,-7.857021660614013,1.0256161361694336
1789031873618534400,9.854534423828126,-3.2709283805847167,-8.124274420928955,0.9358335739135741
1789031873628537000,9.864537109375,-2.438195115661621,-9.35249987258911,0.5366004470825195
1789031873638540300,9.874540283203125,-2.4652795219421386,-10.264690705108642,0.25692776565551756
1789031873648543200,9.884543212890625,-3.5134909362792968,-9.92725790863037,0.34222119979858395
1789031873658547200,9.894547119140626,-4.491971227264404,-8.709656726837158,0.6841431243896484
1789031873668550100,9.904550048828124,-4.412513659667969,-7.986308550262451,0.9786299285888671
1789031873678553300,9.91455322265625,-3.726425246429443,-8.279448616027832,0.7953238639831542
1789031873688556300,9.924556396484375,-3.405901499176025,-8.974664923095702,0.4055179061889648
1789031873698560300,9.934560302734376,-3.7297172737121578,-9.680355862426758,0.04234744186401367
1789031873708563200,9.944563232421874,-4.3537060813903805,-9.658508772277832,-0.32142157287597656
1789031873718566100,9.954566162109375,-4.618863915252685,-8.897601557159422,-0.20739771881103514
1789031873728569300,9.9645693359375,-4.448426684570312,-8.034791133880615,0.2072480812072754
1789031873738573300,9.9745732421875,-3.9080852973937987,-8.211662781524657,0.27084406280517576
1789031873748576300,9.984576171875,-3.4940380477905273,-9.031527212524413,0.14589666366577148
1789031873758579200,9.9945791015625,-3.6258687767028808,-9.371653485870361,-0.1731307075500488
1789031873768582400,10.00458251953125,-3.890428060150146,-9.148992731475829,-0.15083470458984374
1789031873778586400,10.01458642578125,-3.9956232955932616,-8.703371947479248,-0.031872809600830075
1789031873788589300,10.02458935546875,-3.7695208763122556,-8.503007196044921,0.03067570877075195
1789031873798592300,10.03459228515625,-3.3852515098571776,-8.788964656829833,0.2985270195007324
1789031873808595200,10.04459521484375,-3.2026936332702634,-9.244910435485838,0.17836802368164062
1789031873818599200,10.05459912109375,-3.1944635650634763,-9.484929151916504,0.09666589202880858
1789031873828602400,10.064602294921874,-3.303399740600586,-9.336937561798095,0.2150292366027832
1789031873838605000,10.07460498046875,-3.350535585784912,-8.958803337097168,0.15786767196655271
1789031873848608300,10.084608154296875,-3.2371102821350095,-8.618078513336181,0.4590881683349609
1789031873858612200,10.0946123046875,-3.080439710998535,-8.601019826507567,0.5137058937072754
1789031873868615400,10.104615478515624,-2.966116581726074,-8.8872765625,0.637755467224121
1789031873878618400,10.114618408203125,-2.962824554443359,-9.290250629425048,0.6181529411315918
1789031873888621300,10.124621337890625,-3.1153052726745605,-9.578602291870117,0.4969464820861816
1789031873898625300,10.134625244140626,-3.2501287536621093,-9.666589202880859,0.5551555099487304
1789031873908628200,10.144628173828124,-3.26224939956665,-9.716119249725342,0.8898948295593261
1789031873918631400,10.15463134765625,-3.0775965965270995,-9.797821381378172,1.1091139190673827
1789031873928634000,10.164634033203125,-2.8330887519836425,-10.018836122131347,1.1347019493103028
1789031873938638300,10.174638427734376,-2.5813983024597165,-10.242394702148436,0.9451111053466796
1789031873948641300,10.184641357421874,-2.4455273582458497,-10.287734896087645,0.8141782020568847
1789031873958644500,10.19464453125,-2.3745991340637205,-10.20872624130249,0.9189245246887207
1789031873968647200,10.204647216796875,-2.454655252075195,-10.097545501708984,0.9419687156677246
1789031873978651400,10.2146513671875,-2.586037068176269,-10.096498038482665,0.7425017898559569
1789031873988654300,10.224654296875,-2.8055554328918455,-10.182090747833252,0.4487631736755371
1789031873998657300,10.2346572265625,-3.0933085449218747,-10.244489628601073,0.30570962448120115
1789031874008660200,10.24466015625,-3.3424551551818844,-10.273968236541748,0.1806125877380371
1789031874018664400,10.25466455078125,-3.512892385864258,-10.234763184356689,0.16744447860717773
1789031874028667100,10.264667236328124,-3.411737365722656,-10.140641131591796,0.3098994773864746
1789031874038670300,10.27467041015625,-3.200598706817627,-9.957335066986083,0.34700960311889645
1789031874048673300,10.28467333984375,-3.024924160003662,-9.65895768508911,0.330699104309082
1789031874058677200,10.29467724609375,-2.8253075965881345,-9.33379517211914,0.2641103706359863
1789031874068680200,10.30468017578125,-2.6786627449035643,-9.164405404663086,0.31797990798950193
1789031874078683400,10.314683349609375,-2.626439221191406,-9.153182584381103,0.426467170715332
1789031874088686300,10.324686279296875,-2.5254338386535644,-9.217975666809082,0.4391863670349121
1789031874098690300,10.334690185546876,-2.5157073944091795,-9.176226775360107,0.4294599227905273
1789031874108693200,10.344693359375,-2.478447631072998,-8.959401887512206,0.314089330291748
1789031874118696200,10.3546962890625,-2.4117092597961425,-8.687061448669432,0.3010708587646484
1789031874128699400,10.364699462890625,-2.360832474517822,-8.452579323577881,0.3724479957580566
1789031874138703400,10.374703369140626,-2.3745991340637205,-8.396764497375488,0.4255693450927734
1789031874148706300,10.384706298828124,-2.3418284988403317,-8.648604584503174,0.5042787246704101
1789031874158709200,10.394709228515625,-2.185157927703857,-8.984391367340088,0.5615899269104003
1789031874168712400,10.40471240234375,-2.3439234252929686,-9.157821350097656,0.6444891593933105
1789031874178716200,10.414716064453126,-2.558054836273193,-9.21812530441284,0.8687959274291992
1789031874188719400,10.42471923828125,-2.544886727142334,-9.238326380920409,1.064970825958252
1789031874198722300,10.434722412109375,-2.455253802490234,-9.421782083129882,1.1393407150268553
1789031874208725200,10.444725341796875,-2.328959664916992,-9.55750338973999,1.3060370056152344
1789031874218729200,10.454729248046876,-2.1664532272338866,-9.747094233703613,1.3180080139160155
1789031874228732400,10.464732421875,-2.1095909378051756,-9.995343018341064,1.3845967475891112
1789031874238735000,10.474735107421875,-2.01127903213501,-10.250774407958984,1.421108322906494
1789031874248738300,10.48473828125,-1.7726070541381835,-10.417171423339843,1.3640963958740233
1789031874258742300,10.4947421875,-1.5132850868225096,-10.47597900161743,1.352275025177002
1789031874268745200,10.5047451171875,-1.4251485382080078,-10.379762022399902,1.4392144729614258
1789031874278748200,10.514748046875,-1.3429974937438964,-10.289829822540282,1.4223054237365722
1789031874288751400,10.52475146484375,-1.304989542388916,-10.301351918029784,1.3218985916137695
1789031874298755000,10.534755126953126,-1.5032593673706054,-10.230423693847655,1.138891802215576
1789031874308758300,10.54475830078125,-1.7534534408569336,-9.814131880187988,1.0910077690124511
1789031874318761500,10.554761474609375,-1.758840394592285,-9.280524185180663,1.1085153686523437
1789031874328764200,10.56476416015625,-1.7800889343261719,-9.045892422485352,1.0868179161071776
1789031874338768100,10.57476806640625,-1.980453685760498,-9.07866305770874,0.9347861106872558
1789031874348771300,10.584771240234375,-2.1467010635375976,-9.318681774139403,0.7089829666137695
1789031874358774300,10.594774169921875,-2.1115362266540525,-9.547028757476806,0.43798926620483397
1789031874368777200,10.604777099609375,-2.032078659057617,-9.475651620483397,-0.024390929412841794
1789031874378781400,10.614781494140624,-1.9907786804199217,-9.272892667388916,-0.3826233528137207
1789031874388784000,10.6247841796875,-1.917755529785156,-9.087491676330567,-0.5282207412719726
1789031874398787300,10.634787353515625,-1.8671780197143553,-8.929474366760253,-0.5210381362915039
1789031874408790300,10.644790283203125,-1.8197428993225098,-8.903736698913574,-0.39100305862426754
1789031874418793200,10.654793212890626,-1.7319056259155272,-9.040655106353759,-0.16115969924926757
1789031874428797200,10.664797119140625,-1.760785683441162,-9.210344149017333,0.12090718383789062
1789031874438800400,10.67480029296875,-1.9542671051025389,-9.283367299652099,0.4918588035583496
1789031874448803000,10.684802978515625,-2.1440075866699217,-9.343222341156006,0.9020154754638672
1789031874458806300,10.69480615234375,-2.2391771026611327,-9.521291089630127,1.2677297790527342
1789031874468810200,10.704810302734375,-2.244713694000244,-9.752331549835205,1.4030021728515625
1789031874478813200,10.714813232421875,-2.220322764587402,-10.001029247283935,1.530343773651123
1789031874488816600,10.724816650390625,-2.1957821975708005,-10.189123715209961,1.5004162528991698
1789031874498819800,10.73481982421875,-2.2183774757385253,-10.27920555267334,1.4245499877929686
1789031874508823800,10.74482373046875,-2.2884078742980956,-10.379462747192383,1.3666402351379394
1789031874518826800,10.75482666015625,-2.384624853515625,-10.465803644561767,1.324741706085205
1789031874528829700,10.76482958984375,-2.480542557525635,-10.343549722290039,1.251868193054199
1789031874538833000,10.7748330078125,-2.599205177307129,-10.095899488067626,1.4546271461486815
1789031874548836600,10.784836669921875,-2.7533319091796873,-9.815927531433104,1.4559738845825194
1789031874558839800,10.79483984375,-2.844760485076904,-9.619004444885253,1.408987677001953
1789031874568843000,10.804843017578126,-2.8576293190002438,-9.441683884429931,1.33431851272583
1789031874578845700,10.814845703125,-2.877381482696533,-9.355342987060546,1.1475707832336426
1789031874588849700,10.824849609375,-2.8369793296813963,-9.386916521453857,0.8491934013366699
1789031874598852900,10.834852783203125,-2.833388027191162,-9.406967960357665,0.6001964286804199
1789031874608855800,10.844855712890626,-2.9933506256103515,-9.447819026184082,0.42272623062133785
1789031874618858800,10.854858642578124,-3.16663097076416,-9.470264666748045,0.3327940307617187
1789031874628863000,10.864863037109375,-3.1184476623535153,-9.621997196960448,0.1997662010192871
1789031874638865700,10.87486572265625,-3.08358210067749,-9.804555073547363,0.14679448928833008
1789031874648868900,10.884868896484376,-2.9842227317810055,-9.88281554031372,0.26964696197509763
1789031874658871800,10.894871826171874,-2.867804676055908,-9.708936644744872,0.26336218261718747
1789031874668876000,10.9048759765625,-3.018938655853271,-9.361627766418456,0.3296516410827637
1789031874678878700,10.914878662109375,-3.0889690544128414,-9.058162705993652,0.4074631950378418
1789031874688882000,10.9248818359375,-3.0728081932067868,-8.88144069595337,0.38097733917236326
1789031874698884600,10.934884521484374,-3.075352032470703,-8.920496110534668,0.5735609352111816
1789031874708888800,10.944888916015625,-3.1407436653137206,-9.113977532196044,0.33518823242187495
1789031874718891800,10.954891845703125,-3.201945445251465,-9.567080196380614,0.4242226066589355
1789031874728894700,10.964894775390626,-3.3357214630126952,-9.986664037322997,0.5837362922668456
1789031874738898000,10.97489794921875,-3.771166889953613,-9.941473480987549,0.5087678527832031
1789031874748902000,10.98490185546875,-4.055328699493408,-9.612420390319823,0.4655225852966308
1789031874758904800,10.99490478515625,-4.102314907073974,-9.315838659667968,0.8662520881652832
1789031874768907800,11.00490771484375,-3.847182792663574,-9.322572351837158,1.178545767211914
1789031874778911000,11.014910888671874,-3.6586394119262695,-9.44213279724121,1.01514150390625
1789031874788913700,11.02491357421875,-3.8826469047546386,-9.02045402984619,0.6853402252197265
1789031874798918000,11.03491796875,-4.125957648468018,-8.189217140960693,0.8731354179382323
1789031874808920800,11.0449208984375,-4.061613478851318,-7.585429409790039,1.1828852577209472
1789031874818923800,11.054923828125,-3.499724276733398,-7.8992194648742675,0.917428148651123
1789031874828926700,11.0649267578125,-3.266738527679443,-8.756642934417725,0.4381389038085937
1789031874838931000,11.074930908203125,-3.930680575561523,-9.172336197662354,0.2813186950683594
1789031874848934000,11.084933837890626,-4.734833058166504,-9.191489810943603,0.5183446594238281
1789031874858936800,11.094936767578124,-5.022885445404053,-9.208698135375975,0.6534674156188964
1789031874868939800,11.104939697265625,-4.829553661346435,-9.216778565979004,0.7062894897460937
1789031874878944000,11.114944091796875,-4.387374542236328,-9.152135121154785,0.7646481552124023
1789031874888946700,11.12494677734375,-4.083460569000244,-8.96927796936035,0.7630021415710448
1789031874898950000,11.134949951171874,-4.211849633026123,-8.603114752960204,0.7333738960266113
1789031874908952800,11.144952880859375,-4.492420140075684,-8.220641037750244,0.8623615104675293
1789031874918956800,11.154956787109375,-4.2311528839111325,-8.28648158340454,0.9686042091369629
1789031874928959700,11.164959716796876,-3.7591958816528317,-8.680627031707763,0.955735375213623
1789031874938963000,11.174962890625,-3.814561795043945,-8.508992700195313,0.9645639938354491
1789031874948966000,11.1849658203125,-3.9653964996337887,-7.962665808868408,1.0954968971252441
1789031874958969900,11.194969970703125,-3.7241806823730466,-7.588871074676513,1.1887211242675781
1789031874968972800,11.204972900390626,-3.3373674766540526,-7.662792050933837,1.1375450637817381
1789031874978975700,11.214975830078124,-2.779967402648926,-8.510788351440429,0.7827543052673339
1789031874988979000,11.22497900390625,-2.6337714637756346,-9.55720411453247,0.29553426742553707
1789031874998983000,11.23498291015625,-3.3439515312194823,-9.69801309967041,-0.09232640151977539
1789031875008985900,11.24498583984375,-4.062810579681396,-8.661323780822753,-0.045938744354248044
1789031875018988800,11.25498876953125,-3.4317888046264646,-7.972990803527831,0.1406593475341797
1789031875028992000,11.264991943359375,-2.352003855895996,-8.38254892501831,-0.07242460021972656
1789031875038995700,11.27499560546875,-2.7632079910278318,-7.883806791687011,-0.2587234169006348
1789031875048999000,11.2849990234375,-3.027168724060058,-7.794323504638672,-0.06569090805053711
1789031875059001900,11.295001953125,-3.020285394287109,-8.364592412567138,0.055365913391113276
1789031875069004800,11.3050048828125,-2.828898899078369,-9.458144020843505,0.06673837127685546
1789031875079008800,11.3150087890625,-2.7609634269714354,-10.404901139831543,-0.12913725204467771
1789031875089012000,11.325011962890626,-3.395726142120361,-10.06881508178711,-0.1393126091003418
1789031875099014700,11.3350146484375,-4.151695316314697,-9.146448892211913,0.25004443588256836
1789031875109017900,11.345017822265625,-4.34128616027832,-8.835202676391601,0.3960907371520996
1789031875119021000,11.35502099609375,-4.023006977081298,-8.948627980041504,0.4837783729553222
1789031875129024800,11.365024658203126,-3.752013276672363,-8.906729450988768,0.3520972816467285
1789031875139027700,11.37502783203125,-3.749319799804687,-8.820687828826903,0.2524386375427246
1789031875149031000,11.385031005859375,-3.883544730377197,-8.852560638427734,-0.016460136413574217
1789031875159033900,11.395033935546875,-4.1745898696899415,-8.947430879211426,-0.0857423469543457
1789031875169037800,11.405037841796876,-4.423437204742432,-9.076568131256103,0.18420389022827147
1789031875179041000,11.415041015625,-4.605695806121826,-9.232789789581298,0.17477672119140625
1789031875189043700,11.425043701171875,-4.486883548736572,-9.255085792541504,0.3076549133300781
1789031875199047000,11.435046875,-4.260781129455566,-9.171288734436034,0.20575170516967772
1789031875209051000,11.44505078125,-3.9755718566894527,-9.00174932937622,0.34925416717529295
1789031875219053800,11.4550537109375,-3.462763788604736,-8.926182339477538,0.665887336730957
1789031875229056800,11.465056884765625,-3.0259716232299803,-8.837596878051757,0.5927145484924317
1789031875239060000,11.47506005859375,-2.9542952110290526,-8.747664678192137,0.34281975021362304
1789031875249063700,11.485063720703126,-3.0355484298706052,-8.725518312835693,0.12479776153564452
1789031875259067000,11.49506689453125,-3.0547020431518552,-8.820687828826903,-0.2501940734863281
1789031875269069800,11.50506982421875,-3.0425813972473144,-9.172336197662354,-0.5238812507629395
1789031875279072800,11.51507275390625,-2.833238389587402,-9.707739543914794,-0.4182371025085449
1789031875289076700,11.52507666015625,-2.6255413955688476,-10.026018727111817,-0.39264907226562495
1789031875299080000,11.535079833984375,-2.6505308753967283,-10.014795906829834,-0.12509703674316405
1789031875309082600,11.54508251953125,-2.711433380126953,-9.847052153015136,0.1671452033996582
1789031875319085800,11.5550859375,-2.909403929901123,-9.87727894897461,0.23927052841186522
1789031875329089000,11.565089111328126,-3.2695816421508788,-10.001178884887695,0.08170213165283202
1789031875339092700,11.5750927734375,-3.609707915496826,-10.222193625640868,-0.020350714111328123
1789031875349096000,11.585095947265625,-3.92634108505249,-10.450091696166991,-0.1514332550048828
1789031875359099000,11.595098876953125,-3.9606080963134764,-10.752060380554198,-0.18525135345458985
1789031875369101800,11.605101806640626,-3.694552436828613,-11.015272925567626,0.02693476867675781
1789031875379105800,11.615105712890625,-3.3616087684631344,-11.038766029357909,0.4789899696350097
1789031875389109000,11.62510888671875,-3.113060708618164,-10.74457850036621,0.9139864837646484
1789031875399111700,11.635111572265625,-3.008763298797607,-10.085424855804442,1.149216796875
1789031875409115000,11.645114990234376,-2.868253588867187,-9.258976370239257,1.230918928527832
1789031875419118800,11.655118896484375,-2.610727272796631,-8.760383874511719,1.1860276473999023
1789031875429121800,11.665121826171875,-2.4136545486450194,-8.664915083312987,1.139639990234375
1789031875439124700,11.675124755859375,-2.3527520439147946,-8.798391825866698,1.1905167755126953
1789031875449128000,11.6851279296875,-2.457199091339111,-9.005190994262694,1.1840823585510254
1789031875459131600,11.695131591796875,-2.6206033546447753,-9.325265828704833,0.914884309387207
1789031875469134800,11.705134765625,-2.620902629852295,-9.630526540374754,0.6741174049377441
1789031875479137800,11.7151376953125,-2.567033092498779,-9.872041632843017,0.3182791831970215
1789031875489140700,11.725140625,-2.6473884857177734,-9.977685781097412,0.20395605392456054
1789031875499144400,11.73514453125,-2.5959131500244137,-9.773430451965332,0.20605098037719724
1789031875509147600,11.745147705078125,-2.184559377288818,-9.266158975219726,0.2075473564147949
1789031875519150800,11.75515087890625,-2.1124340522766114,-9.018359103393554,0.36062662506103516
1789031875529153500,11.765153564453126,-2.0898387741088866,-9.043647858428955,0.4246715194702148
1789031875539156700,11.77515673828125,-2.0216040267944333,-9.269600640106201,0.2567781280517578
1789031875549160700,11.78516064453125,-1.9853917266845702,-9.432705628204346,0.30526071166992186
1789031875559163600,11.79516357421875,-2.0931308013916015,-9.369558559417724,0.5659294174194336
1789031875569166600,11.80516650390625,-2.252345211791992,-9.23249051437378,0.651821401977539
1789031875579169800,11.815169677734374,-2.3707085563659667,-9.216030377960205,0.591816722869873
1789031875589173500,11.825173583984375,-2.4067712188720702,-9.250596664428711,0.4101566719055176
1789031875599176700,11.8351767578125,-2.3609821121215817,-9.163357941436766,0.2905962265014648
1789031875609179600,11.8451796875,-2.337189733123779,-8.9378540725708,0.43619361495971676
1789031875619182600,11.8551826171875,-2.2463597076416013,-8.832060286712647,0.752677146911621
1789031875629186600,11.8651865234375,-2.1339818672180173,-8.980351152038574,0.6649895111083984
1789031875639189800,11.875189697265625,-2.0437503921508786,-9.319579599761962,0.40581718139648437
1789031875649192400,11.8851923828125,-1.9455881240844726,-9.727192432403564,0.27129297561645505
1789031875659195600,11.895195556640624,-1.8185457984924316,-9.990853890228271,0.2059013427734375
1789031875669199600,11.90519970703125,-1.647809292602539,-9.871443082427978,0.3350385948181152
1789031875679202600,11.91520263671875,-1.4794669883728027,-9.468917928314209,0.612915625
1789031875689205800,11.925205810546874,-1.4374188217163084,-9.21857421722412,0.7510311332702636
1789031875699208700,11.935208740234375,-1.6092027908325195,-9.31434228363037,0.679953271484375
1789031875709212400,11.94521240234375,-1.7485153999328613,-9.775675016021728,0.479438882446289
1789031875719215600,11.955215576171875,-1.8543091857910154,-10.383054049682617,0.31753099517822264
1789031875729218800,11.96521875,-1.9282301620483397,-10.861744744110107,0.2075473564147949
1789031875739221500,11.975221435546874,-1.8204910873413085,-10.906785662841797,0.2871545616149902
1789031875749224700,11.985224609375,-1.7850269752502441,-10.383951875305176,0.4400841926574707
1789031875759228700,11.995228759765626,-1.777994007873535,-9.745298582458496,0.824203921508789
1789031875769231600,12.005231689453124,-1.778742195892334,-9.304017288970947,1.2503718170166014
1789031875779234600,12.015234619140625,-1.7983447219848632,-9.126247815704344,1.4891934326171874
1789031875789237800,12.02523779296875,-1.8983026412963866,-9.177423876190185,1.3941735542297362
1789031875799241500,12.035241455078125,-2.073079362487793,-9.434501279449462,1.141585279083252
1789031875809244700,12.04524462890625,-2.2010195137023922,-9.79393080368042,0.8128314636230468
1789031875819247600,12.05524755859375,-2.2035633529663086,-10.166528437042235,0.5149029945373534
1789031875829250600,12.06525048828125,-2.217479650115967,-10.371232678985596,0.18285715179443357
1789031875839254500,12.075254638671876,-2.267009696960449,-10.42585040435791,-0.04638765716552734
1789031875849257700,12.0852578125,-2.4685715492248534,-10.198101971435547,0.02289455337524414
1789031875859260700,12.0952607421875,-2.805854708099365,-9.717765263366699,0.2832639839172363
1789031875869263600,12.105263671875,-2.965368393707275,-9.213636176300048,0.46671968612670894
1789031875879267600,12.115267578125,-2.720411636352539,-9.026439533996582,0.8415618835449218
1789031875889270500,12.1252705078125,-2.437596565246582,-9.03317322616577,1.148468608856201
1789031875899273700,12.135273681640625,-2.215983274078369,-9.144802878570555,1.3090297576904295
1789031875909276700,12.145276611328125,-2.2560861518859863,-9.387215796661376,1.287182667541504
1789031875919279600,12.155279541015625,-2.4328081619262694,-9.614365679168701,1.0215759208679198
1789031875929283600,12.16528369140625,-2.656516379547119,-9.814431155395507,0.8815151237487793
1789031875939286800,12.175286865234375,-2.825756509399414,-9.894786548614501,0.6495768379211425
1789031875949289500,12.18528955078125,-2.7138275817871094,-10.038887561035155,0.41808746490478516
1789031875959292700,12.195292724609375,-2.4157494750976563,-10.224587827301026,-0.11566986770629882
1789031875969296600,12.205296630859374,-2.2782325172424316,-10.345195735931396,-0.45759179229736324
1789031875979299600,12.215299560546875,-2.460491118621826,-10.175357055664062,-0.7867945205688476
1789031875989302500,12.225302490234375,-2.710236279296875,-9.712079034423828,-1.073200894165039
1789031875999305700,12.2353056640625,-2.7718869720458983,-9.260023833465576,-0.924461116027832
1789031876009309700,12.245309814453124,-2.474557053375244,-9.131485131835937,-0.8768763580322265
1789031876019312600,12.255312744140625,-2.8055554328918455,-9.246706086730956,-0.7143699203491211
1789031876029315600,12.265315673828125,-3.2549171569824216,-9.645490300750732,-0.2941875289916992
1789031876039318500,12.275318603515625,-3.640982174682617,-10.070910008239746,-0.03920505218505859
1789031876049321700,12.28532177734375,-4.197634060668945,-10.172663578796387,-0.24405893173217771
1789031876059325700,12.29532568359375,-4.561403075408935,-10.111461798858642,-0.2819172454833984
1789031876069328600,12.30532861328125,-4.812494974517822,-9.922319867706298,0.46851533737182616
1789031876079331600,12.31533154296875,-4.8606782829284665,-9.214234726715087,0.7665934440612793
1789031876089334800,12.325334716796876,-4.6173675392150875,-8.273762387084961,0.898274535369873
1789031876099338800,12.3353388671875,-4.343530724334716,-7.4055650100708,1.1643301948547362
1789031876109341700,12.345341796875,-3.6207810981750486,-7.016806515502929,1.5506944877624511
1789031876119344600,12.3553447265625,-2.7813141410827633,-7.314435709381103,1.435772808074951
1789031876129347600,12.36534765625,-2.4365491020202636,-7.889193745422363,1.0223241088867188
1789031876139351600,12.3753515625,-2.8770822074890137,-8.067112856292724,0.8222586326599121
1789031876149354800,12.385354736328125,-3.633350656890869,-7.907150257873535,0.8876502655029296
1789031876159357400,12.395357421875,-3.737348791503906,-8.202834162902832,1.0155904167175291
1789031876169360600,12.405360595703126,-3.2529718681335447,-9.04095438156128,0.838868406677246
1789031876179364600,12.415364501953125,-3.0904654304504393,-9.521889640045165,0.3724479957580566
1789031876189367800,12.425367919921875,-3.4023101966857907,-9.185205031585692,0.15158289260864258
1789031876199370500,12.43537060546875,-3.8666356811523435,-8.129661374664305,0.2528875503540039
1789031876209373700,12.445373779296874,-3.7292683609008788,-7.739855416870117,0.5285200164794922
1789031876219376600,12.455376708984375,-3.0283658248901366,-8.735843307495117,0.5720645591735839
1789031876229380600,12.465380615234375,-2.7998692039489743,-10.172513941192626,0.11507131729125976
1789031876239383800,12.4753837890625,-3.452588431549072,-10.652102461242675,-0.1666962905883789
1789031876249386500,12.485386474609374,-4.274398151397705,-9.742156192779541,-0.06778583450317383
1789031876259389700,12.4953896484375,-4.260481854248047,-8.79165813369751,0.24750059661865234
1789031876269393700,12.5053935546875,-3.5277065086364745,-8.687360723876953,0.09786299285888671
1789031876279396900,12.51539697265625,-3.0234277839660644,-8.821585654449462,-0.03890577697753906
1789031876289399600,12.525399658203124,-2.8865093765258787,-8.770858506774902,-0.07077858657836913
1789031876299402800,12.53540283203125,-3.16004691619873,-8.79061067047119,0.006733692169189453
1789031876309406700,12.54540673828125,-3.5220202796936033,-8.84867006072998,0.1135749412536621
1789031876319409700,12.55540966796875,-3.4261025756835934,-9.249698838806152,0.19557634811401367
1789031876329412600,12.56541259765625,-3.154510324859619,-9.71058265838623,0.15532383270263672
1789031876339415600,12.57541552734375,-3.312976547241211,-9.775824653625488,0.22041619033813475
1789031876349418800,12.585418701171875,-3.2366613693237305,-10.101136804199218,0.05117606048583984
1789031876359422700,12.595422607421876,-3.293523658752441,-9.506925879669188,-0.1596633232116699
1789031876369425400,12.60542529296875,-3.7789480453491207,-7.873032884216308,0.11028291397094726
1789031876379428600,12.6154287109375,-3.649810793304443,-7.109282554626464,0.41150341033935545
1789031876389431800,12.625431884765625,-3.210025875854492,-7.602338459014892,0.2380734275817871
1789031876399435800,12.635435791015626,-3.1473277198791503,-8.820687828826903,-0.15337854385375976
1789031876409438700,12.645438720703124,-3.16663097076416,-10.050409656524657,-0.5807435401916503
1789031876419441700,12.655441650390625,-3.5233670181274412,-10.59778401107788,-0.9738415252685546
1789031876429444600,12.665444580078125,-3.8130654190063473,-10.276362438201904,-0.8928875816345214
1789031876439448600,12.675448486328126,-4.0918402748107905,-9.488520454406737,-0.5873275947570801
1789031876449451800,12.68545166015625,-4.306270960998535,-8.322993158721923,-0.34012627334594725
1789031876459454500,12.695454345703125,-4.139873945617675,-7.756315553283691,-0.07122749938964844
1789031876469457700,12.705457763671875,-3.6399347114562985,-7.970895877075195,0.07242460021972656
1789031876479460600,12.715460693359375,-3.295020034790039,-8.595333597564697,-0.2829647087097168
1789031876489465600,12.725465576171874,-3.286640328979492,-9.356989000701903,-0.4929062667846679
1789031876499468300,12.73546826171875,-3.524713756561279,-9.72943699645996,-0.5849333930969238
