time,seconds_elapsed,z,y,x
1789031863817818600,0.053818603515625,-0.6110195821203291,0.12158581375181675,0.08325272209569812
1789031863827821800,0.06382177734375,-0.5506788029260933,0.10019815780818461,0.040957887201756235
1789031863837825500,0.073825439453125,-0.4775001694686711,0.017407061874866486,-0.005234247391670942
1789031863847828700,0.083828857421875,-0.34199674339294434,-0.013599486285448074,-0.07919044109284877
1789031863857831700,0.093831787109375,-0.20412980305626988,-0.024984803652763364,-0.060020315068215126
1789031863867835600,0.103835693359375,-0.03416778867021203,0.03527063534557819,-0.023915713116526603
1789031863877838600,0.113838623046875,0.0395453900553286,0.08402385259866714,-0.10085472202077507
1789031863887841800,0.123841796875,0.0645060821801424,0.11459551647305488,-0.14079524887353181
1789031863897845800,0.133845703125,-0.04991349320411682,0.07706219689249992,-0.1381643158480525
1789031863907848700,0.1438486328125,-0.16304361329972744,0.017335165682435035,-0.15110314626768231
1789031863917851600,0.1538515625,-0.23665420843362805,0.007526888373494148,-0.11805778575614094
1789031863927854600,0.1638544921875,-0.20439181499332187,-0.06031622927486896,-0.13629457645341753
1789031863937858600,0.173858642578125,-0.07028305814638733,-0.20416180562973021,-0.2791262995906174
1789031863947861800,0.18386181640625,-0.032066870868206025,-0.6963619699716568,-0.20815569757148622
1789031863957864700,0.19386474609375,-0.03541632742658257,-1.275583999684453,-0.23140125634148714
1789031863967868700,0.20386865234375,0.09042334437742829,-1.3788245939284562,-0.6537536852143705
1789031863977871600,0.21387158203125,0.14878069466948507,-1.3450743000179528,-1.0675953292429448
1789031863987874800,0.223874755859375,0.1377881760120392,-1.2761989167124033,-1.0511185339555145
1789031863997878500,0.23387841796875,0.03089315091371536,-1.2784978413045405,-0.9658120942004025
1789031864007881700,0.2438818359375,-0.1101852988153696,-1.397939628764987,-0.8325072010822594
1789031864017884700,0.253884765625,-0.23183584836646914,-1.4962462737381457,-0.8594597976766526
1789031864027888600,0.263888671875,-0.25061083759367464,-1.4543103352844715,-0.9897077874422073
1789031864037891600,0.2738916015625,-0.1810829817287624,-1.344302146601677,-1.134770338371396
1789031864047894800,0.283894775390625,-0.04054769896566868,-1.0543015479058027,-1.13972416138649
1789031864057897500,0.2938974609375,-0.027825580036640166,-0.6196300279468298,-1.0131520836547017
1789031864067901700,0.303901611328125,0.17996961365938186,-0.055181788995862006,-0.4376173641525209
1789031864077904600,0.313904541015625,0.24731106539592146,0.10299509505033493,-0.030456805323064325
1789031864087907600,0.323907470703125,0.1435407481893897,0.0718085141479969,0.039112989987432956
1789031864097911600,0.33391162109375,0.6465249030046165,0.13127660216093062,0.299365223890543
1789031864107914800,0.343914794921875,0.47848377367854117,-0.254925778183341,0.3768324944525957
1789031864117917400,0.35391748046875,0.6666990915052592,-0.4497878405481577,0.38020693932175637
1789031864127921700,0.363921630859375,0.5625086491905152,-0.5507663350790739,0.32908933102488513
1789031864137924600,0.373924560546875,0.5443199354186654,-0.3669669339984655,0.43561143115758894
1789031864147927800,0.383927734375,0.16737974280789494,-0.4537865547955036,0.14269640631973743
1789031864157931500,0.393931640625,-0.06352569284066557,-0.47970542442798614,0.04444470640420913
1789031864167934700,0.403934814453125,-0.26879779779985546,-0.45932197709083555,-0.06689648444801569
1789031864177937700,0.413937744140625,-0.2140187443859875,-0.29059096580445765,-0.13525836527347565
1789031864187941600,0.423941650390625,0.04165587940327823,-0.024798341169953345,0.2827577879607677
1789031864197944600,0.433944580078125,0.024738719937205313,-0.037410569983720776,0.3260796278148889
1789031864207947800,0.44394775390625,-0.0399983214545995,-0.35857261514067645,0.0576134000569582
1789031864217950500,0.453950439453125,-0.1015833285562694,-0.6191881293982266,-0.29696196214109655
1789031864227954700,0.46395458984375,0.039055414581298825,-0.40481531087756156,-0.29737200424671173
1789031864237957600,0.47395751953125,0.09886245222501457,0.0707405926555395,-0.14460925420373677
1789031864247960600,0.483960693359375,0.18671039315648374,0.4998275904804468,-0.13108546350300312
1789031864257964500,0.493964599609375,0.31155301674716174,0.831539086702466,-0.19689093784391878
1789031864267967700,0.5039677734375,0.2760971610277891,0.9504840305566787,-0.11035217981487512
1789031864277970400,0.513970458984375,0.2297778929233551,0.9265268163859843,-0.0011649521261453627
1789031864287974700,0.523974609375,0.16365385415256023,0.8354472000569104,-0.0992860113993287
1789031864297977600,0.5339775390625,0.20497491211090235,0.7720815200835466,-0.10157412233650684
1789031864307980500,0.54398046875,0.18205401871800422,0.7562216876506805,-0.23765900156199932
1789031864317984500,0.553984619140625,0.3143400901824236,0.6795154645889997,-0.24516835427880285
1789031864327987700,0.56398779296875,0.33362872802019117,0.6683674631088972,-0.32077713749259706
1789031864337990700,0.57399072265625,0.35249592557549475,0.8957143294930457,-0.32484219497442246
1789031864347993600,0.58399365234375,0.5541816964805126,1.1813368592351674,0.08530190971046686
1789031864357997600,0.59399755859375,0.5830932816555723,1.3413766145437955,-0.08228168510645628
1789031864368000800,0.604000732421875,0.7239280222892761,1.410757609283924,-0.06672083562016487
1789031864378003700,0.614003662109375,0.8382114040732384,1.2756617410957813,-0.04798486322909593
1789031864388007700,0.624007568359375,0.7737445579249411,1.0380781428575516,-0.14763678533136843
1789031864398010600,0.6340107421875,0.8248445574998855,0.7477285845935344,-0.11408727468997239
1789031864408013600,0.644013671875,0.9192951115667819,0.343825127863884,-0.23270868567824363
1789031864418017500,0.654017578125,0.6519687014937401,0.16337679077684877,-0.5945432252243161
1789031864428020700,0.664020751953125,0.4183024958949536,0.1523047771424055,-0.41607729412615296
1789031864438023700,0.674023681640625,0.4292904114425182,0.04701017297804355,-0.259351485671103
1789031864448027600,0.684027587890625,0.2244051138438284,0.07141746900379657,-0.4604039271086454
1789031864458030600,0.694030517578125,0.3087386899787932,0.055821255943179125,-0.2813295087233186
1789031864468033500,0.704033447265625,0.15698270582556723,0.19110709374547002,-0.34933044728189705
1789031864478036000,0.714035888671875,0.108027682390064,0.49183074650764463,0.02991846066266298
1789031864488039700,0.724039794921875,0.2584638891816139,0.6684083796411753,0.6877879106327891
1789031864498043000,0.73404296875,0.16850597035884857,0.583334725728631,0.4970429281979799
1789031864508045800,0.7440458984375,0.18510171585083007,0.28082769668102264,0.3163520145267248
1789031864518049800,0.7540498046875,0.3302629048489034,-0.16474223391115664,0.37527854300886393
1789031864528052700,0.764052734375,0.25714060468859967,-0.4187953209131956,-0.05635404764562845
1789031864538056000,0.774055908203125,0.15360533834695816,-0.4170294802844524,-0.08464724519401788
1789031864548059600,0.7840595703125,0.04136690639406442,-0.41071898196339607,0.23272183742076158
1789031864558062800,0.794062744140625,-0.21885332493558524,-0.5033376444280148,0.06268968040794133
1789031864568065800,0.804065673828125,-0.1397415020368993,-0.567791704159975,0.20604133576601744
1789031864578070000,0.814070068359375,0.0003134498633444309,-0.5991518880635499,0.09372223979234695
1789031864588072700,0.82407275390625,0.28322657451629635,-0.5224082556009292,0.4192401420712471
1789031864598076000,0.834075927734375,0.45002924808859823,-0.4401736245065927,0.3106961807221174
1789031864608078600,0.84407861328125,0.5580654060460627,-0.29680852514505385,0.23690701415091753
1789031864618082800,0.854082763671875,0.6083773970484733,-0.2321346851825714,0.47379415455758567
1789031864628085800,0.864085693359375,0.4676362164497375,-0.2189887878835201,0.518074318049848
1789031864638088700,0.874088623046875,0.2152183294340968,-0.20960136633515355,0.5186942035138606
1789031864648092700,0.8840927734375,-0.06646627633720636,-0.24552257454395293,0.4356172763764858
1789031864658095900,0.894095947265625,-0.27433862692266703,-0.15619009414315224,0.30751053642332554
1789031864668098800,0.904098876953125,-0.1421136379957199,-0.2657406021863222,0.300446881647408
1789031864678102800,0.914102783203125,-0.29087007500678297,-0.30215105521678925,-0.11207914973795413
1789031864688105700,0.924105712890625,-0.3552107374921441,-0.26005203515589237,-0.42207331967055794
1789031864698109000,0.93410888671875,-0.3045613312289119,-0.18689385996460914,-0.5725280850321054
1789031864708112600,0.944112548828125,-0.2504337274610996,-0.22151567601263522,-0.6591781944811343
1789031864718115800,0.95411572265625,-0.2450175476312637,-0.2592921566992998,-0.665967416229844
1789031864728118800,0.964118896484375,-0.05853036877140402,-0.3247966022670269,-0.35939006900340315
1789031864738121700,0.974121826171875,0.2478831661954522,-0.29996845048069953,-0.2132248175293207
1789031864748125700,0.984125732421875,0.3421834981366992,-0.23308804038465022,-0.4634919562518596
1789031864758129000,0.99412890625,0.5914236318990588,-0.08719839098155498,-0.5165130600824952
1789031864768131800,1.0041318359375,0.815324741743505,0.07850830404758453,-0.46624359304755925
1789031864778135800,1.0141357421875,0.672867989398539,0.29202888965308665,-0.5100272051945328
1789031864788138800,1.024138671875,0.4225666561454534,0.5298159015089273,-0.26168168218433857
1789031864798141700,1.0341416015625,0.19124504091143607,0.3611521102398634,-0.03757423611283302
1789031864808145700,1.044145751953125,0.013932809893041848,-0.1339525433719158,-0.06569266161620617
1789031864818148900,1.05414892578125,-0.1140798220358789,-0.3647586102992296,-0.21391893727332353
1789031864828151800,1.06415185546875,-0.05020224701762199,-0.47715047924816606,-0.43427959803193805
1789031864838154800,1.07415478515625,0.1477919758930802,-0.4668313298076391,-0.6759171478360891
1789031864848158700,1.08415869140625,0.18962036231905222,-0.3357382675200701,-0.9460606611564755
1789031864858162000,1.094161865234375,0.07750526448488235,-0.03736088562309742,-1.1339382714614272
1789031864868164900,1.104164794921875,-0.06053688628822565,0.17690321182608604,-1.1990092940479515
1789031864878168800,1.1141689453125,0.07750058830976486,0.395457699945569,-1.044155416944623
1789031864888172000,1.124172119140625,0.6222679752349853,0.7041138992726802,-0.6909937209367751
1789031864898174700,1.1341748046875,0.7460746799066662,0.42556233083009715,-0.2798395624265075
1789031864908178700,1.1441787109375,0.8131833458006381,-0.5853834749519825,-0.24253742125332353
1789031864918182000,1.154181884765625,0.3875678234785795,-1.1392898616224527,-0.10307575907111168
1789031864928184800,1.164184814453125,-0.14333295065760612,-1.3193337095618247,0.2931871197775006
1789031864938188800,1.174188720703125,-0.5138739437505603,-0.8971551759511232,-0.0575567014336586
1789031864948192000,1.18419189453125,-0.9148100751072168,-0.3504670500963926,-0.43676819997727867
1789031864958194700,1.194194580078125,-1.1323483719214797,-0.3205225782096386,-0.18760230049490928
1789031864968198000,1.204197998046875,-0.9382666462793946,-0.41679742509424683,-0.25465602133125065
1789031864978201900,1.214201904296875,-0.6567912993445992,-0.2746107218623161,-0.3912780761733651
1789031864988204800,1.224204833984375,-0.107707802785933,-0.373760247400403,-0.05925707561075687
1789031864998207700,1.234207763671875,0.21448826159387827,-0.7313578800290823,0.013914543583989143
1789031865008212000,1.2442119140625,0.2120116423472762,-0.9436725969761609,-0.12909370516389607
1789031865018214700,1.254214599609375,0.09347703285962343,-0.8955681990206241,-0.4288853377729654
1789031865028217900,1.2642177734375,-0.06310907486379146,-0.6421089862585068,-0.6152110424607992
1789031865038221800,1.274221923828125,-0.017003449510037898,-0.19943711519539356,-0.46916006501615043
1789031865048225000,1.28422509765625,0.17435966482311485,0.1703255870014429,-0.040243455322086806
1789031865058227700,1.294227783203125,0.3721756085574627,0.15418810667097568,0.1463613585680723
1789031865068231000,1.30423095703125,0.48399464605450626,-0.009529460367560387,0.16620646124482155
1789031865078235000,1.31423486328125,0.5270590040162205,-0.07969137635231018,0.1271288348317146
1789031865088237800,1.32423779296875,0.568989097250998,-0.09318974035084247,-0.004741933830082416
1789031865098240800,1.33424072265625,0.510472610874474,-0.09086217418611049,-0.21718027715682983
1789031865108245000,1.344244873046875,0.4651403079807758,-0.21847791575193404,-0.5348673396795988
1789031865118247700,1.35424755859375,0.43535891770124435,-0.34864684893190856,-0.6275014919742942
1789031865128251000,1.3642509765625,0.40061698240488763,-0.3342670259237289,-0.5055971137925982
1789031865138254800,1.3742548828125,0.3444040967956185,-0.18462591503262518,-0.24936200657635926
1789031865148257800,1.3842578125,0.41018443669527765,-0.18383622595965862,-0.014904723665118217
1789031865158260700,1.3942607421875,0.39830227572172877,-0.2827303154319525,0.040354806742072105
1789031865168264000,1.404263916015625,0.25905747116059064,-0.3037742725044489,0.019661855064332483
1789031865178267600,1.414267578125,0.07843582333326339,-0.3020978637248278,-0.036219606633484364
1789031865188270800,1.424270751953125,0.04846534022241831,-0.3825309983551502,-0.1900038086786866
1789031865198273800,1.434273681640625,0.1753942685678601,-0.4142617691367864,-0.3205456668242812
1789031865208277800,1.44427783203125,0.23597850112915036,-0.3381985201537609,-0.3600567162185907
1789031865218280700,1.45428076171875,0.2943956187844276,-0.33020576783418654,-0.32061493266820906
1789031865228284000,1.464283935546875,0.34885201611518857,-0.42190439284443854,-0.3599389350578189
1789031865238288000,1.474287841796875,0.4504278920173645,-0.49231473063230513,-0.5590902190491557
1789031865248290800,1.484290771484375,0.5577779674068093,-0.47839258826375003,-0.5805380807474255
1789031865258293800,1.494293701171875,0.613816373232007,-0.44984921534657474,-0.5040612825274468
1789031865268296700,1.504296630859375,0.5657341871082783,-0.46052375409603113,-0.42141923967599865
1789031865278300700,1.51430078125,0.5369210573390126,-0.5134077875435352,-0.3678311496123671
1789031865288303900,1.524303955078125,0.5402078239247202,-0.57494391400218,-0.3437108538344502
1789031865298306800,1.534306884765625,0.6289853007912636,-0.6158738902837038,-0.3071133537992835
1789031865308310800,1.544310791015625,0.6526993538558483,-0.6536825196743011,-0.2500117026567459
1789031865318313700,1.554313720703125,0.5976739244654774,-0.5182581501841544,-0.2093342398315668
1789031865328317000,1.56431689453125,0.6153007665708661,-0.5031529355108738,-0.27777970728725193
1789031865338320600,1.574320556640625,0.5967687923192978,-0.6184107152849435,-0.36731297095716
1789031865348323800,1.58432373046875,0.5550993958473205,-0.5929471882045269,-0.4070400011897087
1789031865358326800,1.594326904296875,0.5050067466840148,-0.5275912111967802,-0.33278409388959407
1789031865368330800,1.604330810546875,0.5285349217876791,-0.4955231712847948,-0.27866759603768587
1789031865378333700,1.614333740234375,0.5736717021092772,-0.4972118550240993,-0.2933937482655048
1789031865388337000,1.6243369140625,0.6407797834813594,-0.5396843845725059,-0.3305322233095765
1789031865398339800,1.63433984375,0.6366749785110354,-0.5306003298848867,-0.4150108339384198
1789031865408343800,1.64434375,0.5965209550380707,-0.6139286014348269,-0.4968237324893474
1789031865418347000,1.654346923828125,0.6210942552804947,-0.707782943174243,-0.5374409895598888
1789031865428349700,1.664349609375,0.7127522560194134,-0.6458481727868318,-0.4757561022803187
1789031865438353700,1.674353759765625,0.8094906287625432,-0.4925684131324291,-0.41846302021890874
1789031865448356900,1.68435693359375,0.9660033789888024,-0.4497410787969827,-0.2949778025865555
1789031865458359800,1.69435986328125,0.9758937816232442,-0.4774409866273403,-0.16274784522354602
1789031865468363800,1.70436376953125,0.9230594325363636,-0.38319209261238574,-0.16555384255498648
1789031865478367200,1.7143671875,0.8958581218779087,-0.36601767044961453,-0.2070531431570649
1789031865488370400,1.724370361328125,0.878999633796513,-0.4807008652061224,-0.30648119337558744
1789031865498373600,1.73437353515625,0.9095607762768864,-0.6064952365636825,-0.45357700369805093
1789031865508377300,1.74437744140625,0.9718363229259848,-0.6571522416114807,-0.6906278102338314
1789031865518380300,1.75438037109375,1.0252043404981492,-0.4898422030389309,-0.8508572428956628
1789031865528383500,1.764383544921875,1.044591470274329,-0.41840076863765713,-0.8788713312417268
1789031865538387200,1.77438720703125,1.0118787027180194,-0.5080529825121164,-0.8215972461417317
1789031865548390400,1.784390380859375,0.929627120488882,-0.5773217490494251,-0.7610065838396549
1789031865558393600,1.7943935546875,0.7513131650820374,-0.5955395427852869,-0.8356070667937398
1789031865568397600,1.8043974609375,0.45240386826545,-0.5568313342064619,-0.7863228114038705
1789031865578400300,1.814400146484375,0.36008798813968895,-0.5345739096909761,-0.4652610117509961
1789031865588403500,1.824403564453125,0.6419602254375815,-0.5171294384151697,-0.06822276461571454
1789031865598406400,1.834406494140625,0.9962740140900015,-0.6188917768001556,-0.054338908430933947
1789031865608410400,1.844410400390625,1.0628773608103395,-0.7756886046648025,-0.17681202641129493
1789031865618413600,1.85441357421875,0.9374725732922553,-0.7560948464006185,-0.26010727247446774
1789031865628416300,1.864416259765625,0.7564239322245121,-0.6633207011133432,-0.5721724034622311
1789031865638420200,1.874420166015625,0.6215837923631071,-0.6926081703960895,-0.8348936578273772
1789031865648423400,1.88442333984375,0.7032444229617715,-0.8231196334034204,-0.8282537814214825
1789031865658426400,1.89442626953125,0.6847443051531911,-0.9443541494995356,-0.8222598017036914
1789031865668430300,1.904430419921875,0.531968695628643,-0.9624597150325774,-0.8304860705181956
1789031865678433500,1.91443359375,0.2940755930498242,-0.6566746872276067,-0.6467705483287572
1789031865688436500,1.9244365234375,0.1501098974466324,-0.46678106092512606,-0.3137050071492791
1789031865698439400,1.934439453125,-0.06591361089050769,-0.6651403177559375,-0.0012266191855072974
1789031865708443400,1.944443359375,-0.2082102042376995,-0.9529828616350888,0.28394816678911444
1789031865718446600,1.954446533203125,-0.2885316951870918,-0.8577543089330196,0.45934798831492657
1789031865728449300,1.96444921875,-0.29017244813144205,-0.2188455800205469,0.2968406738489866
1789031865738453500,1.97445361328125,-0.16236439886391163,0.5924164423286914,-0.0823527045160532
1789031865748456400,1.98445654296875,-0.30863281845152374,0.7908475953519344,-0.2691787599414587
1789031865758459400,1.99445947265625,-0.5471007983088493,0.2569283501774072,-0.4126137096688151
1789031865768463400,2.00446337890625,-0.3317465675354004,-0.23900223286449906,-0.3434831825584173
1789031865778466600,2.014466552734375,-0.2819523167967796,-0.19752982026934623,-0.3145505180627107
1789031865788469200,2.02446923828125,-0.3236146990060806,0.24025427875220773,-0.23302549654245375
1789031865798472400,2.034472412109375,-0.31840865479558705,0.5553741211354732,-0.25479250719249247
1789031865808476400,2.044476318359375,-0.2977250554680824,0.38399697925448417,-0.2668333658590913
1789031865818479400,2.054479248046875,-0.27571313014626503,-0.07317454180419444,-0.09863339270949363
1789031865828482300,2.064482421875,-0.23144582613557577,-0.3649813131392002,-0.03830196586549282
1789031865838486500,2.074486572265625,-0.20496143157482147,-0.3030705081492662,-0.2773956764057278
1789031865848489500,2.084489501953125,-0.2345291791036725,-0.023978256958723066,-0.4997045486226678
1789031865858492400,2.094492431640625,-0.37136516895741223,-0.02141395942866802,-0.6937772141754627
1789031865868496400,2.104496337890625,-0.6824418734297156,-0.2636024211138487,-0.9221341343849897
1789031865878499600,2.11449951171875,-0.7868532650187611,-0.5435533349603414,-1.2794137871056794
1789031865888502300,2.124502197265625,-0.7058838315546512,-0.6125964760482311,-1.4321926115006207
1789031865898505500,2.13450537109375,-0.7013990873560308,-0.40100189006924625,-1.3736056902363896
1789031865908509400,2.144509521484375,-0.4069096528083086,-0.23731413364708423,-1.2900941710740328
1789031865918512400,2.154512451171875,-0.19880057085752487,-0.2917389667958021,-1.2168053552404046
1789031865928515300,2.164515380859375,-0.1426677647471428,-0.7603875751584768,-1.1172884576946496
1789031865938519600,2.17451953125,0.018664952981472013,-0.9319126010775566,-0.8257838841766119
1789031865948522200,2.184522216796875,0.08666472249627113,-0.6854407629847526,-0.43929888749867674
1789031865958525400,2.194525390625,0.05743570540249347,-0.4361187961578369,-0.2216162137776613
1789031865968529400,2.204529296875,0.03458265308141708,-0.2566641462832689,-0.298960442481935
1789031865978532400,2.214532470703125,-0.02979132715165615,-0.4808709610760212,-0.5085448576822876
1789031865988535300,2.224535400390625,0.10511106429100037,-0.7277671620607375,-0.8328750114813447
1789031865998538500,2.23453857421875,0.2773082903832197,-0.6623778673052787,-1.0883844347715377
1789031866008542200,2.244542236328125,0.38792321278750896,-0.42719256238043307,-1.1429366936922072
1789031866018545400,2.25454541015625,0.6393120490163564,-0.4485147518724203,-0.5602531253486871
1789031866028548400,2.26454833984375,0.7336135500013827,-0.80700670299232,0.032576866216957566
1789031866038552600,2.274552490234375,0.7398807937026023,-1.021347957330942,0.11392828473597764
1789031866048555300,2.28455517578125,0.859213860091567,-1.0329080467432736,0.21187954040020704
1789031866058558500,2.294558349609375,0.6768412769436836,-0.7308131056278944,0.08473843060880899
1789031866068562400,2.3045625,0.5020575414896011,-0.3080833678752184,-0.3899178937360644
1789031866078565400,2.3145654296875,0.4623766884863376,0.05753215151429176,-0.7858215838834642
1789031866088568600,2.324568603515625,0.2613087572187185,-0.15566051731109617,-1.1935606732532382
1789031866098571300,2.3345712890625,0.3296060483753681,-0.6354805080294609,-1.8236980666890739
1789031866108575200,2.3445751953125,0.5566682525992394,-0.5265636217147112,-2.331817100174725
1789031866118578400,2.354578369140625,0.4456348125219345,-0.43676936902105806,-2.5013641040191055
1789031866128581400,2.364581298828125,0.24311551340222357,-0.5438707303464413,-2.395580255033076
1789031866138585300,2.37458544921875,0.14553309105038642,-0.589039659371972,-2.2807596976324915
1789031866148588500,2.384588623046875,0.33327976845204826,-0.401336236590147,-1.996995947499573
1789031866158591500,2.394591552734375,0.696760613900423,-0.038244098198413845,-1.629711325854063
1789031866168595200,2.40459521484375,0.9744999891772865,0.35433833857178687,-1.2063219551488757
1789031866178598400,2.414598388671875,0.9797413969621062,0.6873691006988286,-1.0043415852114557
1789031866188601600,2.4246015625,0.972376713413,0.8110323052465915,-1.0252037559762597
1789031866198604300,2.434604248046875,0.9513330486014485,0.7247153732746839,-1.2019342415839434
1789031866208608500,2.4446083984375,0.7120534601002931,0.4081856640934944,-1.4837690694808958
1789031866218611500,2.454611572265625,0.3431692943036556,-0.21424247013926503,-1.78481976224035
1789031866228614400,2.464614501953125,0.17533669316172598,-0.6714268506795168,-2.2624916350141167
1789031866238618400,2.474618408203125,0.2313724686384201,-1.0080763878256083,-2.840038717252016
1789031866248621600,2.48462158203125,0.33152269565165043,-1.2406576477319002,-3.274948137620091
1789031866258624300,2.494624267578125,0.258407775080204,-1.4353051905632017,-3.2955580871894954
1789031866268627500,2.50462744140625,0.03697042500078678,-1.2624778498739004,-2.800582028393447
1789031866278631400,2.51463134765625,-0.2919751136392355,-0.8995406097829342,-2.056813871863484
1789031866288634400,2.52463427734375,-0.7308113520622253,-0.9124339936256408,-1.3351760063380003
1789031866298637300,2.53463720703125,-1.3993530026942491,-1.2268939107954502,0.6759259156644344
1789031866308641500,2.5446416015625,-2.099262436014414,-1.6986738029211759,2.2422493497133256
1789031866318644200,2.554644287109375,-2.735626741141081,-2.0329495966732503,2.2038021301582456
1789031866328647400,2.5646474609375,-2.8191344609111546,-2.0759727458417414,1.939197838525474
1789031866338651400,2.5746513671875,-2.0136586207479237,-1.4987836832612753,1.7698448959484696
1789031866348654600,2.584654541015625,-1.2239765620440244,-0.9521294596761465,1.4545505737811326
1789031866358657300,2.5946572265625,-0.7384276722848415,-0.7686141362339258,0.886252673664689
1789031866368660500,2.604660400390625,-0.08125263431966304,-0.6214350315421819,0.19974720405787227
1789031866378664400,2.61466455078125,0.6201040751993656,-0.1850830111503601,-0.13505378261208534
1789031866388667400,2.62466748046875,1.3771598755866288,0.35566461873948574,-0.1198296177342534
1789031866398670300,2.63467041015625,2.079725960895419,0.5387994184315205,0.08214958315938711
1789031866408674600,2.644674560546875,2.457225979346037,0.1792272708594799,0.2788935137480497
1789031866418677200,2.65467724609375,2.387625788897276,-0.2563590258568525,0.5932052546188235
1789031866428680400,2.664680419921875,2.277951946735382,-0.389333079585433,0.781368403866887
1789031866438684400,2.674684326171875,2.603350898809731,-0.5531172821193933,1.23158440669924
1789031866448687400,2.684687255859375,3.099699415002763,-0.7104653141260147,1.3216267889350652
1789031866458690300,2.694690185546875,3.7163065879970785,-0.5405044687837361,1.073635193929076
1789031866468693500,2.704693603515625,3.8392368020951744,0.30387071861624715,1.1420678019031882
1789031866478697700,2.71469775390625,3.608585048946738,0.9396148460179566,1.248403147292137
1789031866488700700,2.72470068359375,3.469997831511497,1.1377964081943035,1.326501993755996
1789031866498703600,2.73470361328125,3.1895752085000275,0.9503145192086696,1.0480851576089858
1789031866508707800,2.744707763671875,2.5979016934931276,0.41735096732378,0.4948430800661444
1789031866518710500,2.75471044921875,2.1577824295222756,-0.09352759400308132,-0.05422434214055538
1789031866528713700,2.764713623046875,1.407977038654685,-0.42936230763494965,-0.2793140772476792
1789031866538716700,2.774716552734375,0.6437275273710489,-0.7956412593692541,-0.32890228402018545
1789031866548720600,2.784720703125,-0.027573066580295562,-1.1524071173489092,-0.24370091207474467
1789031866558723600,2.7947236328125,-0.2061661311894655,-1.8013485799759625,-0.05315700516998768
1789031866568726800,2.804726806640625,-0.43160804073512554,-2.152257528620958,0.17786124320328234
1789031866578730500,2.81473046875,-0.42246494933664797,-1.772151127064228,0.3460620931357145
1789031866588733700,2.824733642578125,-0.20117899042665957,-1.2404103949725627,0.4844333297327161
1789031866598736600,2.834736572265625,-0.06720014356970787,-0.4931394910186529,0.3086810415074229
1789031866608740900,2.844740966796875,0.006713818424940109,0.2959825957149267,0.17494038732051848
1789031866618743600,2.85474365234375,0.05659516292512416,0.5051292040199041,0.02527034259587526
1789031866628746800,2.864746826171875,0.08106500279307365,0.4320224667549133,0.16151567308008669
1789031866638749700,2.874749755859375,0.11203121894299983,0.3329612040221691,-0.11102379546612501
1789031866648753700,2.884753662109375,0.2278565694719553,0.2455979778677225,-0.39031244601160286
1789031866658756600,2.894756591796875,0.37582828584611416,0.40454876889586444,-0.6195958334162831
1789031866668759600,2.904759521484375,0.20431845749616623,0.5565887576222419,-0.7877581049039959
1789031866678763500,2.914763427734375,-0.10096329696178435,0.23220541233122347,-1.3013877185046672
1789031866688766700,2.9247666015625,-0.5250964717715978,-0.4624614441603422,-1.8005054071500897
1789031866698770000,2.93477001953125,-1.0273352150470019,-0.9944792396277189,-1.9817714903607964
1789031866708772600,2.944772705078125,-1.509444193485379,-1.160333818694949,-1.975324506178498
1789031866718776600,2.954776611328125,-2.131375484111905,-1.19834118552804,-1.8365432274758815
1789031866728779800,2.96477978515625,-2.467936173930764,-1.075354857328534,-1.5416545644775033
1789031866738782700,2.97478271484375,-2.4117004919677973,-0.7169207738757133,-1.1400991321787237
1789031866748786700,2.98478662109375,-2.1408710422098634,-0.3636310675740242,-0.9495666234508157
1789031866758790000,2.994789794921875,-1.9298042794972656,-0.34261692111790176,-0.74627283282727
1789031866768792600,3.00479248046875,-1.8357044385641812,-0.6822726543426513,-0.5981473871961236
1789031866778796800,3.014796875,-1.6211708765238522,-0.9223720347940921,-0.5193941684767603
1789031866788799700,3.0247998046875,-1.245163726979494,-0.7341828743219375,-0.22135493249297142
1789031866798802700,3.034802734375,-0.6447118622332811,-0.5075491246432066,-0.004585574224591255
1789031866808805600,3.0448056640625,0.09504559735059738,-0.29977555825710295,0.025928221982717513
1789031866818809900,3.054809814453125,0.6613619682610035,0.07774667202532291,0.2184028046891093
1789031866828812500,3.0648125,0.9789134217053651,0.17729776410162448,0.2907268671438098
1789031866838815700,3.074815673828125,1.0918559102743863,-0.018081015613675117,0.10243380790576338
1789031866848819700,3.08481982421875,1.1900170092970133,-0.32286768003106114,-0.32430092770457264
1789031866858822700,3.09482275390625,1.221179624801874,-0.6084931323826313,-0.6941067383907735
1789031866868825600,3.10482568359375,1.090888526546955,-0.8931956246703863,-0.8805334192350506
1789031866878828800,3.114828857421875,1.094771505460143,-1.32059218519032,-0.9363196038648486
1789031866888832800,3.124832763671875,0.9533511104255914,-1.7212971381396054,-0.9273794876925646
1789031866898835700,3.134835693359375,0.43273090728521346,-1.704217993044853,-1.0007555434182285
1789031866908838700,3.144838623046875,-0.27534605039954185,-1.5404039798945188,-1.2494704842627047
1789031866918843000,3.1548427734375,-0.9083984544992446,-1.3540291753679514,-1.5855241013422607
1789031866928845600,3.164845458984375,-1.333770231193304,-1.0769295592993497,-1.564158803360909
1789031866938848800,3.174848876953125,-1.122811605030298,-0.7846160074859857,-1.37336252913028
1789031866948852700,3.184852783203125,-0.745415046954155,-0.41205578352510924,-1.345493694473803
1789031866958855700,3.194855712890625,-0.18991817622184753,0.03799509187340736,-1.0693353047780692
1789031866968858600,3.204858642578125,0.30783319250643254,0.5963742400437593,-0.7310342010326684
1789031866978861800,3.21486181640625,0.7096691953122616,1.1135732365638018,-0.4755333994403481
1789031866988865500,3.224865478515625,1.1416600978851317,1.4886170940339565,-0.17216946130245922
1789031866998868700,3.23486865234375,1.5645476565480232,1.6128092908918856,0.14969744418822228
1789031867008871700,3.24487158203125,1.8829560190826653,1.617620490565896,0.4118533197555691
1789031867018875600,3.254875732421875,2.3122353246092797,1.5622235975146292,0.6596477847542613
1789031867028878600,3.264878662109375,2.6588369314491747,1.4776356812924145,0.6606450521633028
1789031867038881800,3.2748818359375,2.8941186824858187,1.3822756111651657,0.5699146145980805
1789031867048884700,3.284884765625,2.7845053383395073,1.1793354562848806,0.6631588616151363
1789031867058888700,3.294888671875,2.2648533957093955,1.0128951862841844,0.6173068456962705
1789031867068891600,3.3048916015625,1.8249726166695355,0.7481020940810441,0.3976727456465363
1789031867078894600,3.31489453125,1.507288476756215,0.35768940256536,-0.09150007023084908
1789031867088898600,3.324898681640625,0.9950094009816646,0.11575988407731055,0.05652052678633481
1789031867098901800,3.33490185546875,0.7047156645581126,-0.2103922244518995,-0.060640492793172594
1789031867108904700,3.34490478515625,0.6501216123223305,-0.5549257928460836,-0.2507734077442437
1789031867118908700,3.35490869140625,0.4103127392500639,-0.7055652671247721,-0.22817082305289804
1789031867128911600,3.36491162109375,0.03398877884149551,-0.6621124943673611,-0.046154250268451866
1789031867138914600,3.37491455078125,-0.3108008101403713,-0.8101315570145845,0.235475154716894
1789031867148917800,3.384917724609375,-0.5748790320724249,-1.1492384241849183,0.7464394946310668
1789031867158921700,3.394921630859375,-1.2173904616519808,-1.3844026863217354,0.9268288680724799
1789031867168925000,3.404925048828125,-1.5225129338949919,-1.5831950738728044,1.0703460892558097
1789031867178927600,3.414927734375,-1.526434491252899,-1.7004261995464562,1.2718394063286482
1789031867188931600,3.424931640625,-1.1360194616496562,-1.912103203111887,1.3130474688991904
1789031867198934800,3.434934814453125,-0.6065256317019462,-2.2036428479433057,1.4155012966796754
1789031867208937700,3.444937744140625,-0.4142161764293909,-2.0053876360088587,1.30838532230705
1789031867218940700,3.454940673828125,-0.3563461712628603,-0.9903203663825988,1.016476478837058
1789031867228945000,3.46494482421875,-0.28576339951753615,0.1187906300753355,0.6099238958381116
1789031867238947600,3.474947509765625,-0.35498423525989053,0.4460416397571563,0.3631171267025172
1789031867248950800,3.48495068359375,-0.6000412381187081,0.1277186174184084,0.1954401179810986
1789031867258954800,3.494954833984375,-0.8483888069555163,-0.11018062264025211,0.33408282846324144
1789031867268957700,3.504957763671875,-0.8815779598519206,-0.1693897674560547,0.7673418512757867
1789031867278960600,3.514960693359375,-0.36992607606500383,-0.1761474250227213,1.0966524969011544
1789031867288963800,3.5249638671875,0.9055451108947395,-0.07568272523283957,1.6315378106288612
1789031867298967600,3.534967529296875,1.5824360721990465,0.2649269477158785,1.9745082213595508
1789031867308970800,3.544970703125,1.3783020313590764,0.6726730513483286,2.131602132474631
1789031867318973700,3.5549736328125,0.7773053922116756,1.0189297902733088,2.0003947961576283
1789031867328977700,3.564977783203125,0.2757604764193296,1.321544955870509,1.6863094113886354
1789031867338980600,3.574980712890625,-0.19850217243283985,1.6119553044110535,1.2615532823748885
1789031867348983800,3.58498388671875,-0.4917003981262445,1.6843828272402286,0.6626179596714675
1789031867358987800,3.59498779296875,-0.6692597357735037,1.2805863380163907,-0.030629641139321026
1789031867368990700,3.60499072265625,-0.6363572908639907,0.49237376734316346,-0.7214040567696094
1789031867378993700,3.61499365234375,-0.4153191692352295,-0.2548515439033508,-1.3416906489290297
1789031867388996600,3.62499658203125,-0.4465820302441716,-0.9863906257182359,-1.9534063966199755
1789031867399000600,3.63500048828125,-0.6636693684205413,-1.5259411547780035,-2.378681142680347
1789031867409003800,3.645003662109375,-0.6532338991239667,-1.7247019781470299,-2.343474512481689
1789031867419006500,3.65500634765625,-0.5288599159583449,-1.5283803646236658,-2.2510145477101204
1789031867429010700,3.6650107421875,-0.4846805824920535,-1.00768125102818,-2.086660728594661
1789031867439013600,3.675013671875,-0.6467053741380572,-0.3929699747830629,-1.8798557149797677
1789031867449016800,3.685016845703125,-0.6632721857964992,0.1764116289168596,-1.477212341313809
1789031867459019800,3.695019775390625,-0.4825581835106015,0.4564326853901148,-1.159570944563672
1789031867469023700,3.705023681640625,-0.2769815426468849,0.34149405456781384,-0.8250913718678057
1789031867479026200,3.715026123046875,-0.26417203769534825,0.1956219408214092,-0.28790943510290234
1789031867489028900,3.72502880859375,-0.6102513742268085,0.27317162896990776,0.013382117207720874
1789031867499033000,3.735033203125,-0.6928457785442471,0.24784371096789837,0.3656988137587905
1789031867509036000,3.7450361328125,-0.49154813017398113,0.1480389363914728,0.6308855814546346
1789031867519039000,3.7550390625,-0.37610593374371526,0.09589607670009136,0.6909896292835473
1789031867529042000,3.7650419921875,-0.20342501578778027,0.13228139528930186,0.6745468823961913
1789031867539046100,3.775046142578125,-0.10375526576787232,0.21956454194486139,0.5929329404834658
1789031867549049000,3.785049072265625,-0.04756868364363909,0.2184410908728838,0.4508331118173897
1789031867559052000,3.795052001953125,0.18300357452780008,0.11204057129323482,0.2594264506034553
1789031867569056000,3.805055908203125,0.383918945582211,-0.08784837932288646,0.03077500442676246
1789031867579059200,3.81505908203125,0.48779988355636594,-0.20081717137694358,-0.13754369973167777
1789031867589062000,3.825061767578125,0.31642128037065265,-0.15538345393538475,-0.23843188563063739
1789031867599066000,3.835066162109375,0.19833149204105138,-0.0039998832911252976,-0.15858144625909626
1789031867609069000,3.845069091796875,0.2054126824736595,0.2507785953760147,0.03093034111894667
1789031867619072000,3.855072021484375,0.3438599069163203,0.49161213532090187,0.10105988920405506
1789031867629075000,3.865074951171875,0.5654281898990273,0.5014408708959818,0.1728964604027569
1789031867639079200,3.8750791015625,0.7493959332838654,0.33477205283641814,0.3604340981636196
1789031867649081900,3.885081787109375,0.6194014798879623,0.1307026016652584,0.6311697321582586
1789031867659085000,3.8950849609375,0.47987172090560193,-0.07011749232113361,0.7150009117290377
1789031867669089000,3.905089111328125,0.68910103905797,-0.1994569889396429,0.6956834861882031
1789031867679092000,3.915092041015625,0.9542059736892581,-0.30765725141763683,0.7526417102720588
1789031867689095000,3.925094970703125,1.0261118107318878,-0.418699459323287,0.7686932658847421
1789031867699098000,3.93509814453125,0.9736483407840132,-0.49576340978145594,0.6919606662727892
1789031867709101800,3.945101806640625,1.1661910202905534,-0.5466384414941072,0.6027175446558743
1789031867719105000,3.95510498046875,1.3076988013476132,-0.7501344766914844,0.3892791574411094
1789031867729108000,3.96510791015625,1.242936990840733,-0.8176707203477621,0.06965265128836036
1789031867739112200,3.9751123046875,1.1942851881355045,-0.6711860276609659,-0.05982691138796508
1789031867749115000,3.985114990234375,1.0712629118397832,-0.5665080940902233,-0.130099082814157
1789031867759118000,3.9951181640625,0.8617188286498189,-0.6629892772018909,-0.37412250484153625
1789031867769121000,4.00512109375,0.8082417977452278,-0.7721563388854265,-0.5681263429418206
1789031867779125000,4.015125,0.8343629119515419,-0.6903665289491414,-0.7454479263104498
1789031867789128200,4.025128173828125,0.7750321865826845,-0.4900052846461534,-0.7207441315561532
1789031867799131000,4.035130859375,0.5750181482821702,-0.4552285702973604,-0.636066929615289
1789031867809134800,4.045134765625,0.6772811296656728,-0.5450368515163659,-0.6338320101700723
1789031867819138000,4.055137939453125,0.7313564187243581,-0.6645926207453012,-0.6690392248906195
1789031867829141200,4.065141357421875,0.7820411885619163,-0.8638701614648103,-0.8397123101554811
1789031867839144000,4.07514404296875,0.9386270040243864,-0.9686351887971162,-0.8398900048099458
1789031867849148200,4.085148193359375,0.9858885214149952,-0.9609750294327736,-0.7462497442126274
1789031867859151000,4.095151123046875,0.7473527370184659,-0.8524193776458502,-0.7847375880390405
1789031867869154000,4.105154052734375,0.30980478484034535,-0.6016805297583341,-0.8670860547713934
1789031867879158000,4.115157958984375,0.05615443342030048,-0.25981647283434867,-0.9038904755555093
1789031867889161200,4.1251611328125,0.04652852694094181,-0.06142798990905284,-0.8192074283957481
1789031867899164000,4.135163818359375,0.20716215648949146,-0.09045534695088862,-0.8081526581570505
1789031867909167000,4.1451669921875,0.3291515826061368,-0.19808628510832785,-0.7675434382624924
1789031867919171000,4.155171142578125,0.19776888972222803,-0.27785072669684885,-0.6885336144335568
1789031867929174000,4.165174072265625,0.011651274827122688,-0.39652971309125423,-0.5876746546290814
1789031867939177000,4.175177001953125,-0.03982406086623668,-0.5637468126833438,-0.45223917922303075
1789031867949181200,4.18518115234375,-0.05544423932433128,-0.5787199254095554,-0.5026049462392926
1789031867959184000,4.195183837890625,-0.025065467673540114,-0.4483265358239412,-0.5808190896458924
1789031867969187000,4.20518701171875,0.3178764476150274,-0.42618309307694435,-0.27463205691128967
1789031867979190000,4.21518994140625,0.4585039387062192,-0.46344227189123627,-0.22325272893831133
1789031867989194000,4.225194091796875,0.3622784839212894,-0.49914954508841036,-0.31858547266721726
1789031867999197000,4.235197021484375,0.20960721155405043,-0.42135085061490535,-0.36321284216195343
1789031868009200000,4.2452001953125,0.5892939263939857,-0.5462456427842378,0.26072905763462184
1789031868019204000,4.2552041015625,0.8731775035142898,-0.688668492859602,0.6596786913491786
1789031868029207000,4.26520703125,0.7048585801601409,-0.6906774945944547,0.529701773609966
1789031868039210000,4.2752099609375,1.1439739277854561,-0.8198644309997558,1.1006859902009367
1789031868049213000,4.285212890625,1.3380161981999874,-0.9098884007960557,1.2308232130683958
1789031868059217000,4.295216796875,1.0977066821292043,-0.8560790691971778,0.820132726547122
1789031868069220000,4.30522021484375,0.8561226160779595,-0.8512591016948222,0.37178310210853815
1789031868079223000,4.31522314453125,0.8047253140568733,-0.8515402567237615,0.1364610190615058
1789031868089227000,4.32522705078125,1.0338371442869305,-0.907196677494049,0.04132788955792784
1789031868099230000,4.33522998046875,1.10514676900208,-0.9137187727391719,-0.15293313817381857
1789031868109233200,4.345233154296875,1.1031740076243877,-0.8022527864634991,-0.3062333560943603
1789031868119236000,4.355236083984375,1.0465309139043093,-0.6769149267017841,-0.42461102145463225
1789031868129240000,4.365239990234375,1.043864032782614,-0.548233601731062,-0.49909898394495245
1789031868139243000,4.375242919921875,1.052344568619132,-0.42748423880338665,-0.5765073639266193
1789031868149246000,4.385245849609375,0.9435039624109863,-0.20150573816299439,-0.7290940267503261
1789031868159250000,4.39525,0.828885065062344,-0.08800152405798435,-0.8294429912060499
1789031868169253000,4.405253173828125,0.620839988258481,-0.08808686425387859,-0.8551859197497368
1789031868179256000,4.415256103515625,0.33865240140110253,0.00923603037893772,-0.8551166539058088
1789031868189259000,4.425259033203125,0.29673019921183585,0.1898971334338188,-0.6981314638622105
1789031868199263000,4.435262939453125,0.454419884262979,0.41229368393421173,-0.5064784266717731
1789031868209266000,4.445265869140625,0.4320049310982227,0.5286947885245085,-0.43449967052340505
1789031868219269000,4.45526904296875,0.3095844200879335,0.545116931015253,-0.3758082659713924
1789031868229273000,4.465273193359375,0.18503741844296454,0.5263192915648222,-0.3892205591216683
1789031868239276000,4.475276123046875,0.06563771655857563,0.38891631547808647,-0.5918820431910455
1789031868249279000,4.485279052734375,0.021206454157829284,0.30175416485369205,-0.8462471187517047
1789031868259282200,4.4952822265625,0.12396014166772365,0.32221944525539875,-1.0005926079414784
1789031868269286000,4.505285888671875,0.27330869935303925,0.40440789912045,-1.0621120755262672
1789031868279289000,4.5152890625,0.42778994375169277,0.39821372065544125,-0.8880259669475257
1789031868289292000,4.5252919921875,0.39647184542417524,0.28193419661819935,-0.48942397762686013
1789031868299296300,4.535296142578125,0.27620909696966406,0.17171265744566916,-0.21054493079558015
1789031868309299000,4.545298828125,0.028158172991871833,0.19418284792900084,0.03209887344166636
1789031868319302100,4.55530224609375,-0.19383008896857498,0.42961131395995616,0.1644165090881288
1789031868329304800,4.565304931640625,-0.3058116235509515,0.6452694961160421,0.11834069435074925
1789031868339309000,4.57530908203125,-0.40930736159980297,0.710927086418867,-0.10089651533588767
1789031868349312000,4.58531201171875,-0.6464516916379333,0.5227016855895519,-0.15170973385870457
1789031868359315000,4.59531494140625,-0.7533382411688566,0.1127776533961296,0.011213614062219858
1789031868369319000,4.60531884765625,-0.6725318893119693,-0.2879395745128393,0.45445071779266
1789031868379322000,4.615322021484375,-0.8283774078011512,-0.41566286810636516,0.5191166667096316
1789031868389325000,4.625324951171875,-0.8240291494637727,-0.4499187734514475,0.7491201850824057
1789031868399328000,4.635327880859375,-0.5296271009385586,-0.6598568243950605,1.016838663212955
1789031868409332000,4.64533203125,-0.22511165467798708,-0.8450111472159624,0.7582030707262456
1789031868419335200,4.655335205078125,-0.24608780721127985,-1.0738637419879435,1.1476757049128412
1789031868429337900,4.665337890625,-0.40482057157456874,-1.2743477358877657,1.2792301011018454
1789031868439342000,4.675342041015625,-0.2161345674961805,-1.5433657523095607,1.1371844137758016
1789031868449345000,4.685344970703125,0.35807226440310475,-1.7241823381870984,0.9180218767605721
1789031868459348000,4.695347900390625,0.8681096987307071,-1.4771458519488572,0.5968490179486572
1789031868469351200,4.70535107421875,1.1515227357298135,-0.9250082285165786,0.37579058418422934
1789031868479355600,4.715355712890625,1.2419032638788223,-0.41813071952462194,0.4418970872983336
1789031868489358600,4.725358642578125,0.9720125562757254,-0.14680851781368254,0.4869184245467186
1789031868499361800,4.73536181640625,0.40074703852534294,0.07250234163105487,0.04988441324010491
1789031868509365500,4.745365478515625,0.19277005852162837,0.07526303851604461,-0.309701032204926
1789031868519368700,4.75536865234375,0.35959085227251053,0.0011953472644090652,-0.5912947448223829
1789031868529371600,4.76537158203125,0.5988882686913013,-0.04848901335895061,-0.6823685159325599
1789031868539374600,4.77537451171875,0.7102770980775356,0.2150689840912819,-0.5738789151191711
1789031868549378600,4.785378662109375,0.7113274839133024,0.6650713441729545,-0.21819909881055355
1789031868559381800,4.7953818359375,0.528328293299675,0.8184609939426183,0.04609130456745624
1789031868569384400,4.805384521484375,-0.04047288016378879,0.6423614997148513,0.08301482168659567
1789031868579388700,4.815388671875,-0.6600649141877889,0.3948971434533596,0.10395181125327944
1789031868589391600,4.8253916015625,-0.9207301128059625,0.3533651096254587,0.17797054879665375
1789031868599394600,4.83539453125,-0.7802268326163292,0.43916649329066276,0.2288207383289933
1789031868609397800,4.845397705078125,-0.5172603713184595,0.3180044579088688,0.13700740089789032
1789031868619401700,4.855401611328125,-0.4555518109023571,-0.14032441649138927,0.07424772399365902
1789031868629404700,4.86540478515625,-0.6918605668991804,-1.0350678551256656,-0.0637391894608736
1789031868639407600,4.87540771484375,-1.021413423782587,-1.7158084775954483,-0.3703524847835302
1789031868649411600,4.88541162109375,-1.243962534496188,-1.2115092946588992,-0.680956603308022
1789031868659414800,4.895414794921875,-1.2286878084748982,0.1290069036632776,-0.745258395087719
1789031868669417700,4.905417724609375,-1.0630009871900081,1.2474573908746243,-0.6828956085465848
1789031868679420700,4.915420654296875,-0.8288096617385745,1.3661720331043004,-0.6517088815137744
1789031868689424600,4.925424560546875,-0.3430088430449366,0.7868465430170297,-0.667298226442188
1789031868699427600,4.935427490234375,-0.19189707507938145,0.17501988229751586,-0.7077277058556676
1789031868709430800,4.9454306640625,-0.48077919113934037,-0.12624503773450851,-0.7317593004368245
1789031868719434800,4.955434814453125,-0.4056842026665807,-0.148749130487442,-0.49051162673309445
1789031868729437700,4.965437744140625,-0.07377922969907522,-0.3213882551282644,-0.3393820308499038
1789031868739440600,4.975440673828125,0.23596330356001852,-0.4563946914672851,-0.21323533892333507
1789031868749443800,4.98544384765625,0.34680911211073395,-0.47806467148363585,-0.059731707385182374
1789031868759447600,4.995447509765625,0.5579734899789095,-0.11120295142531395,0.17103928822875022
1789031868769450800,5.00545068359375,0.7446341257095337,0.41687984268069267,0.2661357389837503
1789031868779453700,5.01545361328125,0.6659218235224486,0.6134896254956722,0.11467705727666616
1789031868789457700,5.025457763671875,0.583756166011095,0.5709364319264888,-0.21234891147762536
1789031868799460600,5.035460693359375,0.5592477476984262,0.4196399550437927,-0.4557258522950113
1789031868809463800,5.0454638671875,0.5969599309772252,0.22502046926319597,-0.4524919849403202
1789031868819466500,5.055466552734375,0.5554682291597127,-0.04771510637700557,-0.524546144412458
1789031868829470700,5.065470703125,0.6835282073616981,-0.17441022596657274,-0.5899371927335858
1789031868839473700,5.0754736328125,0.9556921205937862,-0.0875502731591463,-0.6578177197828888
1789031868849476600,5.0854765625,1.05458621006608,0.19365502466261386,-0.8246873211115598
1789031868859480600,5.09548046875,0.960332639876008,0.10645020394027233,-1.023517410324514
1789031868869483800,5.10548388671875,0.7444944249778985,-0.24230127440989016,-0.9984294385582207
1789031868879486500,5.115486572265625,0.6566998216688632,-0.5528484020501375,-0.7246708034805953
1789031868889489700,5.12548974609375,0.9481985499680041,-0.6993108829051256,-0.3536103165581822
1789031868899493600,5.13549365234375,1.0845721830070019,-0.6650619918227195,-0.20111308558359742
1789031868909496600,5.14549658203125,0.9713859488099813,-0.3573632393509149,-0.07971256527081132
1789031868919499500,5.15549951171875,0.5753004723548889,-0.3848801918298006,-0.04477233092337846
1789031868929502700,5.165502685546875,0.04041851962804794,-0.5616074625670909,-0.16310791070759295
1789031868939506700,5.175506591796875,-0.2444868017554283,-0.7808926030486821,-0.3495062422402203
1789031868949509600,5.185509521484375,-0.17114157955944537,-0.9005559243053197,-0.38764541875943537
1789031868959512800,5.195512939453125,0.15112755005657671,-0.7822393414825201,-0.23701032839491962
1789031868969516800,5.205516845703125,0.29090602310299873,-0.4978823016315698,-0.090001465703547
1789031868979519500,5.21551953125,0.055908934226632116,-0.33321664008796215,-0.2808722664751112
1789031868989522700,5.225522705078125,-0.36309856813251973,-0.2767413041502237,-0.6655249331593514
1789031868999525600,5.235525634765625,-0.49555122833549975,-0.26539398070573805,-0.9444248766481875
1789031869009529600,5.245529541015625,-0.3832330091446638,-0.1483838043063879,-0.8899256630890071
1789031869019532800,5.25553271484375,-0.24066402859687805,-0.050505029356479644,-0.9012168724320828
1789031869029535700,5.26553564453125,-0.13501403512358665,0.17636077551245688,-0.8600497263938188
1789031869039539500,5.27553955078125,0.11148995167315005,0.29930151100456714,-0.7822688598379492
1789031869049542700,5.285542724609375,0.31600656208992,0.27740824362635613,-0.669560326155275
1789031869059545900,5.2955458984375,0.27074352504014965,0.1154091709434986,-0.6819447375625372
1789031869069548500,5.305548583984375,0.059847442719340324,-0.007737316253781318,-0.7908677613571286
1789031869079552800,5.315552734375,-0.08166004607677459,-0.05373334375321865,-1.0136157556436955
1789031869089555700,5.3255556640625,0.19343115277886389,0.0825052647292614,-1.0554681074671446
1789031869099558700,5.33555859375,0.6730220109164714,0.28375848943591114,-0.8537811675183474
1789031869109562600,5.345562744140625,0.9754226569801568,0.19301497319340705,-0.7883304979644715
1789031869119565800,5.35556591796875,1.083316629987955,0.056846507337689395,-0.7761652822658419
1789031869129568500,5.365568603515625,0.9365992975890636,-0.02080839475095272,-0.7385949916757643
1789031869139571700,5.37557177734375,0.6000812778681516,-0.18967676868140695,-0.6780310712501406
1789031869149575700,5.38557568359375,0.23857962353825568,-0.6101929220378398,-0.7176986263804137
1789031869159578600,5.39557861328125,0.072300681579113,-0.8798585887134075,-0.5617227595098316
1789031869169581600,5.40558154296875,0.08747486983537674,-0.8507803782671689,-0.2588651634588838
1789031869179585800,5.415585693359375,0.040535424005985254,-0.8030266934454441,-0.1624662518031895
1789031869189588500,5.42558837890625,0.05498188250958919,-0.5679997939527034,-0.09040230158939958
1789031869199591700,5.435591796875,0.24963819316923616,-0.3251280261784792,0.04113996577039361
1789031869209594600,5.4455947265625,0.3184855194240808,-0.21597791562974453,0.041822102815657854
1789031869219598800,5.455598876953125,0.4107031998723745,-0.2890630255848169,-0.15859934724196792
1789031869229601500,5.4656015625,0.463131306245923,-0.5051642753332853,-0.5326479100644588
1789031869239604700,5.475604736328125,0.5157780238062143,-0.6698351975739002,-0.6968031378678977
1789031869249607700,5.485607666015625,0.4989958158314228,-0.7122644725024699,-0.7562148195184767
1789031869259611600,5.495611572265625,0.40406478477120394,-0.6037357087224722,-0.869100171072781
1789031869269614600,5.505614501953125,0.2216086149930954,-0.455177132371068,-0.8428333647854626
1789031869279617500,5.515617431640625,-0.012478373301029204,-0.28593291086554523,-0.6330326764859259
1789031869289621500,5.52562158203125,-0.17366729864478112,-0.12748890031576157,-0.4540386298604309
1789031869299624700,5.535624755859375,-0.08245499584674834,-0.03733341309428215,-0.319967866936326
1789031869309627600,5.545627685546875,-0.007737900775671005,-0.004319616764783859,-0.09452128121554851
1789031869319630600,5.555630615234375,-0.12410276500880718,-0.06156885968446731,-0.15173077664673326
1789031869329634600,5.565634521484375,0.028853754040598867,-0.15692776076793669,-0.31966625364124773
1789031869339637800,5.5756376953125,0.05648702637553215,-0.19047756367027757,-0.32650501362010836
1789031869349640700,5.585640625,0.028536358654499053,-0.16241817487776278,-0.3368348305851221
1789031869359644700,5.595644775390625,0.0854202753931284,-0.11582710409462452,-0.32687647728100416
1789031869369647600,5.605647705078125,0.089302085262537,-0.05011632229983806,-0.10039441103264689
1789031869379650600,5.615650634765625,0.1089411439731717,-0.029071780705451963,-0.15949015860185026
1789031869389653800,5.62565380859375,-0.077964698690176,-0.12263619958758354,-0.11958207271397113
1789031869399657700,5.63565771484375,-0.2895473019704223,-0.26081600526571275,-0.14631576586067677
1789031869409660700,5.64566064453125,-0.6754203042298556,-0.32563129952549935,-0.36034400872737166
1789031869419663600,5.65566357421875,-0.7722513236925005,-0.3365057447612285,-0.3134684219144285
1789031869429666800,5.665666748046875,-0.5981093932732939,-0.28742227264046666,-0.3634969198003411
1789031869439670500,5.67567041015625,-0.35319589053839445,-0.060980246141552924,-0.18633710286468266
1789031869449673700,5.685673828125,-0.13814765697419643,0.25675533169806003,-0.040909079623967406
1789031869459676700,5.6956767578125,-0.19131927519142627,0.520338463589549,-0.11785787926986813
1789031869469680600,5.7056806640625,-0.2702279767334461,0.6700403647571802,-0.017216069347411392
1789031869479683000,5.71568310546875,-0.5869707441434264,0.6240349849075079,-0.10384820474833249
1789031869489686000,5.72568603515625,-0.7126967264398932,0.36907296636700626,-0.18086627023816107
1789031869499689200,5.735689208984375,-0.5825508818745613,-0.02652794144153595,-0.03893003463596106
1789031869509693200,5.745693115234375,-0.6613026392892003,-0.3542611816823482,-0.026251316457241772
1789031869519696000,5.75569580078125,-0.7082327327683567,-0.5590034175485372,0.0039003684394061564
1789031869529699000,5.765698974609375,-0.7442012872502207,-0.5235989266902208,0.17400120677426456
1789031869539703000,5.775703125,-0.8881897792071104,-0.2871153986483812,0.40231560301631686
1789031869549706000,5.7857060546875,-0.9327391150295734,0.02699497443139553,0.6932916226156055
1789031869559709200,5.795709228515625,-0.7607049705445766,0.2757891179919243,0.8199303358428179
1789031869569712000,5.805712158203125,-0.7200485505074262,0.23742110115289686,0.94350659275949
1789031869579715800,5.8157158203125,-0.7507485169366002,0.021789807003736495,0.7757983486495912
1789031869589719000,5.825718994140625,-0.7028299969419837,-0.26681904507279397,0.5860888467423617
1789031869599722200,5.83572216796875,-0.723329471874237,-0.5238613770186901,0.3157382665425539
1789031869609726000,5.845725830078125,-0.6890820420965552,-0.5906202065616846,0.08073971636146307
1789031869619729200,5.855729248046875,-0.7028922485232353,-0.3887888897061348,-0.1674943090982735
1789031869629732000,5.865732177734375,-0.6094082014009357,-0.02482347561120987,-0.26756986344009637
1789031869639735000,5.875735107421875,-0.40902357622236013,0.3640039925396442,-0.19768881022334098
1789031869649739000,5.885739013671875,-0.19163520927280187,0.7276227851539849,-0.026922055325657127
1789031869659742200,5.8957421875,-0.040599721413850785,1.0049076946616171,0.2308878999918699
1789031869669745000,5.905744873046875,0.2691492415860295,0.836009510114789,0.483222054246813
1789031869679748000,5.915748046875,0.530551230046153,0.2518476859122515,0.13897431705668567
1789031869689752000,5.925751953125,0.49897272721678015,-0.2656488322496414,-0.3168981041021645
1789031869699755000,5.935755126953125,0.4383925863087177,-0.585358340510726,-0.4812586452193558
1789031869709758000,5.945758056640625,0.4156251664444804,-0.7364280229002237,-0.4661765191607177
1789031869719762200,5.95576220703125,0.4686313649669289,-0.7100234155774117,-0.33537893268838526
1789031869729765000,5.96576513671875,0.5754913187518715,-0.5266197358161211,-0.29093232658803464
1789031869739768000,5.97576806640625,0.6587506167188286,-0.23588263953924177,-0.4025736694306135
1789031869749771000,5.98577099609375,0.4169552460044622,-0.14988134938776493,-0.5848790325611829
1789031869759775200,5.995775146484375,-0.12933102105110883,-0.17959610417187213,-0.6949725614398717
1789031869769778000,6.00577783203125,-0.6563222205281257,-0.20963760669231413,-0.8328738424375652
1789031869779781000,6.015781005859375,-0.8751426661074161,-0.27538112171292306,-0.8878054560646415
1789031869789785000,6.02578515625,-0.6648083093225956,-0.4192442337244749,-0.8077670198403298
1789031869799788000,6.0357880859375,-0.293434372536838,-0.5044382991462946,-0.8633955296903848
1789031869809791000,6.045791015625,-0.20244301901310682,-0.19316402627527712,-0.7053245902366936
1789031869819794200,6.055794189453125,-0.3904652984857559,0.4210854776769876,-0.2097562646359205
1789031869829798000,6.0657978515625,-0.5734685807526111,0.9560954406976699,0.29172786087989805
1789031869839801000,6.075801025390625,-0.5640773598119616,1.1887895133286714,0.6238854934342205
1789031869849804300,6.08580419921875,-0.42674218826442956,0.9085217886179685,0.6322131767965853
1789031869859807000,6.095806884765625,-0.18056933311820028,0.3011848405331373,0.22472952349260447
1789031869869811000,6.10581103515625,-0.16256839700341225,-0.1355044489890337,-0.12331351432725786
1789031869879814100,6.115814208984375,-0.3159346658974886,-0.2571095519632101,-0.26394436641931535
1789031869889817000,6.125817138671875,-0.388506857894361,-0.2009557030647993,-0.12831088422313333
1789031869899821000,6.135821044921875,-0.4085676491484046,-0.037568390893936154,0.03637786593511701
1789031869909824300,6.14582421875,-0.23762568381428717,0.1027741457760334,0.07916530665159224
1789031869919827000,6.155826904296875,0.0703422409877181,0.09524725740253925,-0.06050108432248234
1789031869929830100,6.165830078125,0.2506768885672092,-0.09169570240080356,-0.2879625169970095
1789031869939834000,6.175834228515625,0.4371510618150234,-0.3451823876917362,-0.19225816347673536
1789031869949837000,6.185837158203125,0.4391358058914542,-0.39366614035367964,-0.08156140800788998
1789031869959840000,6.195840087890625,0.16736586041301488,-0.14265665883123874,-0.03650602235943079
1789031869969843200,6.20584326171875,-0.07903612731397151,0.04414017049968243,0.17990385494679212
1789031869979847000,6.215846923828125,0.07386720024347306,-0.1224848084181547,0.41802535945400593
1789031869989850000,6.22585009765625,0.39898879668116566,-0.32512510356903074,0.5538914813622832
1789031869999853000,6.23585302734375,0.4279275986567139,-0.3497919273138046,0.5148183849938214
1789031870009857300,6.245857177734375,0.33925212085992096,-0.36537002019584175,0.5705293124303221
1789031870019860000,6.25585986328125,0.2095712634578347,-0.5542570998042822,0.4390234315581619
1789031870029863200,6.26586328125,0.23267770601809024,-0.8936258327811956,0.061028761458396905
1789031870039865900,6.275865966796875,0.24973610058575868,-1.1208324139118193,-0.28708924129381774
1789031870049870000,6.2858701171875,0.17402385699748993,-1.1202648431569338,-0.5308616111695766
1789031870059873000,6.295873046875,0.054819677685201164,-0.9649339961916208,-0.6871947670452296
1789031870069876000,6.3058759765625,-0.12160744106173514,-0.752742613363266,-0.6387716585293411
1789031870079880000,6.3158798828125,-0.2660287714779377,-0.5609317552626133,-0.5698633958674967
1789031870089883100,6.325883056640625,0.0007692308068275451,-0.5664250919818877,-0.6412623063012958
1789031870099886000,6.335885986328125,0.4478434284821152,-0.6409750137925148,-0.8269377303868531
1789031870109889000,6.345888916015625,0.5478104078829288,-0.386076708137989,-0.984022873673588
1789031870119893000,6.35589306640625,0.5451178077980876,-0.18435294331014154,-1.0538488357022404
1789031870129896200,6.365896240234375,0.44261897183209653,-0.1846954731374979,-1.0487320772103965
1789031870139899100,6.375899169921875,0.1259729427948594,-0.10657061544954777,-1.042049384576082
1789031870149902000,6.385902099609375,0.10067541993111372,-0.1994178259730339,-0.9808658709473907
1789031870159906000,6.395906005859375,0.2700815540000796,-0.32072599182724953,-0.9081871498361229
1789031870169909000,6.405908935546875,0.49138534082770347,-0.2720394100695848,-0.7822621378362178
1789031870179912200,6.415912109375,0.7107005841866135,-0.1731049885869026,-0.7529204541482031
1789031870189915100,6.4259150390625,0.8157023428842425,-0.07200725159049033,-0.6704292179442942
1789031870199919000,6.435919189453125,0.8333949437022209,-0.03475216442942619,-0.4992030288413167
1789031870209922000,6.445922119140625,0.7205199674114584,-0.040489831298589705,-0.3989079865299165
1789031870219925200,6.45592529296875,0.49565118157863614,0.06188625507056713,-0.3319729236371815
1789031870229929000,6.465928955078125,0.2521335171163082,0.17817513145804403,-0.3684660865150392
1789031870239932200,6.47593212890625,0.3104652945756912,0.14226736725270747,-0.43245618199706076
1789031870249935000,6.48593505859375,0.3692188045784831,0.19192250178158282,-0.5950288167841732
1789031870259938000,6.49593798828125,0.2909653520748019,0.3150900317668915,-0.7247558514155447
1789031870269942000,6.50594189453125,0.14653934548348188,0.37566695780456066,-0.7355065241411328
1789031870279945200,6.5159453125,-0.3209033942207694,0.40920331670343874,-0.7721157146140932
1789031870289948000,6.525947998046875,-0.9209609989523887,0.2877355763733387,-0.7675549825698137
1789031870299952000,6.5359521484375,-1.3703215539991855,0.11608546276986598,-0.6367356226570904
1789031870309955000,6.545955078125,-1.5254279445588588,-0.015122750329971313,-0.37002339895963665
1789031870319958000,6.5559580078125,-1.5826690041720866,0.044566286957263945,-0.0942646761059761
1789031870329961000,6.5659609375,-1.5091750211551784,0.1077928507208824,0.198574653147161
1789031870339965200,6.575965087890625,-1.3267436935573815,-0.03272796512544155,0.2634123053692281
1789031870349968000,6.5859677734375,-1.1061118146419524,-0.3783995976388454,-0.12374810635223985
1789031870359971000,6.59597119140625,-0.8687395210668444,-0.7860434099406004,-0.30820670199394223
1789031870369974000,6.60597412109375,-0.30880291432142254,-1.0200397973418236,-0.21633798111379146
1789031870379978200,6.615978271484375,0.3192646871030331,-1.163663255378604,-0.036508506577461956
1789031870389981000,6.62598095703125,0.8702443726718425,-1.1830693821161984,0.3649496028266847
1789031870399984000,6.635984130859375,1.1503536919504402,-0.7596370490521193,0.9019292584851384
1789031870409988000,6.645988037109375,0.9715086984068154,-0.05683540142178535,0.7287010819099843
1789031870419991000,6.655990966796875,0.5460919135272503,0.5583627815574407,0.49666576544865965
1789031870429994000,6.665993896484375,-0.21283844856023787,0.5927092877954244,0.8686728855714202
1789031870439997000,6.675996826171875,-0.8404054069861769,-0.09193184924423695,0.7398793323978782
1789031870450001000,6.6860009765625,-1.0858180914148687,-0.6492933448046445,0.5475288144625723
1789031870460004000,6.696004150390625,-0.8921136746525764,-0.4662643435746431,0.44258053951784965
1789031870470007300,6.70600732421875,-0.33737317524552346,0.036541385933756824,0.4350272015288472
1789031870480010500,6.716010498046875,0.33454934999644753,0.46808688282668587,0.37101971652060745
1789031870490014500,6.726014404296875,0.6813131616607307,0.5107201558947563,0.14690759427398442
1789031870500017700,6.736017578125,0.7108335629165172,0.3631768940657377,-0.10442030554786323
1789031870510020600,6.7460205078125,0.4829997897982597,0.3425543772757053,-0.2224113096781075
1789031870520024600,6.756024658203125,0.33160774358659983,0.6191951436609029,-0.13824015756323932
1789031870530027500,6.766027587890625,0.31514380778074264,0.9997843602985143,0.1023778399348259
1789031870540030500,6.776030517578125,0.40371757876873016,1.148823413643241,0.3985724709652364
1789031870550033700,6.78603369140625,0.6251718799829483,0.8503402332842349,0.42687808960378165
1789031870560037600,6.79603759765625,0.7649351554602384,0.6519377218335867,0.2490280984468758
1789031870570040600,6.80604052734375,0.6568874531954526,1.230602117663622,0.3799304604679346
1789031870580043500,6.81604345703125,0.5850614033907652,1.4564227973937987,0.32164778284728524
1789031870590046700,6.826046630859375,0.6809343914762139,0.49849312700629234,-0.10019859619960188
1789031870600050400,6.836050537109375,0.6387590913087129,-0.7462778012633323,-0.427688821464777
1789031870610053600,6.8460537109375,0.44770986523032186,-1.3067980531156063,-0.5482334556005894
1789031870620056600,6.856056640625,0.4452946207821369,-0.7576824078530072,-0.4462944454744458
1789031870630059500,6.8660595703125,0.7404001414015888,0.2113689605295658,-0.18468860500529408
1789031870640063500,6.8760634765625,0.8816279364734888,0.5382435381144285,-0.12960077790319918
1789031870650066700,6.886066650390625,0.7183131050169468,0.02376724455654621,-0.5224690458774567
1789031870660069400,6.8960693359375,0.39404841766953463,-0.7360638657629489,-0.8566358262971043
1789031870670073600,6.906073486328125,0.17283786208331584,-1.1207301225811241,-0.8892087469913065
1789031870680076500,6.91607666015625,0.10509762028753757,-0.7759586537778377,-0.7244559916861355
1789031870690079500,6.92607958984375,0.1242629240065813,0.06803834795951842,-0.4874877488672733
1789031870700082400,6.93608251953125,0.005112812969088554,1.0200170009881258,-0.2539884973332286
1789031870710086700,6.946086669921875,-0.0918856720149517,1.0345575675159693,-0.3721415601573884
1789031870720089300,6.95608935546875,-0.18908464800715447,0.014839841735363006,-0.8166973452709615
1789031870730092500,6.966092529296875,-0.35347266165316105,-0.8328267884254456,-0.9786290518060325
1789031870740095500,6.976095458984375,-0.2981488338381052,-0.9647884502410888,-0.7893848293229937
1789031870750099500,6.986099365234375,-0.0980836498722434,-0.7251660396516323,-0.5930844047181308
1789031870760102400,6.996102294921875,0.02200257297158241,-0.07337561733424663,-0.5054688112378121
1789031870770105600,7.006105712890625,-0.01782324146032333,0.4072866694271564,-0.4259115826591849
1789031870780109600,7.016109619140625,-0.22890344817638397,0.4803162498027086,-0.4400812700480222
1789031870790112500,7.026112548828125,-0.07386836928725242,0.05473579879403114,-0.5046886206455529
1789031870800115700,7.03611572265625,0.12772154002785682,-0.1280138009727001,-0.42775764891728757
1789031870810118400,7.046118408203125,0.14923486817777157,-0.3573644083946943,-0.5600479581654072
1789031870820122400,7.056122314453125,0.2577729843080044,-0.42917058445513245,-0.473594978723675
1789031870830125600,7.06612548828125,0.4690484213352203,-0.2399941665112972,-0.3342324660670012
1789031870840128500,7.07612841796875,0.717911538478732,0.06045768357217311,-0.21566877661533654
1789031870850131500,7.08613134765625,0.8270832763373851,0.33357202939689157,-0.07201616554930805
1789031870860135700,7.0961357421875,0.8510089263260364,0.46091129210889337,-0.042512277036905285
1789031870870138600,7.106138671875,0.9141881438165903,0.25320845287144184,0.09120024703405796
1789031870880141600,7.1161416015625,0.990327380645275,-0.03937339448928833,0.0892393222246319
1789031870890145500,7.1261455078125,1.0215800125211476,-0.23346038082838058,-0.15504187395609914
1789031870900148700,7.136148681640625,0.981602806919813,-0.3213403243333101,-0.15961378498151899
1789031870910151400,7.1461513671875,0.9691478144943714,-0.37041502862572667,-0.36979572768360375
1789031870920154600,7.156154541015625,1.0112556023836135,-0.31729484833478927,-0.17840141449458896
1789031870930158600,7.16615869140625,1.0432049843519926,-0.27078970226943494,-0.04944923669323325
1789031870940161500,7.17616162109375,1.0554986487358808,-0.2851028897821903,0.10476948431171476
1789031870950164500,7.18616455078125,1.0190841040521859,-0.3529401622116565,0.2221251862131059
1789031870960167700,7.196167724609375,0.9114175100594758,-0.5203735349029303,0.3130392367169261
1789031870970171400,7.20617138671875,0.7769669540375471,-0.5166460388123989,0.4530400472771376
1789031870980174600,7.216174560546875,0.5413821284011006,-0.5039999077290296,0.2732051659133285
1789031870990177500,7.226177490234375,0.3951309522092342,-0.5228133292704821,0.16387772603631018
1789031871000181500,7.236181396484375,0.22998802854269743,-0.4442927502632141,0.17509250914230942
1789031871010184400,7.246184326171875,0.06759118871390819,-0.4466974733173847,0.10635938385166227
1789031871020187600,7.256187744140625,0.07872107001543045,-0.42588615595698354,-0.24103527306206524
1789031871030190600,7.266190673828125,0.17268004117310046,-0.4264548957556486,-0.5176796927090734
1789031871040194600,7.276194580078125,0.12660656452327965,-0.5318991375237703,-0.7372276488453149
1789031871050197500,7.286197509765625,0.043782150842249394,-0.45202305225431916,-0.7843060647539793
1789031871060200400,7.296200439453125,0.12969488592743872,-0.25812019031047817,-0.848734259392321
1789031871070203600,7.30620361328125,0.09539309561401604,-0.006253799697756767,-0.7735679592490196
1789031871080207600,7.31620751953125,0.1408256440117955,0.12269348273277282,-0.5672578895442187
1789031871090210600,7.32621044921875,0.1286152739971876,0.206200617980957,-0.5094526201769709
1789031871100213500,7.336213623046875,-0.01446457868218422,0.24431378327608108,-0.5260326566431671
1789031871110216700,7.346216796875,0.04434007698595523,0.2467874799132347,-0.5551115246765316
1789031871120220400,7.356220458984375,0.020597674609720704,0.33843232890963554,-0.5838230937674641
1789031871130223600,7.3662236328125,0.036655075441300866,0.38810558361709113,-0.4722796583414077
1789031871140226600,7.3762265625,0.07023731930851936,0.36048224815428254,-0.3994290147293359
1789031871150230500,7.38623046875,-0.04286737408488989,0.25264380472600456,-0.33649273914918304
1789031871160233500,7.3962333984375,-0.2381625671699643,0.1141506953150034,-0.2344908198546618
1789031871170236700,7.406236572265625,-0.44704146444946524,-0.05055062206387519,-0.15974946712516247
1789031871180239400,7.4162392578125,-0.6151017368674278,-0.17846330074965952,-0.01711611610427499
1789031871190243600,7.42624365234375,-0.806613027499616,-0.20514497144818306,0.21520313186496495
1789031871200246500,7.43624658203125,-1.0736322713196278,-0.17849778754115103,0.3814077664788812
1789031871210249500,7.44624951171875,-1.2615978521689772,-0.13763269318938254,0.4067806926663965
1789031871220252400,7.45625244140625,-1.3155106441423297,-0.07927402772307396,0.483169374211505
1789031871230256600,7.466256591796875,-1.285171912240982,-0.044538229906558986,0.551662991657853
1789031871240259600,7.476259521484375,-1.019537108516693,0.021060908207297325,0.7851336746845394
1789031871250262500,7.486262451171875,-0.5212926955744623,0.11035656372904777,1.196252396555245
1789031871260265500,7.496265380859375,-0.023510347186028957,0.05100421105027198,1.4241998591810463
1789031871270269700,7.506269775390625,-0.01901946550756693,-0.029119126978516575,1.3921538849703967
1789031871280272400,7.5162724609375,-0.33666327341049906,-0.08706453546881675,1.2453247627601027
1789031871290275600,7.526275634765625,-0.5140481312736869,-0.25384382816553114,1.2041804861407726
1789031871300279600,7.536279541015625,-0.28321166920810936,-0.47006958107650276,1.1952098286997526
1789031871310282500,7.546282470703125,0.02571574827581644,-0.5851847375094891,0.9454483744770288
1789031871320285400,7.556285400390625,0.21564882980585098,-0.6906015067487955,0.5963420913398265
1789031871330288400,7.566288330078125,0.07746405569165944,-0.8353443242043256,0.1543609790198505
1789031871340292400,7.576292236328125,-0.3170493491411209,-1.0261047964692116,-0.2993987608339637
1789031871350295600,7.586295654296875,-0.6671762074977159,-1.1588654997080563,-0.6198799110546708
1789031871360298800,7.596298828125,-0.6626610681608319,-1.0651222171276806,-0.4556622855395078
1789031871370301400,7.606301513671875,-0.4074269546806812,-0.7096019752949476,-0.26613785787560046
1789031871380305400,7.616305419921875,-0.29650895767658947,-0.12556816138625143,-0.04010346232950687
1789031871390308600,7.62630859375,-0.4279544866636395,0.5059639012783765,0.3209533708423376
1789031871400311600,7.6363115234375,-0.44418256788700816,0.9476274720817803,0.6995962757177651
1789031871410314500,7.646314453125,-0.24863690717220305,1.154776184567809,0.844996461103484
1789031871420318700,7.656318603515625,0.03804652979969978,1.1253864239543676,0.5546816818919033
1789031871430321400,7.6663212890625,0.2543836341306567,0.9116407974213361,0.0697366763100028
1789031871440324600,7.67632470703125,0.3358636474654078,0.6398270128011703,-0.3776739137127995
1789031871450328600,7.68632861328125,0.6063944065377116,0.4263327306807041,-0.6081834819115698
1789031871460331500,7.69633154296875,0.8921361787453294,0.3219552413612604,-0.753779262934625
1789031871470334500,7.70633447265625,0.9966054380014538,0.2697708806157112,-0.9527934765428304
1789031871480338000,7.716337890625,0.7329150463432074,0.13108838611245155,-1.0541003262452782
1789031871490342000,7.726341796875,0.4887643446743488,-0.0791805042207241,-0.8409468203864991
1789031871500345000,7.736344970703125,0.37809739982187746,-0.2820493474304676,-0.6752078305229544
1789031871510347800,7.74634765625,0.3524389346912503,-0.3941641530036926,-0.602227057725191
1789031871520351000,7.75635107421875,0.31029344514012336,-0.3382487890362739,-0.3501256893128156
1789031871530355000,7.76635498046875,0.05602350051701069,-0.12595219226777551,-0.20692790934219954
1789031871540358000,7.77635791015625,-0.32298107727766034,0.08555529994964599,-0.08358224631100893
1789031871550360800,7.78636083984375,-0.6161883630603552,-0.02404138532280922,0.10185849223583936
1789031871560364000,7.796364013671875,-0.6357903046309947,-0.4205062164843082,0.08952595714628696
1789031871570367700,7.80636767578125,-0.5380863017261028,-0.8263345037966966,-0.06216814075186848
1789031871580371000,7.816370849609375,-0.3958694956168532,-1.0147726705938578,-0.08037570535466075
1789031871590374000,7.826373779296875,-0.31899493025094267,-0.7803209406405687,0.12893749168887733
1789031871600377900,7.8363779296875,-0.3542883619502187,-0.3143944507181644,0.29775895773768424
1789031871610380800,7.846380859375,-0.37229280519634483,0.014407295536994933,0.40819340900853274
1789031871620384000,7.856384033203125,-0.2923404398202896,0.1305161391824484,0.5104432386495172
1789031871630387000,7.866386962890625,-0.14230068500041962,-0.026930677023530004,0.45132776346653697
1789031871640391000,7.876390869140625,0.007910042472183704,-0.2663701322615146,0.2224295759871602
1789031871650393900,7.886393798828125,0.03696487204283476,-0.46431437855064867,-0.007115092702209949
1789031871660396800,7.896396728515625,-0.02883417255729437,-0.5002314951062202,-0.2341227902598679
1789031871670400000,7.90639990234375,-0.039541736793518065,-0.29229426259100433,-0.3707338853165507
1789031871680404000,7.916404052734375,-0.025656127043068407,-0.08868073849380016,-0.3890416954234242
1789031871690407000,7.926406982421875,0.205275612090528,-0.019395605343580244,-0.2898572447024286
1789031871700409900,7.936409912109375,0.381061802585423,-0.11676058555245399,-0.3480747481323778
1789031871710413000,7.9464130859375,0.4635492393970489,-0.3506108424812555,-0.5676410436429083
1789031871720417000,7.9564169921875,0.3817269884958863,-0.4436696499288082,-0.7168240355029701
1789031871730420000,7.966419921875,0.1703849159732461,-0.3476566688507795,-0.8018414291836321
1789031871740423000,7.9764228515625,0.037001112399995324,-0.18645546854734418,-0.827174023360759
1789031871750425900,7.98642578125,0.08841945720911025,-0.10208440994620323,-0.7464123874284326
1789031871760429800,7.996429931640625,0.2676490661561489,-0.21253449717760084,-0.7371674430906772
1789031871770433000,8.00643310546875,0.49323593713045116,-0.23570143775343894,-0.6231945885606109
1789031871780435700,8.016435791015626,0.413040995170176,-0.034838673669099804,-0.3910921982124448
1789031871790440000,8.02643994140625,0.27978081797659393,0.23054069398939608,-0.3783063663974404
1789031871800443000,8.03644287109375,0.1521454949274659,0.3408960886746645,-0.48070291103273627
1789031871810445800,8.04644580078125,0.038010289442539216,0.2580763511687517,-0.415512061458826
1789031871820448800,8.05644873046875,0.21845921105146407,0.02602817522585392,-0.2137513256214559
1789031871830453000,8.066452880859375,0.36137130594849587,-0.003081599402427673,-0.14904051464945078
1789031871840456000,8.0764560546875,0.35306495763510465,0.1526660116702318,-0.1336607208184898
1789031871850459000,8.086458984375,0.4242202685713768,0.20258768818080425,-0.09368994495794176
1789031871860461800,8.0964619140625,0.24278233592510223,0.06890577844381332,-0.06369651936292647
1789031871870466000,8.106466064453125,0.0275780350163579,-0.26738427774012086,-0.1124542666606605
1789031871880468700,8.11646875,-0.2897685435056686,-0.62983110396564,-0.22828780049607156
1789031871890472000,8.126471923828126,-0.6964367887735367,-0.810048554906249,-0.37383828107267614
1789031871900475000,8.136474853515624,-1.065977664913237,-0.8293067976057529,-0.39690029996931553
1789031871910478800,8.146478759765625,-1.262202540063858,-0.5902952123910188,-0.31978330414965744
1789031871920482000,8.15648193359375,-1.1619666805937885,-0.27843524858653546,-0.38832156445533034
1789031871930485000,8.166485107421876,-1.0065294506445526,-0.033358079722523686,-0.4423410316735506
1789031871940488000,8.176488037109374,-0.7949123605728149,0.18360826242268086,-0.25229674485400316
1789031871950492000,8.186491943359375,-0.5682686740219592,0.2062842046111822,0.023425883772969246
1789031871960495000,8.1964951171875,-0.2586310624420643,-0.047346857586503026,0.18247808934897183
1789031871970497800,8.206497802734376,0.08218202412426472,-0.41461306679248805,0.18506050705760715
1789031871980502000,8.216501953125,0.5110363822370767,-0.9066337829142809,0.2443023850992322
1789031871990505000,8.2265048828125,0.49511926665902134,-1.0828221244692802,0.2784143519289791
1789031872000508000,8.2365078125,0.18417057248055935,-0.743555682823062,0.2799309670370072
1789031872010510800,8.2465107421875,-0.0697892832800746,0.13638941513001918,0.36415078059919176
1789031872020515000,8.25651513671875,0.04298194037526846,0.6551864944964647,0.5367018616303801
1789031872030517800,8.266517822265625,0.4143634759455919,0.3066565499424934,0.46134376524202525
1789031872040521000,8.27652099609375,0.5308192333325743,-0.8114777109265326,0.006255772459134459
1789031872050524000,8.28652392578125,0.22504092752933502,-1.5336796400755643,-0.45703357389271254
1789031872060527900,8.29652783203125,-0.6504337470114231,-0.7186012743085622,-0.42675862794257696
1789031872070530800,8.30653076171875,-1.3797083910256625,0.7828384764194488,0.10271934684887528
1789031872080534000,8.316533935546875,-1.1855173597902058,1.7749468952625989,0.7804548692185431
1789031872090537000,8.326536865234376,-0.24742694686055183,1.741404691144824,1.05194468258135
1789031872100541000,8.336541015625,0.4972925190448761,0.9457809674322605,0.8282255782403052
1789031872110544000,8.3465439453125,0.45063305920064445,0.19075345800220966,0.3947285819534212
1789031872120546800,8.356546875,0.03562017943561077,0.09506605561673641,0.1716164305295795
1789031872130550000,8.366550048828126,-0.29799452005922794,0.763544577884674,0.43677185323908924
1789031872140554000,8.376553955078125,-0.11431669953167438,1.2573773118644953,0.5437574792303145
1789031872150557000,8.386556884765625,0.7310393155992031,0.5224772291839123,0.3017711890537292
1789031872160559900,8.396559814453125,1.445097685781121,-0.5587029732972383,-0.06862009337022901
1789031872170563800,8.406563720703126,1.4238584983974694,-0.9072071988880633,-0.21200389743223785
1789031872180566800,8.41656689453125,1.1654723506271838,-0.25723171703815456,-0.051624827166646715
1789031872190570000,8.426570068359375,1.2104007488951087,0.9026701399803161,0.2220886535950005
1789031872200573000,8.436572998046875,1.7925632159739733,1.1956243277847767,0.3189733760062605
1789031872210577000,8.446576904296874,2.144974970397353,0.3786439277887344,0.011310936956852674
1789031872220579800,8.456579833984375,1.6671584284558891,-0.4260936612278223,-0.3343180985238403
1789031872230583000,8.4665830078125,0.974825567869842,-0.6679898619681597,-0.3198599495824426
1789031872240585700,8.476585693359375,0.7039554938405752,-0.3188081755071878,-0.18987689436338842
1789031872250590000,8.48658984375,0.4527496129631996,0.25773323681950566,-0.08012326496355235
1789031872260593000,8.496593017578125,0.33105946205407377,0.542875289568305,-0.04087539655007422
1789031872270595800,8.506595947265625,0.40018239037990566,0.1744300997108221,-0.14987155864611268
1789031872280598800,8.516598876953125,0.3400122915774584,-0.3835334533959627,-0.43614298075102265
1789031872290603000,8.52660302734375,0.07036123794913292,-0.3670353230595588,-0.5775934055976569
1789031872300606000,8.53660595703125,-0.1576920231387019,0.05710895766615867,-0.45656749075092373
1789031872310609000,8.54660888671875,0.06129705700576305,-0.10407704506814479,-0.39630379538089033
1789031872320611800,8.55661181640625,0.30805881795585155,-0.6019651919186115,-0.5128706849921495
1789031872330616000,8.566615966796874,0.15486819788962602,-0.7386947987884283,-0.624152546872571
1789031872340618800,8.57661865234375,-0.03740004858970642,-0.46461190019249915,-0.6755288791708648
1789031872350622000,8.5866220703125,-0.03413344800919294,-0.19070903433859346,-0.5261567214142531
1789031872360625000,8.596625,0.09834054724276066,-0.04960545016825199,-0.36032566935308274
1789031872370628900,8.60662890625,0.306791574499011,-0.30502924100160594,-0.3095753599986434
1789031872380631800,8.6166318359375,0.2725666488140821,-0.859087018841505,-0.45477337387576694
1789031872390635000,8.626635009765625,0.1609790819853544,-0.9478022441267967,-0.4551139309417456
1789031872400638700,8.636638671875,0.09181436034440994,-0.4771422959417104,-0.47759862487446514
1789031872410642000,8.646641845703124,0.05250935491621494,0.15597615913152693,-0.1333684964062646
1789031872420645000,8.65664501953125,0.22088848402500152,0.46286476426422596,0.3006615473113954
1789031872430647800,8.666647705078125,0.5547513130620122,0.08040215497016906,0.4055177235258743
1789031872440651800,8.67665185546875,0.7185895838707685,-0.5121095644265413,0.3256939894981682
1789031872450655000,8.686655029296874,0.669538844975829,-0.7909966484338045,0.10995883311573415
1789031872460658000,8.696657958984375,0.5553484021723271,-0.6094207686215639,-0.044106743154115974
1789031872470660900,8.706660888671875,0.5849421609252691,-0.31391748085618015,0.1046712115690112
1789031872480664600,8.71666455078125,0.6674398268699646,0.0629155981183052,0.4690606597622856
1789031872490667500,8.72666748046875,0.7191258827045559,0.3713759826123714,0.7234498833835125
1789031872500670700,8.736670654296875,0.7235492521047592,0.39175241568684577,0.8722855231106281
1789031872510673400,8.74667333984375,0.7348004216983914,-0.01365326229929924,0.9300427886176854
1789031872520677600,8.756677734375,0.683271017730236,-0.5807675055891275,0.6795799811925739
1789031872530680600,8.7666806640625,0.4831897594124078,-0.8086632380276918,0.31719555267877875
1789031872540683500,8.77668359375,0.3201791715994477,-0.49042146423161026,0.3717822983909398
1789031872550686700,8.786686767578125,0.16803279988914727,0.02042494839131832,0.7835977703541517
1789031872560690700,8.796690673828126,0.06552227348536252,0.3012847937762737,1.0992053962543606
1789031872570693400,8.806693359375,-0.06900660846978425,0.36490474077165125,0.8834270948499441
1789031872580696600,8.816696533203125,-0.045263913832604884,0.36371348516047,0.14477927700839935
1789031872590699800,8.82669970703125,-0.00983253496736288,0.40561318325698376,-0.5368613630410284
1789031872600703500,8.836703369140626,-0.023770167165994643,0.38908231969475743,-0.8757382208477705
1789031872610706700,8.846706787109374,0.238192962308228,0.19450491949021814,-0.9074115623537451
1789031872620709600,8.856709716796875,0.340016675491631,-0.08577215757071971,-0.7961270701248199
1789031872630712600,8.866712646484375,0.14205635485053061,-0.36697920895814895,-0.6117768302284181
1789031872640716500,8.876716552734376,-0.2761453840836882,-0.688603026407957,-0.6621484424635767
1789031872650719700,8.8867197265625,-0.7898372492656112,-0.9631973816573619,-0.8139972925320267
1789031872660722400,8.896722412109375,-1.216482114635408,-1.1580576904565094,-0.8336788752101362
1789031872670725600,8.9067255859375,-1.4509589790299533,-1.2502893994301556,-0.46467459016516804
1789031872680729600,8.9167294921875,-1.437815127557516,-1.2612357408583164,0.1116475533876568
1789031872690732500,8.926732666015624,-1.2422200747430323,-1.119428976854682,0.45477724633328614
1789031872700735500,8.936735595703125,-1.0789236557260156,-0.8503706284224987,0.6202084123566747
1789031872710739700,8.94673974609375,-1.0676330309048294,-0.5102911168277263,0.5701265037830918
1789031872720742400,8.956742431640626,-1.154571017384529,-0.19871113900840282,0.44197512097060676
1789031872730745600,8.96674560546875,-1.1115586818709968,0.04565525123775005,0.5364915433479472
1789031872740748500,8.97674853515625,-0.9204632785633206,0.25682079814970493,0.6628861821535974
1789031872750752800,8.986752685546875,-0.804399443103373,0.36832536287009715,0.7253301441721618
1789031872760755500,8.99675537109375,-0.6036114978209137,0.4711059383869171,0.7217753743000328
1789031872770758700,9.006758544921874,-0.3267605958163738,0.6461953787893057,0.731240975651145
1789031872780761600,9.01676171875,-0.3089703798428178,0.8108610403329134,0.9758367907389998
1789031872790765600,9.026765625,-0.3281099645987153,0.9154173933506011,1.1107353827893733
1789031872800768500,9.0367685546875,-0.19054858307987452,0.8657470612525939,1.2142073746364563
1789031872810771500,9.046771484375,0.028964228677749632,0.633937954762578,1.3070895834080873
1789031872820774700,9.056774658203125,0.14587766670435667,0.4046978219777345,1.1455572514541446
1789031872830778600,9.066778564453125,0.07185337620303034,0.3118319067537784,0.7974065885413437
1789031872840781600,9.076781494140626,-0.005583353090286254,0.1968459296584129,0.45616402451656757
1789031872850784500,9.086784423828124,-0.014250351409614085,0.19479542686939239,0.2320354625917971
1789031872860787700,9.09678759765625,0.1163340307034552,0.35956337974369523,0.2986782645396888
1789031872870791700,9.106791748046875,0.44108504026308654,0.4905377840876579,0.416666492190957
1789031872880794600,9.116794677734376,0.6157587394714356,0.4940758950859308,0.3290895502205938
1789031872890797600,9.126797607421874,0.5181846465565264,0.25510171927213665,0.05487820293940603
1789031872900800500,9.136800537109375,0.3364918623663485,-0.0070996028721332545,-0.20999898735061287
1789031872910804500,9.146804443359375,0.016755612228810786,-0.30150983470380305,-0.36305363301225
1789031872920807700,9.1568076171875,-0.12574264117032288,-0.5505412941515445,-0.5730735900856554
1789031872930810400,9.166810302734374,-0.1037611109867692,-0.6086258188515902,-0.7388050542298704
1789031872940813600,9.1768134765625,0.07106149517297744,-0.5732540612190962,-0.7917476129315794
1789031872950817500,9.186817626953125,0.1539304786480963,-0.5602952109247445,-0.7211143531080335
1789031872960820700,9.19682080078125,0.06600158143490553,-0.41603813115954397,-0.5251342464987189
1789031872970823400,9.206823486328124,0.001130611465126276,-0.1921066261768341,-0.40956389364413914
1789031872980826600,9.21682666015625,0.002036620394140482,-0.025894904235005376,-0.1846638358902186
1789031872990830600,9.22683056640625,0.10562164416164159,-0.009260580298304557,-0.019170126024633645
1789031873000833500,9.23683349609375,0.1753130200251937,-0.03131459119617939,0.04885514325760305
1789031873010836500,9.24683642578125,0.005521539900451899,-0.09184358643889427,0.04917027362138033
1789031873020839400,9.25683935546875,-0.21074030723720788,-0.15465163252949712,0.1620199693404138
1789031873030843400,9.266843505859375,-0.29780834983736276,-0.274832840180397,0.2265275128252804
1789031873040846600,9.2768466796875,-0.2759823024764657,-0.46385728243291374,0.17569208247065543
1789031873050849800,9.286849853515625,-0.2368960543654859,-0.6137690269589424,0.04832527416460216
1789031873060852500,9.2968525390625,-0.2918973722279072,-0.5932891335099936,0.014515139825642108
1789031873070856400,9.3068564453125,-0.4044550992630422,-0.3864619080632925,-0.048516851213946936
1789031873080859600,9.316859619140626,-0.43953591112494467,-0.04287468060851097,-0.093802319291234
1789031873090862600,9.326862548828124,-0.39894086588621136,0.28202538203299043,-0.21539755845852196
1789031873100865500,9.336865478515625,-0.3188160665526986,0.47754386247992514,-0.24821349412836133
1789031873110869800,9.346869873046876,-0.16985066296607254,0.5401023177236318,-0.22096016102172433
1789031873120872400,9.35687255859375,0.11665654065608978,0.415853422242403,-0.20895985356122254
1789031873130875600,9.366875732421875,0.2855040179289877,0.24769582692980766,-0.23222945079393684
1789031873140879600,9.376879638671875,0.1251096039637923,0.2587520584732294,-0.24746026460826395
1789031873150882600,9.386882568359376,-0.1060261333093047,0.42092356511354445,-0.14817710275314747
1789031873160885500,9.396885498046874,-0.142404437635839,0.5570704036593437,0.0376307886056602
1789031873170888700,9.406888671875,-0.09667495211809873,0.49618134293258187,0.1931091542828828
1789031873180892400,9.416892333984375,-0.02914776855111122,0.12237550282478332,0.404856373540312
1789031873190895600,9.4268955078125,0.0463981785595417,-0.4287012133777141,0.3893954042319208
1789031873200898600,9.436898681640624,-0.04482493789345026,-0.9379442824572324,0.2601836987115443
1789031873210901500,9.446901611328125,-0.040109307548403736,-1.1424755059212446,0.20937902882136403
1789031873220905500,9.456905517578125,-0.04371113143265247,-1.0201596243292093,-0.09220197142250836
1789031873230908700,9.46690869140625,-0.11392331629991531,-0.7239484805554152,-0.40517398812212047
1789031873240911400,9.476911376953124,-0.1888730510830879,-0.3370435048997402,-0.35157581505589186
1789031873250914600,9.48691455078125,-0.23106004168838262,0.014157120168209076,-0.34287038442231715
1789031873260918500,9.49691845703125,-0.06863368350416421,0.06645078650712967,-0.37736974313445387
1789031873270921500,9.50692138671875,0.0396317531645298,-0.024388591325283048,-0.26070501917190847
1789031873280924700,9.516924560546874,0.08238134608864783,-0.0974187562227249,-0.2715449776161462
1789031873290927600,9.526927734375,0.11240677425712346,-0.14122633376717567,-0.3385171576488763
1789031873300931300,9.536931396484375,0.0010603227078914642,-0.0524152468919754,-0.6192031808368861
1789031873310934500,9.5469345703125,0.03979775738120079,-0.01975041013062,-0.6722371441490947
1789031873320937700,9.556937744140624,0.11725742915868759,-0.0575999560534954,-0.6889919526603072
1789031873330940400,9.5669404296875,0.11243483130782841,-0.11732348013222217,-0.6461025128740817
1789031873340944600,9.576944580078125,0.1805821925997734,-0.32793022411763667,-0.5821739383209497
1789031873350947600,9.586947509765626,0.07256020929813385,-0.42087855692803855,-0.6537883181363344
1789031873360950500,9.596950439453124,-0.11551993784159421,-0.4422445855617523,-0.5231306515913456
1789031873370953500,9.606953369140625,-0.43907063170075417,-0.3555792785435915,-0.2311469893194735
1789031873380957700,9.616957763671875,-0.7392404499724506,-0.2615261993616819,0.22548004959896206
1789031873390960400,9.62696044921875,-0.8918509320631622,-0.24743279207944868,0.7146215570226311
1789031873400963600,9.636963623046874,-0.8582941148981451,-0.3675432725816965,0.8365657557580619
1789031873410966500,9.646966552734375,-0.6435393113225698,-0.49188627608716484,0.6326486456044018
1789031873420970800,9.656970703125,-0.259023276630044,-0.6225093827754259,0.5287900655925274
1789031873430973400,9.666973388671876,-0.22221593323647976,-0.3789882111817598,0.5765602631576359
1789031873440976600,9.6769765625,-0.3063742258697748,0.24391046317219733,0.3936099531870335
1789031873450979600,9.6869794921875,-0.022757482992112634,0.6854945389986038,0.26318529168032107
1789031873460983600,9.696983642578125,0.739517805609107,0.6738643069595098,0.30733649503067134
1789031873470986500,9.706986572265626,1.11307288582623,0.2835077295452356,0.20562245276682078
1789031873480989400,9.716989501953124,0.9457137474149465,0.02210194169282913,-0.5156429261844605
1789031873490992400,9.726992431640625,0.29448037445843217,0.38673020361065863,-0.8122384661659597
1789031873500996400,9.736996337890625,-0.19702362431287765,0.5817576856702565,-0.25401659091655165
1789031873510999300,9.746999267578126,-0.34493104327917096,0.4414198251754045,-0.000994783191010356
1789031873521002200,9.757002197265624,-0.28609160855859517,-0.028058804270625112,0.024822160436958073
1789031873531005400,9.76700537109375,-0.14937223082184792,-0.3331570188552141,0.16878336252812295
1789031873541009200,9.777009033203125,-0.3375470705077052,0.2887666729867458,0.08310648202542215
1789031873551012400,9.787012451171876,-0.5375426963686942,1.1973907529354095,0.33852340472657233
1789031873561015300,9.797015380859374,-0.16206337009072302,1.3570669356286524,0.8067802738253027
1789031873571018200,9.807018310546875,0.5814151558429003,0.3861947815597057,0.5888248475775122
1789031873581022200,9.817022216796875,0.9722250299826264,-0.6532376985162496,0.02023910696301609
1789031873591025400,9.827025390625,0.9071326723471284,-0.5199854123681783,-0.20027952083628622
1789031873601028000,9.837028076171874,0.38272652092725035,0.5605401255965232,0.15404124554619192
1789031873611031300,9.84703125,0.1938578537583351,1.1679086378633976,0.5613058127393946
1789031873621035300,9.85703515625,0.8793968164205551,0.6041442895233631,0.3514714413659647
1789031873631038200,9.8670380859375,1.619433092945814,-0.7046487368017434,-0.02394329524319619
1789031873641041200,9.877041259765624,1.3135972117364405,-1.341767659687996,-0.22673439704161136
1789031873651044400,9.88704443359375,0.17451953155994415,-0.7140437571346759,-0.010166625759936869
1789031873661048000,9.897048095703125,-0.549520134410262,0.5026701204299926,0.35647900386229153
1789031873671051300,9.90705126953125,-0.159851539260149,0.9206120393842459,0.5964734261019154
1789031873681054500,9.917054443359374,0.5519093676343559,0.4432476251244545,0.33610297264661637
1789031873691057200,9.92705712890625,0.7504454423367977,-0.30974282552003857,0.0005273483423516154
1789031873701061400,9.937061279296875,0.3247235370308161,-0.9041635934084653,-0.37080632949825376
1789031873711064300,9.947064208984376,-0.21932839510142801,-0.694020959803462,-0.6088760672856122
1789031873721067300,9.9570673828125,-0.3560878125876188,0.1897895814061165,-0.3400591263938695
1789031873731070200,9.9670703125,-0.05476268680095672,0.8600614168316125,0.06028716757716611
1789031873741074400,9.977074462890625,0.5129974531769752,0.4032008614182472,0.07051946071814745
1789031873751077000,9.9870771484375,0.7687538369655609,-0.33132395820915694,-0.07393678574780933
1789031873761080300,9.997080322265624,0.5253180055677891,-0.5117430692017078,-0.34172044720221306
1789031873771083300,10.007083251953125,0.2430442017316818,-0.1772019025117159,-0.20962208032961935
1789031873781087200,10.017087158203125,0.17007131997942923,0.27904315135180946,-0.12658067203019746
1789031873791090200,10.027090087890626,0.45081426098644733,0.3631798166751861,0.018778569423779843
1789031873801093400,10.03709326171875,0.7291787824243307,0.027859482306241988,0.23848299476336687
1789031873811096000,10.047095947265625,0.8118599882423877,-0.38575697466433045,0.056897077614301815
1789031873821100300,10.057100341796875,0.7108253796100616,-0.4898714291334152,0.08221959792198613
1789031873831103200,10.067103271484376,0.5276619383454323,-0.2408493220359087,0.12385249830847606
1789031873841106200,10.077106201171874,0.4422393248647451,0.1974918263465166,0.1434177428642288
1789031873851109400,10.087109375,0.5176145915836096,0.49479719509780407,0.41129334778524934
1789031873861113300,10.09711328125,0.5803878586217761,0.4617284537106752,0.4421729816302657
1789031873871116300,10.1071162109375,0.5832239588305353,0.16361352214217184,0.5645032936064526
1789031873881119200,10.117119140625,0.4531865430757403,-0.2087070478439331,0.4740694643676281
1789031873891122400,10.127122314453125,0.20452742407172916,-0.4016676605015993,0.3666325144123286
1789031873901126400,10.13712646484375,0.0011447861209511756,-0.439947414535284,0.4934258702119812
1789031873911129300,10.14712939453125,-0.042130291981995104,-0.45468145780861374,0.8345871491614729
1789031873921132300,10.15713232421875,0.08533581198006868,-0.5486316611379385,0.9759246882181614
1789031873931135200,10.16713525390625,0.28990649067163465,-0.7569254520058631,0.9533464342504739
1789031873941139200,10.17713916015625,0.41622634720802304,-0.922023659747839,0.7117173600137233
1789031873951142400,10.187142333984376,0.45805824076533314,-0.9070850338131189,0.6354107307288795
1789031873961145000,10.19714501953125,0.40663989595621824,-0.7755167552292347,0.7467363586857915
1789031873971148300,10.207148193359375,0.21267945860624313,-0.6686135468244552,0.6961882939051837
1789031873981152300,10.21715234375,-0.006011515374481678,-0.6660977646112441,0.42146315188296135
1789031873991155500,10.227155517578124,-0.3394502737805247,-0.736554279628396,0.13458786386707797
1789031874001158100,10.237158203125,-0.6991299733802676,-0.7622188822388648,-0.0046909890941344195
1789031874011161300,10.247161376953125,-0.9961055256552994,-0.7695020249843597,-0.15409275653772056
1789031874021165300,10.257165283203125,-1.1692211817666887,-0.6967927626043557,-0.10617420001048594
1789031874031168300,10.267168212890626,-1.059166523593664,-0.5726403132349253,0.009693857149034738
1789031874041171200,10.277171142578124,-0.9089140028059483,-0.3554898466944694,0.02953669480346143
1789031874051174100,10.287174072265625,-0.7897899029925465,-0.016727262917160986,-0.013668605998903512
1789031874061178000,10.29717822265625,-0.6184101307630538,0.2863806546330452,-0.05247917897365987
1789031874071181300,10.307181396484374,-0.5592096076451242,0.4234539603739977,0.02373085806891322
1789031874081184500,10.3171845703125,-0.543253767491877,0.4119102375745773,0.1262517597362399
1789031874091187200,10.327187255859375,-0.5107848916940391,0.3681663729161024,0.12617109571546314
1789031874101191200,10.337191162109375,-0.5288929414451122,0.4649129289656877,0.09358516940921545
1789031874111194400,10.3471943359375,-0.5208478744164109,0.7198626725465059,-0.020556063957698642
1789031874121197300,10.357197265625,-0.4819666473582387,0.9839701205730438,0.0014119491571560501
1789031874131200300,10.3672001953125,-0.45950902409553523,1.2020973231911658,0.06400956736747175
1789031874141204500,10.37720458984375,-0.5079261412620544,1.1833745025426148,0.1319583373473957
1789031874151207200,10.387207275390624,-0.43392450098395347,0.8770148897200822,0.19081939937788991
1789031874161210400,10.39721044921875,-0.3224899327598512,0.5829051021397114,0.26679950012210757
1789031874171213300,10.40721337890625,-0.5511714087486267,0.4379056795746088,0.34844591953232884
1789031874181217300,10.41721728515625,-0.7198574118494987,0.40657063011229033,0.5920708802940323
1789031874191220200,10.42722021484375,-0.6554103663802147,0.3577624678015709,0.7180578881468623
1789031874201223400,10.437223388671875,-0.5624725549638271,0.1500520297795534,0.8249000870794058
1789031874211226000,10.44722607421875,-0.40041035391688345,0.030229718568921086,0.9351103742055594
1789031874221230300,10.457230224609376,-0.24398294388651848,-0.1882721625804901,0.9330946504689752
1789031874231233300,10.4672333984375,-0.1935594553336501,-0.445003528881073,1.0012192154072224
1789031874241236200,10.477236328125,-0.06639335723146796,-0.6953139222234487,0.9950679993011057
1789031874251239400,10.487239501953125,0.2185634020783007,-0.8340747426599263,0.9190661251164972
1789031874261243400,10.497243408203126,0.43375761998444795,-0.8512865742236375,0.9309561040703207
1789031874271246000,10.50724609375,0.5089373641312122,-0.7357236740231513,0.9946668711543083
1789031874281249300,10.517249267578125,0.5943105855122208,-0.6787631849169731,0.9291158099658787
1789031874291252500,10.52725244140625,0.58852118845582,-0.698851448699832,0.7792873598091303
1789031874301256200,10.537256103515626,0.348107042966783,-0.5531745652645826,0.5957954537751152
1789031874311259400,10.54725927734375,0.15692381524518131,-0.0719435387045145,0.5816458227936178
1789031874321262300,10.557262451171875,0.19056553421467542,0.41320612260401246,0.5762426120432094
1789031874331265300,10.567265380859375,0.15539251402467488,0.5542576843261718,0.5179953345295042
1789031874341269200,10.577269287109376,-0.051443771511316294,0.46886955763697624,0.3171797340551391
1789031874351272400,10.5872724609375,-0.1440247323140502,0.18742577488422393,0.07876052524298428
1789031874361275100,10.597275146484375,-0.050880292409658426,0.013084522500634193,-0.25592180348336696
1789031874371278300,10.6072783203125,0.037597324727475644,0.1357955408900976,-0.7353016492187976
1789031874381282300,10.6172822265625,0.1058174589946866,0.3446902202606201,-1.0372764710858464
1789031874391285200,10.62728515625,0.19996859172359108,0.5198614937275647,-1.1666374488838016
1789031874401288200,10.6372880859375,0.26429507955312725,0.6472855121135711,-1.1161204368285833
1789031874411291400,10.64729150390625,0.33801147314906116,0.63029755243361,-0.9713295424476265
1789031874421294300,10.65729443359375,0.4408595609441399,0.4583130923092365,-0.7383343679782003
1789031874431298300,10.66729833984375,0.38261867663860316,0.29864860005378724,-0.43555546318665145
1789031874441301200,10.67730126953125,0.18986250051185488,0.24533026684224604,-0.06784962045438588
1789031874451304200,10.68730419921875,0.04109422693252563,0.15274258403778077,0.3181976423934102
1789031874461307400,10.697307373046876,-0.012121376556903124,-0.05870762503445148,0.6240101427271961
1789031874471311400,10.707311279296874,0.023719606022536754,-0.288743876633048,0.7185749708235264
1789031874481314300,10.717314208984375,0.06195362121835351,-0.5449778148055077,0.8136449719630181
1789031874491317800,10.72731787109375,0.09791589208990335,-0.7091314351737499,0.7420489315219223
1789031874501321000,10.737321044921876,0.09281403890624641,-0.8076011617541313,0.652886766186729
1789031874511325000,10.747324951171874,0.02400689853131771,-0.9101835843503475,0.6164153767492622
1789031874521327600,10.75732763671875,-0.0330699104309082,-0.9801672211587429,0.5312684384047984
1789031874531330800,10.767330810546875,-0.10940437757074832,-0.8128121744006872,0.5100884338624775
1789031874541334000,10.777333984375,-0.19569325249195096,-0.5605798730850219,0.7104920560024678
1789031874551337700,10.787337646484374,-0.31249709266424175,-0.31050153493285176,0.64574215512909
1789031874561341000,10.7973408203125,-0.33350568616241216,-0.13583996455371378,0.5898354128595441
1789031874571344000,10.80734375,-0.31093554243594407,0.031878654819726945,0.47740408868305384
1789031874581346800,10.817346923828126,-0.26979630731791254,0.06115677175223827,0.25078634029105307
1789031874591350800,10.827350830078124,-0.1881912062987685,0.012392448583245277,-0.05810344859622418
1789031874601354000,10.83735400390625,-0.1780871609136462,-0.02652735691964626,-0.29431137456707657
1789031874611356700,10.847356689453125,-0.3265910844683647,-0.06989478948116302,-0.46003640897050496
1789031874621359900,10.85735986328125,-0.3983908307880163,-0.13029226729869842,-0.5370812894020229
1789031874631363800,10.86736376953125,-0.28262831636220215,-0.3245394126355648,-0.6927753436565399
1789031874641366800,10.87736669921875,-0.18340280297845601,-0.49955052710473535,-0.6787031983580439
1789031874651369700,10.88736962890625,-0.0014361702829599379,-0.5567869105428457,-0.5744896674286574
1789031874661373000,10.897373046875,0.11826485263556241,-0.3314268340617418,-0.5704287746652961
1789031874671376600,10.907376708984375,0.017936930967867373,-0.00725099404156208,-0.4563586703058332
1789031874681379800,10.9173798828125,0.050711365583539,0.2727075185894966,-0.4355256525702774
1789031874691382800,10.9273828125,0.14044862739294767,0.36109658066034317,-0.3384916578814387
1789031874701385700,10.9373857421875,0.18923048621863126,0.2535784552276134,-0.23867687336765228
1789031874711389700,10.9473896484375,0.19935703569650648,-0.014942133066058159,-0.43522564671039576
1789031874721393000,10.957392822265625,0.21665449971705675,-0.5369570054352283,-0.23871844748705623
1789031874731395800,10.967395751953125,0.061190966282784934,-0.8882745348811149,-0.13101561313718557
1789031874741398800,10.977398681640626,-0.2807809349298477,-0.7658452560424804,-0.21588168871365487
1789031874751402800,10.98740283203125,-0.4413096427991986,-0.45647126383483405,-0.12665873310193418
1789031874761405700,10.99740576171875,-0.3192681942343712,-0.23556933580636977,0.33103440067805345
1789031874771409000,11.007408935546875,0.048187400063872336,-0.36010873866677284,0.5818096715858205
1789031874781411800,11.017411865234376,0.21223551423102616,-0.4190098404467106,0.31661289395261555
1789031874791414800,11.027414794921874,0.009544365675747395,0.12669628863334656,0.13865695820320398
1789031874801418800,11.037418701171875,-0.14462532855570315,0.9450643435955047,0.4385270994085818
1789031874811422000,11.047421875,0.11486147393286228,1.3383049520134924,0.6582236702352762
1789031874821424600,11.057424560546876,0.7442313901275396,0.7751607813984155,0.31659327593669295
1789031874831427800,11.067427734375,0.7479708689168095,-0.02659282337129116,-0.12637688395325095
1789031874841431800,11.077431884765625,-0.03125613900721073,-0.3141588883966207,-0.16104016452282666
1789031874851434800,11.087434814453125,-0.7275745620980858,-0.3157762604653835,0.10070081010069698
1789031874861437700,11.097437744140626,-0.861789263537526,-0.3349690367132425,0.1922977648347616
1789031874871441000,11.10744091796875,-0.5811603042989969,-0.33469781855642794,0.24252682679407297
1789031874881444900,11.11744482421875,-0.12540975595414638,-0.24691958186030386,0.31403672332167626
1789031874891447800,11.12744775390625,0.07636164740771055,-0.018012626552581786,0.2909410578837618
1789031874901450800,11.13745068359375,-0.16744857026040552,0.39295068556070323,0.31632746460735794
1789031874911453700,11.14745361328125,-0.374504343765974,0.7082119822412729,0.47373456985745577
1789031874921457700,11.157457763671875,0.01596241602450609,0.5140776496291161,0.5490461967555805
1789031874931460900,11.1674609375,0.36893443467915055,0.19865444038510321,0.5417267040550708
1789031874941463800,11.1774638671875,0.17345161006748674,0.5384685790419578,0.597595452401787
1789031874951466800,11.187466796875,0.11634119109660386,1.0810977848947048,0.7356373109139501
1789031874961470700,11.197470703125,0.37139293374717236,1.397950734680891,0.821147164286673
1789031874971474000,11.207473876953125,0.8026286340385675,1.126858834594488,0.7091281472381203
1789031874981476900,11.217476806640626,1.3021861754059791,0.16753449497818945,0.30614520288687197
1789031874991479800,11.227479736328124,1.2245645910650491,-0.7545172218203544,-0.15748842685800044
1789031875001484000,11.237484130859375,0.37672026624977584,-0.5590700530439615,-0.46481005311310286
1789031875011486700,11.24748681640625,-0.0716430944532156,0.5848240875035524,-0.30637203391268847
1789031875021490000,11.257489990234374,0.9492781618982553,0.8798305316627025,-0.1654483911528252
1789031875031492600,11.26749267578125,1.734076832474768,0.5716513021975755,-0.4409843198349699
1789031875041496800,11.277496826171875,1.226980127774179,1.1300468169808386,-0.46073761604242025
1789031875051499800,11.287499755859375,1.1373407733812928,0.9730343005388975,-0.20725756142167373
1789031875061503000,11.2975029296875,1.2274059519708156,0.2679395735353231,-0.10683567786021157
1789031875071505700,11.307505615234374,1.5104863960146904,-0.9418027114510535,-0.07335052855876274
1789031875081510000,11.317510009765625,1.4546166247546672,-1.6526801135092972,-0.2827562170581892
1789031875091512800,11.327512939453126,0.7260548051849007,-1.0374830995738507,-0.12153573666554875
1789031875101515800,11.337515869140624,0.12945055577754974,-0.2101443871706724,0.29093362349597734
1789031875111519000,11.34751904296875,0.11074702435135841,-0.09476093519032001,0.42533582859784363
1789031875121521700,11.357521728515625,0.4866261636018753,-0.19618132826983928,0.5338060305910185
1789031875131525600,11.367525634765625,0.6345856050163508,-0.10176526099443435,0.3765885296288877
1789031875141528800,11.37752880859375,0.5879603397026658,-0.021228665989637373,0.27423951392974705
1789031875151532000,11.387531982421875,0.3206435742408037,-0.047614568611979484,-0.02600703197312541
1789031875161534700,11.39753466796875,-0.02652794144153595,-0.1166992107540369,0.026852972144819794
1789031875171539000,11.4075390625,-0.36729397399574515,-0.23029051862061023,0.2340693247732706
1789031875181542000,11.4175419921875,-0.565065201805532,-0.3058949179202318,0.18427160343592985
1789031875191544800,11.427544921875,-0.4794616787999868,-0.2886415853023529,0.28941976660061625
1789031875201547800,11.4375478515625,-0.3205301769942045,-0.11591653594374655,0.17960516426116227
1789031875211552000,11.447552001953126,-0.0790738289758563,0.06487842262387275,0.3992787926036864
1789031875221554700,11.4575546875,0.3815238671392202,0.17314707416296005,0.6422528517086058
1789031875231558000,11.467557861328125,0.664357935206592,0.2948831100404262,0.47554830474853516
1789031875241560800,11.477560791015625,0.5564867585524916,0.4098018671184778,0.21972534026345236
1789031875251564800,11.487564697265626,0.4160086128041148,0.44848026508092875,-0.03456948307259008
1789031875261567700,11.497567626953124,0.2893433038309216,0.33421734156310556,-0.4447102450229227
1789031875271571000,11.507571044921875,0.26020313406437634,-0.05568330877721309,-0.6121782506361604
1789031875281574000,11.517573974609375,0.4270999156609177,-0.5452694912284612,-0.4886534316457808
1789031875291577900,11.527577880859376,0.47391748867630956,-0.7498544907063245,-0.4638353993946686
1789031875301580800,11.537580810546874,0.32930005116611716,-0.6283996098577976,-0.14617658571884967
1789031875311583700,11.547583740234375,0.1391492352321744,-0.4572796576082706,0.07163733143270946
1789031875321587000,11.5575869140625,-0.19126871404796839,-0.49429099914133545,0.06262834214214236
1789031875331590000,11.56758984375,-0.673321286123991,-0.6221972480863333,-0.10317488119718618
1789031875341593900,11.57759375,-1.0863961835637688,-0.8252665823042392,-0.2013116403630003
1789031875351596800,11.5875966796875,-1.4215277173623442,-1.0585691422224044,-0.32232009261827915
1789031875361600000,11.59760009765625,-1.4163137821063398,-1.344434248548746,-0.29510257974369447
1789031875371602700,11.607602783203125,-1.1502242203518747,-1.5592571489244698,-0.007499114450579509
1789031875381607000,11.61760693359375,-0.8847767558932303,-1.4913140780329703,0.48247569285891945
1789031875391609900,11.62760986328125,-0.7131514844700694,-1.093701245880127,0.8632298177346587
1789031875401612800,11.63761279296875,-0.6648631082497537,-0.34286183578968044,1.06748068988733
1789031875411615700,11.64761572265625,-0.5425649084448814,0.45087271317541594,1.1015602157521993
1789031875421620000,11.657619873046874,-0.328128230907768,0.8445417761385441,1.0647486345749348
1789031875431622700,11.66762255859375,-0.21574849078804254,0.8705395562261342,1.025630895347148
1789031875441625900,11.6776259765625,-0.2252406878851354,0.7229086161136626,1.0840462594367564
1789031875451628800,11.68762890625,-0.403874522896111,0.5035545020490885,1.021572486801818
1789031875461632800,11.6976328125,-0.5758408628419042,0.1835977410286665,0.6963052713483572
1789031875471635700,11.7076357421875,-0.57292965157032,-0.10432312878370284,0.4491865136541426
1789031875481639000,11.717638916015625,-0.574483310753107,-0.32278467792272564,0.10056792270233854
1789031875491641900,11.727641845703126,-0.6625918023169041,-0.3578220890343189,0.046290809194929894
1789031875501645600,11.7376455078125,-0.5419359628915786,-0.060930561780929565,0.04205596637045964
1789031875511648800,11.747648681640625,-0.14590119371041654,0.44813364360034463,0.06831186767127365
1789031875521651700,11.757651611328125,-0.14515651282295583,0.5922445928931236,0.24369924984062089
1789031875531654700,11.767654541015625,-0.09181889038905501,0.5243365933150053,0.21554043752793223
1789031875541657600,11.77765771484375,-0.039040070881694554,0.2748679114937782,0.07562794457199051
1789031875551661800,11.787661865234375,-0.019663754760473967,0.1729705485522747,0.18552874562386423
1789031875561664500,11.79766455078125,-0.17031214299798011,0.2744365343391895,0.4069206491263583
1789031875571667700,11.807667724609376,-0.3190355545222759,0.39403263557851315,0.45271359180174764
1789031875581670700,11.817670654296874,-0.43530309586077925,0.3805430394083261,0.3157246764086187
1789031875591674600,11.827674560546875,-0.43056262333542106,0.3578612520009279,0.14065750263696536
1789031875601677600,11.837677490234375,-0.4074724012576043,0.494159481716156,0.05025925616817548
1789031875611680800,11.8476806640625,-0.35601036343723536,0.7083622043669223,0.28468203402161596
1789031875621683700,11.85768359375,-0.26408421328142284,0.7719780597090721,0.5152747869918123
1789031875631687700,11.867687744140625,-0.1488869315229356,0.5519628513872623,0.3364446256911382
1789031875641690600,11.877690673828125,-0.053450727419555186,0.18546938011944292,0.07433940259879454
1789031875651693600,11.887693603515626,0.03915361425876617,-0.20491876147687435,-0.03995165103496984
1789031875661696800,11.89769677734375,0.17666151202470062,-0.4106038311511278,-0.07598086792919784
1789031875671700700,11.90770068359375,0.34837124686092136,-0.17354864070117473,0.0897793473854661
1789031875681703700,11.91770361328125,0.5008442201770842,0.2239133848041296,0.3484357269318774
1789031875691706600,11.92770654296875,0.46994186304360624,0.40495325804352755,0.4024663365986198
1789031875701709800,11.937709716796874,0.30162936943024393,0.20412264266312122,0.2870235191138461
1789031875711713500,11.947713623046875,0.163857560031116,-0.31624037084579465,0.06528718608785421
1789031875721716700,11.957716796875,0.0759820004403591,-0.9269131853550672,-0.07514660906214267
1789031875731719700,11.9677197265625,0.04733779749721288,-1.3294161276370287,-0.1582402681386098
1789031875741722600,11.97772265625,0.17296587237715721,-1.2219319044739008,-0.06093596860840916
1789031875751725600,11.9877255859375,0.2105339710101485,-0.6210147603034972,0.1442764785854146
1789031875761729800,11.997729736328125,0.2227542778968811,-0.020379940205812453,0.5695997399626299
1789031875771732500,12.007732421875,0.2582438166901469,0.34495617772042747,0.978841963904351
1789031875781735700,12.017735595703124,0.23517770614027975,0.46991409825384617,1.1369834843762219
1789031875791738600,12.027738525390625,0.13580313967466354,0.3550070316135883,0.9860850669004022
1789031875801742600,12.03774267578125,-0.017579203571379185,0.050749359506368635,0.7075529338106512
1789031875811745500,12.04774560546875,-0.07485226575806736,-0.32631343657076356,0.3694182361407205
1789031875821748700,12.057748779296874,-0.04332739281207323,-0.6717039140552282,0.06972684903573244
1789031875831751700,12.067751708984375,-0.030558658262342213,-0.8542559454232453,-0.25842443395406006
1789031875841755600,12.077755615234375,-0.06915595381259917,-0.8568243346065282,-0.4465016219517216
1789031875851758600,12.087758544921876,-0.27931378498673437,-0.561715599116683,-0.2864461210846901
1789031875861761500,12.097761474609374,-0.5656929783150554,-0.05575228236019611,-0.036773806450143456
1789031875871764700,12.1077646484375,-0.5542959705099463,0.36840836497843266,0.1553648953653872
1789031875881768700,12.117768798828125,-0.21573183191418646,0.4636240581989288,0.5684110781673342
1789031875891771600,12.127771728515626,0.11467764179855584,0.4335170892268419,0.7941144881933927
1789031875901774600,12.137774658203124,0.32395985918194053,0.2670002468585968,0.9423433941990137
1789031875911777800,12.14777783203125,0.26724837640076876,0.01945171944499016,0.8110811128243803
1789031875921780500,12.157780517578125,0.12255904269814491,-0.2250806750178337,0.5793415644392371
1789031875931784700,12.16778466796875,-0.055629240502417084,-0.4123357695102691,0.41712884900569913
1789031875941787600,12.17778759765625,-0.11282879906147718,-0.5012982475548983,0.180113150315918
1789031875951790600,12.18779052734375,0.12472177368998527,-0.690022245556116,-0.10012874583378434
1789031875961793500,12.19779345703125,0.47657384840399025,-0.8859346937566995,-0.6501560260485857
1789031875971797800,12.2077978515625,0.5921922781839967,-0.9669406598389149,-0.8946044685550033
1789031875981800400,12.217800537109374,0.4374710875496268,-0.7494651991277933,-1.235946985822916
1789031875991803600,12.2278037109375,0.2651177941128611,-0.25786416972279547,-1.40101552907899
1789031876001806800,12.237806884765625,0.40437165876328945,0.1052355674535036,-1.1562895117402077
1789031876011810600,12.247810546875,0.7105927398979663,0.1284106913357973,-1.1237531236641107
1789031876021813500,12.2578134765625,0.3222676683112979,-0.07129296584129333,-0.8465124186243861
1789031876031816700,12.267816650390625,0.023218086241185664,-0.5661497821718454,-0.38890564795359966
1789031876041819600,12.277819580078125,-0.35367110683470965,-0.9427519749999046,-0.256739385210257
1789031876051822600,12.287822509765626,-0.7632078932762145,-1.020038628298044,-0.4864839055869728
1789031876061826800,12.297826904296874,-1.0159481441140175,-0.965254314187169,-0.3428003879260272
1789031876071829500,12.30782958984375,-1.1333353371322155,-0.736239222329855,0.45555641401223834
1789031876081832700,12.317832763671875,-0.9913368499487638,0.054337154865264886,0.5925508823633193
1789031876091835600,12.327835693359376,-0.6720289082258939,0.9541793779432773,0.7735051231458783
1789031876101839600,12.337839599609374,-0.23854630579054353,1.7270587704062461,1.1174290352091192
1789031876111842600,12.347842529296875,0.6204971661701798,1.9075316574126482,1.4230128413535654
1789031876121845800,12.357845703125,1.4019664000630379,1.4825754757821559,1.1738676923982798
1789031876131848400,12.367848388671876,1.531063612358272,0.9424567914456129,0.8028636849034577
1789031876141852700,12.377852783203124,0.9300219650253653,0.9269237067490815,0.6715816028498113
1789031876151855600,12.387855712890625,0.21464871285259723,1.0588391913354396,0.7758112081311642
1789031876161858600,12.397858642578125,0.3171630386486649,0.5782184056282043,0.8602339969195425
1789031876171861800,12.40786181640625,0.7568377737224101,-0.23396716130673884,0.5778868355862796
1789031876181865700,12.41786572265625,0.7629290763348341,-0.5243307480961084,0.12528139860043302
1789031876191868400,12.427868408203125,0.33549364510923624,0.06967091759741306,0.00393131156694144
