time,seconds_elapsed,z,y,x
1789323338878668500,0.11166845703125,0.14141114056110382,-0.26190075278282166,0.3551313281059265
1789323338897519000,0.13051904296875,0.06383354216814041,-0.3187095522880554,0.31237202882766724
1789323338916370000,0.149369873046875,0.1450762301683426,-0.18187977373600006,0.2005869746208191
1789323338935220500,0.168220458984375,0.23059484362602234,0.0856713280081749,0.1456107199192047
1789323338954071000,0.187071044921875,0.24403348565101624,0.3581092059612274,0.14255647361278534
1789323338972921600,0.205921630859375,0.08521319180727005,0.19501298666000366,0.053983625024557114
1789323339020048100,0.253048095703125,-0.10781454294919968,-0.4146125912666321,0.11018157750368118
1789323339038898700,0.271898681640625,-0.08948912471532822,-0.37735089659690857,0.13033953309059143
1789323339057749500,0.29074951171875,-0.0925433561205864,-0.28999972343444824,0.06497887521982193
1789323339076600000,0.30960009765625,-0.07360709458589554,-0.11712995916604996,-0.033978380262851715
1789323339095450600,0.32845068359375,-0.05344913527369499,-0.3242071866989136,-0.06574243307113647
1789323339114301200,0.34730126953125,0.17806197702884674,-0.32603973150253296,0.05337277799844742
1789323339133152000,0.366152099609375,0.04611896723508835,-0.10369132459163666,0.04909684881567955
1789323339152002600,0.38500244140625,-0.20738264918327332,0.32695600390434265,-0.027869906276464462
1789323339170853000,0.40385302734375,-0.2244863659143448,0.1375933438539505,-0.154926136136055
1789323339189703700,0.42270361328125,-0.013133215717971325,0.025197450071573257,-0.1402658075094223
1789323339208554500,0.441554443359375,0.10598199814558029,0.09116895496845245,-0.09445225447416306
1789323339227405000,0.460405029296875,0.058335911482572556,0.2683146595954895,0.0295497365295887
1789323339246255600,0.479255615234375,-0.11086877435445786,0.30740886926651,0.27083441615104675
1789323339265106400,0.4981064453125,-0.1695101112127304,0.23593975603580475,0.43881741166114807
1789323339283957000,0.51695703125,-0.11453386396169662,0.2176143378019333,0.3038201630115509
1789323339302807600,0.5358076171875,-0.09681928902864456,0.1650814712047577,0.006337540224194527
1789323339321658400,0.554658447265625,-0.1053711548447609,0.10888352245092392,-0.13598987460136414
1789323339340509000,0.573509033203125,-0.13835690915584564,0.15408621728420258,-0.21112407743930817
1789323339359359500,0.592359375,-0.1817270666360855,0.17118994891643524,-0.2984752357006073
1789323339378210300,0.611210205078125,-0.11453386396169662,0.16019469499588013,-0.2208976447582245
1789323339397060900,0.630060791015625,0.058335911482572556,0.016645587980747223,-0.0016034740256145597
1789323339415911400,0.648911376953125,0.29473379254341125,-0.10552386194467545,0.24517881870269775
1789323339434762200,0.66776220703125,0.14935214817523956,-0.09147437661886215,0.3600181043148041
1789323339453612800,0.68661279296875,-0.23059484362602234,-0.09452861547470093,0.20180866122245789
1789323339472463600,0.705463623046875,-0.3545968234539032,0.18768282234668732,-0.1659213900566101
1789323339491314200,0.724314208984375,-0.32161107659339905,0.39414918422698975,-0.3638359010219574
1789323339510164700,0.743164794921875,-0.19455485045909882,0.32573428750038147,-0.34184539318084717
1789323339529015600,0.762015625,-0.009468132629990578,0.4100312292575836,-0.35894912481307983
1789323339547866000,0.7808662109375,-0.24097923934459686,0.16630317270755768,-0.4670690894126892
1789323339566717000,0.799717041015625,-0.24281178414821625,-0.742026686668396,-0.3113030195236206
1789323339585567500,0.8185673828125,-0.018630841746926308,-0.895349383354187,0.12484190613031387
1789323339613843500,0.846843505859375,-0.007635590620338917,-0.7114843726158142,0.36368319392204285
1789323339632694300,0.8656943359375,0.028404397889971733,-0.8183826208114624,0.3313082754611969
1789323339651544800,0.884544921875,-0.057114217430353165,-0.6302416324615479,0.1462215632200241
1789323339670395600,0.903395751953125,-0.18722468614578247,-0.4653128981590271,-0.12132953852415085
1789323339689246200,0.92224609375,-0.09681928902864456,0.06551336497068405,-0.010766183026134968
1789323339708097000,0.941096923828125,0.08887827396392822,0.8712972402572632,0.5194492340087891
1789323339726947600,0.959947509765625,0.531742513179779,1.277510643005371,0.9012287855148315
1789323339745798400,0.97879833984375,1.0955545902252197,1.397236704826355,0.7582905292510986
1789323339764649000,0.99764892578125,1.399832844734192,1.9298955202102661,0.15416257083415985
1789323339783499800,1.016499755859375,1.6148511171340942,1.9616596698760986,-0.6003101468086243
1789323339802350300,1.035350341796875,1.3662362098693848,2.5370776653289795,-1.4622156620025635
1789323339821201200,1.054201171875,1.567815899848938,2.0416805744171143,-2.300297975540161
1789323339840051700,1.0730517578125,2.0430550575256348,0.8456416726112366,-2.617938756942749
1789323339858902500,1.091902587890625,2.1835498809814453,0.2848075330257416,-2.6747474670410156
1789323339877753000,1.110753173828125,1.575145959854126,1.277510643005371,-2.6997921466827393
1789323339896604000,1.12960400390625,1.1377030611038208,2.3049557209014893,-3.011324167251587
1789323339915454500,1.148454345703125,1.1780189275741577,2.355656147003174,-3.2923903465270996
1789323339934305300,1.16730517578125,0.8585458397865295,1.4528238773345947,-3.3815741539001465
1789323339953156000,1.186156005859375,0.5738909840583801,2.555403232574463,-3.594148874282837
1789323339972006700,1.205006591796875,0.17500774562358856,-0.4414898455142975,-3.718761682510376
1789323339990857500,1.223857421875,-0.6117635369300842,-2.1323914527893066,-2.389481782913208
1789323340009708000,1.2427080078125,-0.7760814428329468,-1.5495667457580566,-2.4896607398986816
1789323340028558800,1.261558837890625,-1.1260969638824463,0.39109495282173157,-3.3504209518432617
1789323340047409700,1.28040966796875,-1.6209595203399658,1.8810278177261353,-3.851926565170288
1789323340066260200,1.29926025390625,-2.3979573249816895,2.6989521980285645,-3.59964656829834
1789323340085111000,1.318111083984375,-2.76080060005188,2.6085469722747803,-3.1347153186798096
1789323340103961600,1.336961669921875,-2.283728837966919,2.7331597805023193,-2.59167218208313
1789323340122812400,1.3558125,-1.2745327949523926,2.269526720046997,-2.1481971740722656
1789323340141663200,1.374663330078125,-0.5360184907913208,2.1375837326049805,-2.1097137928009033
1789323340160513800,1.393513671875,-0.23792500793933868,3.2652077674865723,-2.5006558895111084
1789323340179364600,1.412364501953125,-0.6209262609481812,3.7362473011016846,-2.496380090713501
1789323340198215400,1.43121533203125,-1.0448542833328247,2.33061146736145,-1.9765490293502808
1789323340217066000,1.45006591796875,-1.2415471076965332,2.935350179672241,-1.4628264904022217
1789323340235916800,1.468916748046875,-0.4450022280216217,4.058774471282959,-1.0944855213165283
1789323340254767600,1.487767578125,0.823727548122406,3.74113392829895,-0.7053758502006531
1789323340273618200,1.5066181640625,1.5702592134475708,2.063671112060547,-0.6015318632125854
1789323340292469000,1.525468994140625,1.988689661026001,0.5572454333305359,-0.695602297782898
1789323340311319800,1.54431982421875,1.9025601148605347,-0.47325390577316284,-1.0883771181106567
1789323340330170400,1.56317041015625,1.2153569459915161,0.4008685052394867,1.3043879270553589
1789323340349021200,1.582021240234375,0.28190600872039795,1.3282109498977661,0.9201650619506836
1789323340367872000,1.6008720703125,0.6044333577156067,1.2530767917633057,0.13828055560588837
1789323340386722800,1.619722900390625,1.3503541946411133,-0.09330692142248154,0.2011978179216385
1789323340405573400,1.638573486328125,1.8567465543746948,-0.7371399402618408,-0.1152210608124733
1789323340424424200,1.657424072265625,2.165224552154541,-0.9704836010932922,-0.05657972767949104
1789323340443275000,1.67627490234375,2.24096941947937,-0.36818817257881165,-0.11094513535499573
1789323340462125800,1.695125732421875,1.743129014968872,-0.9216157793998718,-0.21051323413848877
1789323340480976600,1.7139765625,1.0784507989883423,-1.0608890056610107,-0.2960318624973297
1789323340499827200,1.7328271484375,-0.003359660040587187,-1.2630794048309326,-0.29053422808647156
1789323340518678000,1.751677978515625,-0.7595885396003723,-0.974148690700531,0.15599511563777924
1789323340537528800,1.77052880859375,-1.3618839979171753,-0.5099047422409058,0.3080960810184479
1789323340556379600,1.789379638671875,-1.9880787134170532,-0.3217637836933136,0.1853157877922058
1789323340575230200,1.808230224609375,-2.237915277481079,0.9140565395355225,0.12300936877727509
1789323340594081000,1.8270810546875,-2.1010854244232178,1.8339924812316895,-0.10117157548666
1789323340612931800,1.845931884765625,-1.7186951637268066,0.435075968503952,-0.15920206904411316
1789323340631782700,1.86478271484375,-1.7913858890533447,-0.2790044844150543,-0.09750649333000183
1789323340650633500,1.883633544921875,-1.9691424369812012,0.1656923145055771,-0.0358109213411808
1789323340669484300,1.902484375,-1.6893744468688965,0.8034932017326355,0.11079242080450058
1789323340688334800,1.9213349609375,-1.2024527788162231,1.6354671716690063,0.058870404958724976
1789323340707185700,1.940185546875,-1.5378843545913696,2.5547924041748047,-0.21478916704654694
1789323340726036500,1.959036376953125,-1.6319547891616821,2.6671881675720215,-0.5844281315803528
1789323340744887300,1.97788720703125,-1.3857070207595825,1.7533607482910156,-0.8751913905143738
1789323340763738000,1.996738037109375,-0.6551336646080017,1.2402490377426147,-0.9332218766212463
1789323340782589000,2.0155888671875,-0.013744063675403595,0.8835142254829407,-0.9949174523353577
1789323340801439500,2.034439453125,-0.10292776674032211,-0.4408790171146393,-0.7823426127433777
1789323340820290300,2.053290283203125,-0.24525517225265503,-0.6436802744865417,-0.7970029711723328
1789323340839141000,2.07214111328125,-0.5940489768981934,0.2560977041721344,-0.9564340710639954
1789323340857992000,2.090991943359375,-1.7480157613754272,-1.4799301624298096,-0.4805077314376831
1789323340876842800,2.1098427734375,-2.86220121383667,-1.1042591333389282,0.03749075159430504
1789323340895693600,2.128693603515625,-3.2623062133789062,-2.361459255218506,-0.11216682940721512
1789323340914544400,2.14754443359375,-4.363129138946533,-2.669326066970825,-0.33146098256111145
1789323340933395200,2.166395263671875,-4.05946159362793,-1.9509698152542114,-0.6968240141868591
1789323340952246000,2.18524609375,-2.9513847827911377,0.09239064902067184,0.3459686040878296
1789323340971096800,2.204096923828125,-2.865255355834961,0.6421532034873962,2.339850425720215
1789323340989947400,2.222947509765625,-1.5867520570755005,0.13270656764507294,3.1895389556884766
1789323341008798200,2.241798095703125,-0.144465371966362,0.9794172048568726,2.5591444969177246
1789323341027649000,2.26064892578125,0.5292991399765015,1.9952561855316162,1.8620915412902832
1789323341046499800,2.279499755859375,0.6142069101333618,1.180385947227478,1.236583948135376
1789323341065350700,2.2983505859375,0.6905628442764282,0.48638713359832764,1.09792160987854
1789323341084201500,2.317201416015625,0.7950177192687988,0.4020902216434479,1.3581424951553345
1789323341103052300,2.33605224609375,0.7760814428329468,0.3239017724990845,1.7393112182617188
1789323341121903000,2.354903076171875,0.8206732869148254,-0.635739266872406,2.147968053817749
1789323341140754000,2.37375390625,0.7131641507148743,-1.3559281826019287,2.413151979446411
1789323341159604700,2.392604736328125,0.5806103348731995,-1.233758807182312,2.4803452491760254
1789323341178455600,2.41145556640625,0.6270347237586975,-0.9344435930252075,2.4522464275360107
1789323341197306400,2.430306396484375,0.7498149871826172,-0.5844281315803528,2.2696030139923096
1789323341216157200,2.4491572265625,0.7876875400543213,-0.5856497883796692,2.297091007232666
1789323341235008000,2.468008056640625,0.8756495714187622,-0.922837495803833,2.5524253845214844
1789323341253858800,2.48685888671875,0.6844543814659119,-1.5483450889587402,2.5725831985473633
1789323341272709600,2.505709716796875,0.5506787896156311,-1.6088190078735352,2.1662933826446533
1789323341291560400,2.524560546875,0.5329642295837402,-0.9130639433860779,1.7069363594055176
1789323341310411300,2.543411376953125,0.5311316847801208,-0.1751604527235031,1.2689588069915771
1789323341329262000,2.562261962890625,0.532353401184082,0.0844496339559555,0.8615236878395081
1789323341348113000,2.58111279296875,0.45294323563575745,0.07895200699567795,0.477300763130188
1789323341366963700,2.599963623046875,0.3118375241756439,0.24632415175437927,0.22868594527244568
1789323341385814500,2.618814453125,0.22998400032520294,0.3965925872325897,-0.04375193640589714
1789323341404665300,2.637665283203125,0.2373141646385193,0.47417017817497253,-0.4035409688949585
1789323341423516200,2.65651611328125,-0.018630841746926308,0.5694623589515686,-0.6730009913444519
1789323341442367000,2.675366943359375,-0.23059484362602234,0.7637118101119995,-0.931389331817627
1789323341461218000,2.694218017578125,-0.4315635859966278,0.787611186504364,-1.264301061630249
1789323341480068900,2.71306884765625,-0.5738909840583801,0.7087355256080627,-1.4475553035736084
1789323341498919700,2.731919677734375,-0.7711946368217468,0.673306405544281,-1.6845639944076538
1789323341517770500,2.7507705078125,-0.9666658043861389,0.5914528369903564,-1.8262805938720703
1789323341536621300,2.769621337890625,-1.0753966569900513,0.4772244095802307,-1.880035161972046
1789323341555472100,2.78847216796875,-1.206117868423462,0.32695600390434265,-1.9056907892227173
1789323341574323000,2.807322998046875,-1.3582189083099365,0.28725093603134155,-1.9154642820358276
1789323341593173800,2.826173828125,-1.4284663200378418,0.1785201132297516,-2.0064804553985596
1789323341612024600,2.845024658203125,-1.4602303504943848,-0.111632339656353,-2.172020196914673
1789323341630875600,2.863875732421875,-1.4217469692230225,-0.4384356141090393,-2.2581496238708496
1789323341649726500,2.8827265625,-1.3374500274658203,-0.5092939138412476,-2.311904191970825
1789323341668577300,2.901577392578125,-1.1780189275741577,-0.6937697529792786,-2.2349374294281006
1789323341687428000,2.920427978515625,-0.8634325861930847,-0.8806890249252319,-2.114600419998169
1789323341706279000,2.93927880859375,-0.5604523420333862,-1.0144646167755127,-2.0669543743133545
1789323341725129700,2.958129638671875,-0.34482327103614807,-1.029735803604126,-2.030914306640625
1789323341743980500,2.97698046875,-0.13957859575748444,-0.867861270904541,-1.8843110799789429
1789323341762831400,2.995831298828125,0.06322269141674042,-0.7456917762756348,-1.6503565311431885
1789323341781682400,3.014682373046875,0.2483094036579132,-0.5929799675941467,-1.3253858089447021
1789323341800533200,3.033533203125,0.4340069890022278,-0.38101598620414734,-1.0602781772613525
1789323341819384000,3.052384033203125,0.4443913698196411,-0.26006820797920227,-0.737750768661499
1789323341838235000,3.07123486328125,0.3833066523075104,-0.14706148207187653,-0.33023929595947266
1789323341857085700,3.090085693359375,0.3417690396308899,0.09605573117733002,0.11690089106559753
1789323341875936500,3.1089365234375,0.40102121233940125,0.1913478970527649,0.5487698912620544
1789323341894787600,3.12778759765625,0.38636088371276855,0.2304421216249466,0.9158890843391418
1789323341913638400,3.146638427734375,0.34909921884536743,0.2652604281902313,1.1724449396133423
1789323341932489200,3.1654892578125,0.3967452943325043,0.4271349310874939,1.3416496515274048
1789323341951340000,3.184340087890625,0.4315635859966278,0.462564080953598,1.3880740404129028
1789323341970190800,3.20319091796875,0.42240089178085327,0.4674508571624756,1.2665154933929443
1789323341989042000,3.2220419921875,0.41201648116111755,0.5010474920272827,1.0966999530792236
1789323342007892700,3.240892822265625,0.4211791753768921,0.43263256549835205,1.0441670417785645
1789323342026743600,3.25974365234375,0.4963133931159973,0.2664821147918701,1.1712232828140259
1789323342045594400,3.278594482421875,0.6264238357543945,0.125987246632576,1.3538665771484375
1789323342064445400,3.297445556640625,0.7834116220474243,-0.06826218217611313,1.5242929458618164
1789323342083296300,3.316296142578125,0.9226847887039185,-0.16844113171100616,1.6006488800048828
1789323342102147000,3.33514697265625,0.9776610136032104,-0.2930539846420288,1.5872102975845337
1789323342120998000,3.353997802734375,0.957503080368042,-0.28633466362953186,1.620195984840393
1789323342139849000,3.372848876953125,0.8664868474006653,-0.4396573007106781,1.8321599960327148
1789323342158699800,3.39169970703125,0.7846332788467407,-0.5935907959938049,2.0416805744171143
1789323342177550600,3.410550537109375,0.7235485911369324,-0.691326379776001,2.1033761501312256
1789323342196401400,3.4294013671875,0.7437065243721008,-0.7689039707183838,2.1736998558044434
1789323342215252200,3.448252197265625,0.6325323581695557,-1.0737167596817017,2.2867066860198975
1789323342234103300,3.467103271484375,0.5256340503692627,-1.4255647659301758,2.268381357192993
1789323342252954000,3.4859541015625,0.5653391480445862,-0.9112313985824585,1.8065043687820435
1789323342271805200,3.50480517578125,0.5720584392547607,-0.27350685000419617,1.5597220659255981
1789323342290656000,3.523656005859375,0.5427377820014954,-0.11774080991744995,1.2927818298339844
1789323342309506800,3.5425068359375,0.47798797488212585,-0.06704048812389374,0.9934667348861694
1789323342328357600,3.561357666015625,0.46638187766075134,0.20234315097332,0.7002600431442261
1789323342347208700,3.580208740234375,0.3662029206752777,0.2982461750507355,0.45225605368614197
1789323342366059500,3.5990595703125,0.2867927849292755,0.488219678401947,0.19508934020996094
1789323342384910300,3.617910400390625,0.10964708030223846,0.3752129375934601,-0.15187190473079681
1789323342403761400,3.636761474609375,-0.02229592576622963,0.4014793634414673,-0.6064186096191406
1789323342422612200,3.6556123046875,-0.17928366363048553,0.51998370885849,-0.9197832345962524
1789323342441463000,3.674463134765625,-0.3301629424095154,0.6329904794692993,-1.1445749998092651
1789323342460314000,3.693314208984375,-0.49448084831237793,0.7551599144935608,-1.473821759223938
1789323342479165000,3.7121650390625,-0.7033905982971191,0.6891884207725525,-1.7102196216583252
1789323342498015700,3.731015625,-0.9477295279502869,0.7661551833152771,-1.8403301239013672
1789323342516866800,3.74986669921875,-1.1859599351882935,0.7459971904754639,-1.9502825736999512
1789323342535717600,3.768717529296875,-1.382652759552002,0.6794148683547974,-1.9258487224578857
1789323342554568400,3.787568359375,-1.4388507604599,0.5144860744476318,-1.935011386871338
1789323342573419500,3.80641943359375,-1.4779449701309204,0.30374380946159363,-2.0266385078430176
1789323342592270300,3.825270263671875,-1.5061203241348267,-0.09269607067108154,-2.0205299854278564
1789323342611121200,3.84412109375,-1.4541219472885132,-0.3089359998703003,-2.0461854934692383
1789323342629972200,3.86297216796875,-1.3881504535675049,-0.47081053256988525,-2.1891238689422607
1789323342648823000,3.881822998046875,-1.3209571838378906,-0.7133168578147888,-2.2471542358398438
1789323342667673900,3.900673828125,-1.1541959047317505,-0.8385405540466309,-2.340003252029419
1789323342686525000,3.91952490234375,-0.8823688626289368,-0.9032903909683228,-2.380319118499756
1789323342705375700,3.938375732421875,-0.5842754244804382,-0.895349383354187,-2.288081169128418
1789323342724226800,3.957226806640625,-0.3680354654788971,-0.7621846795082092,-2.0639002323150635
1789323342743077600,3.97607763671875,-0.08826743066310883,-0.6839962005615234,-1.7761911153793335
1789323342761928400,3.994928466796875,0.23181653022766113,-0.474475622177124,-1.4102935791015625
1789323342780779500,4.013779541015625,0.41079479455947876,-0.22219568490982056,-0.9423846006393433
1789323342799630300,4.03263037109375,0.4156815707683563,-0.05238015204668045,-0.40598437190055847
1789323342818481400,4.0514814453125,0.39857783913612366,-0.03833066672086716,0.09185615926980972
1789323342837332200,4.070332275390625,0.3906368315219879,-0.0841442123055458,0.3972797989845276
1789323342856183000,4.08918310546875,0.42850935459136963,-0.06887302547693253,0.6428403854370117
1789323342875034000,4.1080341796875,0.4321744441986084,0.03802524134516716,0.898785412311554
1789323342893885000,4.126885009765625,0.4181249439716339,0.18157434463500977,1.158395528793335
1789323342912736000,4.145736083984375,0.39857783913612366,0.4277457892894745,1.3263784646987915
1789323342931586800,4.1645869140625,0.3521534502506256,0.3703261613845825,1.3746354579925537
1789323342950438000,4.18343798828125,0.24342262744903564,0.36543938517570496,1.365472674369812
1789323342969288700,4.202288818359375,0.17256435751914978,0.2848075330257416,1.3636401891708374
1789323342988139500,4.221139404296875,0.1695101112127304,0.2811424434185028,1.4778685569763184
1789323343006990600,4.239990478515625,0.2990097403526306,0.19440214335918427,1.689221739768982
1789323343025841400,4.25884130859375,0.5537330508232117,0.1253764033317566,1.903629183769226
1789323343044692500,4.2776923828125,0.7834116220474243,-0.04871506989002228,2.040458917617798
1789323343063543300,4.296543212890625,0.906191885471344,-0.1238492801785469,2.0135815143585205
1789323343082394400,4.315394287109375,0.9880454540252686,-0.2722851634025574,1.9854826927185059
1789323343101245200,4.3342451171875,0.9654440879821777,-0.39262208342552185,2.0655035972595215
1789323343120096300,4.35309619140625,0.9025267958641052,-0.476308137178421,2.0386264324188232
1789323343138947000,4.371947021484375,0.9239065051078796,-0.4384356141090393,2.014192581176758
1789323343157798100,4.390798095703125,0.8872556686401367,-0.580763041973114,2.107652187347412
1789323343176649000,4.40964892578125,0.7614210844039917,-1.1415208578109741,2.1265883445739746
1789323343195499800,4.428499755859375,0.694227933883667,-1.2508624792099,1.9958670139312744
1789323343214350800,4.447350830078125,0.7455390691757202,-0.7841751575469971,1.767410159111023
1789323343233201700,4.46620166015625,0.8322793841362,-0.3217637836933136,1.5407859086990356
1789323343252052700,4.485052734375,0.7919634580612183,-0.1892099380493164,1.2298645973205566
1789323343270903800,4.50390380859375,0.642916738986969,-0.07009471952915192,0.8077691197395325
1789323343289754600,4.522754638671875,0.34726667404174805,0.024586603045463562,0.4876851737499237
1789323343308605700,4.541605712890625,0.14690876007080078,0.1907370537519455,0.27144524455070496
1789323343327456500,4.56045654296875,0.1426328420639038,0.4014793634414673,0.060092099010944366
1789323343346307600,4.5793076171875,0.19883078336715698,0.5376983284950256,-0.35772743821144104
1789323343365158400,4.598158447265625,0.10292776674032211,0.4808894991874695,-0.7127060294151306
1789323343384009500,4.617009521484375,-0.09009996801614761,0.5187620520591736,-0.9753703474998474
1789323343402860300,4.6358603515625,-0.29229041934013367,0.5993938446044922,-1.3455437421798706
1789323343421711400,4.65471142578125,-0.4553866386413574,0.8560260534286499,-1.724269151687622
1789323343440562200,4.673562255859375,-0.6606312990188599,0.9311602711677551,-1.996096134185791
1789323343459413200,4.692413330078125,-0.846328854560852,0.921997606754303,-2.1536946296691895
1789323343478264000,4.71126416015625,-1.0301939249038696,0.8615236878395081,-2.2660906314849854
1789323343497115100,4.730115234375,-1.2427687644958496,0.8230403065681458,-2.2288289070129395
1789323343515966000,4.748966064453125,-1.355164647102356,0.7221741676330566,-2.288081169128418
1789323343534817000,4.767817138671875,-1.411973476409912,0.3990359604358673,-2.3222885131835938
1789323343553668000,4.786668212890625,-1.4296879768371582,-0.06581879407167435,-2.3937575817108154
1789323343572519000,4.805518798828125,-1.4064757823944092,-0.3718532621860504,-2.4334628582000732
1789323343591370000,4.824369873046875,-1.2274975776672363,-0.6937697529792786,-2.377875566482544
1789323343610220800,4.843220703125,-0.8951966762542725,-0.903901219367981,-2.3681020736694336
1789323343629072000,4.86207177734375,-0.5610632300376892,-0.9662076234817505,-2.3931467533111572
1789323343647922700,4.880922607421875,-0.3900259733200073,-0.8635852932929993,-2.360161066055298
1789323343666773800,4.899773681640625,-0.34665581583976746,-0.5606050491333008,-2.138423442840576
1789323343685624600,4.91862451171875,-0.2110477238893509,-0.2985515892505646,-1.7340426445007324
1789323343704475600,4.9374755859375,0.02107422985136509,-0.03588727489113808,-1.3620367050170898
1789323343723326700,4.95632666015625,0.14080029726028442,0.17302247881889343,-0.9869764447212219
1789323343742177500,4.975177490234375,0.09071081876754761,0.06062658876180649,-0.48844873905181885
1789323343761028600,4.994028564453125,0.11575555801391602,0.10766182839870453,-0.015042114071547985
1789323343779879400,5.01287939453125,0.25319617986679077,0.16080553829669952,0.4107184112071991
1789323343798730500,5.03173046875,0.3961344361305237,0.16752485930919647,0.7802810072898865
1789323343817581600,5.05058154296875,0.4211791753768921,0.16141638159751892,1.0722659826278687
1789323343836432400,5.069432373046875,0.40102121233940125,0.1772984117269516,1.3202699422836304
1789323343855283500,5.088283447265625,0.3564293682575226,0.2176143378019333,1.4815336465835571
1789323343874134300,5.10713427734375,0.3038965165615082,0.3318427801132202,1.4980264902114868
1789323343892985300,5.1259853515625,0.2764083743095398,0.4424061179161072,1.4442720413208008
1789323343911836400,5.14483642578125,0.22021043300628662,0.49982577562332153,1.482755422592163
1789323343930687200,5.163687255859375,0.18661384284496307,0.4521796703338623,1.6757831573486328
1789323343949538300,5.182538330078125,0.2593046724796295,0.40819868445396423,1.8694217205047607
1789323343968389000,5.20138916015625,0.4065188467502594,0.31229567527770996,1.9683789014816284
1789323343987240200,5.220240234375,0.6172611713409424,0.25060009956359863,1.9653246402740479
1789323344006091300,5.23909130859375,0.8066238164901733,0.21089501678943634,1.9744874238967896
1789323344024942000,5.257942138671875,0.952616274356842,0.16141638159751892,2.0538976192474365
1789323344043793200,5.276793212890625,1.0265288352966309,-0.06337540596723557,2.241503953933716
1789323344062644200,5.295644287109375,1.0033166408538818,-0.3706315755844116,2.3624517917633057
1789323344081495000,5.3144951171875,0.9782719016075134,-0.4671454429626465,2.3380179405212402
1789323344100346000,5.33334619140625,0.7895200848579407,-0.9729269742965698,2.326411724090576
1789323344119197200,5.352197265625,0.6062659025192261,-1.3547065258026123,2.311751365661621
1789323344138048000,5.371048095703125,0.5573981404304504,-1.0364550352096558,2.089937448501587
1789323344156899000,5.389899169921875,0.5231906771659851,-0.45920443534851074,1.7368677854537964
1789323344175750000,5.40875,0.4480564594268799,-0.25945737957954407,1.3685269355773926
1789323344194601000,5.42760107421875,0.42484426498413086,-0.14400723576545715,0.902450442314148
1789323344213452000,5.4464521484375,0.29473379254341125,-0.09575030952692032,0.5108973979949951
1789323344232302800,5.465302734375,0.18600298464298248,-0.1623326539993286,0.2512872815132141
1789323344251154000,5.48415380859375,0.15301723778247833,-0.07559234648942947,0.017332790419459343
1789323344270005000,5.5030048828125,0.06383354216814041,-0.005955760832875967,-0.3003077805042267
1789323344288856000,5.52185595703125,-0.057114217430353165,0.16752485930919647,-0.6473453640937805
1789323344307707000,5.540706787109375,-0.1847812980413437,0.3831539452075958,-0.9943066239356995
1789323344326558000,5.559557861328125,-0.31000497937202454,0.6317687630653381,-1.303395390510559
1789323344345409000,5.578408935546875,-0.4474456310272217,0.8285379409790039,-1.6375287771224976
1789323344364259800,5.597259765625,-0.596492350101471,0.9568158984184265,-1.935011386871338
1789323344383111000,5.61611083984375,-0.7882983684539795,1.0209548473358154,-2.132315158843994
1789323344401962000,5.6349619140625,-1.0405782461166382,1.0447778701782227,-2.259982109069824
1789323344420812800,5.653812744140625,-1.272700309753418,0.8334247469902039,-2.2379915714263916
1789323344439663900,5.672663818359375,-1.456565260887146,0.5645755529403687,-2.221498727798462
1789323344458515000,5.691514892578125,-1.608742594718933,0.18279604613780975,-2.1689658164978027
1789323344477366000,5.710365966796875,-1.5867520570755005,-0.1892099380493164,-2.343668222427368
1789323344496216800,5.729216796875,-1.3967022895812988,-0.44637662172317505,-2.4316301345825195
1789323344515068000,5.74806787109375,-1.1291511058807373,-0.6351284384727478,-2.4456796646118164
1789323344533919000,5.7669189453125,-0.8628217577934265,-0.825101912021637,-2.438349485397339
1789323344552769800,5.785769775390625,-0.5946598052978516,-0.9442171454429626,-2.3974227905273438
1789323344571620900,5.804620849609375,-0.38819342851638794,-0.8373188972473145,-2.2117252349853516
1789323344590472000,5.823471923828125,-0.21593450009822845,-0.5514423847198486,-1.870261549949646
1789323344609322800,5.84232275390625,-0.008857285603880882,-0.3352024257183075,-1.4561071395874023
1789323344628173800,5.861173828125,0.19150061905384064,-0.13240113854408264,-1.0822685956954956
1789323344647025000,5.88002490234375,0.2721324563026428,-0.15316994488239288,-0.6852179169654846
1789323344665875700,5.898875732421875,0.2654131352901459,-0.06337540596723557,-0.20257222652435303
1789323344684726800,5.917726806640625,0.3405473530292511,0.06490252166986465,0.21769069135189056
1789323344703577900,5.936577880859375,0.4480564594268799,0.15408621728420258,0.579312264919281
1789323344722429000,5.955428955078125,0.4297310411930084,0.20906247198581696,0.8444199562072754
1789323344741279700,5.97427978515625,0.36009445786476135,0.19989976286888123,1.0624924898147583
1789323344760130800,5.993130859375,0.34421244263648987,0.21211670339107513,1.194435477256775
1789323344778982000,6.01198193359375,0.32038938999176025,0.149199441075325,1.2567418813705444
1789323344797833000,6.0308330078125,0.29656633734703064,0.05024218559265137,1.3447039127349854
1789323344816683800,6.049683837890625,0.3142809271812439,0.04230117425322533,1.5035241842269897
1789323344835534800,6.068534912109375,0.3643703758716583,0.09666658192873001,1.6812807321548462
1789323344854386000,6.087385986328125,0.47554460167884827,0.10033166408538818,1.8541505336761475
1789323344873237000,6.106237060546875,0.6923953890800476,0.10338589549064636,1.9928128719329834
1789323344892087800,6.125087890625,0.8927532434463501,0.08261708915233612,2.1381945610046387
1789323344910939000,6.14393896484375,1.0069817304611206,-0.12812520563602448,2.1999664306640625
1789323344929790000,6.1627900390625,1.0387457609176636,-0.30221667885780334,2.2060749530792236
1789323344948641000,6.18164111328125,0.9831586480140686,-0.3852919042110443,2.1914145946502686
1789323344967491800,6.200491943359375,0.89764004945755,-0.43232715129852295,2.1798083782196045
1789323344986343000,6.219343017578125,0.7828007340431213,-0.5673243999481201,2.1908037662506104
1789323345005194000,6.238194091796875,0.6288672685623169,-0.8751913905143738,2.170034885406494
1789323345024045000,6.257045166015625,0.6026008129119873,-0.8941276669502258,2.000753879547119
1789323345042896000,6.275895751953125,0.7149966955184937,-0.4524851143360138,1.7985633611679077
1789323345061747000,6.294746826171875,0.8108997344970703,-0.1623326539993286,1.3532557487487793
1789323345080598000,6.313597900390625,0.721716046333313,-0.2667875289916992,1.0435562133789062
1789323345099449000,6.332448974609375,0.5500679612159729,-0.2435753494501114,0.70881187915802
1789323345118300200,6.351300048828125,0.4486673176288605,-0.18065807223320007,0.39117130637168884
1789323345137151000,6.37015087890625,0.3148917555809021,-0.12995775043964386,0.08025006204843521
1789323345156002000,6.389001953125,0.21226942539215088,0.030695075169205666,-0.18485765159130096
1789323345174853000,6.40785302734375,0.10170606523752213,0.22066856920719147,-0.4719558656215668
1789323345193704200,6.4267041015625,-0.03390202298760414,0.4369085133075714,-0.7493568658828735
1789323345212555300,6.44555517578125,-0.1963873952627182,0.617719292640686,-1.1030374765396118
1789323345231406000,6.464406005859375,-0.34421244263648987,0.8370898365974426,-1.4835952520370483
1789323345259682800,6.492682861328125,-0.6545228362083435,1.2457466125488281,-1.9899876117706299
1789323345278533600,6.51153369140625,-0.9104678630828857,1.2579635381698608,-2.1824045181274414
1789323345297384700,6.530384765625,-1.2140588760375977,1.1406809091567993,-2.258760452270508
1789323345316235800,6.54923583984375,-1.4370181560516357,0.968421995639801,-2.3509984016418457
1789323345335086800,6.5680869140625,-1.6282896995544434,0.5749599933624268,-2.3821516036987305
1789323345353937700,6.586937744140625,-1.711364984512329,-0.014507622458040714,-2.4566750526428223
1789323345372788700,6.605788818359375,-1.640506625175476,-0.4683671295642853,-2.5238680839538574
1789323345391639800,6.624639892578125,-1.3032426834106445,-0.5709894895553589,-2.6087758541107178
1789323345410491000,6.643490966796875,-0.8677085041999817,-0.5502206683158875,-2.658254623413086
1789323345429342000,6.662342041015625,-0.634364902973175,-0.589314877986908,-2.6246578693389893
1789323345448192800,6.68119287109375,-0.5543438792228699,-0.616802990436554,-2.49027156829834
1789323345467043800,6.7000439453125,-0.3686463236808777,-0.49768781661987305,-2.2324941158294678
1789323345485895000,6.71889501953125,-0.08887827396392822,-0.1892099380493164,-1.8519362211227417
1789323345504746000,6.73774609375,0.14141114056110382,0.045355409383773804,-1.3412678241729736
1789323345523597000,6.75659716796875,0.223264679312706,0.12965233623981476,-0.718814492225647
1789323345542447900,6.77544775390625,0.18539214134216309,0.1510319858789444,-0.09323056042194366
1789323345561299000,6.794298828125,0.19150061905384064,0.1785201132297516,0.3594072461128235
1789323345580150000,6.81314990234375,0.2867927849292755,0.279920756816864,0.7204179763793945
1789323345599001000,6.8320009765625,0.3252761662006378,0.3642176687717438,1.0069053173065186
1789323345617852200,6.85085205078125,0.3124483823776245,0.3972034156322479,1.2689588069915771
1789323345636703200,6.869703125,0.27152159810066223,0.32695600390434265,1.4564889669418335
1789323345655554000,6.888553955078125,0.2092151790857315,0.30374380946159363,1.5621654987335205
1789323345674405000,6.907405029296875,0.15546062588691711,0.2286095917224884,1.6782264709472656
1789323345693256200,6.926256103515625,0.15973655879497528,0.2658712565898895,1.750306487083435
1789323345712107300,6.945107177734375,0.20493926107883453,0.3220692276954651,1.7845139503479004
1789323345730958300,6.963958251953125,0.40041038393974304,0.3599417507648468,1.8840819597244263
1789323345749809200,6.98280908203125,0.6636855602264404,0.42957833409309387,1.9793741703033447
1789323345768660200,7.00166015625,0.8738170266151428,0.41858309507369995,1.958605408668518
1789323345787511300,7.02051123046875,0.9825478196144104,0.12659808993339539,2.0416805744171143
1789323345806362400,7.0393623046875,1.0118684768676758,-0.2166980654001236,2.2060749530792236
1789323345825213400,7.05821337890625,1.060125470161438,-0.41888850927352905,2.30869722366333
1789323345844064500,7.077064453125,1.054627776145935,-0.3309265077114105,2.3569540977478027
1789323345862915600,7.09591552734375,0.9874345660209656,-0.4421007037162781,2.424758195877075
1789323345881766400,7.114766357421875,0.7791357040405273,-0.950325608253479,2.3905508518218994
1789323345900617500,7.133617431640625,0.6868977546691895,-1.1158652305603027,2.139416217803955
1789323345919468500,7.152468505859375,0.6826218366622925,-0.6943806409835815,1.7277051210403442
1789323345938319600,7.171319580078125,0.6068767309188843,-0.4103366434574127,1.352034091949463
1789323345957170700,7.190170654296875,0.48043137788772583,-0.35658207535743713,0.9714761972427368
1789323345976021800,7.209021728515625,0.2764083743095398,-0.2912214398384094,0.6526139378547668
1789323345994872800,7.227872802734375,0.06200099736452103,-0.15866757929325104,0.4901285767555237
1789323346013723600,7.2467236328125,-0.011300674639642239,-0.02367033064365387,0.1847049444913864
1789323346032574700,7.26557470703125,-0.06933116167783737,0.17118994891643524,-0.23922306299209595
1789323346051425800,7.28442578125,-0.19150061905384064,0.31596073508262634,-0.6711684465408325
1789323346070276900,7.30327685546875,-0.33321717381477356,0.5407525300979614,-1.076160192489624
1789323346089128000,7.3221279296875,-0.4957025647163391,0.8468633890151978,-1.408461093902588
1789323346107979000,7.34097900390625,-0.694227933883667,1.0582165718078613,-1.682120680809021
1789323346126830000,7.359830078125,-0.952616274356842,1.1461784839630127,-1.95394766330719
1789323346145681000,7.378680908203125,-1.2219998836517334,1.0942565202713013,-2.106048583984375
1789323346164532000,7.397531982421875,-1.5525447130203247,1.074709415435791,-2.129260778427124
1789323346183383000,7.416383056640625,-1.7926076650619507,0.8053257465362549,-2.1390342712402344
1789323346202234000,7.435234130859375,-1.9373784065246582,0.36605021357536316,-2.0950534343719482
1789323346221085200,7.454085205078125,-1.987467885017395,-0.014507622458040714,-2.1646900177001953
1789323346239936300,7.472936279296875,-1.8781262636184692,-0.30282753705978394,-2.377875566482544
1789323346258787000,7.491787109375,-1.631343960762024,-0.8006680607795715,-2.4542315006256104
1789323346277638100,7.51063818359375,-1.2348277568817139,-1.0865445137023926,-2.6191604137420654
1789323346296489200,7.5294892578125,-0.7870767116546631,-1.1244170665740967,-2.641150951385498
1789323346315340300,7.54834033203125,-0.4614951014518738,-0.8134958148002625,-2.308238983154297
1789323346334191400,7.56719140625,-0.2495311051607132,-0.3889569938182831,-1.8427734375
1789323346353042400,7.58604248046875,-0.07605048269033432,-0.1507265567779541,-1.4292298555374146
1789323346371893500,7.6048935546875,0.024128466844558716,-0.029167955741286278,-1.0162971019744873
1789323346390744600,7.62374462890625,0.1169772520661354,0.014202198944985867,-0.5825955867767334
1789323346409595600,7.642595703125,0.21837788820266724,0.015423892997205257,-0.12499462068080902
1789323346428446500,7.661446533203125,0.3710896968841553,0.07773031294345856,0.25800660252571106
1789323346447297500,7.680297607421875,0.4468347728252411,0.15530791878700256,0.5548783540725708
1789323346466148600,7.699148681640625,0.4437805414199829,0.05512896552681923,0.8853467702865601
1789323346484999700,7.717999755859375,0.3668137788772583,-0.059710320085287094,1.2237560749053955
1789323346503850800,7.736850830078125,0.3301629424095154,-0.18554484844207764,1.4418286085128784
1789323346522701800,7.755701904296875,0.29717719554901123,-0.07742489129304886,1.5249037742614746
1789323346541553000,7.774552978515625,0.28190600872039795,0.07528692483901978,1.6073682308197021
1789323346560404000,7.793404052734375,0.32038938999176025,0.150421142578125,1.69960618019104
1789323346579254800,7.8122548828125,0.4205683469772339,0.1889045089483261,1.7869572639465332
1789323346598105900,7.83110595703125,0.6282563805580139,0.22555534541606903,1.9085159301757812
1789323346616957000,7.84995703125,0.8664868474006653,0.07345438003540039,1.9518860578536987
1789323346635808000,7.86880810546875,1.008203387260437,-0.07803573459386826,2.0422914028167725
1789323346654659000,7.8876591796875,1.044243335723877,-0.43110546469688416,2.218902587890625
1789323346673510100,7.90651025390625,1.0216420888900757,-0.6522321701049805,2.369171142578125
1789323346692361200,7.925361328125,0.9972081780433655,-0.5416688323020935,2.3563432693481445
1789323346711212300,7.94421240234375,0.9831586480140686,-0.46164780855178833,2.27937650680542
1789323346730063400,7.9630634765625,0.9336800575256348,-0.5654918551445007,2.2659378051757812
1789323346748914200,7.9819140625,0.8738170266151428,-0.982700526714325,2.190192937850952
1789323346767765200,8.00076513671875,0.8518264889717102,-0.8110524415969849,1.9378365278244019
1789323346786616300,8.0196162109375,0.7015580534934998,-0.5862606763839722,1.602481484413147
1789323346805467400,8.03846728515625,0.6722373962402344,-0.43354883790016174,1.5664414167404175
1789323346824318500,8.057318359375,0.6484143733978271,-0.2948864996433258,1.2854516506195068
1789323346843169500,8.07616943359375,0.5995466113090515,-0.25212720036506653,0.7143095135688782
1789323346862020600,8.0950205078125,0.30633988976478577,-0.2930539846420288,0.17981816828250885
1789323346880871700,8.11387158203125,0.11086877435445786,-0.10430216789245605,-0.26671117544174194
1789323346899722800,8.13272265625,-0.017409147694706917,0.20539739727973938,-0.5661026835441589
1789323346918573800,8.15157373046875,-0.10353861004114151,0.5047125220298767,-0.9356653094291687
1789323346937424600,8.170424560546875,-0.21410197019577026,0.819375216960907,-1.3211098909378052
1789323346956275700,8.189275634765625,-0.3533751368522644,0.9207758903503418,-1.7230473756790161
1789323346975126800,8.208126708984375,-0.5207473039627075,1.0820395946502686,-2.0748953819274902
1789323346993977900,8.226977783203125,-0.859767496585846,1.1260205507278442,-2.334505558013916
1789323347012829000,8.245828857421875,-1.2281084060668945,1.1809967756271362,-2.3711564540863037
1789323347031680000,8.264679931640625,-1.4199144840240479,1.2793432474136353,-2.4517881870269775
1789323347050531000,8.283531005859375,-1.548879623413086,0.8065474629402161,-2.4310193061828613
1789323347069382100,8.302382080078125,-1.7205276489257812,-0.09269607067108154,-2.443847179412842
1789323347088233200,8.321233154296875,-1.732744574546814,-0.37796175479888916,-2.7376646995544434
1789323347107084300,8.340084228515625,-1.5268890857696533,-0.4946335554122925,-2.7474381923675537
1789323347125935000,8.35893505859375,-1.1163233518600464,-0.663838267326355,-2.757211923599243
1789323347144786200,8.3777861328125,-0.7082774043083191,-0.8006680607795715,-2.7181174755096436
1789323347163637200,8.39663720703125,-0.4737120568752289,-0.7872294187545776,-2.556854009628296
1789323347182488300,8.41548828125,-0.21471281349658966,-0.5880932211875916,-2.206838369369507
1789323347201339400,8.43433935546875,0.032069481909275055,-0.37979426980018616,-1.718160629272461
1789323347220190500,8.4531904296875,0.2238755226135254,-0.2576248347759247,-1.223985195159912
1789323347239041500,8.47204150390625,0.32283276319503784,-0.13362284004688263,-0.7041541934013367
1789323347257892600,8.490892578125,0.32038938999176025,0.1516428291797638,-0.21601086854934692
1789323347276743400,8.509743408203125,0.351542592048645,0.22372281551361084,0.18165069818496704
1789323347295594500,8.528594482421875,0.3765873312950134,0.0844496339559555,0.5176166892051697
1789323347314445600,8.547445556640625,0.36192700266838074,0.11010521650314331,0.8071582913398743
1789323347333296600,8.566296630859375,0.3796415627002716,0.19745637476444244,1.0631033182144165
1789323347352147700,8.585147705078125,0.38513919711112976,0.28786176443099976,1.236583948135376
1789323347370998800,8.603998779296875,0.36009445786476135,0.1882936656475067,1.2799540758132935
1789323347389849900,8.622849853515625,0.30939415097236633,0.22372281551361084,1.3691377639770508
1789323347408701000,8.641700927734375,0.275186687707901,0.252432644367218,1.5432292222976685
1789323347427552000,8.660552001953125,0.3032856583595276,0.23655059933662415,1.7796270847320557
1789323347455828500,8.688828369140625,0.4712686538696289,0.23777230083942413,2.136972665786743
1789323347474679600,8.707679443359375,0.7229377031326294,0.1382041871547699,2.1467463970184326
1789323347493530600,8.726530517578125,0.9171871542930603,0.04046862944960594,2.1296427249908447
1789323347512381700,8.745381591796875,0.9587247967720032,-0.11285403370857239,2.2402822971343994
1789323347531232800,8.764232666015625,0.9367342591285706,-0.26373329758644104,2.3966591358184814
1789323347550083800,8.783083740234375,0.8958075046539307,-0.2441861927509308,2.444916248321533
1789323347568935000,8.801934814453125,0.8524373769760132,-0.24601873755455017,2.3801662921905518
1789323347587785700,8.82078564453125,0.7821899056434631,-0.5734328627586365,2.3294661045074463
1789323347606636800,8.83963671875,0.7198835015296936,-0.9955283403396606,2.262272834777832
1789323347625488000,8.85848779296875,0.7223268747329712,-0.9289459586143494,2.040458917617798
1789323347644339000,8.8773388671875,0.7131641507148743,-0.5477772951126099,1.6452407836914062
1789323347663190000,8.89618994140625,0.6832326650619507,-0.5135698318481445,1.369748592376709
1789323347682041000,8.915041015625,0.559841513633728,-0.5496098399162292,0.7460735440254211
1789323347700892200,8.93389208984375,0.2513636350631714,-0.4378247857093811,0.3801760673522949
1789323347719743200,8.9527431640625,0.022906772792339325,-0.06276455521583557,0.267169326543808
1789323347738594300,8.97159423828125,-0.0015271181473508477,0.06123743951320648,-0.06513158977031708
1789323347757445400,8.9904453125,-0.0522274412214756,0.20845162868499756,-0.5361711978912354
1789323347776296200,9.009296142578124,-0.21654535830020905,0.39231663942337036,-1.019962191581726
1789323347795147300,9.028147216796874,-0.38758260011672974,0.8163210153579712,-1.3846380710601807
1789323347813998300,9.046998291015624,-0.5531222224235535,1.20909583568573,-1.7340426445007324
1789323347832849400,9.065849365234374,-0.7284353375434875,1.278732419013977,-2.0266385078430176
1789323347851700500,9.084700439453124,-0.906191885471344,1.212149977684021,-2.1396453380584717
1789323347870551600,9.103551513671874,-1.2103937864303589,1.228032112121582,-2.256317138671875
1789323347889402600,9.122402587890624,-1.5934714078903198,1.0569947957992554,-2.2514302730560303
1789323347908253700,9.141253662109374,-1.7822232246398926,0.7741725444793701,-2.281972646713257
1789323347927104800,9.160104736328124,-1.8549140691757202,0.3202366828918457,-2.37237811088562
1789323347945955800,9.178955810546874,-1.8011595010757446,-0.16599774360656738,-2.649702787399292
1789323347964806700,9.197806640625,-1.6673839092254639,-0.6962131857872009,-2.7266695499420166
1789323347983657700,9.21665771484375,-1.3099619150161743,-0.9991934299468994,-2.8561689853668213
1789323348002508800,9.2355087890625,-0.8273926377296448,-1.005301833152771,-2.9471852779388428
1789323348021359900,9.25435986328125,-0.5079194903373718,-0.7682931423187256,-2.7352213859558105
1789323348040211000,9.2732109375,-0.3289412558078766,-0.35474956035614014,-2.2575387954711914
1789323348059062000,9.29206201171875,-0.19150061905384064,-0.029778804630041122,-1.7236582040786743
1789323348077913000,9.3109130859375,-0.05344913527369499,0.0007635590736754239,-1.2307045459747314
1789323348096764200,9.32976416015625,0.060779303312301636,-0.008399149402976036,-0.7029324769973755
1789323348115615200,9.348615234375,0.21288026869297028,0.08261708915233612,-0.1946312040090561
1789323348134466000,9.367466064453126,0.3313846290111542,0.09422318637371063,0.2396811991930008
1789323348153317000,9.386317138671876,0.3662029206752777,0.09544488787651062,0.6055787205696106
1789323348172168200,9.405168212890626,0.37597647309303284,0.1907370537519455,1.0154571533203125
1789323348191019300,9.424019287109376,0.3252761662006378,0.1882936656475067,1.3410388231277466
1789323348209870300,9.442870361328126,0.2586938142776489,0.2041756957769394,1.5365098714828491
1789323348228721400,9.461721435546876,0.2348707765340805,0.12048961967229843,1.6464624404907227
1789323348247572500,9.480572509765626,0.2226538211107254,0.0459662564098835,1.746030569076538
1789323348266423600,9.499423583984376,0.24097923934459686,0.05512896552681923,1.838268518447876
1789323348285274400,9.5182744140625,0.27885177731513977,0.15591876208782196,1.931117296218872
1789323348313551000,9.546551025390626,0.5335750579833984,0.27381229400634766,2.086883306503296
1789323348332402200,9.565402099609376,0.7889092564582825,0.3611634373664856,2.1375837326049805
1789323348351253200,9.584253173828126,0.952616274356842,0.14431266486644745,2.247612476348877
1789323348370104300,9.603104248046876,1.0570712089538574,-0.1647760421037674,2.423536539077759
1789323348398380800,9.631380859375,1.1315945386886597,-0.5111264586448669,2.5524253845214844
1789323348417232000,9.65023193359375,0.9886562824249268,-0.5703786015510559,2.4339208602905273
1789323348436083000,9.6690830078125,0.7540909647941589,-1.0462286472320557,2.499281644821167
1789323348454934000,9.68793408203125,0.6337540149688721,-1.4182345867156982,2.488286256790161
1789323348473784800,9.706784912109375,0.7052231431007385,-1.1286929845809937,2.1326968669891357
1789323348492636000,9.725635986328125,0.8078454732894897,-0.5221216678619385,1.6592901945114136
1789323348511487000,9.744487060546875,0.7046123147010803,-0.4640912115573883,1.278732419013977
1789323348530338000,9.763338134765625,0.457830011844635,-0.5373928546905518,0.8700755834579468
1789323348549189000,9.782189208984375,0.21532365679740906,-0.24479703605175018,0.4760790765285492
1789323348568040200,9.801040283203125,0.07360709458589554,0.04169032722711563,0.17920731008052826
1789323348586891300,9.819891357421875,0.08276980370283127,-0.030389651656150818,-0.1555369794368744
1789323348605742300,9.838742431640625,0.1291942000389099,-0.009009997360408306,-0.60825115442276
1789323348624593400,9.857593505859375,-0.006413896102458239,0.19256959855556488,-1.0419527292251587
1789323348652870000,9.885869873046875,-0.39796698093414307,0.6549809575080872,-1.4377816915512085
1789323348671721000,9.904720947265625,-0.5781669020652771,0.8920660614967346,-1.7303775548934937
1789323348699997400,9.93299755859375,-0.7101099491119385,1.1779426336288452,-2.2282180786132812
1789323348718848500,9.9518486328125,-0.9495620727539062,1.287284255027771,-2.432852029800415
1789323348737699600,9.970699462890625,-1.2806413173675537,1.144345998764038,-2.501877546310425
1789323348756550700,9.989550537109375,-1.52139151096344,0.8212077617645264,-2.539750099182129
1789323348775401700,10.008401611328125,-1.6337873935699463,0.3446705639362335,-2.502488613128662
1789323348794252800,10.027252685546875,-1.5830870866775513,-0.09697200357913971,-2.672304153442383
1789323348813103900,10.046103759765625,-1.4003673791885376,-0.5911474227905273,-2.7352213859558105
1789323348831954700,10.06495458984375,-1.0527952909469604,-0.8110524415969849,-2.8066904544830322
1789323348850805800,10.0838056640625,-0.6539120078086853,-0.8183826208114624,-2.6924619674682617
1789323348869656800,10.10265673828125,-0.4217900335788727,-0.7487460374832153,-2.440793037414551
1789323348897933600,10.13093359375,-0.21226942539215088,-0.6204680800437927,-1.8128420114517212
1789323348916784400,10.149784423828125,0.017409147694706917,-0.448820024728775,-1.3003411293029785
1789323348935635500,10.168635498046875,0.24403348565101624,-0.15378080308437347,-0.7792884111404419
1789323348954486500,10.187486572265625,0.26785650849342346,0.0594048947095871,-0.3632250428199768
1789323348973337600,10.206337646484375,0.18050536513328552,0.1656923145055771,0.0032833039294928312
1789323348992188700,10.225188720703125,0.18539214134216309,0.19318044185638428,0.3838411569595337
1789323349011039700,10.244039794921875,0.20249587297439575,0.12293300777673721,0.7589013576507568
1789323349029890800,10.262890869140625,0.2348707765340805,0.10949437320232391,1.0686008930206299
1789323349048742000,10.281741943359375,0.29778802394866943,0.07711946964263916,1.3117181062698364
1789323349067593000,10.300593017578125,0.3643703758716583,0.0844496339559555,1.4283899068832397
1789323349086444000,10.319444091796875,0.3710896968841553,0.025808297097682953,1.510243535041809
1789323349105294800,10.338294921875,0.4052971601486206,0.25121092796325684,1.609811544418335
1789323349124146000,10.35714599609375,0.44988900423049927,0.3831539452075958,1.754582405090332
1789323349142997000,10.3759970703125,0.5531222224235535,0.42224815487861633,1.9305063486099243
1789323349161848000,10.39484814453125,0.7382088899612427,0.2695363461971283,2.052064895629883
1789323349180699100,10.41369921875,0.9776610136032104,0.017867282032966614,2.181030035018921
1789323349199550200,10.43255029296875,1.1395355463027954,-0.19287502765655518,2.305643081665039
1789323349218401300,10.4514013671875,1.142589807510376,-0.3498627543449402,2.4320883750915527
1789323349237252400,10.47025244140625,1.0692881345748901,-0.39078953862190247,2.519439458847046
1789323349256103400,10.489103515625,0.9739959836006165,-0.3736858069896698,2.565863847732544
1789323349274954500,10.50795458984375,0.8432746529579163,-0.8470924496650696,2.6080124378204346
1789323349293805300,10.526805419921875,0.8225058317184448,-1.1641221046447754,2.545095205307007
1789323349312656400,10.545656494140625,0.9324583411216736,-1.0786035060882568,2.355121612548828
1789323349331507500,10.564507568359375,0.8548807501792908,-0.3578037917613983,1.7729078531265259
1789323349350358500,10.583358642578125,0.5280774831771851,-0.5056288242340088,1.3544774055480957
1789323349369209600,10.602209716796875,0.37170055508613586,-0.44393324851989746,0.838311493396759
1789323349388060700,10.621060791015625,0.20738264918327332,-0.44820916652679443,0.27205610275268555
1789323349406911700,10.639911865234374,0.144465371966362,0.21394924819469452,-0.09933903813362122
1789323349425762800,10.6587626953125,-0.03695625811815262,0.34100547432899475,-0.18607935309410095
1789323349444614000,10.67761376953125,-0.010078979656100273,0.22738789021968842,-0.46279314160346985
1789323349463465000,10.69646484375,-0.1298050433397293,0.2683146595954895,-1.0651649236679077
1789323349482316000,10.71531591796875,-0.3552076816558838,0.898785412311554,-1.4475553035736084
1789323349501167000,10.7341669921875,-0.6050441861152649,1.009348750114441,-1.853157877922058
1789323349520018200,10.75301806640625,-0.5390726923942566,0.9342145323753357,-2.357717752456665
1789323349538869200,10.771869140625,-0.6245913505554199,0.5822901725769043,-2.4640052318573
1789323349557720000,10.790719970703124,-1.2384928464889526,0.815710186958313,-2.41819167137146
1789323349576571100,10.809571044921874,-1.4431266784667969,1.0258415937423706,-2.4371278285980225
1789323349595422200,10.828422119140624,-1.3032426834106445,0.9781955480575562,-2.542804479598999
1789323349614273300,10.847273193359374,-1.2103937864303589,0.29946786165237427,-2.3009088039398193
1789323349633124400,10.866124267578124,-1.3899829387664795,-0.07009471952915192,-2.120098114013672
1789323349651975400,10.884975341796874,-1.3240114450454712,0.24449162185192108,-2.3681020736694336
1789323349670826500,10.903826416015624,-0.9043593406677246,0.17241163551807404,-2.5843420028686523
1789323349689677600,10.922677490234374,-0.697892963886261,-0.15439164638519287,-2.627101421356201
1789323349708528600,10.941528564453124,-0.43950459361076355,-0.9943066239356995,-2.2318832874298096
1789323349727379700,10.960379638671874,0.10048437118530273,-0.6925480961799622,-2.5208139419555664
1789323349746230800,10.979230712890624,0.4077405333518982,-0.21058958768844604,-2.2758641242980957
1789323349765081900,10.998081787109374,-0.03390202298760414,-0.10979979485273361,-1.2942326068878174
1789323349783933000,11.016932861328126,-0.11270131915807724,-0.11835165321826935,-0.7114843726158142
1789323349802783700,11.03578369140625,-0.010689826682209969,0.10521844029426575,-0.2990860939025879
1789323349821634800,11.054634765625,0.10598199814558029,0.3733803927898407,0.10468395054340363
1789323349840486000,11.07348583984375,0.1560714691877365,0.2518217861652374,0.5035672187805176
1789323349859337000,11.0923369140625,0.1957765519618988,0.18157434463500977,0.8297596573829651
1789323349878188000,11.11118798828125,0.22021043300628662,0.22189027070999146,1.0423344373703003
1789323349897039000,11.1300390625,0.2104368805885315,0.23166382312774658,1.222534418106079
1789323349915890200,11.14889013671875,0.19944162666797638,0.18462859094142914,1.4021235704421997
1789323349934741200,11.1677412109375,0.20188501477241516,0.16630317270755768,1.554835319519043
1789323349953592300,11.18659228515625,0.21532365679740906,0.10705098509788513,1.6678420305252075
1789323349972443400,11.205443359375,0.28251686692237854,0.3171824514865875,1.796120047569275
1789323349991294500,11.22429443359375,0.41140562295913696,0.4760027229785919,1.994645357131958
1789323350010145500,11.2431455078125,0.6496360301971436,0.48394373059272766,2.1265883445739746
1789323350028996600,11.26199658203125,0.8542698621749878,0.3342861533164978,2.2146267890930176
1789323350057273000,11.290273193359376,0.8365553021430969,-0.08170082420110703,2.339850425720215
1789323350076124200,11.309124267578126,0.8218950033187866,-0.16905197501182556,2.395437479019165
1789323350094975200,11.327975341796876,0.870151937007904,-0.19959434866905212,2.4113194942474365
1789323350113826300,11.346826416015626,0.823116660118103,-0.5031854510307312,2.369171142578125
1789323350132677400,11.365677490234376,0.6636855602264404,-0.996749997138977,2.322746753692627
1789323350151528400,11.384528564453126,0.6624638438224792,-1.2062705755233765,2.1522438526153564
1789323350170379500,11.403379638671876,0.7485933303833008,-0.9680401682853699,1.9469993114471436
1789323350189230600,11.422230712890626,0.694227933883667,-0.8495358228683472,1.5920970439910889
1789323350208081700,11.44108154296875,0.4969242513179779,-0.9210049510002136,1.2152042388916016
1789323350226932700,11.4599326171875,0.2373141646385193,-0.5874823331832886,0.8004390001296997
1789323350245783800,11.47878369140625,0.02901524491608143,-0.25945737957954407,0.49501535296440125
1789323350264635000,11.497634765625,-0.04734066128730774,0.10399674624204636,0.20608459413051605
1789323350283486000,11.51648583984375,-0.09315420687198639,0.25121092796325684,-0.24899661540985107
1789323350302337000,11.5353369140625,-0.16401249170303345,0.5108210444450378,-0.7542436718940735
1789323350321188000,11.55418798828125,-0.23364907503128052,0.8205969333648682,-1.131136417388916
1789323350340039200,11.5730390625,-0.3393256664276123,1.089369773864746,-1.4713783264160156
1789323350358890000,11.591889892578125,-0.5268557667732239,1.1419025659561157,-1.749924659729004
1789323350377741000,11.610740966796875,-0.7693621516227722,1.1467894315719604,-1.9301246404647827
1789323350396592000,11.629592041015625,-1.087613582611084,1.0618816614151,-2.137812614440918
1789323350415443200,11.648443115234375,-1.4388507604599,0.8676321506500244,-2.247765302658081
1789323350434294300,11.667294189453125,-1.6386741399765015,0.7191199064254761,-2.285637617111206
1789323350453145300,11.686145263671875,-1.751680850982666,0.5004366040229797,-2.34305739402771
1789323350471996400,11.704996337890625,-1.770617127418518,0.1638597846031189,-2.435295343399048
1789323350490847500,11.723847412109375,-1.6166836023330688,-0.3370349705219269,-2.551356315612793
1789323350509698600,11.742698486328125,-1.2800304889678955,-0.6901046633720398,-2.6075541973114014
1789323350528549600,11.761549560546875,-0.9367342591285706,-0.8886300325393677,-2.7584335803985596
1789323350547400700,11.780400634765625,-0.6099309921264648,-0.9148964881896973,-2.716284990310669
1789323350566251800,11.799251708984375,-0.4321744441986084,-0.7401941418647766,-2.4175808429718018
1789323350585102800,11.818102783203125,-0.3148917555809021,-0.47386476397514343,-1.9344005584716797
1789323350603954000,11.836953857421875,-0.1426328420639038,-0.23624517023563385,-1.440835952758789
1789323350622805000,11.855804931640625,0.03695625811815262,-0.08231166750192642,-0.9423846006393433
1789323350641656000,11.874656005859375,0.1450762301683426,0.001985253533348441,-0.42125552892684937
1789323350660507100,11.893507080078125,0.18539214134216309,0.10338589549064636,0.0423775278031826
1789323350679358000,11.91235791015625,0.2782409191131592,0.2408265322446823,0.4479801058769226
1789323350698209000,11.931208984375,0.3289412558078766,0.2536543309688568,0.8212077617645264
1789323350717060000,11.95006005859375,0.3271087110042572,0.23471805453300476,1.1309072971343994
1789323350735911200,11.9689111328125,0.31916770339012146,0.24815669655799866,1.3954042196273804
1789323350754762200,11.98776220703125,0.3570402264595032,0.12904147803783417,1.5151302814483643
1789323350773613300,12.00661328125,0.3564293682575226,0.1107160672545433,1.5719391107559204
1789323350792464400,12.02546435546875,0.32161107659339905,0.12965233623981476,1.6458516120910645
1789323350811315500,12.0443154296875,0.3124483823776245,0.22189027070999146,1.7203749418258667
1789323350830166500,12.06316650390625,0.40285375714302063,0.2805316150188446,1.8730868101119995
1789323350849017600,12.082017578125,0.6252021789550781,0.14186927676200867,2.035572052001953
1789323350867868700,12.10086865234375,0.8884773254394531,-0.1256818175315857,2.103986978530884
1789323350886719700,12.1197197265625,1.054627776145935,-0.39140036702156067,2.165071725845337
1789323350905570800,12.13857080078125,1.0815050601959229,-0.43477052450180054,2.273878812789917
1789323350924422000,12.157421875,1.0619579553604126,-0.49952033162117004,2.4058220386505127
1789323350943273000,12.17627294921875,0.9782719016075134,-0.6265766024589539,2.4711825847625732
1789323350962124000,12.1951240234375,0.8396095633506775,-1.0798252820968628,2.412541151046753
1789323350980974800,12.213974853515625,0.8133431077003479,-1.30644953250885,2.216459274291992
1789323350999826000,12.232825927734375,0.8677085041999817,-1.0498937368392944,2.0025863647460938
1789323351018677000,12.251677001953125,0.8933641314506531,-0.6381826996803284,1.7704644203186035
1789323351037528000,12.270528076171875,0.7290462255477905,-0.5312843918800354,1.5597220659255981
1789323351056379100,12.289379150390625,0.531742513179779,-0.4940227270126343,1.3373737335205078
1789323351075230200,12.308230224609375,0.29656633734703064,-0.2722851634025574,0.9470423460006714
1789323351094081300,12.327081298828125,0.13774605095386505,-0.11529742181301117,0.3954472541809082
1789323351112932400,12.345932373046875,0.06749862432479858,0.072232685983181,-0.09628479927778244
1789323351131783400,12.364783447265625,-0.027793550863862038,0.2047865390777588,-0.5092939138412476
1789323351150634500,12.383634521484375,-0.13835690915584564,0.39353835582733154,-0.9142856597900391
1789323351169485600,12.402485595703125,-0.3045073449611664,0.5981721878051758,-1.2838482856750488
1789323351188336600,12.421336669921875,-0.46699273586273193,0.8810707926750183,-1.6192033290863037
1789323351207187700,12.440187744140625,-0.6502469182014465,1.1186903715133667,-1.9527260065078735
1789323351226038800,12.459038818359375,-0.8292251825332642,1.0594382286071777,-2.1738526821136475
1789323351244889900,12.477889892578125,-1.0527952909469604,1.0966999530792236,-2.3332839012145996
1789323351263741000,12.496740966796875,-1.374100923538208,0.8993962407112122,-2.380929946899414
1789323351282592000,12.515592041015625,-1.534830093383789,0.7766159176826477,-2.412083148956299
1789323351301442800,12.53444287109375,-1.6942611932754517,0.5071559548377991,-2.3968119621276855
1789323351320294000,12.5532939453125,-1.7522916793823242,0.0850604772567749,-2.507986068725586
1789323351339145000,12.57214501953125,-1.6423392295837402,-0.26128992438316345,-2.5507454872131348
1789323351357996000,12.59099609375,-1.2372710704803467,-0.5654918551445007,-2.597780704498291
1789323351376847000,12.60984716796875,-0.7461498975753784,-0.7237012982368469,-2.682077646255493
1789323351395698200,12.6286982421875,-0.3564293682575226,-0.7829535007476807,-2.6191604137420654
1789323351414549200,12.64754931640625,-0.17439688742160797,-0.6326850652694702,-2.3064064979553223
1789323351433400300,12.666400390625,-0.06016845628619194,-0.4677563011646271,-1.8042900562286377
1789323351452251400,12.68525146484375,0.14690876007080078,-0.3602471649646759,-1.3174448013305664
1789323351471102500,12.7041025390625,0.29473379254341125,-0.1916533261537552,-0.8916842937469482
1789323351489953500,12.72295361328125,0.29595550894737244,-0.07864658534526825,-0.43408334255218506
1789323351508804600,12.7418046875,0.2892361879348755,-0.010231691412627697,0.07597412914037704
1789323351527655700,12.76065576171875,0.3778090178966522,-0.005955760832875967,0.5628194212913513
1789323351546506500,12.779506591796874,0.4480564594268799,0.18157434463500977,0.9653677344322205
1789323351565357600,12.798357666015624,0.4987567961215973,0.2915268540382385,1.2524659633636475
1789323351584208600,12.817208740234374,0.5372401475906372,0.29885703325271606,1.394182562828064
1789323351603059700,12.836059814453124,0.5018110275268555,0.26098448038101196,1.4063994884490967
1789323351621910800,12.854910888671874,0.36192700266838074,0.14797775447368622,1.4070103168487549
1789323351640761900,12.873761962890624,0.24097923934459686,0.10827267915010452,1.5395641326904297
1789323351659613000,12.892613037109374,0.28312769532203674,0.22616620361804962,1.7912331819534302
1789323351678464000,12.911464111328126,0.47982051968574524,0.3184041380882263,2.000753879547119
1789323351697315000,12.930315185546876,0.7204943299293518,0.1650814712047577,2.107652187347412
1789323351716166100,12.949166259765626,0.855491578578949,-0.02489202655851841,2.2115724086761475
1789323351735017200,12.968017333984376,0.9123004078865051,-0.2912214398384094,2.311140537261963
1789323351753868300,12.986868408203126,0.9446752667427063,-0.36452311277389526,2.3648951053619385
1789323351772719400,13.00571923828125,0.9465078115463257,-0.34008920192718506,2.403378486633301
1789323351791570400,13.0245703125,0.9196305274963379,-0.3578037917613983,2.4137630462646484
1789323351810421200,13.043421142578126,0.9581139087677002,-0.5734328627586365,2.3991026878356934
1789323351829272600,13.0622724609375,0.9000834226608276,-0.9179506897926331,2.3502347469329834
1789323351848123400,13.081123291015626,0.7382088899612427,-1.0059127807617188,2.050232410430908
1789323351866974500,13.099974365234376,0.6019899845123291,-0.7505785822868347,1.813834547996521
1789323351885825500,13.118825439453126,0.5500679612159729,-0.6192464232444763,1.6366888284683228
1789323351904676600,13.137676513671876,0.5103628635406494,-0.5923691391944885,1.1797751188278198
1789323351923527700,13.156527587890626,0.2611372172832489,-0.49524441361427307,0.6636092066764832
1789323351942378800,13.175378662109376,0.08704573661088943,-0.293664813041687,0.1987544298171997
1789323351961229800,13.194229736328126,0.008857285603880882,-0.04321744292974472,-0.2062373012304306
1789323351980081000,13.213080810546876,-0.03268032893538475,0.21822518110275269,-0.6858287453651428
1789323351998932000,13.231931884765626,-0.1426328420639038,0.5602996349334717,-1.1421316862106323
1789323352017783000,13.250782958984376,-0.2495311051607132,0.9232192635536194,-1.5556752681732178
1789323352036634000,13.269634033203126,-0.3179459869861603,1.2970577478408813,-1.9362330436706543
1789323352055485200,13.288485107421875,-0.4559974670410156,1.4009017944335938,-2.259371280670166
1789323352074336300,13.307336181640625,-0.7094991207122803,1.2988903522491455,-2.47072434425354
1789323352093187000,13.32618701171875,-1.1291511058807373,1.2029873132705688,-2.577622652053833
1789323352112038400,13.345038330078125,-1.4945142269134521,1.0398911237716675,-2.557464838027954
1789323352130889200,13.36388916015625,-1.7254143953323364,0.7667660117149353,-2.5617406368255615
1789323352149740300,13.382740234375,-1.83536696434021,0.17485502362251282,-2.6606979370117188
1789323352168591400,13.40159130859375,-1.757178544998169,-0.2808370292186737,-2.8127989768981934
1789323352187442400,13.4204423828125,-1.4083083868026733,-0.6223006248474121,-2.855558156967163
1789323352206293500,13.43929345703125,-0.9318475127220154,-0.7603521347045898,-2.823183298110962
1789323352225144600,13.45814453125,-0.564728319644928,-0.7230904698371887,-2.6692497730255127
1789323352243995600,13.47699560546875,-0.37170055508613586,-0.5202891230583191,-2.29724383354187
1789323352262846700,13.4958466796875,-0.28496024012565613,-0.3046600818634033,-1.7987924814224243
1789323352281697800,13.51469775390625,-0.16462333500385284,-0.26067906618118286,-1.3650909662246704
1789323352300548900,13.533548828125,0.03268032893538475,-0.027946261689066887,-0.9564340710639954
1789323352319400000,13.55239990234375,0.12797249853610992,0.2713688910007477,-0.49883314967155457
1789323352338251000,13.5712509765625,0.1585148572921753,0.3990359604358673,-0.10483665764331818
1789323352357102000,13.59010205078125,0.19455485045909882,0.3880407214164734,0.21952323615550995
1789323352385378600,13.618378662109375,0.23181653022766113,0.4027010500431061,0.7711182832717896
1789323352404229600,13.637229736328125,0.24464432895183563,0.3306210935115814,1.1174687147140503
1789323352423080700,13.656080810546875,0.3124483823776245,0.2011214643716812,1.3434821367263794
1789323352441931800,13.674931884765625,0.3649812340736389,0.1779092699289322,1.365472674369812
1789323352460782800,13.693782958984375,0.3509317636489868,0.06429167091846466,1.4094537496566772
1789323352479634000,13.712634033203125,0.34665581583976746,0.08994726091623306,1.615920066833496
1789323352498484700,13.731484619140625,0.43645036220550537,0.26037365198135376,1.952496886253357
1789323352517335800,13.750335693359375,0.6166502833366394,0.3611634373664856,2.1491897106170654
1789323352536187000,13.769186767578125,0.8225058317184448,0.3208475112915039,2.1688132286071777
1789323352555038000,13.788037841796875,0.9630007147789001,0.09300149232149124,2.2323412895202637
1789323352573889000,13.806888916015625,1.0112576484680176,-0.2716743052005768,2.3826098442077637
1789323352592740000,13.825739990234375,1.0424108505249023,-0.5190674662590027,2.4461379051208496
1789323352611591200,13.844591064453125,1.0057599544525146,-0.48730340600013733,2.3477914333343506
1789323352630442200,13.863442138671875,0.8927532434463501,-0.5227325558662415,2.28243088722229
1789323352649293300,13.882293212890625,0.818840742111206,-0.7304205894470215,2.2543318271636963
1789323352668144400,13.901144287109375,0.7803573608398438,-0.8574768304824829,2.1718673706054688
1789323352686995500,13.919995361328125,0.6459710001945496,-0.9643751382827759,2.2115724086761475
1789323352705846500,13.938846435546875,0.38513919711112976,-1.1751173734664917,2.1198689937591553
1789323352724697600,13.957697509765625,0.059557609260082245,-1.0217947959899902,1.8291057348251343
1789323352743548700,13.976548583984375,0.2086043357849121,-0.4249969720840454,1.2946144342422485
1789323352762399500,13.9953994140625,0.33260634541511536,-0.2020377367734909,0.70881187915802
1789323352781250600,14.01425048828125,0.2214321345090866,-0.21058958768844604,0.19386765360832214
1789323352800101600,14.0331015625,0.06139015033841133,-0.05726693198084831,-0.16286714375019073
1789323352818952700,14.05195263671875,-0.08704573661088943,0.13576079905033112,-0.4701233208179474
1789323352837803800,14.0708037109375,-0.25747212767601013,0.2811424434185028,-0.7847860455513
1789323352856654800,14.08965478515625,-0.4089622497558594,0.44484952092170715,-1.1464076042175293
1789323352875506000,14.108505859375,-0.5512896776199341,0.6867450475692749,-1.5043641328811646
1789323352894357000,14.12735693359375,-0.693617045879364,0.8328138589859009,-1.8537687063217163
1789323352913208000,14.1462080078125,-0.8023478984832764,0.9598701000213623,-2.1017727851867676
1789323352932059100,14.16505908203125,-0.9440644383430481,0.8908443450927734,-2.2001190185546875
1789323352950910200,14.18391015625,-1.1212100982666016,0.7631009221076965,-2.221498727798462
1789323352969761300,14.20276123046875,-1.2867497205734253,0.42957833409309387,-2.3045740127563477
1789323352988612400,14.2216123046875,-1.3863178491592407,0.055739812552928925,-2.5030994415283203
1789323353007463200,14.240463134765625,-1.4168602228164673,-0.3095468580722809,-2.693683624267578
1789323353026314200,14.259314208984375,-1.3447802066802979,-0.5221216678619385,-2.7199501991271973
1789323353045165300,14.278165283203125,-1.0815050601959229,-0.4524851143360138,-2.580066204071045
1789323353064016400,14.297016357421874,-0.6459710001945496,-0.31137940287590027,-2.4859955310821533
1789323353082867500,14.315867431640624,-0.3393256664276123,-0.14217470586299896,-2.2544844150543213
1789323353111144200,14.344144287109375,-0.14202198386192322,-0.09391776472330093,-1.592326045036316
1789323353129995000,14.3629951171875,0.011911521665751934,-0.14278554916381836,-1.0883771181106567
1789323353148846000,14.38184619140625,0.16279079020023346,0.10644013434648514,-0.7627955079078674
1789323353167697200,14.400697265625,0.26907822489738464,0.14614520967006683,-0.5135698318481445
1789323353186548200,14.41954833984375,0.2757975459098816,0.01725643500685692,-0.14393088221549988
1789323353205399300,14.4383994140625,0.23425991833209991,-0.12812520563602448,0.3319191336631775
1789323353224250400,14.45725048828125,0.2617480456829071,0.07834116369485855,0.7094227075576782
1789323353243101400,14.476101318359374,0.30572906136512756,0.31229567527770996,1.0423344373703003
1789323353261952500,14.494952392578124,0.3558185398578644,0.511431872844696,1.3483690023422241
1789323353280803300,14.51380322265625,0.41201648116111755,0.520594596862793,1.542007565498352
1789323353299654400,14.532654296875,0.5158604979515076,0.36849361658096313,1.6183634996414185
1789323353318505500,14.55150537109375,0.6673506498336792,0.28908345103263855,1.5701065063476562
1789323353337356500,14.5703564453125,0.7595885396003723,0.13942588865756989,1.4699275493621826
1789323353356207600,14.58920751953125,0.7498149871826172,-0.16599774360656738,1.628747820854187
1789323353375058700,14.60805859375,0.8163973689079285,-0.37735089659690857,1.9274522066116333
1789323353393909800,14.62690966796875,0.9721634387969971,-0.3107685446739197,2.072222948074341
1789323353412760800,14.6457607421875,1.0057599544525146,-0.2918322682380676,2.2091290950775146
1789323353431612000,14.66461181640625,0.8738170266151428,-0.35474956035614014,2.3477914333343506
1789323353450462700,14.683462646484376,0.7412631511688232,-0.49646610021591187,2.3154165744781494
1789323353469313800,14.702313720703126,0.6685723066329956,-0.6027535200119019,2.224400281906128
1789323353488164900,14.721164794921876,0.6416950225830078,-0.7169819474220276,2.1999664306640625
1789323353507016000,14.740015869140626,0.5299099683761597,-0.9258917570114136,2.230508804321289
1789323353525867000,14.758866943359376,0.34604495763778687,-1.1372449398040771,1.990369439125061
1789323353544718000,14.777718017578126,0.19455485045909882,-1.0596672296524048,1.6372997760772705
1789323353563569200,14.796569091796876,0.21532365679740906,-0.48669254779815674,1.3911283016204834
1789323353582420200,14.815420166015626,0.3295520842075348,-0.16721943020820618,1.135183334350586
1789323353601271000,14.83427099609375,0.30572906136512756,-0.17454960942268372,0.6739935874938965
1789323353620122000,14.8531220703125,0.18905723094940186,-0.09147437661886215,0.2769428789615631
1789323353638973200,14.87197314453125,0.1181989461183548,0.05390727147459984,-0.053525492548942566
1789323353657824300,14.89082421875,0.09376505762338638,0.125987246632576,-0.440802663564682
1789323353676675300,14.90967529296875,0.027793550863862038,0.21944688260555267,-0.8990144729614258
1789323353695526400,14.9285263671875,-0.15362808108329773,0.37826716899871826,-1.3962441682815552
1789323353714377500,14.94737744140625,-0.3918585181236267,0.5938962697982788,-1.7126630544662476
1789323353733228500,14.966228515625,-0.5439594984054565,0.7894437313079834,-1.9796032905578613
1789323353752079400,14.985079345703125,-0.6361974477767944,0.953761637210846,-2.2257747650146484
1789323353770930400,15.003930419921875,-0.8157865405082703,0.9904124736785889,-2.4316301345825195
1789323353789781500,15.022781494140625,-1.1102149486541748,0.9934667348861694,-2.513483762741089
1789323353808632600,15.041632568359375,-1.3038535118103027,0.8755732178688049,-2.4829413890838623
1789323353836909000,15.069908935546875,-1.3099619150161743,0.31473904848098755,-2.518981456756592
1789323353865185800,15.098185791015625,-1.1792405843734741,-0.448820024728775,-2.7388863563537598
1789323353902887700,15.1358876953125,-0.5867187976837158,-0.6503996253013611,-2.580066204071045
1789323353921738800,15.15473876953125,-0.2892361879348755,-0.5587725043296814,-2.337559700012207
1789323353940589800,15.17358984375,-0.2079934924840927,-0.5257867574691772,-2.062067747116089
1789323353959441000,15.19244091796875,-0.17439688742160797,-0.44332239031791687,-1.708387017250061
1789323353978292000,15.2112919921875,0.0009162708884105086,-0.23196925222873688,-1.379751205444336
1789323353997143000,15.23014306640625,0.2360924631357193,-0.011453386396169662,-1.0260707139968872
1789323354015993900,15.248993896484375,0.27152159810066223,0.14431266486644745,-0.5832064151763916
1789323354034845000,15.267844970703125,0.11025793105363846,0.18035265803337097,-0.19951798021793365
1789323354053696000,15.286696044921875,0.12125317752361298,0.1644706279039383,0.18287239968776703
1789323354072547000,15.305547119140625,0.20249587297439575,0.1889045089483261,0.5591543316841125
1789323354091398100,15.324398193359375,0.30572906136512756,0.1895153671503067,0.8651887774467468
1789323354110249200,15.343249267578125,0.3820849657058716,0.36971530318260193,1.074709415435791
1789323354129100300,15.362100341796875,0.3936910629272461,0.2915268540382385,1.278732419013977
1789323354147951000,15.380951171875,0.3820849657058716,0.14003673195838928,1.4888638257980347
1789323354166802200,15.39980224609375,0.3295520842075348,0.284196674823761,1.6525708436965942
1789323354185653200,15.4186533203125,0.3155026137828827,0.3220692276954651,1.6959410905838013
1789323354204504300,15.43750439453125,0.4022429287433624,0.3239017724990845,1.7753511667251587
1789323354223355400,15.45635546875,0.638640820980072,0.3190149664878845,1.9274522066116333
1789323354242206200,15.475206298828125,0.8561024069786072,0.20539739727973938,2.0630602836608887
1789323354261057300,15.494057373046875,0.9104678630828857,0.010537114925682545,2.2079074382781982
1789323354279908400,15.512908447265625,0.8719844818115234,-0.23319093883037567,2.3648951053619385
1789323354298759400,15.531759521484375,0.7821899056434631,-0.43293800950050354,2.366727590560913
1789323354317610500,15.550610595703125,0.6630746722221375,-0.530062735080719,2.264716148376465
1789323354336461600,15.569461669921875,0.6142069101333618,-0.5349494814872742,2.0893266201019287
1789323354355312400,15.5883125,0.647192656993866,-0.45859357714653015,1.9744874238967896
1789323354374163500,15.60716357421875,0.7235485911369324,-0.43293800950050354,1.8999640941619873
1789323354393014500,15.6260146484375,0.7382088899612427,-0.45798271894454956,1.6556251049041748
1789323354411865600,15.644865478515625,0.6807892918586731,-0.6204680800437927,1.3453147411346436
1789323354430716700,15.663716552734375,0.5714476108551025,-0.7450809478759766,1.190159559249878
1789323354449567700,15.682567626953125,0.3295520842075348,-0.7096518278121948,0.9391012787818909
1789323354468418800,15.701418701171875,0.09987352788448334,-0.4818057715892792,0.49868044257164
1789323354487269600,15.72026953125,-0.002748812548816204,-0.29794076085090637,0.028938889503479004
1789323354506120700,15.73912060546875,-0.03695625811815262,-0.034665580838918686,-0.468290776014328
1789323354524971800,15.7579716796875,-0.08460234850645065,0.37948885560035706,-0.8703046441078186
1789323354543822800,15.77682275390625,-0.23242738842964172,0.8102125525474548,-1.2203201055526733
1789323354562674000,15.795673828125,-0.4089622497558594,0.9910233020782471,-1.4652698040008545
1789323354581525000,15.81452490234375,-0.5665608048439026,1.1302964687347412,-1.671736240386963
1789323354600375800,15.833375732421874,-0.6954495906829834,1.0997540950775146,-1.932568073272705
1789323354619227000,15.852226806640624,-0.9159654378890991,1.1217446327209473,-2.1970648765563965
1789323354638078000,15.871077880859374,-1.248266339302063,1.0209548473358154,-2.3186235427856445
1789323354656929000,15.889928955078124,-1.5513229370117188,0.8761840462684631,-2.371767282485962
1789323354675780000,15.908780029296874,-1.7492375373840332,0.4369085133075714,-2.375432252883911
1789323354694631200,15.927631103515624,-1.8231500387191772,-0.17027367651462555,-2.6515352725982666
1789323354713482000,15.94648193359375,-1.751680850982666,-0.49646610021591187,-2.8744945526123047
1789323354732333000,15.9653330078125,-1.5018442869186401,-0.6235223412513733,-3.0186543464660645
1789323354751184100,15.98418408203125,-1.1083823442459106,-0.7395833134651184,-3.0882909297943115
1789323354770035200,16.00303515625,-0.5958815217018127,-0.5227325558662415,-2.9154212474823
1789323354788886300,16.02188623046875,-0.24525517225265503,-0.2918322682380676,-2.3357272148132324
1789323354807737300,16.0407373046875,-0.23975755274295807,0.07773031294345856,-1.7884080410003662
1789323354826588200,16.059588134765626,-0.3264978528022766,0.2829749882221222,-1.2661336660385132
1789323354845439200,16.078439208984374,-0.09987352788448334,0.36971530318260193,-0.5496098399162292
1789323354864290300,16.097290283203126,0.17806197702884674,0.37704548239707947,0.06375718116760254
1789323354883141400,16.116141357421874,0.305118203163147,0.22555534541606903,0.4375956952571869
1789323354901992400,16.134992431640626,0.2770192325115204,0.04474456235766411,0.677047848701477
1789323354920843300,16.15384326171875,0.23853585124015808,-0.08170082420110703,0.7973847389221191
1789323354939694300,16.1726943359375,0.2739650011062622,0.001374406274408102,0.912834882736206
1789323354958545400,16.19154541015625,0.30756160616874695,0.06551336497068405,1.1174687147140503
1789323354977396500,16.210396484375,0.2373141646385193,0.06612421572208405,1.2878950834274292
1789323354996247600,16.22924755859375,0.13469181954860687,-0.05482354015111923,1.4051777124404907
1789323355015098600,16.2480986328125,0.11270131915807724,-0.111632339656353,1.4442720413208008
1789323355033949700,16.26694970703125,0.14874130487442017,-0.05360184609889984,1.4363309144973755
1789323355052800500,16.285800537109374,0.27885177731513977,0.14492350816726685,1.5322339534759521
1789323355071651600,16.304651611328126,0.47676628828048706,0.1895153671503067,1.7564148902893066
1789323355090502700,16.323502685546874,0.6496360301971436,0.12904147803783417,1.9127918481826782
1789323355109353700,16.342353759765626,0.7241594195365906,0.09361234307289124,1.8981314897537231
1789323355128204800,16.361204833984374,0.716829240322113,-0.05604523420333862,1.8736976385116577
1789323355147055600,16.3800556640625,0.7064448595046997,-0.26067906618118286,1.9127918481826782
1789323355165906700,16.39890673828125,0.7094991207122803,-0.44576579332351685,1.9653246402740479
1789323355184757800,16.4177578125,0.7266027927398682,-0.5154023766517639,2.017246723175049
1789323355203608800,16.43660888671875,0.7455390691757202,-0.44820916652679443,2.089937448501587
1789323355222460000,16.4554599609375,0.7742488980293274,-0.39384377002716064,2.0881049633026123
1789323355241311000,16.47431103515625,0.776692271232605,-0.5288410186767578,2.006251573562622
1789323355260162000,16.493162109375,0.6734591126441956,-0.9808679819107056,1.8914121389389038
1789323355279012900,16.512012939453125,0.6178719997406006,-1.1476292610168457,1.7625234127044678
1789323355297864000,16.530864013671874,0.7266027927398682,-0.7004891037940979,1.4497696161270142
1789323355316715000,16.549715087890625,0.8402203917503357,-0.217308908700943,1.161449670791626
1789323355335566000,16.568566162109374,0.7614210844039917,-0.22280654311180115,0.8639671206474304
1789323355354417200,16.587417236328125,0.5250232219696045,-0.26190075278282166,0.5206709504127502
1789323355373268000,16.60626806640625,0.3038965165615082,-0.17149536311626434,0.20852798223495483
1789323355392119000,16.625119140625,0.17622943222522736,0.004428642801940441,-0.02053973823785782
1789323355410970000,16.64397021484375,0.13957859575748444,0.1516428291797638,-0.17325155436992645
1789323355429821200,16.6628212890625,0.08887827396392822,0.21394924819469452,-0.4255314767360687
1789323355448672300,16.68167236328125,-0.016187451779842377,0.28541839122772217,-0.6717792749404907
1789323355467523300,16.7005234375,-0.13469181954860687,0.5126535892486572,-0.9625425934791565
1789323355486374400,16.71937451171875,-0.23975755274295807,0.7711182832717896,-1.2484190464019775
1789323355505225200,16.73822509765625,-0.3668137788772583,0.8853467702865601,-1.5165810585021973
1789323355524076300,16.757076171875,-0.5146388411521912,1.0105704069137573,-1.7389293909072876
1789323355542927400,16.77592724609375,-0.6923953890800476,0.9372687339782715,-1.889197826385498
1789323355561778400,16.7947783203125,-0.9630007147789001,0.8926768898963928,-1.9386764764785767
1789323355580629500,16.81362939453125,-1.1859599351882935,0.8065474629402161,-1.9380656480789185
1789323355599480300,16.832480224609377,-1.2995775938034058,0.6342121958732605,-2.0443530082702637
1789323355618331400,16.851331298828125,-1.3881504535675049,0.3190149664878845,-2.0113673210144043
1789323355637182500,16.870182373046877,-1.3490561246871948,0.04352286830544472,-2.1372017860412598
1789323355656033500,16.889033447265625,-1.2555965185165405,-0.10124793648719788,-2.151862144470215
1789323355674884600,16.907884521484377,-1.1419789791107178,-0.23868857324123383,-2.161024808883667
1789323355693735700,16.926735595703125,-0.9959864616394043,-0.4421007037162781,-2.236769914627075
1789323355712586500,16.94558642578125,-0.8408312797546387,-0.6186355352401733,-2.236159086227417
1789323355731437600,16.9644375,-0.6135960817337036,-0.7096518278121948,-2.1475863456726074
1789323355750288600,16.98328857421875,-0.3668137788772583,-0.5056288242340088,-1.9185185432434082
1789323355769139700,17.0021396484375,-0.17989452183246613,-0.2160872220993042,-1.566670536994934
1789323355787990800,17.02099072265625,-0.0393996499478817,-0.1360662281513214,-1.1793932914733887
1789323355806841600,17.039841552734377,0.0009162708884105086,-0.07437065243721008,-0.7823426127433777
1789323355825692700,17.058692626953125,0.07116370648145676,0.05390727147459984,-0.41026028990745544
1789323355844543700,17.077543701171876,0.14935214817523956,0.045355409383773804,-0.053525492548942566
1789323355863394800,17.096394775390625,0.22998400032520294,0.0050394898280501366,0.2622825503349304
1789323355882246000,17.115245849609376,0.29412296414375305,0.016645587980747223,0.5292227864265442
1789323355901096700,17.1340966796875,0.36314868927001953,0.08200624585151672,0.8102125525474548
1789323355919947800,17.15294775390625,0.37414395809173584,0.10888352245092392,1.0484429597854614
1789323355938798800,17.171798828125,0.36070531606674194,-0.05360184609889984,1.1449568271636963
1789323355957650000,17.19064990234375,0.33382803201675415,-0.04810422286391258,1.119301199913025
1789323355976501000,17.2095009765625,0.3173351585865021,0.14248012006282806,1.1003649234771729
1789323355995351800,17.228351806640624,0.2910687327384949,0.2151709496974945,1.1638931035995483
1789323356014203000,17.247202880859376,0.24586601555347443,0.10094250738620758,1.3660835027694702
1789323356033054000,17.266053955078124,0.29534465074539185,0.07773031294345856,1.4949723482131958
1789323356051905000,17.284905029296876,0.3655920922756195,0.09544488787651062,1.490085482597351
1789323356070756000,17.303756103515624,0.43950459361076355,0.09239064902067184,1.5047458410263062
1789323356089607000,17.32260693359375,0.5360184907913208,0.08139539510011673,1.5322339534759521
1789323356108458000,17.3414580078125,0.6887302994728088,-0.02244863659143448,1.6183634996414185
1789323356127309000,17.36030908203125,0.8927532434463501,-0.17454960942268372,1.7649668455123901
1789323356146160000,17.37916015625,1.0289721488952637,-0.2570139765739441,1.9201220273971558
1789323356165011200,17.39801123046875,1.0246962308883667,-0.40361732244491577,1.9964779615402222
1789323356183862300,17.4168623046875,0.8487722873687744,-0.48486000299453735,2.014803409576416
1789323356202713000,17.435713134765624,0.7015580534934998,-0.7487460374832153,1.976930856704712
1789323356221564200,17.454564208984376,0.5561764240264893,-0.9533798694610596,1.9610487222671509
1789323356240415200,17.473415283203124,0.44133713841438293,-1.0443960428237915,1.9152352809906006
1789323356259266300,17.492266357421876,0.43767204880714417,-0.6369609832763672,1.5841560363769531
1789323356278117400,17.511117431640624,0.5005893111228943,-0.2582356929779053,1.327600121498108
1789323356296968200,17.52996826171875,0.5225798487663269,-0.26373329758644104,1.0844829082489014
1789323356315819300,17.5488193359375,0.44988900423049927,-0.24907296895980835,0.9183325171470642
1789323356334670300,17.56767041015625,0.3552076816558838,-0.15805672109127045,0.625736653804779
1789323356353521400,17.586521484375,0.2593046724796295,-0.06642963737249374,0.4186594486236572
1789323356372372500,17.60537255859375,0.18661384284496307,-0.03527642786502838,0.15110833942890167
1789323356391223600,17.6242236328125,0.08887827396392822,0.09483403712511063,-0.1280488520860672
1789323356410074400,17.643074462890624,-0.049173206090927124,0.24754585325717926,-0.39682164788246155
1789323356428925400,17.661925537109376,-0.11392301321029663,0.441795289516449,-0.6461237072944641
1789323356447776500,17.680776611328124,-0.18111620843410492,0.7827243804931641,-1.0101886987686157
1789323356466627600,17.699627685546876,-0.29412296414375305,0.9061155319213867,-1.3314943313598633
1789323356485478700,17.718478759765624,-0.47798797488212585,0.8774057030677795,-1.608208179473877
1789323356504329500,17.73732958984375,-0.6600204706192017,0.865799605846405,-1.8079551458358765
1789323356523180500,17.7561806640625,-0.8854231238365173,0.8731297850608826,-1.9429523944854736
1789323356542031600,17.775031494140624,-1.1737430095672607,0.8401440382003784,-2.065732717514038
1789323356560882700,17.793882568359376,-1.359440565109253,0.6403206586837769,-2.102994441986084
1789323356579733800,17.812733642578124,-1.3710466623306274,0.492495596408844,-2.1420886516571045
1789323356598584600,17.83158447265625,-1.411973476409912,0.2848075330257416,-2.117043972015381
1789323356617435600,17.850435546875,-1.4009782075881958,-0.0035123717971146107,-2.3296186923980713
1789323356636286700,17.86928662109375,-1.314848780632019,-0.21242213249206543,-2.424299955368042
1789323356655137800,17.8881376953125,-1.129762053489685,-0.3089359998703003,-2.4523990154266357
1789323356673988600,17.906988525390624,-0.9037485122680664,-0.4543176591396332,-2.415748119354248
1789323356692839700,17.925839599609375,-0.7088882327079773,-0.5416688323020935,-2.3277862071990967
1789323356711690800,17.944690673828124,-0.532353401184082,-0.5563291311264038,-2.189734697341919
1789323356730541800,17.963541748046875,-0.3295520842075348,-0.4005630910396576,-1.9099667072296143
1789323356749393000,17.982392822265624,-0.1175880953669548,-0.20020519196987152,-1.5184135437011719
1789323356768243700,18.00124365234375,0.08276980370283127,-0.09269607067108154,-1.1024266481399536
1789323356787094800,18.0200947265625,0.06994201242923737,-0.10124793648719788,-0.6510104537010193
1789323356805945900,18.03894580078125,0.02901524491608143,-0.10308047384023666,-0.2459423840045929
1789323356824797000,18.057796875,0.058335911482572556,0.11438114941120148,0.10224056243896484
1789323356843647700,18.076647705078123,0.20249587297439575,0.16813570261001587,0.44431501626968384
1789323356862498800,18.095498779296875,0.29534465074539185,0.20234315097332,0.736910879611969
1789323356881350000,18.114349853515623,0.32344362139701843,0.11499200016260147,0.9476531744003296
1789323356900201000,18.133200927734375,0.3289412558078766,0.18218518793582916,1.0655466318130493
1789323356919052000,18.152052001953123,0.2990097403526306,0.2658712565898895,1.135183334350586
1789323356937902800,18.17090283203125,0.21349111199378967,0.2536543309688568,1.1877161264419556
1789323356956754000,18.18975390625,0.1041494607925415,0.1522536724805832,1.2469682693481445
1789323356975605000,18.20860498046875,0.04856235533952713,0.1113269105553627,1.297668695449829
1789323356994456000,18.2274560546875,0.07421794533729553,0.15897299349308014,1.3996801376342773
1789323357013307000,18.246306884765627,0.1817270666360855,0.2157817929983139,1.5957621335983276
1789323357032158000,18.265157958984375,0.38941511511802673,0.33856210112571716,1.7411437034606934
1789323357051009000,18.284009033203127,0.6209262609481812,0.2701472043991089,1.7112122774124146
1789323357069860000,18.302860107421875,0.7632536292076111,0.1779092699289322,1.749084711074829
1789323357088711200,18.321711181640627,0.8212841153144836,0.007482878863811493,1.9537185430526733
1789323357107562000,18.34056201171875,0.8414421081542969,-0.3504736125469208,2.1406378746032715
1789323357126413000,18.3594130859375,0.8945857882499695,-0.5673243999481201,2.1436920166015625
1789323357145264000,18.37826416015625,0.8322793841362,-0.5233433842658997,2.014192581176758
1789323357164115200,18.397115234375,0.7375980615615845,-0.4146125912666321,2.0196900367736816
1789323357182966300,18.41596630859375,0.61970454454422,-0.825101912021637,2.156519889831543
1789323357201817000,18.434817138671875,0.587329626083374,-1.1806150674819946,2.1467463970184326
1789323357220668200,18.453668212890626,0.6655181050300598,-1.0627214908599854,1.8767518997192383
1789323357239519200,18.472519287109375,0.7345438003540039,-0.6210789680480957,1.5279580354690552
1789323357258370300,18.491370361328126,0.6716265678405762,-0.5202891230583191,1.3489798307418823
1789323357277221000,18.51022119140625,0.5225798487663269,-0.4647020399570465,1.1028083562850952
1789323357296072200,18.529072265625,0.351542592048645,-0.27533939480781555,0.7430193424224854
1789323357314923300,18.54792333984375,0.22754059731960297,-0.10552386194467545,0.47852247953414917
1789323357333774300,18.5667744140625,0.17684027552604675,0.0587940476834774,0.159660205245018
1789323357352625200,18.585625244140626,0.1432436853647232,0.19256959855556488,-0.1921878159046173
1789323357371476200,18.604476318359374,0.042453885078430176,0.3715478479862213,-0.43652671575546265
1789323357390327300,18.623327392578126,-0.00519220158457756,0.5138752460479736,-0.6852179169654846
1789323357409178400,18.642178466796874,-0.007024743594229221,0.6794148683547974,-1.047450304031372
1789323357428029400,18.661029541015626,-0.10231691598892212,0.7839460968971252,-1.3779187202453613
1789323357446880300,18.67988037109375,-0.33443886041641235,0.8676321506500244,-1.6308094263076782
1789323357465731300,18.6987314453125,-0.5763344168663025,0.8309813141822815,-1.7945165634155273
1789323357484582400,18.71758251953125,-0.7369872331619263,0.8651887774467468,-1.960056185722351
1789323357503433200,18.73643310546875,-0.989267110824585,0.7967739105224609,-2.0443530082702637
1789323357522284300,18.7552841796875,-1.2446012496948242,0.7038487792015076,-2.062067747116089
1789323357541135400,18.77413525390625,-1.3563863039016724,0.5890094637870789,-2.143921136856079
1789323357559986400,18.792986328125,-1.437628984451294,0.282364159822464,-2.128649950027466
1789323357578837500,18.81183740234375,-1.3875395059585571,0.014813045971095562,-2.230050563812256
1789323357597688300,18.830688232421874,-1.2891931533813477,-0.14645062386989594,-2.3583285808563232
1789323357616539400,18.849539306640626,-1.1199884414672852,-0.2576248347759247,-2.409639835357666
1789323357635390500,18.868390380859374,-0.9153546094894409,-0.3755183517932892,-2.4456796646118164
1789323357654241500,18.887241455078126,-0.7149966955184937,-0.5777087807655334,-2.3992552757263184
1789323357673092400,18.90609228515625,-0.5189147591590881,-0.6277982592582703,-2.2111144065856934
1789323357691943400,18.924943359375,-0.3387148082256317,-0.39323291182518005,-1.8885869979858398
1789323357710794500,18.94379443359375,-0.168899267911911,-0.12140589207410812,-1.515970230102539
1789323357729645600,18.9626455078125,-0.07299624383449554,-0.09636115282773972,-1.154348611831665
1789323357748496400,18.981496337890626,-0.08948912471532822,-0.16660858690738678,-0.7627955079078674
1789323357767347500,19.000347412109374,-0.0009162708884105086,-0.030389651656150818,-0.3797179162502289
1789323357786198500,19.019198486328126,0.18905723094940186,0.125987246632576,-0.04130854457616806
1789323357805049600,19.038049560546874,0.30695074796676636,0.11865708231925964,0.24212458729743958
1789323357823900400,19.056900390625,0.37597647309303284,0.030695075169205666,0.5591543316841125
1789323357842751500,19.07575146484375,0.42789849638938904,0.13331741094589233,0.8450308442115784
1789323357861602600,19.0946025390625,0.42545512318611145,0.18279604613780975,1.0679900646209717
1789323357880453400,19.113453369140625,0.3313846290111542,0.2017323076725006,1.162671446800232
1789323357899304400,19.132304443359374,0.21226942539215088,0.021532366052269936,1.1736665964126587
1789323357918155500,19.151155517578125,0.16095824539661407,0.1119377613067627,1.1999330520629883
1789323357937006600,19.170006591796874,0.17806197702884674,0.26159533858299255,1.2243670225143433
1789323357955857400,19.188857421875,0.1847812980413437,0.25121092796325684,1.3416496515274048
1789323357974708500,19.20770849609375,0.2214321345090866,0.23410721123218536,1.5530028343200684
1789323357993559600,19.2265595703125,0.3106158375740051,0.23960483074188232,1.7063254117965698
1789323358012410600,19.24541064453125,0.4492781460285187,0.10644013434648514,1.7851247787475586
1789323358031261400,19.264261474609373,0.6300889253616333,0.038636088371276855,1.9213436841964722
1789323358050112500,19.283112548828125,0.800515353679657,-0.13301199674606323,2.0746662616729736
1789323358068963600,19.301963623046873,0.911078691482544,-0.3217637836933136,2.12170147895813
1789323358087814700,19.320814697265625,0.9245173335075378,-0.3828485310077667,2.0392372608184814
1789323358106665500,19.33966552734375,0.8377770185470581,-0.323596328496933,2.0074732303619385
1789323358125516500,19.3585166015625,0.8035695552825928,-0.4378247857093811,2.136361837387085
1789323358144367600,19.37736767578125,0.7333221435546875,-0.7823426127433777,2.1822519302368164
1789323358163218400,19.396218505859373,0.638029932975769,-1.1757283210754395,2.028852701187134
1789323358182069500,19.415069580078125,0.6789567470550537,-1.1964970827102661,1.884692907333374
1789323358200920600,19.433920654296877,0.7675296068191528,-0.8269344568252563,1.6825023889541626
1789323358219771600,19.452771728515625,0.6484143733978271,-0.7463026642799377,1.3184374570846558
1789323358238622500,19.47162255859375,0.4217900335788727,-0.5245651006698608,1.0997540950775146
1789323358257473500,19.4904736328125,0.2745758295059204,-0.22280654311180115,0.759512186050415
1789323358276324600,19.50932470703125,0.23303823173046112,-0.06887302547693253,0.4485909640789032
1789323358295175400,19.528175537109377,0.23364907503128052,0.1632489264011383,0.17004460096359253
1789323358314026500,19.547026611328125,0.24220094084739685,0.2689255177974701,-0.039476003497838974
1789323358332877600,19.565877685546877,0.20738264918327332,0.27808821201324463,-0.3516189455986023
1789323358351728600,19.584728759765625,0.11575555801391602,0.23166382312774658,-0.7713474035263062
1789323358370579500,19.603579345703125,-0.06261184066534042,0.5560237169265747,-1.080436110496521
1789323358389430500,19.622430419921876,-0.29290124773979187,0.8102125525474548,-1.3082821369171143
1789323358408281600,19.641281494140625,-0.4437805414199829,0.8957311511039734,-1.5526210069656372
1789323358427132700,19.660132568359376,-0.5378510355949402,0.9427663683891296,-1.7438162565231323
1789323358445983500,19.6789833984375,-0.6667397618293762,0.9317711591720581,-1.8665964603424072
1789323358464834600,19.69783447265625,-0.8573241233825684,0.9146674275398254,-2.0266385078430176
1789323358483685600,19.716685546875,-1.0698989629745483,0.81998610496521,-2.1426994800567627
1789323358502536400,19.735536376953124,-1.2189457416534424,0.673306405544281,-2.163468360900879
1789323358521387500,19.754387451171876,-1.3295090198516846,0.4424061179161072,-2.1915671825408936
1789323358540238600,19.773238525390624,-1.3484452962875366,0.1620272397994995,-2.236159086227417
1789323358559089400,19.79208935546875,-1.3203463554382324,0.004428642801940441,-2.3412249088287354
1789323358577940500,19.8109404296875,-1.2042853832244873,-0.1238492801785469,-2.331451177597046
1789323358596791600,19.82979150390625,-1.0088142156600952,-0.4103366434574127,-2.3009088039398193
1789323358615642400,19.848642333984376,-0.7882983684539795,-0.50196373462677,-2.3131258487701416
1789323358634493400,19.867493408203124,-0.5952706336975098,-0.46897798776626587,-2.32351016998291
1789323358653344500,19.886344482421876,-0.4816530644893646,-0.3480302393436432,-2.1042160987854004
1789323358672195600,19.905195556640624,-0.381474107503891,-0.25090551376342773,-1.6265335083007812
1789323358691046400,19.92404638671875,-0.20310671627521515,-0.12690351903438568,-1.1360231637954712
1789323358709897500,19.9428974609375,-0.009468132629990578,-0.06887302547693253,-0.7218687534332275
1789323358728748500,19.96174853515625,0.057114217430353165,-0.12690351903438568,-0.3015294671058655
1789323358747599400,19.980599365234376,0.09315420687198639,-0.17027367651462555,0.15538427233695984
1789323358766450400,19.999450439453124,0.24159009754657745,0.10338589549064636,0.48279839754104614
1789323358785301500,20.018301513671876,0.33443886041641235,0.3489464819431305,0.6929298639297485
1789323358804152300,20.03715234375,0.3026748299598694,0.362995982170105,0.8267053961753845
1789323358823003400,20.05600341796875,0.1841704547405243,0.18218518793582916,0.976973831653595
1789323358841854200,20.074854248046876,0.14935214817523956,0.14370182156562805,1.0582165718078613
1789323358860705300,20.093705322265624,0.17867282032966614,0.1253764033317566,1.074709415435791
1789323358879556400,20.112556396484376,0.21226942539215088,0.06490252166986465,1.1199121475219727
1789323358898407400,20.131407470703124,0.24036839604377747,0.0331384651362896,1.2371947765350342
1789323358917258200,20.15025830078125,0.28496024012565613,0.14858859777450562,1.3636401891708374
1789323358936109300,20.169109375,0.33566057682037354,0.21150586009025574,1.4992482662200928
1789323358954960400,20.18796044921875,0.4187358021736145,0.27442312240600586,1.676393985748291
1789323358973811200,20.206811279296875,0.6080984473228455,0.19867807626724243,1.786346435546875
1789323358992662300,20.225662353515624,0.8041804432868958,0.012980503961443901,1.8065043687820435
1789323359011513300,20.244513427734375,0.948951244354248,-0.13484452664852142,1.893244743347168
1789323359030364200,20.2633642578125,0.9739959836006165,-0.2912214398384094,1.9634921550750732
1789323359049215200,20.28221533203125,0.8915315866470337,-0.44515493512153625,1.9726548194885254
1789323359068066300,20.30106640625,0.8628217577934265,-0.43538138270378113,1.9024074077606201
1789323359086917000,20.319917236328124,0.8225058317184448,-0.49646610021591187,1.879195213317871
1789323359105768200,20.338768310546875,0.6905628442764282,-0.9246700406074524,2.02030086517334
1789323359124619000,20.357618896484375,0.6355865597724915,-1.3773078918457031,2.058173418045044
1789323359143470000,20.376469970703123,0.7198835015296936,-1.1018157005310059,1.883471131324768
1789323359162321200,20.395321044921875,0.7412631511688232,-0.5416688323020935,1.6641770601272583
1789323359181172000,20.414171875,0.5909947156906128,-0.5276193022727966,1.463819146156311
1789323359200023000,20.43302294921875,0.4450022280216217,-0.47142136096954346,1.2524659633636475
1789323359218874000,20.4518740234375,0.3912476599216461,-0.10735640674829483,0.8578585982322693
1789323359237725000,20.470724853515627,0.2593046724796295,0.08200624585151672,0.5066214203834534
1789323359256576000,20.489575927734375,0.17928366363048553,0.13270656764507294,0.2628933787345886
1789323359275427000,20.508427001953127,0.17256435751914978,0.2017323076725006,-0.00038177953683771193
1789323359294278000,20.52727783203125,0.12369657307863235,0.31534990668296814,-0.37299859523773193
1789323359313129000,20.54612890625,-0.06200099736452103,0.43568679690361023,-0.6876612901687622
1789323359331980000,20.56497998046875,-0.1823379099369049,0.7301151752471924,-0.9845330715179443
1789323359350830800,20.583830810546875,-0.26724568009376526,0.815710186958313,-1.3156123161315918
1789323359369682000,20.602681884765627,-0.3900259733200073,0.862134575843811,-1.6222575902938843
1789323359388533000,20.621532958984375,-0.5726693272590637,0.921997606754303,-1.800624966621399
1789323359407383800,20.6403837890625,-0.7375980615615845,0.9568158984184265,-1.949671745300293
1789323359435660300,20.668660400390625,-1.1309837102890015,0.9867473840713501,-2.068786859512329
1789323359454511400,20.687511474609376,-1.3056859970092773,0.8603020310401917,-2.0822255611419678
1789323359473362200,20.706362060546876,-1.361273169517517,0.7044596076011658,-2.169576644897461
1789323359492213200,20.725213134765625,-1.405864953994751,0.3874298632144928,-2.167133331298828
1789323359511064300,20.744064208984376,-1.3673815727233887,0.14553436636924744,-2.311293363571167
1789323359529915100,20.7629150390625,-1.281252145767212,-0.08658760040998459,-2.2929677963256836
1789323359558191600,20.791191650390626,-1.041189193725586,-0.37735089659690857,-2.314958333969116
1789323359577042700,20.810042724609374,-0.8365553021430969,-0.474475622177124,-2.311293363571167
1789323359595893500,20.8288935546875,-0.6447492837905884,-0.5502206683158875,-2.1567490100860596
1789323359614744600,20.84774462890625,-0.4566083252429962,-0.4494308829307556,-1.9362330436706543
1789323359633595600,20.866595703125,-0.23914669454097748,-0.26495498418807983,-1.677844762802124
1789323359652446500,20.885446533203126,-0.055892523378133774,-0.1525591015815735,-1.4359492063522339
1789323359671297500,20.904297607421874,0.02107422985136509,-0.21120044589042664,-1.0462286472320557
1789323359690148600,20.923148681640626,0.1047603040933609,-0.12812520563602448,-0.529451847076416
1789323359708999400,20.94199951171875,0.20310671627521515,0.13453911244869232,-0.08528954535722733
1789323359727850500,20.9608505859375,0.25380703806877136,0.1516428291797638,0.2793862521648407
1789323359746701300,20.979701416015626,0.22509720921516418,-0.060932014137506485,0.6037461757659912
1789323359765552400,20.998552490234374,0.24708771705627441,0.045355409383773804,0.8346464037895203
1789323359784403500,21.017403564453126,0.31855684518814087,0.27808821201324463,0.9879691004753113
1789323359803254300,21.036254150390626,0.3405473530292511,0.3214583694934845,1.0753202438354492
1789323359822105300,21.055105224609374,0.24403348565101624,0.22250111401081085,1.1156361103057861
1789323359840956200,21.0739560546875,0.13530266284942627,0.09239064902067184,1.207874059677124
1789323359859807200,21.09280712890625,0.10964708030223846,0.07773031294345856,1.2995011806488037
1789323359878658300,21.111658203125,0.16523417830467224,0.06245913356542587,1.370970368385315
1789323359897509000,21.130509033203126,0.25625041127204895,0.10949437320232391,1.512686848640442
1789323359916360200,21.149360107421874,0.4217900335788727,0.11438114941120148,1.7319810390472412
1789323359935211000,21.1682109375,0.6868977546691895,0.13331741094589233,1.851707100868225
1789323359954062000,21.18706201171875,0.823727548122406,0.08383878320455551,1.865756630897522
1789323359972913000,21.205912841796874,0.8041804432868958,-0.10735640674829483,1.981817603111267
1789323359991764000,21.224763916015625,0.818840742111206,-0.3046600818634033,2.1149823665618896
1789323360010615000,21.243614990234374,0.870151937007904,-0.39201122522354126,2.069779634475708
1789323360029465900,21.2624658203125,0.8451071977615356,-0.4243861436843872,1.967157244682312
1789323360048317000,21.28131689453125,0.8218950033187866,-0.4537068009376526,2.0306854248046875
1789323360076593400,21.309593505859375,0.6948387622833252,-0.6980457305908203,2.101543664932251
1789323360095444200,21.3284443359375,0.5189147591590881,-1.1470184326171875,2.0685579776763916
1789323360114295300,21.34729541015625,0.4211791753768921,-1.162900447845459,1.8376575708389282
1789323360133146000,21.36614599609375,0.4731011986732483,-0.71453857421875,1.5597220659255981
1789323360151997200,21.3849970703125,0.4975350797176361,-0.3981196880340576,1.2885059118270874
1789323360170848300,21.40384814453125,0.3552076816558838,-0.26373329758644104,1.038669466972351
1789323360189699000,21.422698974609375,0.22570806741714478,-0.05604523420333862,0.8034932017326355
1789323360208550100,21.441550048828127,0.20127417147159576,-0.023059483617544174,0.4204919934272766
1789323360227401000,21.46040087890625,0.10231691598892212,0.06551336497068405,0.04665346071124077
1789323360246252000,21.479251953125,-0.049173206090927124,0.1516428291797638,-0.25082916021347046
1789323360265102800,21.498102783203127,-0.15973655879497528,0.279920756816864,-0.510515570640564
1789323360283954000,21.516953857421875,-0.21654535830020905,0.4674508571624756,-0.8141067028045654
1789323360302804700,21.5358046875,-0.28007346391677856,0.7539382576942444,-1.1934428215026855
1789323360321655800,21.55465576171875,-0.42850935459136963,0.8364789485931396,-1.4225105047225952
1789323360340507000,21.5735068359375,-0.5751127004623413,0.8688538670539856,-1.6466914415359497
1789323360359357700,21.592357666015626,-0.7485933303833008,0.9226084351539612,-1.870261549949646
1789323360378208800,21.611208740234375,-0.9642223715782166,0.7778376340866089,-2.0040371417999268
1789323360397059600,21.6300595703125,-1.1835166215896606,0.8236511945724487,-2.033357858657837
1789323360415910700,21.64891064453125,-1.2574291229248047,0.8102125525474548,-2.04862904548645
1789323360434761500,21.667761474609375,-1.2531532049179077,0.5383091568946838,-2.1457536220550537
1789323360453612500,21.686612548828126,-1.3081294298171997,0.039857782423496246,-2.1830153465270996
1789323360472463600,21.705463623046874,-1.290414810180664,-0.20081603527069092,-2.352220058441162
1789323360491314400,21.724314453125,-1.1645803451538086,-0.31687700748443604,-2.3455007076263428
1789323360529016300,21.762016357421874,-0.7485933303833008,-0.589314877986908,-2.332062005996704
1789323360547867400,21.780867431640626,-0.5671716928482056,-0.71942538022995,-2.337559700012207
1789323360566718200,21.79971826171875,-0.4181249439716339,-0.7560762166976929,-2.209892749786377
1789323360585569300,21.8185693359375,-0.24097923934459686,-0.6223006248474121,-1.9160751104354858
1789323360604420000,21.837420166015626,0.017409147694706917,-0.4500417113304138,-1.537349820137024
1789323360623271200,21.856271240234374,0.21898874640464783,-0.2044811248779297,-1.1445749998092651
1789323360642122000,21.8751220703125,0.28496024012565613,-0.025502873584628105,-0.6644490957260132
1789323360660973000,21.89397314453125,0.23120568692684174,0.03558185324072838,-0.22456271946430206
1789323360679824000,21.912823974609374,0.17745113372802734,-0.07986827939748764,0.15171918272972107
1789323360698675000,21.931675048828126,0.2605263590812683,0.0459662564098835,0.4485909640789032
1789323360717526000,21.950526123046874,0.3680354654788971,0.15286453068256378,0.7002600431442261
1789323360736376800,21.969376953125,0.3918585181236267,0.19501298666000366,0.921997606754303
1789323360755227600,21.9882275390625,0.3655920922756195,0.2432699203491211,1.0966999530792236
1789323360774078700,22.00707861328125,0.31916770339012146,0.20784078538417816,1.184661865234375
1789323360792929500,22.025929443359374,0.25563958287239075,0.10338589549064636,1.2261995077133179
1789323360811780600,22.044780517578126,0.1823379099369049,0.06429167091846466,1.2952252626419067
1789323360830631700,22.063631591796874,0.16034740209579468,0.06856760382652283,1.4729818105697632
1789323360849482500,22.082482421875,0.23975755274295807,0.2041756957769394,1.6825023889541626
1789323360868333600,22.10133349609375,0.3393256664276123,0.28725093603134155,1.8168888092041016
1789323360887184400,22.120184326171874,0.4456130862236023,0.2585411071777344,1.907905101776123
1789323360906035200,22.13903515625,0.5592306852340698,0.16691401600837708,1.957383632659912
1789323360924886300,22.15788623046875,0.6814001202583313,0.06062658876180649,1.8901904821395874
1789323360943737300,22.1767373046875,0.7516475319862366,-0.11407572776079178,1.7698535919189453
1789323360962588200,22.195588134765625,0.7461498975753784,-0.2790044844150543,1.8462095260620117
1789323360981439200,22.214439208984373,0.7253811359405518,-0.2973299026489258,1.9659355878829956
1789323361000290000,22.2332900390625,0.7730271816253662,-0.293664813041687,2.0184683799743652
1789323361019141000,22.25214111328125,0.7901309132575989,-0.5709894895553589,2.1009328365325928
1789323361037992000,22.270991943359373,0.7870767116546631,-1.0291249752044678,2.1009328365325928
1789323361056843000,22.289843017578125,0.8426637649536133,-1.0883771181106567,1.910959243774414
1789323361075693800,22.30869384765625,0.8585458397865295,-0.5874823331832886,1.6146984100341797
1789323361094545000,22.327544921875,0.7577560544013977,-0.4671454429626465,1.4051777124404907
1789323361113395700,22.346395751953125,0.6404733657836914,-0.49952033162117004,1.13396155834198
1789323361132246800,22.365246826171877,0.51341712474823,-0.33764582872390747,0.7027034163475037
1789323361151097600,22.38409765625,0.2611372172832489,-0.09147437661886215,0.3306974470615387
1789323361169948700,22.40294873046875,0.06749862432479858,0.03802524134516716,0.1749313771724701
1789323361188799500,22.421799560546877,0.03512371703982353,0.22005772590637207,-0.023593975231051445
1789323361207650300,22.440650390625,0.024128466844558716,0.42224815487861633,-0.3076379597187042
1789323361226501400,22.45950146484375,-0.03023693896830082,0.6476507782936096,-0.6620057225227356
1789323361245352200,22.478352294921876,-0.1426328420639038,0.62627112865448,-0.9478822350502014
1789323361264203300,22.497203369140625,-0.30878329277038574,0.6537593007087708,-1.1531269550323486
1789323361283054000,22.51605419921875,-0.47920966148376465,0.7264500856399536,-1.3828054666519165
1789323361301905200,22.5349052734375,-0.6759024858474731,0.751494824886322,-1.6338636875152588
1789323361320756000,22.553755859375,-0.8915315866470337,0.7705074548721313,-1.8171179294586182
1789323361339607000,22.57260693359375,-1.1596934795379639,0.7778376340866089,-1.912410020828247
1789323361358457900,22.591457763671876,-1.405864953994751,0.7539382576942444,-1.9154642820358276
1789323361377309000,22.610308837890624,-1.4498459100723267,0.6439857482910156,-1.9649429321289062
1789323361396159700,22.62915966796875,-1.46511709690094,0.4259132444858551,-2.0382444858551025
1789323361415010800,22.6480107421875,-1.4791666269302368,0.0850604772567749,-2.0926098823547363
1789323361433861600,22.666861572265624,-1.441904902458191,-0.17149536311626434,-2.1976757049560547
1789323361452712700,22.685712646484376,-1.3301198482513428,-0.34070006012916565,-2.2318832874298096
1789323361480989000,22.713989013671874,-1.0277504920959473,-0.5465555787086487,-2.340614080429077
1789323361499840000,22.732840087890626,-0.8108997344970703,-0.7579087615013123,-2.299687147140503
1789323361518690800,22.75169091796875,-0.5341859459877014,-0.6888830065727234,-2.169576644897461
1789323361537542000,22.7705419921875,-0.2623589038848877,-0.4091149568557739,-1.9087449312210083
1789323361556392700,22.789392822265626,-0.02107422985136509,-0.16783028841018677,-1.543458342552185
1789323361575243800,22.808243896484374,0.09315420687198639,-0.04077405482530594,-1.0712733268737793
1789323361594094600,22.827094482421874,0.08826743066310883,-0.012064233422279358,-0.5844281315803528
1789323361612945400,22.8459453125,0.05467082932591438,-0.12690351903438568,-0.1787491738796234
1789323361631796500,22.86479638671875,0.19394400715827942,-0.012675080448389053,0.15660595893859863
1789323361650647300,22.883647216796874,0.3271087110042572,-0.037108972668647766,0.40155571699142456
1789323361669498400,22.902498291015625,0.3924693763256073,-0.0462716780602932,0.5780905485153198
1789323361688349200,22.92134912109375,0.41323816776275635,0.06612421572208405,0.8126559257507324
1789323361707200300,22.9402001953125,0.3930802047252655,0.04718795046210289,1.0350043773651123
1789323361726051000,22.959051025390625,0.29778802394866943,0.1107160672545433,1.142513394355774
1789323361744902000,22.97790185546875,0.2092151790857315,-0.009009997360408306,1.180385947227478
1789323361763753000,22.9967529296875,0.20738264918327332,-0.051769305020570755,1.228032112121582
1789323361782603800,23.015603759765625,0.3118375241756439,0.07040014863014221,1.2457466125488281
1789323361801454800,23.034454833984373,0.46393850445747375,0.2176143378019333,1.291560173034668
1789323361820305700,23.0533056640625,0.6001574397087097,0.32695600390434265,1.4454936981201172
1789323361839156700,23.07215673828125,0.7021689414978027,0.2793098986148834,1.5890427827835083
1789323361858007600,23.091007568359377,0.7296570539474487,0.12293300777673721,1.6812807321548462
1789323361876858400,23.1098583984375,0.7003363966941833,-0.10491301864385605,1.8168888092041016
1789323361895709400,23.12870947265625,0.749204158782959,-0.2539597451686859,2.0166358947753906
1789323361914560300,23.147560302734377,0.8848122358322144,-0.2710634768009186,2.1094846725463867
1789323361933411300,23.166411376953125,0.9813261032104492,-0.23868857324123383,2.1113171577453613
1789323361952262100,23.18526220703125,0.9318475127220154,-0.21425467729568481,2.092381000518799
1789323361971113000,23.204113037109376,0.851215660572052,-0.5001311898231506,2.101543664932251
1789323361989964000,23.222964111328125,0.7705838084220886,-0.9411629438400269,2.0948243141174316
1789323362008814800,23.24181494140625,0.7094991207122803,-1.0957072973251343,1.9647138118743896
1789323362027665700,23.260665771484376,0.7351546883583069,-0.6876612901687622,1.7423654794692993
1789323362046516700,23.279516845703125,0.7718055248260498,-0.5013529062271118,1.643408179283142
1789323362065367600,23.298367431640624,0.7363763451576233,-0.6394043564796448,1.3392062187194824
1789323362084218600,23.317218505859376,0.5573981404304504,-0.5056288242340088,0.8688538670539856
1789323362103069400,23.3360693359375,0.33260634541511536,-0.2826695740222931,0.47852247953414917
1789323362121920300,23.354920166015624,0.14629791676998138,-0.07437065243721008,0.16943375766277313
1789323362140771300,23.373771240234376,0.05650337040424347,0.19745637476444244,-0.011377030052244663
1789323362159622100,23.3926220703125,0.020463382825255394,0.4362976551055908,-0.20990239083766937
1789323362178473200,23.41147314453125,-0.07543963938951492,0.49738237261772156,-0.5716003179550171
1789323362197324000,23.430323974609376,-0.1316375881433487,0.6830799579620361,-0.9381086826324463
1789323362216174800,23.4491748046875,-0.2238755226135254,0.8218186497688293,-1.3082821369171143
1789323362235026000,23.46802587890625,-0.4321744441986084,0.8242620229721069,-1.5917152166366577
1789323362253876700,23.486876708984376,-0.6502469182014465,0.9366579055786133,-1.749924659729004
1789323362272727600,23.5057275390625,-0.8530482053756714,1.0014077425003052,-1.8678182363510132
1789323362291578600,23.52457861328125,-1.1071606874465942,0.9867473840713501,-1.9759382009506226
1789323362310429400,23.543429443359376,-1.3258439302444458,0.8871793150901794,-1.9808249473571777
1789323362329280500,23.562280517578124,-1.4064757823944092,0.8096016645431519,-2.03885555267334
1789323362348131300,23.58113134765625,-1.4657280445098877,0.43141087889671326,-2.103605270385742
1789323362366982100,23.599982177734375,-1.4846643209457397,-0.07742489129304886,-2.138423442840576
1789323362385833200,23.618833251953124,-1.4290771484375,-0.16905197501182556,-2.2282180786132812
1789323362404684000,23.63768408203125,-1.29163658618927,-0.31687700748443604,-2.2520411014556885
1789323362432960300,23.665960205078125,-0.9727742671966553,-0.5972558856010437,-2.3070173263549805
1789323362451811300,23.684811279296873,-0.7223268747329712,-0.7010999321937561,-2.391925096511841
1789323362470662100,23.703662109375,-0.5005893111228943,-0.5496098399162292,-2.3357272148132324
1789323362489513000,23.722512939453125,-0.33443886041641235,-0.31260108947753906,-2.036412000656128
1789323362508364000,23.741364013671873,-0.1695101112127304,-0.19409671425819397,-1.654632568359375
1789323362527214800,23.76021484375,-0.10353861004114151,-0.14278554916381836,-1.2520841360092163
1789323362546065700,23.779065673828125,0.03512371703982353,-0.19715094566345215,-0.7621846795082092
