time,seconds_elapsed,z,y,x
1789323338888094000,0.121093994140625,0.08735115826129913,-0.3011476993560791,0.34573954343795776
1789323338906944500,0.139944580078125,0.09712471067905426,-0.26632940769195557,0.25777754187583923
1789323338925795000,0.158795166015625,0.20402298867702484,-0.056808795779943466,0.16126367449760437
1789323338944645600,0.177645751953125,0.25289076566696167,0.25533416867256165,0.14660334587097168
1789323338963496400,0.196496337890625,0.1973036676645279,0.36039987206459045,0.10750912129878998
1789323339020048100,0.253048095703125,-0.10140064358711243,-0.4080459773540497,0.11056335270404816
1789323339038898700,0.271898681640625,-0.08307522535324097,-0.37078428268432617,0.130721315741539
1789323339057749500,0.29074951171875,-0.08612946420907974,-0.28343313932418823,0.0653606578707695
1789323339076600000,0.30960009765625,-0.06719319522380829,-0.11056335270404816,-0.033596597611904144
1789323339095450600,0.32845068359375,-0.04703523963689804,-0.3176405727863312,-0.0653606578707695
1789323339114301200,0.34730126953125,0.1844758689403534,-0.31947311758995056,0.05375456064939499
1789323339133152000,0.366152099609375,0.0525328628718853,-0.09712471067905426,0.04947862774133682
1789323339152002600,0.38500244140625,-0.20096874237060547,0.33352261781692505,-0.02748812735080719
1789323339170853000,0.40385302734375,-0.21807247400283813,0.1441599577665329,-0.15454435348510742
1789323339189703700,0.42270361328125,-0.006719320081174374,0.03176405653357506,-0.13988402485847473
1789323339208554500,0.441554443359375,0.11239589750766754,0.09773556143045425,-0.09407047927379608
1789323339227405000,0.460405029296875,0.0647498071193695,0.2748812735080719,0.02993151545524597
1789323339246255600,0.479255615234375,-0.1044548824429512,0.3139754831790924,0.27121618390083313
1789323339265106400,0.4981064453125,-0.16309621930122375,0.24250635504722595,0.43919917941093445
1789323339283957000,0.51695703125,-0.10811996459960938,0.2241809368133545,0.3042019307613373
1789323339302807600,0.5358076171875,-0.09040539711713791,0.1716480851173401,0.006719320081174374
1789323339321658400,0.554658447265625,-0.09895725548267365,0.11545012891292572,-0.13560809195041656
1789323339340509000,0.573509033203125,-0.1319430023431778,0.16065283119678497,-0.2107423096895218
1789323339359359500,0.592359375,-0.17531315982341766,0.17775654792785645,-0.2980934679508209
1789323339378210300,0.611210205078125,-0.10811996459960938,0.16676130890846252,-0.22051586210727692
1789323339397060900,0.630060791015625,0.0647498071193695,0.023212196305394173,-0.0012216945178806782
1789323339415911400,0.648911376953125,0.3011476993560791,-0.09895725548267365,0.24556060135364532
1789323339434762200,0.66776220703125,0.1557660549879074,-0.08490777015686035,0.36039987206459045
1789323339453612800,0.68661279296875,-0.2241809368133545,-0.08796200156211853,0.20219044387340546
1789323339472463600,0.705463623046875,-0.34818294644355774,0.19424942135810852,-0.16553960740566254
1789323339491314200,0.724314208984375,-0.3151971995830536,0.40071579813957214,-0.363454133272171
1789323339510164700,0.743164794921875,-0.18814095854759216,0.33230090141296387,-0.3414636254310608
1789323339529015600,0.762015625,-0.0030542362947016954,0.416597843170166,-0.35856732726097107
1789323339547866000,0.7808662109375,-0.2345653474330902,0.17286977171897888,-0.46668729186058044
1789323339566717000,0.799717041015625,-0.2363978922367096,-0.735460102558136,-0.31092125177383423
1789323339585567500,0.8185673828125,-0.012216945178806782,-0.8887827396392822,0.12522368133068085
1789323339613843500,0.846843505859375,-0.0012216945178806782,-0.7049177289009094,0.3640649616718292
1789323339632694300,0.8656943359375,0.034818295389413834,-0.8118160367012024,0.33169007301330566
1789323339651544800,0.884544921875,-0.05070032179355621,-0.6236750483512878,0.14660334587097168
1789323339670395600,0.903395751953125,-0.18081079423427582,-0.4587462842464447,-0.12094775587320328
1789323339689246200,0.92224609375,-0.09040539711713791,0.07207997888326645,-0.01038440316915512
1789323339708097000,0.941096923828125,0.09529217332601547,0.8777875304222107,0.5198310017585754
1789323339726947600,0.959947509765625,0.5381564497947693,1.2840009927749634,0.9016105532646179
1789323339745798400,0.97879833984375,1.1019684076309204,1.4038033485412598,0.758672297000885
1789323339764649000,0.99764892578125,1.4062467813491821,1.936462163925171,0.15454435348510742
1789323339783499800,1.016499755859375,1.621264934539795,1.9682261943817139,-0.5998520255088806
1789323339802350300,1.035350341796875,1.372650146484375,2.543644428253174,-1.4618338346481323
1789323339821201200,1.054201171875,1.5742297172546387,2.0482470989227295,-2.2999162673950195
1789323339840051700,1.0730517578125,2.049468994140625,0.8521319031715393,-2.6175568103790283
1789323339868328000,1.101327880859375,1.95967435836792,0.6988092660903931,-2.6670355796813965
1789323339887178500,1.120178466796875,1.2717839479446411,1.8430025577545166,-2.8295209407806396
1789323339906029300,1.139029296875,1.155722975730896,2.483170509338379,-3.1728169918060303
1789323339924880000,1.1578798828125,1.0830321311950684,1.880264163017273,-3.391500234603882
1789323339943730700,1.176730712890625,0.6413896083831787,2.003044605255127,-3.3322482109069824
1789323339962581200,1.195581298828125,0.5283828973770142,1.4703856706619263,-3.971194267272949
1789323339981432000,1.21443212890625,-0.2907632887363434,-1.3952515125274658,-3.023770332336426
1789323340000283000,1.233282958984375,-0.7360709309577942,-2.2015697956085205,-2.233944892883301
1789323340019133400,1.252133544921875,-0.8124268651008606,-0.5632011890411377,-2.913817882537842
1789323340037984300,1.270984375,-1.4135769605636597,1.2387982606887817,-3.7170820236206055
1789323340056834800,1.289834716796875,-2.0311434268951416,2.5051610469818115,-3.750067710876465
1789323340075685600,1.308685546875,-2.608394145965576,2.6755874156951904,-3.4043281078338623
1789323340094536200,1.3275361328125,-2.685971736907959,2.6908586025238037,-2.8466246128082275
1789323340113387000,1.346386962890625,-1.7507646083831787,2.570521593093872,-2.3377888202667236
1789323340132237800,1.36523779296875,-0.8686248064041138,2.0739028453826904,-2.0604641437530518
1789323340151088400,1.38408837890625,-0.28160059452056885,2.4843921661376953,-2.2657089233398438
1789323340169939200,1.402939208984375,-0.420873761177063,3.9437062740325928,-2.6383256912231445
1789323340188790000,1.4217900390625,-0.7800519466400146,2.8789994716644287,-2.235166549682617
1789323340217066000,1.45006591796875,-1.235133171081543,2.9419167041778564,-1.4624446630477905
1789323340235916800,1.468916748046875,-0.43858832120895386,4.065340995788574,-1.0940274000167847
1789323340254767600,1.487767578125,0.8301414251327515,3.747624397277832,-0.7049177289009094
1789323340273618200,1.5066181640625,1.576673150062561,2.070237636566162,-0.601073682308197
1789323340292469000,1.525468994140625,1.9951034784317017,0.5638120174407959,-0.6951441764831543
1789323340311319800,1.54431982421875,1.908974051475525,-0.46668729186058044,-1.087918996810913
1789323340330170400,1.56317041015625,1.2216944694519043,0.4074351191520691,1.30476975440979
1789323340349021200,1.582021240234375,0.2883199155330658,1.334777593612671,0.92054682970047
1789323340367872000,1.6008720703125,0.6108472347259521,1.2595670223236084,0.13866232335567474
1789323340386722800,1.619722900390625,1.3567681312561035,-0.08674030750989914,0.20157960057258606
1789323340405573400,1.638573486328125,1.863160490989685,-0.730573296546936,-0.11483928561210632
1789323340424424200,1.657424072265625,2.171638250350952,-0.9639169573783875,-0.05619794875383377
1789323340443275000,1.67627490234375,2.2473833560943604,-0.36162158846855164,-0.11056335270404816
1789323340462125800,1.695125732421875,1.7495429515838623,-0.9150491952896118,-0.2101314514875412
1789323340480976600,1.7139765625,1.0848647356033325,-1.054322361946106,-0.29565006494522095
1789323340499827200,1.7328271484375,0.0030542362947016954,-1.2565127611160278,-0.2901524603366852
1789323340518678000,1.751677978515625,-0.7531746625900269,-0.9675820469856262,0.1563768982887268
1789323340537528800,1.77052880859375,-1.355546474456787,-0.5033381581306458,0.30847787857055664
1789323340556379600,1.789379638671875,-1.9816648960113525,-0.3151971995830536,0.18569757044315338
1789323340575230200,1.808230224609375,-2.231501340866089,0.92054682970047,0.12339114397764206
1789323340594081000,1.8270810546875,-2.0946714878082275,1.8405591249465942,-0.10078980028629303
1789323340612931800,1.845931884765625,-1.7122812271118164,0.4416425824165344,-0.1588202863931656
1789323340631782700,1.86478271484375,-1.784972071647644,-0.2724378705024719,-0.09712471067905426
1789323340650633500,1.883633544921875,-1.9627286195755005,0.17225892841815948,-0.03542914241552353
1789323340669484300,1.902484375,-1.6829605102539062,0.809983491897583,0.11117420345544815
1789323340688334800,1.9213349609375,-1.1960389614105225,1.6420338153839111,0.05925218388438225
1789323340707185700,1.940185546875,-1.5314704179763794,2.56135892868042,-0.21440738439559937
1789323340726036500,1.959036376953125,-1.625540852546692,2.6737546920776367,-0.5839699506759644
1789323340744887300,1.97788720703125,-1.3793694972991943,1.7599272727966309,-0.8747332692146301
1789323340763738000,1.996738037109375,-0.6487197875976562,1.2467392683029175,-0.9327637553215027
1789323340782589000,2.0155888671875,-0.007330167107284069,0.8900044560432434,-0.994459331035614
1789323340801439500,2.034439453125,-0.09651386737823486,-0.4343124032020569,-0.781884491443634
1789323340820290300,2.053290283203125,-0.23884128034114838,-0.6371136903762817,-0.7965448498725891
1789323340839141000,2.07214111328125,-0.5876350402832031,0.2626643180847168,-0.9559759497642517
1789323340857992000,2.090991943359375,-1.7416019439697266,-1.4734399318695068,-0.48012593388557434
1789323340876842800,2.1098427734375,-2.8557872772216797,-1.0976924896240234,0.03787253051996231
1789323340895693600,2.128693603515625,-3.255892276763916,-2.3548924922943115,-0.11178504675626755
1789323340914544400,2.14754443359375,-4.356715202331543,-2.66275954246521,-0.3310792148113251
1789323340933395200,2.166395263671875,-4.05312442779541,-1.9444031715393066,-0.6963658928871155
1789323340952246000,2.18524609375,-2.9449710845947266,0.09895725548267365,0.34635040163993835
1789323340971096800,2.204096923828125,-2.8588414192199707,0.6487197875976562,2.3402321338653564
1789323340989947400,2.222947509765625,-1.5803382396697998,0.13927318155765533,3.189920663833618
1789323341008798200,2.241798095703125,-0.13805148005485535,0.9859074950218201,2.5595264434814453
1789323341027649000,2.26064892578125,0.5357130169868469,2.0018227100372314,1.8625496625900269
1789323341046499800,2.279499755859375,0.6206207871437073,1.1868761777877808,1.2369656562805176
1789323341065350700,2.2983505859375,0.6969767212867737,0.49295374751091003,1.0983033180236816
1789323341084201500,2.317201416015625,0.8014315962791443,0.4086568057537079,1.3586006164550781
1789323341103052300,2.33605224609375,0.7824953198432922,0.3304683566093445,1.7397693395614624
1789323341121903000,2.354903076171875,0.8270871639251709,-0.629172682762146,2.148426055908203
1789323341140754000,2.37375390625,0.7195780873298645,-1.349437952041626,2.413533926010132
1789323341159604700,2.392604736328125,0.5870242118835449,-1.2271921634674072,2.480726957321167
1789323341178455600,2.41145556640625,0.633448600769043,-0.9278770089149475,2.4526281356811523
1789323341197306400,2.430306396484375,0.7562289237976074,-0.577861487865448,2.269984722137451
1789323341216157200,2.4491572265625,0.7941014170646667,-0.5790832042694092,2.2974729537963867
1789323341235008000,2.468008056640625,0.8820634484291077,-0.916270911693573,2.552807092666626
1789323341253858800,2.48685888671875,0.6908682584762573,-1.5418548583984375,2.572964906692505
1789323341272709600,2.505709716796875,0.5570927262306213,-1.6023286581039429,2.1667516231536865
1789323341291560400,2.524560546875,0.5393781065940857,-0.9064973592758179,1.7073944807052612
1789323341310411300,2.543411376953125,0.5375455617904663,-0.16859383881092072,1.2693406343460083
1789323341329262000,2.562261962890625,0.5387672781944275,0.0910162404179573,0.8619054555892944
1789323341348113000,2.58111279296875,0.4593571424484253,0.08551861345767975,0.47768256068229675
1789323341366963700,2.599963623046875,0.31825143098831177,0.25289076566696167,0.22906772792339325
1789323341385814500,2.618814453125,0.2363978922367096,0.4031592011451721,-0.04337015375494957
1789323341404665300,2.637665283203125,0.24372805655002594,0.48073679208755493,-0.4031592011451721
1789323341423516200,2.65651611328125,-0.012216945178806782,0.5760289430618286,-0.6725428104400635
1789323341442367000,2.675366943359375,-0.2241809368133545,0.7702783942222595,-0.9309312105178833
1789323341461218000,2.694218017578125,-0.42514967918395996,0.7941014170646667,-1.2638429403305054
1789323341480068900,2.71306884765625,-0.5674771070480347,0.7153021693229675,-1.4471734762191772
1789323341498919700,2.731919677734375,-0.7647807598114014,0.679872989654541,-1.6841822862625122
1789323341517770500,2.7507705078125,-0.9602518677711487,0.5980194807052612,-1.8258987665176392
1789323341536621300,2.769621337890625,-1.068982720375061,0.4837910234928131,-1.8796533346176147
1789323341555472100,2.78847216796875,-1.1997040510177612,0.33352261781692505,-1.9053089618682861
1789323341574323000,2.807322998046875,-1.3518813848495483,0.29381752014160156,-1.9150824546813965
1789323341593173800,2.826173828125,-1.4221287965774536,0.1850867122411728,-2.006098747253418
1789323341612024600,2.845024658203125,-1.4538928270339966,-0.1050657257437706,-2.171638250350952
1789323341630875600,2.863875732421875,-1.4154094457626343,-0.4318690001964569,-2.257767915725708
1789323341649726500,2.8827265625,-1.3310362100601196,-0.5027272701263428,-2.3115224838256836
1789323341668577300,2.901577392578125,-1.1716049909591675,-0.6872031688690186,-2.234555721282959
1789323341687428000,2.920427978515625,-0.8570187091827393,-0.8741224408149719,-2.1142187118530273
1789323341706279000,2.93927880859375,-0.5540384650230408,-1.007897973060608,-2.066572666168213
1789323341725129700,2.958129638671875,-0.3384093940258026,-1.0231691598892212,-2.0305325984954834
1789323341743980500,2.97698046875,-0.13316470384597778,-0.8612946271896362,-1.8839292526245117
1789323341762831400,2.995831298828125,0.06963659077882767,-0.7391251921653748,-1.6499748229980469
1789323341781682400,3.014682373046875,0.25472331047058105,-0.5864133834838867,-1.3249276876449585
1789323341800533200,3.033533203125,0.44042086601257324,-0.37444937229156494,-1.0598199367523193
1789323341819384000,3.052384033203125,0.45080527663230896,-0.25350162386894226,-0.7372926473617554
1789323341838235000,3.07123486328125,0.3897205591201782,-0.14049486815929413,-0.3298575282096863
1789323341857085700,3.090085693359375,0.34818294644355774,0.10262233763933182,0.1172826737165451
1789323341875936500,3.1089365234375,0.4074351191520691,0.1979145109653473,0.5491516590118408
1789323341894787600,3.12778759765625,0.3927747905254364,0.237008735537529,0.916270911693573
1789323341913638400,3.146638427734375,0.3555130958557129,0.2718270421028137,1.1728267669677734
1789323341932489200,3.1654892578125,0.4031592011451721,0.4337015450000763,1.3421077728271484
1789323341951340000,3.184340087890625,0.43797749280929565,0.4691306948661804,1.3885321617126465
1789323341970190800,3.20319091796875,0.42881476879119873,0.474017471075058,1.266897201538086
1789323341989042000,3.2220419921875,0.418430358171463,0.5076140761375427,1.0970816612243652
1789323342007892700,3.240892822265625,0.42759308218955994,0.43919917941093445,1.0445488691329956
1789323342026743600,3.25974365234375,0.5027272701263428,0.2730487287044525,1.1716049909591675
1789323342045594400,3.278594482421875,0.6328377723693848,0.1325538605451584,1.3543246984481812
1789323342064445400,3.297445556640625,0.7898254990577698,-0.06169557198882103,1.52475106716156
1789323342083296300,3.316296142578125,0.9290986657142639,-0.16187451779842377,1.6011070013046265
1789323342102147000,3.33514697265625,0.9840749502182007,-0.2864873707294464,1.5876684188842773
1789323342120998000,3.353997802734375,0.9639169573783875,-0.27976804971694946,1.6206541061401367
1789323342139849000,3.372848876953125,0.8729007244110107,-0.4330907166004181,1.8326181173324585
1789323342158699800,3.39169970703125,0.791047215461731,-0.5870242118835449,2.0421388149261475
1789323342177550600,3.410550537109375,0.7299624681472778,-0.684759795665741,2.103834390640259
1789323342196401400,3.4294013671875,0.7501204609870911,-0.7623373866081238,2.174081802368164
1789323342215252200,3.448252197265625,0.6389462351799011,-1.0671501159667969,2.287088394165039
1789323342234103300,3.467103271484375,0.5320479869842529,-1.419074535369873,2.2687630653381348
1789323342252954000,3.4859541015625,0.5717530250549316,-0.9046648144721985,1.806962490081787
1789323342271805200,3.50480517578125,0.578472375869751,-0.26694026589393616,1.5601803064346313
1789323342290656000,3.523656005859375,0.5491516590118408,-0.11117420345544815,1.2931636571884155
1789323342309506800,3.5425068359375,0.4844018816947937,-0.06047387793660164,0.9938485026359558
1789323342328357600,3.561357666015625,0.4727957844734192,0.2089097648859024,0.7006418108940125
1789323342347208700,3.580208740234375,0.37261682748794556,0.30481278896331787,0.45263782143592834
1789323342366059500,3.5990595703125,0.29320669174194336,0.4947862923145294,0.1954711228609085
1789323342384910300,3.617910400390625,0.11606097966432571,0.3817795515060425,-0.15149012207984924
1789323342403761400,3.636761474609375,-0.01588202826678753,0.4080459773540497,-0.605960488319397
1789323342422612200,3.6556123046875,-0.17286977171897888,0.5265503525733948,-0.9193251132965088
1789323342441463000,3.674463134765625,-0.32374903559684753,0.6395570635795593,-1.1441168785095215
1789323342460314000,3.693314208984375,-0.48806697130203247,0.7617265582084656,-1.4734399318695068
1789323342479165000,3.7121650390625,-0.6969767212867737,0.6957550048828125,-1.709837794303894
1789323342498015700,3.731015625,-0.9413156509399414,0.7727217674255371,-1.839948296546936
1789323342516866800,3.74986669921875,-1.1795459985733032,0.7525638341903687,-1.9499008655548096
1789323342535717600,3.768717529296875,-1.3763152360916138,0.6859814524650574,-1.9254668951034546
1789323342554568400,3.787568359375,-1.4325132369995117,0.5210527181625366,-1.9346296787261963
1789323342573419500,3.80641943359375,-1.4716074466705322,0.31031039357185364,-2.026256799697876
1789323342592270300,3.825270263671875,-1.4997063875198364,-0.08612946420907974,-2.020148277282715
1789323342611121200,3.84412109375,-1.4477843046188354,-0.3023693859577179,-2.0458037853240967
1789323342629972200,3.86297216796875,-1.3818128108978271,-0.46424391865730286,-2.188742160797119
1789323342648823000,3.881822998046875,-1.3145432472229004,-0.7067502737045288,-2.246772527694702
1789323342667673900,3.900673828125,-1.1477819681167603,-0.8319739699363708,-2.3396213054656982
1789323342686525000,3.91952490234375,-0.8759549856185913,-0.896723747253418,-2.379937171936035
1789323342705375700,3.938375732421875,-0.577861487865448,-0.8887827396392822,-2.2876992225646973
1789323342724226800,3.957226806640625,-0.36162158846855164,-0.7556180357933044,-2.0635182857513428
1789323342743077600,3.97607763671875,-0.08185353130102158,-0.6774296164512634,-1.7758092880249023
1789323342761928400,3.994928466796875,0.23823043704032898,-0.4679090082645416,-1.409911870956421
1789323342780779500,4.013779541015625,0.4172086715698242,-0.21562908589839935,-0.9419264793395996
1789323342799630300,4.03263037109375,0.4220954477787018,-0.04581354558467865,-0.4056025743484497
1789323342818481400,4.0514814453125,0.4049917459487915,-0.03176405653357506,0.0922379344701767
1789323342837332200,4.070332275390625,0.3970507085323334,-0.07757759839296341,0.39766156673431396
1789323342856183000,4.08918310546875,0.4349232614040375,-0.062306419014930725,0.6432221531867981
1789323342875034000,4.1080341796875,0.43858832120895386,0.04459185153245926,0.8991671800613403
1789323342893885000,4.126885009765625,0.42453885078430176,0.18814095854759216,1.1587772369384766
1789323342912736000,4.145736083984375,0.4049917459487915,0.4343124032020569,1.3267602920532227
1789323342931586800,4.1645869140625,0.35856732726097107,0.37689274549484253,1.3750935792922974
1789323342950438000,4.18343798828125,0.2498365342617035,0.37200596928596497,1.3659307956695557
1789323342969288700,4.202288818359375,0.17897824943065643,0.291374146938324,1.364098310470581
1789323342988139500,4.221139404296875,0.17592400312423706,0.2877090573310852,1.478326678276062
1789323343006990600,4.239990478515625,0.3054236173629761,0.20096874237060547,1.6896798610687256
1789323343025841400,4.25884130859375,0.5601469278335571,0.1319430023431778,1.9040873050689697
1789323343044692500,4.2776923828125,0.7898254990577698,-0.04214845970273018,2.040917158126831
1789323343063543300,4.296543212890625,0.9126058220863342,-0.1172826737165451,2.0140397548675537
1789323343082394400,4.315394287109375,0.994459331035614,-0.265718549489975,1.9859408140182495
1789323343101245200,4.3342451171875,0.9718579649925232,-0.38605546951293945,2.0659618377685547
1789323343120096300,4.35309619140625,0.9089407324790955,-0.469741553068161,2.0390844345092773
1789323343138947000,4.371947021484375,0.9303203821182251,-0.4318690001964569,2.014650583267212
1789323343157798100,4.390798095703125,0.8936695456504822,-0.5741963982582092,2.108110189437866
1789323343176649000,4.40964892578125,0.7678350210189819,-1.1349542140960693,2.127046585083008
1789323343195499800,4.428499755859375,0.7006418108940125,-1.2442958354949951,1.9963252544403076
1789323343214350800,4.447350830078125,0.7519529461860657,-0.7776085734367371,1.7678682804107666
1789323343233201700,4.46620166015625,0.8386932611465454,-0.3151971995830536,1.5412440299987793
1789323343252052700,4.485052734375,0.7983773946762085,-0.182643324136734,1.2302464246749878
1789323343270903800,4.50390380859375,0.6493306159973145,-0.06352811306715012,0.8081509470939636
1789323343289754600,4.522754638671875,0.3536805510520935,0.031153209507465363,0.48806697130203247
1789323343308605700,4.541605712890625,0.15332266688346863,0.1973036676645279,0.2718270421028137
1789323343327456500,4.56045654296875,0.14904673397541046,0.4080459773540497,0.06047387793660164
1789323343346307600,4.5793076171875,0.20524467527866364,0.5442649126052856,-0.3573456406593323
1789323343365158400,4.598158447265625,0.10934165865182877,0.4874561131000519,-0.712247908115387
1789323343384009500,4.617009521484375,-0.08368607610464096,0.5253286361694336,-0.9749122262001038
1789323343402860300,4.6358603515625,-0.2858765125274658,0.605960488319397,-1.345162034034729
1789323343421711400,4.65471142578125,-0.4489727318286896,0.8625163435935974,-1.723887324333191
1789323343440562200,4.673562255859375,-0.6542174220085144,0.9376505613327026,-1.9957143068313599
1789323343459413200,4.692413330078125,-0.8399149775505066,0.9284878373146057,-2.153312921524048
1789323343478264000,4.71126416015625,-1.0237799882888794,0.8680139780044556,-2.2657089233398438
1789323343497115100,4.730115234375,-1.2363548278808594,0.8295305967330933,-2.228447198867798
1789323343515966000,4.748966064453125,-1.3488271236419678,0.7287407517433167,-2.2876992225646973
1789323343534817000,4.767817138671875,-1.405635952949524,0.4056025743484497,-2.321906805038452
1789323343553668000,4.786668212890625,-1.42335045337677,-0.05925218388438225,-2.393375873565674
1789323343572519000,4.805518798828125,-1.400138258934021,-0.365286648273468,-2.4330809116363525
1789323343591370000,4.824369873046875,-1.221083641052246,-0.6872031688690186,-2.3774938583374023
1789323343610220800,4.843220703125,-0.8887827396392822,-0.897334635257721,-2.367720365524292
1789323343629072000,4.86207177734375,-0.554649293422699,-0.9596410393714905,-2.3927650451660156
1789323343647922700,4.880922607421875,-0.3836120665073395,-0.8570187091827393,-2.3597793579101562
1789323343666773800,4.899773681640625,-0.3402419090270996,-0.5540384650230408,-2.1380417346954346
1789323343685624600,4.91862451171875,-0.20463383197784424,-0.2919849753379822,-1.7336609363555908
1789323343704475600,4.9374755859375,0.02748812735080719,-0.029320668429136276,-1.3616548776626587
1789323343723326700,4.95632666015625,0.14721418917179108,0.17958909273147583,-0.9865183234214783
1789323343742177500,4.975177490234375,0.09712471067905426,0.06719319522380829,-0.48806697130203247
1789323343761028600,4.994028564453125,0.12216944992542267,0.11422843486070633,-0.014660334214568138
1789323343779879400,5.01287939453125,0.2596100866794586,0.16737215220928192,0.41110020875930786
1789323343798730500,5.03173046875,0.40254834294319153,0.17409147322177887,0.7806627750396729
1789323343817581600,5.05058154296875,0.42759308218955994,0.16798299551010132,1.0726478099822998
1789323343836432400,5.069432373046875,0.4074351191520691,0.183865025639534,1.3206517696380615
1789323343855283500,5.088283447265625,0.36284327507019043,0.2241809368133545,1.4819917678833008
1789323343874134300,5.10713427734375,0.31031039357185364,0.3384093940258026,1.49848473072052
1789323343892985300,5.1259853515625,0.28282228112220764,0.4489727318286896,1.4447301626205444
1789323343911836400,5.14483642578125,0.22662433981895447,0.5063923597335815,1.4832135438919067
1789323343930687200,5.163687255859375,0.19302773475646973,0.4587462842464447,1.6762412786483765
1789323343949538300,5.182538330078125,0.265718549489975,0.41476529836654663,1.8698798418045044
1789323343968389000,5.20138916015625,0.41293275356292725,0.31886225938796997,1.968837022781372
1789323343987240200,5.220240234375,0.6236750483512878,0.25716668367385864,1.965782880783081
1789323344006091300,5.23909130859375,0.8130376935005188,0.21746163070201874,1.9749455451965332
1789323344024942000,5.257942138671875,0.9590302109718323,0.16798299551010132,2.0543556213378906
1789323344043793200,5.276793212890625,1.032942771911621,-0.056808795779943466,2.2418859004974365
1789323344062644200,5.295644287109375,1.009730577468872,-0.3640649616718292,2.3628334999084473
1789323344081495000,5.3144951171875,0.9846857786178589,-0.4605788290500641,2.338399648666382
1789323344100346000,5.33334619140625,0.7959339618682861,-0.9663603901863098,2.326793670654297
1789323344119197200,5.352197265625,0.6126797795295715,-1.3482162952423096,2.312133312225342
1789323344138048000,5.371048095703125,0.5638120174407959,-1.0298885107040405,2.09039568901062
1789323344156899000,5.389899169921875,0.5296045541763306,-0.45263782143592834,1.73732590675354
1789323344175750000,5.40875,0.45447036623954773,-0.25289076566696167,1.3689850568771362
1789323344194601000,5.42760107421875,0.4312581717967987,-0.13744063675403595,0.9028322696685791
1789323344213452000,5.4464521484375,0.3011476993560791,-0.08918370306491852,0.5112791657447815
1789323344232302800,5.465302734375,0.19241689145565033,-0.1557660549879074,0.2516690790653229
1789323344251154000,5.48415380859375,0.15943112969398499,-0.06902574002742767,0.017714571207761765
1789323344270005000,5.5030048828125,0.07024743407964706,0.0006108472589403391,-0.2999260127544403
1789323344288856000,5.52185595703125,-0.05070032179355621,0.17409147322177887,-0.6468872427940369
1789323344307707000,5.540706787109375,-0.17836740612983704,0.3897205591201782,-0.9938485026359558
1789323344326558000,5.559557861328125,-0.3035911023616791,0.6383354067802429,-1.3029371500015259
1789323344345409000,5.578408935546875,-0.44103172421455383,0.8350282311439514,-1.637147068977356
1789323344364259800,5.597259765625,-0.5900784730911255,0.9633061289787292,-1.9346296787261963
1789323344383111000,5.61611083984375,-0.781884491443634,1.0274450778961182,-2.1319332122802734
1789323344401962000,5.6349619140625,-1.0341644287109375,1.0512681007385254,-2.2596004009246826
1789323344420812800,5.653812744140625,-1.2662863731384277,0.8399149775505066,-2.23760986328125
1789323344439663900,5.672663818359375,-1.4502277374267578,0.5711421966552734,-2.2211170196533203
1789323344458515000,5.691514892578125,-1.6023286581039429,0.18936264514923096,-2.168584108352661
1789323344477366000,5.710365966796875,-1.5803382396697998,-0.182643324136734,-2.3432865142822266
1789323344496216800,5.729216796875,-1.3903647661209106,-0.43981003761291504,-2.431248426437378
1789323344515068000,5.74806787109375,-1.1227372884750366,-0.6285618543624878,-2.445297956466675
1789323344533919000,5.7669189453125,-0.856407880783081,-0.818535327911377,-2.4379677772521973
1789323344552769800,5.785769775390625,-0.5882459282875061,-0.9376505613327026,-2.397041082382202
1789323344571620900,5.804620849609375,-0.3817795515060425,-0.8307522535324097,-2.21134352684021
1789323344590472000,5.823471923828125,-0.2095206081867218,-0.5448757410049438,-1.8698798418045044
1789323344609322800,5.84232275390625,-0.0024433890357613564,-0.3286358118057251,-1.4557254314422607
1789323344628173800,5.861173828125,0.1979145109653473,-0.12583453953266144,-1.081810474395752
1789323344647025000,5.88002490234375,0.27854636311531067,-0.14660334587097168,-0.684759795665741
1789323344665875700,5.898875732421875,0.2718270421028137,-0.056808795779943466,-0.20219044387340546
1789323344684726800,5.917726806640625,0.34696123003959656,0.07146912813186646,0.21807247400283813
1789323344703577900,5.936577880859375,0.45447036623954773,0.16065283119678497,0.5796940326690674
1789323344722429000,5.955428955078125,0.43614494800567627,0.21562908589839935,0.8448017835617065
1789323344741279700,5.97427978515625,0.3665083646774292,0.20646637678146362,1.0628741979599
1789323344760130800,5.993130859375,0.3506263196468353,0.21868331730365753,1.1948171854019165
1789323344778982000,6.01198193359375,0.3268032968044281,0.1557660549879074,1.2571237087249756
1789323344797833000,6.0308330078125,0.3029802441596985,0.056808795779943466,1.345162034034729
1789323344816683800,6.049683837890625,0.32069480419158936,0.04886778071522713,1.5039823055267334
1789323344835534800,6.068534912109375,0.37078428268432617,0.10323318839073181,1.6817388534545898
1789323344854386000,6.087385986328125,0.4819584786891937,0.10689827054738998,1.8546086549758911
1789323344873237000,6.106237060546875,0.6988092660903931,0.10995250940322876,1.993270993232727
1789323344892087800,6.125087890625,0.8991671800613403,0.08918370306491852,2.1386525630950928
1789323344910939000,6.14393896484375,1.0133955478668213,-0.12155860662460327,2.200348138809204
1789323344929790000,6.1627900390625,1.0451596975326538,-0.29565006494522095,2.2064566612243652
1789323344948641000,6.18164111328125,0.9895725846290588,-0.3787252902984619,2.19179630279541
1789323344967491800,6.200491943359375,0.9040539264678955,-0.42576053738594055,2.180190324783325
1789323344986343000,6.219343017578125,0.7892146706581116,-0.5607577562332153,2.191185474395752
1789323345005194000,6.238194091796875,0.6352811455726624,-0.8686248064041138,2.1704165935516357
1789323345024045000,6.257045166015625,0.6090146899223328,-0.8875610828399658,2.0012118816375732
1789323345042896000,6.275895751953125,0.7214106321334839,-0.4459185004234314,1.7990214824676514
1789323345061747000,6.294746826171875,0.8173136115074158,-0.1557660549879074,1.353713870048523
1789323345080598000,6.313597900390625,0.7281299233436584,-0.2602209448814392,1.0439379215240479
1789323345099449000,6.332448974609375,0.5564818382263184,-0.237008735537529,0.7091936469078064
1789323345118300200,6.351300048828125,0.45508119463920593,-0.17409147322177887,0.3915531039237976
1789323345137151000,6.37015087890625,0.32130566239356995,-0.12339114397764206,0.08063183724880219
1789323345156002000,6.389001953125,0.21868331730365753,0.037261683493852615,-0.1844758689403534
1789323345174853000,6.40785302734375,0.10811996459960938,0.22723518311977386,-0.4715740978717804
1789323345193704200,6.4267041015625,-0.02748812735080719,0.4434750974178314,-0.7488987445831299
1789323345212555300,6.44555517578125,-0.18997350335121155,0.624285876750946,-1.1025793552398682
1789323345231406000,6.464406005859375,-0.337798535823822,0.8435800671577454,-1.4832135438919067
1789323345259682800,6.492682861328125,-0.648108959197998,1.2522368431091309,-1.9896059036254883
1789323345278533600,6.51153369140625,-0.9040539264678955,1.2644537687301636,-2.1820228099823
1789323345297384700,6.530384765625,-1.207645058631897,1.147171139717102,-2.258378744125366
1789323345316235800,6.54923583984375,-1.4306806325912476,0.9749122262001038,-2.350616693496704
1789323345335086800,6.5680869140625,-1.6218758821487427,0.5815265774726868,-2.381769895553589
1789323345353937700,6.586937744140625,-1.7049510478973389,-0.007941014133393764,-2.4562931060791016
1789323345372788700,6.605788818359375,-1.6340928077697754,-0.4618005156517029,-2.523486375808716
1789323345391639800,6.624639892578125,-1.2968287467956543,-0.5644228458404541,-2.608394145965576
1789323345410491000,6.643490966796875,-0.8612946271896362,-0.5436540842056274,-2.6578726768493652
1789323345429342000,6.662342041015625,-0.6279509663581848,-0.582748293876648,-2.6242761611938477
1789323345448192800,6.68119287109375,-0.5479300022125244,-0.610236406326294,-2.4898898601531982
1789323345467043800,6.7000439453125,-0.36223241686820984,-0.49112120270729065,-2.232112169265747
1789323345485895000,6.71889501953125,-0.08246438205242157,-0.182643324136734,-1.8515543937683105
1789323345504746000,6.73774609375,0.14782503247261047,0.051922015845775604,-1.340886116027832
1789323345523597000,6.75659716796875,0.22967857122421265,0.13621893525123596,-0.7183563709259033
1789323345542447900,6.77544775390625,0.19180603325366974,0.1575985997915268,-0.09284878522157669
1789323345561299000,6.794298828125,0.1979145109653473,0.1850867122411728,0.35978904366493225
1789323345580150000,6.81314990234375,0.29320669174194336,0.2864873707294464,0.7207997441291809
1789323345599001000,6.8320009765625,0.33169007301330566,0.37078428268432617,1.0072871446609497
1789323345617852200,6.85085205078125,0.31886225938796997,0.4037700295448303,1.2693406343460083
1789323345636703200,6.869703125,0.2779355049133301,0.33352261781692505,1.4569470882415771
1789323345655554000,6.888553955078125,0.21562908589839935,0.31031039357185364,1.5626236200332642
1789323345674405000,6.907405029296875,0.16187451779842377,0.2351761907339096,1.6786845922470093
1789323345693256200,6.926256103515625,0.16615045070648193,0.2724378705024719,1.7507646083831787
1789323345712107300,6.945107177734375,0.2113531529903412,0.3286358118057251,1.784972071647644
1789323345730958300,6.963958251953125,0.4068242609500885,0.3665083646774292,1.8845402002334595
1789323345749809200,6.98280908203125,0.6700994372367859,0.43614494800567627,1.9798322916030884
1789323345768660200,7.00166015625,0.8802309036254883,0.42514967918395996,1.9590635299682617
1789323345787511300,7.02051123046875,0.9889616966247559,0.13316470384597778,2.0421388149261475
1789323345806362400,7.0393623046875,1.018282413482666,-0.2101314514875412,2.2064566612243652
1789323345825213400,7.05821337890625,1.0665392875671387,-0.41232189536094666,2.3090789318084717
1789323345844064500,7.077064453125,1.0610417127609253,-0.3243598937988281,2.3573360443115234
1789323345862915600,7.09591552734375,0.9938485026359558,-0.4355340898036957,2.425139904022217
1789323345881766400,7.114766357421875,0.7855495810508728,-0.943759024143219,2.390932559967041
1789323345900617500,7.133617431640625,0.6933116316795349,-1.109298586845398,2.139874219894409
1789323345919468500,7.152468505859375,0.6890357136726379,-0.6878139972686768,1.728163242340088
1789323345938319600,7.171319580078125,0.6132906675338745,-0.4037700295448303,1.3524922132492065
1789323345957170700,7.190170654296875,0.4868452548980713,-0.3500154912471771,0.9718579649925232
1789323345976021800,7.209021728515625,0.28282228112220764,-0.284654825925827,0.6529957056045532
1789323345994872800,7.227872802734375,0.06841489672660828,-0.15210096538066864,0.49051034450531006
1789323346013723600,7.2467236328125,-0.004886778071522713,-0.01710372418165207,0.1850867122411728
1789323346032574700,7.26557470703125,-0.06291726976633072,0.17775654792785645,-0.23884128034114838
1789323346051425800,7.28442578125,-0.1850867122411728,0.32252734899520874,-0.6707102656364441
1789323346070276900,7.30327685546875,-0.3268032968044281,0.5473191738128662,-1.0757020711898804
1789323346089128000,7.3221279296875,-0.48928865790367126,0.8533536195755005,-1.4080792665481567
1789323346107979000,7.34097900390625,-0.6878139972686768,1.064706802368164,-1.6817388534545898
1789323346126830000,7.359830078125,-0.9462023973464966,1.152668833732605,-1.9535658359527588
1789323346145681000,7.378680908203125,-1.2155860662460327,1.100746750831604,-2.1056668758392334
1789323346164532000,7.397531982421875,-1.5461307764053345,1.0811996459960938,-2.1288790702819824
1789323346183383000,7.416383056640625,-1.7861937284469604,0.8118160367012024,-2.1386525630950928
1789323346202234000,7.435234130859375,-1.9309645891189575,0.37261682748794556,-2.0946714878082275
1789323346221085200,7.454085205078125,-1.9810540676116943,-0.007941014133393764,-2.1643083095550537
1789323346239936300,7.472936279296875,-1.871712327003479,-0.29626092314720154,-2.3774938583374023
1789323346258787000,7.491787109375,-1.6249300241470337,-0.7941014170646667,-2.4538497924804688
1789323346277638100,7.51063818359375,-1.2284138202667236,-1.0799779891967773,-2.6187784671783447
1789323346296489200,7.5294892578125,-0.7806627750396729,-1.1178505420684814,-2.6407690048217773
1789323346315340300,7.54834033203125,-0.45508119463920593,-0.8069292306900024,-2.3078572750091553
1789323346334191400,7.56719140625,-0.24311721324920654,-0.3823903799057007,-1.8423917293548584
1789323346353042400,7.58604248046875,-0.06963659077882767,-0.1441599577665329,-1.428848147392273
1789323346371893500,7.6048935546875,0.030542362481355667,-0.022601349279284477,-1.0158389806747437
1789323346390744600,7.62374462890625,0.12339114397764206,0.02076880633831024,-0.5821374654769897
1789323346409595600,7.642595703125,0.22479179501533508,0.021990500390529633,-0.12461283802986145
1789323346428446500,7.661446533203125,0.3775036036968231,0.08429691940546036,0.2583884000778198
1789323346447297500,7.680297607421875,0.45324867963790894,0.16187451779842377,0.555260181427002
1789323346466148600,7.699148681640625,0.45019441843032837,0.06169557198882103,0.8857285380363464
1789323346484999700,7.717999755859375,0.37322768568992615,-0.053143709897994995,1.2241379022598267
1789323346503850800,7.736850830078125,0.3365768492221832,-0.17897824943065643,1.442286729812622
1789323346522701800,7.755701904296875,0.3035911023616791,-0.07085828483104706,1.5253620147705078
1789323346541553000,7.774552978515625,0.2883199155330658,0.08185353130102158,1.6078263521194458
1789323346560404000,7.793404052734375,0.3268032968044281,0.1569877415895462,1.7000643014907837
1789323346579254800,7.8122548828125,0.42698222398757935,0.1954711228609085,1.7874153852462769
1789323346598105900,7.83110595703125,0.6346703171730042,0.23212195932865143,1.908974051475525
1789323346616957000,7.84995703125,0.8729007244110107,0.08002099394798279,1.9523441791534424
1789323346635808000,7.86880810546875,1.0146173238754272,-0.07146912813186646,2.0427496433258057
1789323346654659000,7.8876591796875,1.0506572723388672,-0.42453885078430176,2.2192845344543457
1789323346673510100,7.90651025390625,1.0280559062957764,-0.6456655263900757,2.3695528507232666
1789323346692361200,7.925361328125,1.003622055053711,-0.5351021885871887,2.356724977493286
1789323346711212300,7.94421240234375,0.9895725846290588,-0.45508119463920593,2.2797582149505615
1789323346730063400,7.9630634765625,0.9400939345359802,-0.5589252710342407,2.266319751739502
1789323346748914200,7.9819140625,0.8802309036254883,-0.9761339426040649,2.1905746459960938
1789323346767765200,8.00076513671875,0.8582404255867004,-0.8044858574867249,1.9382946491241455
1789323346786616300,8.0196162109375,0.70797199010849,-0.5796940326690674,1.6029396057128906
1789323346805467400,8.03846728515625,0.6786513328552246,-0.42698222398757935,1.5668995380401611
1789323346824318500,8.057318359375,0.6548282504081726,-0.2883199155330658,1.285833477973938
1789323346843169500,8.07616943359375,0.605960488319397,-0.24556060135364532,0.7146912813186646
1789323346862020600,8.0950205078125,0.3127537965774536,-0.2864873707294464,0.18019993603229523
1789323346880871700,8.11387158203125,0.1172826737165451,-0.09773556143045425,-0.26632940769195557
1789323346899722800,8.13272265625,-0.010995250195264816,0.21196399629116058,-0.5656445622444153
1789323346918573800,8.15157373046875,-0.09712471067905426,0.5112791657447815,-0.9352071285247803
1789323346937424600,8.170424560546875,-0.20768806338310242,0.8258655071258545,-1.3206517696380615
1789323346956275700,8.189275634765625,-0.34696123003959656,0.9272661209106445,-1.7226656675338745
1789323346975126800,8.208126708984375,-0.5143333673477173,1.0885298252105713,-2.0745136737823486
1789323346993977900,8.226977783203125,-0.8533536195755005,1.132510781288147,-2.3341238498687744
1789323347012829000,8.245828857421875,-1.2216944694519043,1.1874871253967285,-2.370774507522583
1789323347031680000,8.264679931640625,-1.4135769605636597,1.285833477973938,-2.451406478881836
1789323347050531000,8.283531005859375,-1.5424656867980957,0.8130376935005188,-2.4306375980377197
1789323347069382100,8.302382080078125,-1.714113712310791,-0.08612946420907974,-2.4434654712677
1789323347088233200,8.321233154296875,-1.7263307571411133,-0.37139514088630676,-2.7372829914093018
1789323347107084300,8.340084228515625,-1.520475149154663,-0.48806697130203247,-2.747056484222412
1789323347125935000,8.35893505859375,-1.1099094152450562,-0.6572716236114502,-2.7568299770355225
1789323347144786200,8.3777861328125,-0.7018635272979736,-0.7941014170646667,-2.717735767364502
1789323347163637200,8.39663720703125,-0.46729815006256104,-0.7806627750396729,-2.556472063064575
1789323347182488300,8.41548828125,-0.208298921585083,-0.5815265774726868,-2.2064566612243652
1789323347201339400,8.43433935546875,0.038483377546072006,-0.37322768568992615,-1.7177788019180298
1789323347220190500,8.4531904296875,0.23028941452503204,-0.2510582208633423,-1.2235270738601685
1789323347239041500,8.47204150390625,0.3292466700077057,-0.12705622613430023,-0.7036960124969482
1789323347257892600,8.490892578125,0.3268032968044281,0.1582094430923462,-0.21562908589839935
1789323347276743400,8.509743408203125,0.35795649886131287,0.23028941452503204,0.1820324808359146
1789323347295594500,8.528594482421875,0.3830012381076813,0.0910162404179573,0.517998456954956
1789323347314445600,8.547445556640625,0.3683409094810486,0.11667182296514511,0.8075400590896606
1789323347333296600,8.566296630859375,0.38605546951293945,0.20402298867702484,1.063485026359558
1789323347352147700,8.585147705078125,0.3915531039237976,0.29442837834358215,1.2369656562805176
1789323347370998800,8.603998779296875,0.3665083646774292,0.1948602795600891,1.2803359031677246
1789323347389849900,8.622849853515625,0.3158080279827118,0.23028941452503204,1.3695958852767944
1789323347408701000,8.641700927734375,0.28160059452056885,0.258999228477478,1.543687343597412
1789323347427552000,8.660552001953125,0.30969956517219543,0.24311721324920654,1.7800853252410889
1789323347455828500,8.688828369140625,0.47768256068229675,0.24433889985084534,2.1374309062957764
1789323347474679600,8.707679443359375,0.7293516397476196,0.1447708010673523,2.1472043991088867
1789323347493530600,8.726530517578125,0.9236010313034058,0.04703523963689804,2.130100727081299
1789323347512381700,8.745381591796875,0.9651386737823486,-0.10628741979598999,2.240664005279541
1789323347531232800,8.764232666015625,0.9431481957435608,-0.25716668367385864,2.397041082382202
1789323347550083800,8.783083740234375,0.9022213816642761,-0.2376195788383484,2.445297956466675
1789323347568935000,8.801934814453125,0.8588512539863586,-0.23945212364196777,2.3805482387542725
1789323347587785700,8.82078564453125,0.7886037826538086,-0.5668662786483765,2.329847812652588
1789323347606636800,8.83963671875,0.7262973785400391,-0.9889616966247559,2.2626545429229736
1789323347625488000,8.85848779296875,0.7287407517433167,-0.9223793745040894,2.040917158126831
1789323347644339000,8.8773388671875,0.7195780873298645,-0.5412106513977051,1.64569890499115
1789323347663190000,8.89618994140625,0.6896465420722961,-0.5070032477378845,1.3702067136764526
1789323347682041000,8.915041015625,0.5662553906440735,-0.5430431962013245,0.7464553713798523
1789323347700892200,8.93389208984375,0.25777754187583923,-0.4312581717967987,0.3805578351020813
1789323347719743200,8.9527431640625,0.029320668429136276,-0.05619794875383377,0.26755109429359436
1789323347738594300,8.97159423828125,0.004886778071522713,0.06780404597520828,-0.0647498071193695
1789323347757445400,8.9904453125,-0.04581354558467865,0.21501824259757996,-0.5357130169868469
1789323347776296200,9.009296142578124,-0.2101314514875412,0.39888325333595276,-1.0195040702819824
1789323347795147300,9.028147216796874,-0.3811686933040619,0.8228112459182739,-1.3842562437057495
1789323347813998300,9.046998291015624,-0.5467082858085632,1.2155860662460327,-1.7336609363555908
1789323347832849400,9.065849365234374,-0.7220214605331421,1.2852226495742798,-2.026256799697876
1789323347851700500,9.084700439453124,-0.8997780084609985,1.2186403274536133,-2.139263391494751
1789323347870551600,9.103551513671874,-1.2039799690246582,1.2345223426818848,-2.2559351921081543
1789323347889402600,9.122402587890624,-1.5870575904846191,1.063485026359558,-2.2510485649108887
1789323347908253700,9.141253662109374,-1.7758092880249023,0.7806627750396729,-2.2815909385681152
1789323347927104800,9.160104736328124,-1.84850013256073,0.3268032968044281,-2.3719961643218994
1789323347945955800,9.178955810546874,-1.7947455644607544,-0.15943112969398499,-2.6493208408355713
1789323347964806700,9.197806640625,-1.6609700918197632,-0.6896465420722961,-2.726287603378296
1789323347983657700,9.21665771484375,-1.3035480976104736,-0.9926267862319946,-2.8557872772216797
1789323348002508800,9.2355087890625,-0.8209787011146545,-0.998735249042511,-2.946803569793701
1789323348021359900,9.25435986328125,-0.5015056133270264,-0.7617265582084656,-2.73483943939209
1789323348040211000,9.2732109375,-0.32252734899520874,-0.34818294644355774,-2.25715708732605
1789323348059062000,9.29206201171875,-0.1850867122411728,-0.023212196305394173,-1.7232764959335327
1789323348077913000,9.3109130859375,-0.04703523963689804,0.007330167107284069,-1.2302464246749878
1789323348096764200,9.32976416015625,0.06719319522380829,-0.0018325417768210173,-0.7024743556976318
1789323348115615200,9.348615234375,0.21929416060447693,0.08918370306491852,-0.19424942135810852
1789323348134466000,9.367466064453126,0.337798535823822,0.10078980028629303,0.24006296694278717
1789323348153317000,9.386317138671876,0.37261682748794556,0.10201149433851242,0.605960488319397
1789323348172168200,9.405168212890626,0.3823903799057007,0.1973036676645279,1.0158389806747437
1789323348191019300,9.424019287109376,0.33169007301330566,0.1948602795600891,1.3414969444274902
1789323348209870300,9.442870361328126,0.2651077210903168,0.2107423096895218,1.5369681119918823
1789323348228721400,9.461721435546876,0.24128466844558716,0.12705622613430023,1.6469205617904663
1789323348247572500,9.480572509765626,0.22906772792339325,0.0525328628718853,1.7464886903762817
1789323348266423600,9.499423583984376,0.2473931461572647,0.06169557198882103,1.8387266397476196
1789323348285274400,9.5182744140625,0.2852656841278076,0.16248537600040436,1.9315754175186157
1789323348313551000,9.546551025390626,0.5399889945983887,0.28037887811660767,2.087341547012329
1789323348332402200,9.565402099609376,0.7953231334686279,0.367730051279068,2.1380417346954346
1789323348351253200,9.584253173828126,0.9590302109718323,0.15087927877902985,2.2479941844940186
1789323348370104300,9.603104248046876,1.063485026359558,-0.1582094430923462,2.4239182472229004
1789323348398380800,9.631380859375,1.13800847530365,-0.5045598149299622,2.552807092666626
1789323348417232000,9.65023193359375,0.9950701594352722,-0.5638120174407959,2.434302568435669
1789323348436083000,9.6690830078125,0.7605048418045044,-1.0396620035171509,2.4996633529663086
1789323348454934000,9.68793408203125,0.6401679515838623,-1.4117443561553955,2.488668203353882
1789323348473784800,9.706784912109375,0.7116370797157288,-1.1221264600753784,2.13315486907959
1789323348492636000,9.725635986328125,0.81425940990448,-0.5155550837516785,1.6597483158111572
1789323348511487000,9.744487060546875,0.7110261917114258,-0.4575245976448059,1.2791141271591187
1789323348530338000,9.763338134765625,0.46424391865730286,-0.5308262705802917,0.8704573512077332
1789323348549189000,9.782189208984375,0.2217375487089157,-0.23823043704032898,0.47646087408065796
1789323348568040200,9.801040283203125,0.08002099394798279,0.04825693368911743,0.17958909273147583
1789323348586891300,9.819891357421875,0.08918370306491852,-0.023823043331503868,-0.15515519678592682
1789323348605742300,9.838742431640625,0.13560809195041656,-0.0024433890357613564,-0.6077930331230164
1789323348624593400,9.857593505859375,0,0.19913621246814728,-1.041494607925415
1789323348652870000,9.885869873046875,-0.3915531039237976,0.6615476012229919,-1.437399983406067
1789323348671721000,9.904720947265625,-0.5717530250549316,0.8985562920570374,-1.729995846748352
1789323348699997400,9.93299755859375,-0.7036960124969482,1.184432864189148,-2.2278363704681396
1789323348718848500,9.9518486328125,-0.9431481957435608,1.2937744855880737,-2.4324700832366943
1789323348737699600,9.970699462890625,-1.2742273807525635,1.1508362293243408,-2.501495838165283
1789323348756550700,9.989550537109375,-1.5149775743484497,0.8276980519294739,-2.5393683910369873
1789323348775401700,10.008401611328125,-1.627373456954956,0.3512371778488159,-2.5021066665649414
1789323348794252800,10.027252685546875,-1.576673150062561,-0.09040539711713791,-2.671922206878662
1789323348813103900,10.046103759765625,-1.3940298557281494,-0.5845808386802673,-2.73483943939209
1789323348831954700,10.06495458984375,-1.0463813543319702,-0.8044858574867249,-2.8063087463378906
1789323348850805800,10.0838056640625,-0.6474980711936951,-0.8118160367012024,-2.69208025932312
1789323348869656800,10.10265673828125,-0.41537612676620483,-0.7421793937683105,-2.44041109085083
1789323348897933600,10.13093359375,-0.20585553348064423,-0.6139014959335327,-1.81246018409729
1789323348916784400,10.149784423828125,0.023823043331503868,-0.4422534108161926,-1.2998830080032349
1789323348935635500,10.168635498046875,0.2504473626613617,-0.14721418917179108,-0.7788302302360535
1789323348954486500,10.187486572265625,0.2742704153060913,0.0659715011715889,-0.36284327507019043
1789323348973337600,10.206337646484375,0.18691925704479218,0.17225892841815948,0.0036650835536420345
1789323348992188700,10.225188720703125,0.19180603325366974,0.19974705576896667,0.38422292470932007
1789323349011039700,10.244039794921875,0.2089097648859024,0.129499614238739,0.7592831254005432
1789323349029890800,10.262890869140625,0.24128466844558716,0.11606097966432571,1.068982720375061
1789323349048742000,10.281741943359375,0.3042019307613373,0.08368607610464096,1.3120999336242676
1789323349067593000,10.300593017578125,0.37078428268432617,0.0910162404179573,1.428848147392273
1789323349086444000,10.319444091796875,0.3775036036968231,0.03237490355968475,1.5107016563415527
1789323349105294800,10.338294921875,0.41171106696128845,0.25777754187583923,1.6102697849273682
1789323349124146000,10.35714599609375,0.4563029110431671,0.3897205591201782,1.7550405263900757
1789323349142997000,10.3759970703125,0.5595360994338989,0.42881476879119873,1.9309645891189575
1789323349161848000,10.39484814453125,0.7446228265762329,0.2761029601097107,2.052523136138916
1789323349180699100,10.41369921875,0.9840749502182007,0.024433890357613564,2.1814119815826416
1789323349199550200,10.43255029296875,1.1459494829177856,-0.18630841374397278,2.3060247898101807
1789323349218401300,10.4514013671875,1.1490037441253662,-0.3432961702346802,2.4324700832366943
1789323349237252400,10.47025244140625,1.0757020711898804,-0.38422292470932007,2.5198214054107666
1789323349256103400,10.489103515625,0.9804098606109619,-0.3671191930770874,2.5662457942962646
1789323349274954500,10.50795458984375,0.8496885299682617,-0.8405258059501648,2.608394145965576
1789323349293805300,10.526805419921875,0.8289197087287903,-1.1575555801391602,2.5454769134521484
1789323349312656400,10.545656494140625,0.938872218132019,-1.0720369815826416,2.3555033206939697
1789323349331507500,10.564507568359375,0.8612946271896362,-0.3512371778488159,1.7733659744262695
1789323349350358500,10.583358642578125,0.5344913601875305,-0.4990622103214264,1.3549355268478394
1789323349369209600,10.602209716796875,0.3781144618988037,-0.43736663460731506,0.8386932611465454
1789323349388060700,10.621060791015625,0.21379654109477997,-0.4416425824165344,0.2724378705024719
1789323349406911700,10.639911865234374,0.15087927877902985,0.22051586210727692,-0.09895725548267365
1789323349425762800,10.6587626953125,-0.030542362481355667,0.34757208824157715,-0.18569757044315338
1789323349444614000,10.67761376953125,-0.0036650835536420345,0.2339545041322708,-0.46241137385368347
1789323349463465000,10.69646484375,-0.12339114397764206,0.2748812735080719,-1.064706802368164
1789323349482316000,10.71531591796875,-0.34879377484321594,0.9052756428718567,-1.4471734762191772
1789323349501167000,10.7341669921875,-0.5986303091049194,1.0158389806747437,-1.852776050567627
1789323349520018200,10.75301806640625,-0.5326588153839111,0.9407047629356384,-2.3573360443115234
1789323349538869200,10.771869140625,-0.6181774139404297,0.5888567566871643,-2.463623285293579
1789323349557720000,10.790719970703124,-1.2320789098739624,0.8222004175186157,-2.4178097248077393
1789323349576571100,10.809571044921874,-1.4367891550064087,1.0323318243026733,-2.436746120452881
1789323349595422200,10.828422119140624,-1.2968287467956543,0.9846857786178589,-2.5424225330352783
1789323349614273300,10.847273193359374,-1.2039799690246582,0.30603447556495667,-2.3005270957946777
1789323349633124400,10.866124267578124,-1.3836454153060913,-0.06352811306715012,-2.1197164058685303
1789323349651975400,10.884975341796874,-1.317597508430481,0.2510582208633423,-2.367720365524292
1789323349670826500,10.903826416015624,-0.8979454636573792,0.17897824943065643,-2.5839602947235107
1789323349689677600,10.922677490234374,-0.6914790868759155,-0.14782503247261047,-2.6267194747924805
1789323349708528600,10.941528564453124,-0.4330907166004181,-0.9877400398254395,-2.231501340866089
1789323349727379700,10.960379638671874,0.10689827054738998,-0.6859814524650574,-2.520432233810425
1789323349746230800,10.979230712890624,0.41415444016456604,-0.20402298867702484,-2.275482416152954
1789323349765081900,10.998081787109374,-0.02748812735080719,-0.10323318839073181,-1.2937744855880737
1789323349783933000,11.016932861328126,-0.10628741979598999,-0.11178504675626755,-0.7110261917114258
1789323349802783700,11.03578369140625,-0.004275931045413017,0.11178504675626755,-0.2987042963504791
1789323349821634800,11.054634765625,0.11239589750766754,0.3799470067024231,0.1050657257437706
1789323349840486000,11.07348583984375,0.16248537600040436,0.2583884000778198,0.503948986530304
1789323349859337000,11.0923369140625,0.20219044387340546,0.18814095854759216,0.8301414251327515
1789323349878188000,11.11118798828125,0.22662433981895447,0.22845686972141266,1.0427162647247314
1789323349897039000,11.1300390625,0.21685077250003815,0.23823043704032898,1.2229162454605103
1789323349915890200,11.14889013671875,0.20585553348064423,0.19119518995285034,1.4025816917419434
1789323349934741200,11.1677412109375,0.208298921585083,0.17286977171897888,1.5552934408187866
1789323349953592300,11.18659228515625,0.2217375487089157,0.11361759155988693,1.6683002710342407
1789323349972443400,11.205443359375,0.288930743932724,0.32374903559684753,1.7965781688690186
1789323349991294500,11.22429443359375,0.4178195297718048,0.4825693368911743,1.9951034784317017
1789323350010145500,11.2431455078125,0.6560499668121338,0.49051034450531006,2.127046585083008
1789323350028996600,11.26199658203125,0.860683798789978,0.3408527672290802,2.215008497238159
1789323350047847700,11.28084765625,0.8777875304222107,0.06169557198882103,2.3029704093933105
1789323350066698800,11.29969873046875,0.8209787011146545,-0.15454435348510742,2.3726069927215576
1789323350085549800,11.3185498046875,0.8582404255867004,-0.17531315982341766,2.4117014408111572
1789323350104401000,11.33740087890625,0.8729007244110107,-0.27915719151496887,2.387878179550171
1789323350123251700,11.356251708984376,0.7476770281791687,-0.7678350210189819,2.3603901863098145
1789323350142103000,11.37510302734375,0.6420004963874817,-1.1233481168746948,2.2424967288970947
1789323350160953900,11.393953857421875,0.7116370797157288,-1.1630531549453735,2.0794005393981934
1789323350179805000,11.412804931640625,0.7721109390258789,-0.818535327911377,1.7751984596252441
1789323350198656000,11.431656005859375,0.5894675850868225,-0.9559759497642517,1.42335045337677
1789323350217507000,11.450507080078125,0.3946073353290558,-0.7434011101722717,0.9877400398254395
1789323350236358100,11.469358154296875,0.12827792763710022,-0.446529358625412,0.6420004963874817
1789323350255209200,11.488209228515625,-0.022601349279284477,-0.04214845970273018,0.36162158846855164
1789323350274060300,11.507060302734375,-0.061084724962711334,0.1979145109653473,0.0012216945178806782
1789323350292911400,11.525911376953125,-0.11606097966432571,0.37383851408958435,-0.5051707029342651
1789323350311762400,11.544762451171875,-0.20341213047504425,0.6468872427940369,-0.9565867781639099
1789323350330613500,11.563613525390625,-0.261442631483078,1.0017894506454468,-1.296217918395996
1789323350349464600,11.582464599609375,-0.4190412163734436,1.1404517889022827,-1.6310385465621948
1789323350368315600,11.601315673828125,-0.6328377723693848,1.1502254009246826,-1.8417809009552002
1789323350387166700,11.620166748046875,-0.9150491952896118,1.1318999528884888,-2.028700113296509
1789323350406017800,11.639017822265625,-1.2693406343460083,0.9791881442070007,-2.211954355239868
1789323350424868900,11.657868896484375,-1.5497958660125732,0.7922688722610474,-2.258378744125366
1789323350443720000,11.676719970703125,-1.6915124654769897,0.633448600769043,-2.335345506668091
1789323350462571000,11.695571044921875,-1.778863549232483,0.3536805510520935,-2.350616693496704
1789323350481422000,11.714422119140625,-1.7073944807052612,-0.0647498071193695,-2.5167670249938965
1789323350500273200,11.733273193359375,-1.455114483833313,-0.5509842038154602,-2.564413070678711
1789323350519124200,11.752124267578125,-1.1025793552398682,-0.7922688722610474,-2.6871933937072754
1789323350537975000,11.77097509765625,-0.754396378993988,-0.9242119193077087,-2.775155544281006
1789323350556826000,11.789826171875,-0.5002838969230652,-0.8448017835617065,-2.5949554443359375
1789323350575677200,11.80867724609375,-0.365286648273468,-0.601073682308197,-2.1905746459960938
1789323350594528300,11.8275283203125,-0.23212195932865143,-0.33718767762184143,-1.6786845922470093
1789323350613379300,11.84637939453125,-0.038483377546072006,-0.14110571146011353,-1.2009257078170776
1789323350632230400,11.86523046875,0.11178504675626755,-0.033596597611904144,-0.675597071647644
1789323350651081500,11.88408154296875,0.16859383881092072,0.05741964280605316,-0.183865025639534
1789323350669932500,11.9029326171875,0.23823043704032898,0.17225892841815948,0.2498365342617035
1789323350688783600,11.92178369140625,0.3151971995830536,0.2748812735080719,0.6395570635795593
1789323350707634700,11.940634765625,0.3402419090270996,0.24006296694278717,0.9840749502182007
1789323350726485800,11.95948583984375,0.3249707520008087,0.25777754187583923,1.2748382091522217
1789323350745336800,11.9783369140625,0.3408527672290802,0.20035789906978607,1.475272536277771
1789323350764188000,11.99718798828125,0.37078428268432617,0.10873081535100937,1.5418548583984375
1789323350783039000,12.0160390625,0.34635040163993835,0.12522368133068085,1.6096588373184204
1789323350801890000,12.03489013671875,0.3127537965774536,0.17225892841815948,1.6805171966552734
1789323350820741000,12.0537412109375,0.3512371778488159,0.28098973631858826,1.7819178104400635
1789323350839592000,12.072592041015625,0.5070032477378845,0.23945212364196777,1.9670045375823975
1789323350858443000,12.091443115234375,0.7666133046150208,0.024433890357613564,2.078178644180298
1789323350877294000,12.110294189453125,0.994459331035614,-0.26938363909721375,2.130711555480957
1789323350896145200,12.129145263671875,1.0873081684112549,-0.4196520745754242,2.21134352684021
1789323350914996200,12.147996337890625,1.0793671607971191,-0.4587462842464447,2.344508171081543
1789323350933847300,12.166847412109375,1.0396620035171509,-0.5247178077697754,2.4532389640808105
1789323350952698400,12.185698486328125,0.9168817400932312,-0.8203678727149963,2.4556822776794434
1789323350971549400,12.204549560546875,0.813648521900177,-1.2552911043167114,2.3347346782684326
1789323350990400500,12.223400390625,0.8478559851646423,-1.2149752378463745,2.093449831008911
1789323351009251600,12.24225146484375,0.892447829246521,-0.8173136115074158,1.904698133468628
1789323351028102700,12.2611025390625,0.836860716342926,-0.5473191738128662,1.6597483158111572
1789323351046953700,12.27995361328125,0.6365028619766235,-0.5595360994338989,1.475272536277771
1789323351065804800,12.2988046875,0.42331716418266296,-0.37078428268432617,1.155722975730896
1789323351084655900,12.31765576171875,0.20341213047504425,-0.1844758689403534,0.6878139972686768
1789323351103507000,12.3365068359375,0.10323318839073181,-0.038483377546072006,0.13499724864959717
1789323351122358000,12.35535791015625,0.02870982140302658,0.1563768982887268,-0.3035911023616791
1789323351141209000,12.374208984375,-0.0653606578707695,0.2858765125274658,-0.7153021693229675
1789323351160060000,12.393059814453125,-0.21379654109477997,0.5076140761375427,-1.1025793552398682
1789323351178911000,12.411910888671875,-0.3793361485004425,0.7201889157295227,-1.4514493942260742
1789323351197762000,12.430761962890625,-0.5436540842056274,1.0934165716171265,-1.8142926692962646
1789323351216613000,12.449613037109375,-0.739736020565033,1.0750911235809326,-2.0659618377685547
1789323351235464200,12.468464111328124,-0.9107732772827148,1.100746750831604,-2.2675414085388184
1789323351254315300,12.487315185546874,-1.2186403274536133,1.0195040702819824,-2.36833119392395
1789323351273166300,12.506166259765624,-1.4642772674560547,0.8234221339225769,-2.3927650451660156
1789323351292017400,12.525017333984374,-1.6047720909118652,0.6981984376907349,-2.4013168811798096
1789323351310868500,12.543868408203124,-1.7354934215545654,0.28343313932418823,-2.445908784866333
1789323351329719600,12.562719482421874,-1.723887324333191,-0.07635590434074402,-2.5344815254211426
1789323351348570600,12.581570556640624,-1.4636664390563965,-0.4349232614040375,-2.5686891078948975
1789323351376847000,12.60984716796875,-0.739736020565033,-0.7171346545219421,-2.6816959381103516
1789323351395698200,12.6286982421875,-0.3500154912471771,-0.7763868570327759,-2.6187784671783447
1789323351414549200,12.64754931640625,-0.16798299551010132,-0.6261184215545654,-2.3060247898101807
1789323351433400300,12.666400390625,-0.05375456064939499,-0.4611896872520447,-1.803908348083496
1789323351452251400,12.68525146484375,0.15332266688346863,-0.3536805510520935,-1.3169866800308228
1789323351471102500,12.7041025390625,0.3011476993560791,-0.1850867122411728,-0.8912261724472046
1789323351489953500,12.72295361328125,0.3023693859577179,-0.07207997888326645,-0.4337015450000763
1789323351508804600,12.7418046875,0.29565006494522095,-0.0036650835536420345,0.07635590434074402
1789323351527655700,12.76065576171875,0.38422292470932007,0.0006108472589403391,0.5632011890411377
1789323351546506500,12.779506591796874,0.45447036623954773,0.18814095854759216,0.9657495021820068
1789323351565357600,12.798357666015624,0.5051707029342651,0.2980934679508209,1.252847671508789
1789323351584208600,12.817208740234374,0.5436540842056274,0.3054236173629761,1.3946406841278076
1789323351603059700,12.836059814453124,0.5082249045372009,0.26755109429359436,1.4068576097488403
1789323351621910800,12.854910888671874,0.3683409094810486,0.15454435348510742,1.4074684381484985
1789323351640761900,12.873761962890624,0.2473931461572647,0.11483928561210632,1.5400222539901733
1789323351659613000,12.892613037109374,0.2895416021347046,0.23273280262947083,1.7916914224624634
1789323351678464000,12.911464111328126,0.4862344264984131,0.3249707520008087,2.0012118816375732
1789323351697315000,12.930315185546876,0.726908266544342,0.1716480851173401,2.108110189437866
1789323351716166100,12.949166259765626,0.8619054555892944,-0.01832541823387146,2.211954355239868
1789323351735017200,12.968017333984376,0.9187142848968506,-0.284654825925827,2.3115224838256836
1789323351753868300,12.986868408203126,0.9510892033576965,-0.35795649886131287,2.365277051925659
1789323351772719400,13.00571923828125,0.9529217481613159,-0.33352261781692505,2.4037604331970215
1789323351791570400,13.0245703125,0.9260444641113281,-0.3512371778488159,2.41414475440979
1789323351810421200,13.043421142578126,0.9645278453826904,-0.5668662786483765,2.399484395980835
1789323351829272600,13.0622724609375,0.9064973592758179,-0.911384105682373,2.350616693496704
1789323351848123400,13.081123291015626,0.7446228265762329,-0.999346137046814,2.0506906509399414
1789323351866974500,13.099974365234376,0.6084038615226746,-0.7440119385719299,1.8142926692962646
1789323351885825500,13.118825439453126,0.5564818382263184,-0.6126797795295715,1.637147068977356
1789323351904676600,13.137676513671876,0.5167768001556396,-0.5858024954795837,1.180156946182251
1789323351923527700,13.156527587890626,0.26755109429359436,-0.4886777997016907,0.6639909744262695
1789323351942378800,13.175378662109376,0.09345962852239609,-0.2870981991291046,0.19913621246814728
1789323351961229800,13.194229736328126,0.015271181240677834,-0.03665083646774292,-0.20585553348064423
1789323351980081000,13.213080810546876,-0.02626643143594265,0.22479179501533508,-0.6853706240653992
1789323351998932000,13.231931884765626,-0.13621893525123596,0.5668662786483765,-1.1416735649108887
1789323352017783000,13.250782958984376,-0.24311721324920654,0.9297095537185669,-1.5552934408187866
1789323352036634000,13.269634033203126,-0.3115321099758148,1.3035480976104736,-1.9358513355255127
1789323352055485200,13.288485107421875,-0.44958359003067017,1.4074684381484985,-2.2589895725250244
1789323352074336300,13.307336181640625,-0.70308518409729,1.3053805828094482,-2.4703426361083984
1789323352093187000,13.32618701171875,-1.1227372884750366,1.2094775438308716,-2.5772409439086914
1789323352112038400,13.345038330078125,-1.488100290298462,1.0463813543319702,-2.5570828914642334
1789323352130889200,13.36388916015625,-1.7190005779266357,0.7733326554298401,-2.56135892868042
1789323352149740300,13.382740234375,-1.8289530277252197,0.18142163753509521,-2.660316228866577
1789323352168591400,13.40159130859375,-1.7507646083831787,-0.2742704153060913,-2.8124170303344727
1789323352187442400,13.4204423828125,-1.4019708633422852,-0.6157340407371521,-2.8551764488220215
1789323352206293500,13.43929345703125,-0.9254335761070251,-0.7537854909896851,-2.8228015899658203
1789323352225144600,13.45814453125,-0.5583143830299377,-0.7165238261222839,-2.668868064880371
1789323352243995600,13.47699560546875,-0.365286648273468,-0.5137225389480591,-2.2968621253967285
1789323352262846700,13.4958466796875,-0.27854636311531067,-0.2980934679508209,-1.7984106540679932
1789323352281697800,13.51469775390625,-0.1582094430923462,-0.25411245226860046,-1.3647091388702393
1789323352300548900,13.533548828125,0.0390942245721817,-0.021379653364419937,-0.9559759497642517
1789323352319400000,13.55239990234375,0.13438639044761658,0.2779355049133301,-0.4984513521194458
1789323352338251000,13.5712509765625,0.16492876410484314,0.4056025743484497,-0.1044548824429512
1789323352357102000,13.59010205078125,0.20096874237060547,0.3946073353290558,0.21990501880645752
1789323352385378600,13.618378662109375,0.23823043704032898,0.4092676639556885,0.7715001106262207
1789323352404229600,13.637229736328125,0.2510582208633423,0.33718767762184143,1.1178505420684814
1789323352423080700,13.656080810546875,0.31886225938796997,0.20768806338310242,1.3439403772354126
1789323352441931800,13.674931884765625,0.37139514088630676,0.1844758689403534,1.3659307956695557
1789323352460782800,13.693782958984375,0.3573456406593323,0.07085828483104706,1.409911870956421
1789323352479634000,13.712634033203125,0.3530697226524353,0.09651386737823486,1.6163781881332397
1789323352498484700,13.731484619140625,0.4428642690181732,0.26694026589393616,1.9529550075531006
1789323352517335800,13.750335693359375,0.6230642199516296,0.367730051279068,2.1496479511260986
1789323352536187000,13.769186767578125,0.8289197087287903,0.3274141252040863,2.1691949367523193
1789323352555038000,13.788037841796875,0.9694145917892456,0.09956810623407364,2.2327229976654053
1789323352573889000,13.806888916015625,1.0176715850830078,-0.2651077210903168,2.3829915523529053
1789323352592740000,13.825739990234375,1.0488247871398926,-0.5125008225440979,2.446519613265991
1789323352611591200,13.844591064453125,1.0121738910675049,-0.48073679208755493,2.348173141479492
1789323352630442200,13.863442138671875,0.8991671800613403,-0.5161659121513367,2.2828125953674316
1789323352649293300,13.882293212890625,0.8252546191215515,-0.7238540053367615,2.254713535308838
1789323352668144400,13.901144287109375,0.786771297454834,-0.8509102463722229,2.1722493171691895
1789323352686995500,13.919995361328125,0.652384877204895,-0.9578084945678711,2.211954355239868
1789323352705846500,13.938846435546875,0.3915531039237976,-1.1685508489608765,2.1203272342681885
1789323352724697600,13.957697509765625,0.0659715011715889,-1.0152281522750854,1.829563856124878
1789323352743548700,13.976548583984375,0.21501824259757996,-0.418430358171463,1.2949961423873901
1789323352762399500,13.9953994140625,0.3390202224254608,-0.1954711228609085,0.7091936469078064
1789323352781250600,14.01425048828125,0.22784602642059326,-0.20402298867702484,0.19424942135810852
1789323352800101600,14.0331015625,0.06780404597520828,-0.05070032179355621,-0.16248537600040436
1789323352818952700,14.05195263671875,-0.08063183724880219,0.1423274129629135,-0.469741553068161
1789323352837803800,14.0708037109375,-0.2510582208633423,0.2877090573310852,-0.7843278646469116
1789323352856654800,14.08965478515625,-0.40254834294319153,0.45141613483428955,-1.1459494829177856
1789323352875506000,14.108505859375,-0.5448757410049438,0.6933116316795349,-1.5039823055267334
1789323352894357000,14.12735693359375,-0.6872031688690186,0.8393041491508484,-1.8533869981765747
1789323352913208000,14.1462080078125,-0.7959339618682861,0.9663603901863098,-2.101390838623047
1789323352932059100,14.16505908203125,-0.9376505613327026,0.897334635257721,-2.199737310409546
1789323352950910200,14.18391015625,-1.1147962808609009,0.7696675658226013,-2.2211170196533203
1789323352969761300,14.20276123046875,-1.2803359031677246,0.43614494800567627,-2.304192304611206
1789323352988612400,14.2216123046875,-1.3799803256988525,0.062306419014930725,-2.5027174949645996
1789323353007463200,14.240463134765625,-1.410522699356079,-0.3029802441596985,-2.6933019161224365
1789323353026314200,14.259314208984375,-1.3384426832199097,-0.5155550837516785,-2.7195682525634766
1789323353045165300,14.278165283203125,-1.0750911235809326,-0.4459185004234314,-2.579684257507324
1789323353064016400,14.297016357421874,-0.6395570635795593,-0.30481278896331787,-2.4856138229370117
1789323353082867500,14.315867431640624,-0.33291175961494446,-0.13560809195041656,-2.2541027069091797
1789323353111144200,14.344144287109375,-0.13560809195041656,-0.08735115826129913,-1.5919443368911743
1789323353129995000,14.3629951171875,0.01832541823387146,-0.13621893525123596,-1.087918996810913
1789323353148846000,14.38184619140625,0.1692046970129013,0.11300674080848694,-0.7623373866081238
1789323353167697200,14.400697265625,0.2754921019077301,0.15271180868148804,-0.5131117105484009
1789323353186548200,14.41954833984375,0.28221142292022705,0.023823043331503868,-0.1435490995645523
1789323353205399300,14.4383994140625,0.24067382514476776,-0.12155860662460327,0.33230090141296387
1789323353224250400,14.45725048828125,0.26816195249557495,0.08490777015686035,0.7098045349121094
1789323353243101400,14.476101318359374,0.312142938375473,0.31886225938796997,1.0427162647247314
1789323353261952500,14.494952392578124,0.36223241686820984,0.517998456954956,1.3488271236419678
1789323353280803300,14.51380322265625,0.418430358171463,0.527161180973053,1.5424656867980957
1789323353299654400,14.532654296875,0.5222744345664978,0.37506023049354553,1.618821620941162
1789323353318505500,14.55150537109375,0.6737645268440247,0.29565006494522095,1.5705646276474
1789323353337356500,14.5703564453125,0.7660024762153625,0.1459924876689911,1.4703856706619263
1789323353356207600,14.58920751953125,0.7562289237976074,-0.15943112969398499,1.6292059421539307
1789323353375058700,14.60805859375,0.8228112459182739,-0.37078428268432617,1.927910327911377
1789323353393909800,14.62690966796875,0.9785773158073425,-0.3042019307613373,2.072681188583374
1789323353412760800,14.6457607421875,1.0121738910675049,-0.2852656841278076,2.2095108032226562
1789323353431612000,14.66461181640625,0.8802309036254883,-0.34818294644355774,2.348173141479492
1789323353450462700,14.683462646484376,0.7476770281791687,-0.48989951610565186,2.315798282623291
1789323353469313800,14.702313720703126,0.6749862432479858,-0.5961869359016418,2.2247819900512695
1789323353488164900,14.721164794921876,0.648108959197998,-0.7104153633117676,2.200348138809204
1789323353507016000,14.740015869140626,0.5363239049911499,-0.9193251132965088,2.2308905124664307
1789323353525867000,14.758866943359376,0.3524588644504547,-1.1306782960891724,1.9908275604248047
1789323353544718000,14.777718017578126,0.20096874237060547,-1.0531007051467896,1.6377578973770142
1789323353563569200,14.796569091796876,0.2217375487089157,-0.48012593388557434,1.391586422920227
1789323353582420200,14.815420166015626,0.33596599102020264,-0.16065283119678497,1.1355650424957275
1789323353601271000,14.83427099609375,0.312142938375473,-0.16798299551010132,0.6743753552436829
1789323353620122000,14.8531220703125,0.1954711228609085,-0.08490777015686035,0.2773246467113495
1789323353638973200,14.87197314453125,0.12461283802986145,0.06047387793660164,-0.053143709897994995
1789323353657824300,14.89082421875,0.10017894953489304,0.1325538605451584,-0.44042086601257324
1789323353676675300,14.90967529296875,0.03420744836330414,0.22601348161697388,-0.8985562920570374
1789323353695526400,14.9285263671875,-0.14721418917179108,0.38483378291130066,-1.395862340927124
1789323353714377500,14.94737744140625,-0.38544461131095886,0.6004628539085388,-1.7122812271118164
1789323353733228500,14.966228515625,-0.5375455617904663,0.7959339618682861,-1.9792214632034302
1789323353752079400,14.985079345703125,-0.6297835111618042,0.9602518677711487,-2.2253928184509277
1789323353770930400,15.003930419921875,-0.80937260389328,0.9969027042388916,-2.431248426437378
1789323353789781500,15.022781494140625,-1.1038010120391846,0.9999569654464722,-2.5131020545959473
1789323353808632600,15.041632568359375,-1.2974395751953125,0.8820634484291077,-2.4825596809387207
1789323353836909000,15.069908935546875,-1.3035480976104736,0.32130566239356995,-2.518599510192871
1789323353865185800,15.098185791015625,-1.1728267669677734,-0.4422534108161926,-2.738504648208618
1789323353902887700,15.1358876953125,-0.5803049206733704,-0.6438329815864563,-2.579684257507324
1789323353921738800,15.15473876953125,-0.28282228112220764,-0.5522059202194214,-2.3371779918670654
1789323353940589800,15.17358984375,-0.20157960057258606,-0.5192201733589172,-2.061685800552368
1789323353959441000,15.19244091796875,-0.16798299551010132,-0.4367557764053345,-1.7080053091049194
1789323353978292000,15.2112919921875,0.007330167107284069,-0.22540263831615448,-1.3793694972991943
1789323353997143000,15.23014306640625,0.24250635504722595,-0.004886778071522713,-1.0256125926971436
1789323354015993900,15.248993896484375,0.2779355049133301,0.15087927877902985,-0.582748293876648
1789323354034845000,15.267844970703125,0.11667182296514511,0.18691925704479218,-0.19913621246814728
1789323354053696000,15.286696044921875,0.12766708433628082,0.1710372269153595,0.1832541823387146
1789323354072547000,15.305547119140625,0.2089097648859024,0.1954711228609085,0.5595360994338989
1789323354091398100,15.324398193359375,0.312142938375473,0.1960819661617279,0.8655705451965332
1789323354110249200,15.343249267578125,0.38849884271621704,0.3762819170951843,1.0750911235809326
1789323354129100300,15.362100341796875,0.40010493993759155,0.2980934679508209,1.2791141271591187
1789323354147951000,15.380951171875,0.38849884271621704,0.14660334587097168,1.4893219470977783
1789323354166802200,15.39980224609375,0.33596599102020264,0.2907632887363434,1.6530290842056274
1789323354185653200,15.4186533203125,0.32191649079322815,0.3286358118057251,1.696399211883545
1789323354204504300,15.43750439453125,0.4086568057537079,0.3304683566093445,1.7758092880249023
1789323354223355400,15.45635546875,0.6450546979904175,0.3255815804004669,1.927910327911377
1789323354242206200,15.475206298828125,0.8625163435935974,0.21196399629116058,2.0635182857513428
1789323354261057300,15.494057373046875,0.9168817400932312,0.01710372418165207,2.20828914642334
1789323354279908400,15.512908447265625,0.8783983588218689,-0.22662433981895447,2.365277051925659
1789323354298759400,15.531759521484375,0.7886037826538086,-0.42637139558792114,2.367109537124634
1789323354317610500,15.550610595703125,0.6694886088371277,-0.5234960913658142,2.2650980949401855
1789323354336461600,15.569461669921875,0.6206207871437073,-0.5283828973770142,2.089784860610962
1789323354355312400,15.5883125,0.6536065936088562,-0.45202696323394775,1.9749455451965332
1789323354374163500,15.60716357421875,0.7299624681472778,-0.42637139558792114,1.900422215461731
1789323354393014500,15.6260146484375,0.7446228265762329,-0.45141613483428955,1.6560832262039185
1789323354411865600,15.644865478515625,0.6872031688690186,-0.6139014959335327,1.3457728624343872
1789323354430716700,15.663716552734375,0.577861487865448,-0.7385143637657166,1.1905412673950195
1789323354449567700,15.682567626953125,0.33596599102020264,-0.70308518409729,0.939483106136322
1789323354468418800,15.701418701171875,0.10628741979598999,-0.4752391576766968,0.4990622103214264
1789323354487269600,15.72026953125,0.0036650835536420345,-0.291374146938324,0.029320668429136276
1789323354506120700,15.73912060546875,-0.030542362481355667,-0.028098974376916885,-0.4679090082645416
1789323354524971800,15.7579716796875,-0.0781884491443634,0.38605546951293945,-0.869846522808075
1789323354543822800,15.77682275390625,-0.22601348161697388,0.8167027831077576,-1.2198619842529297
1789323354562674000,15.795673828125,-0.40254834294319153,0.9975135922431946,-1.464888095855713
1789323354581525000,15.81452490234375,-0.5601469278335571,1.136786699295044,-1.6713544130325317
1789323354600375800,15.833375732421874,-0.6890357136726379,1.106244444847107,-1.932186245918274
1789323354619227000,15.852226806640624,-0.9095515608787537,1.12823486328125,-2.196683168411255
1789323354638078000,15.871077880859374,-1.2418525218963623,1.0274450778961182,-2.318241596221924
1789323354656929000,15.889928955078124,-1.544909119606018,0.8826742768287659,-2.371385335922241
1789323354675780000,15.908780029296874,-1.742823600769043,0.4434750974178314,-2.3750505447387695
1789323354694631200,15.927631103515624,-1.816736102104187,-0.16370706260204315,-2.651153564453125
1789323354713482000,15.94648193359375,-1.7452670335769653,-0.48989951610565186,-2.874112606048584
1789323354732333000,15.9653330078125,-1.4954304695129395,-0.6169557571411133,-3.018272638320923
1789323354751184100,15.98418408203125,-1.1019684076309204,-0.7330167293548584,-3.08790922164917
1789323354770035200,16.00303515625,-0.5894675850868225,-0.5161659121513367,-2.915039539337158
1789323354788886300,16.02188623046875,-0.23884128034114838,-0.2852656841278076,-2.335345506668091
1789323354807737300,16.0407373046875,-0.23334364593029022,0.08429691940546036,-1.7880263328552246
1789323354826588200,16.059588134765626,-0.32008397579193115,0.2895416021347046,-1.2656755447387695
1789323354845439200,16.078439208984374,-0.09345962852239609,0.3762819170951843,-0.5491516590118408
1789323354864290300,16.097290283203126,0.1844758689403534,0.3836120665073395,0.06413896381855011
1789323354883141400,16.116141357421874,0.3115321099758148,0.23212195932865143,0.43797749280929565
1789323354901992400,16.134992431640626,0.28343313932418823,0.05131116881966591,0.6774296164512634
1789323354920843300,16.15384326171875,0.24494975805282593,-0.07513421028852463,0.7977665066719055
1789323354939694300,16.1726943359375,0.28037887811660767,0.007941014133393764,0.9132166504859924
1789323354958545400,16.19154541015625,0.3139754831790924,0.07207997888326645,1.1178505420684814
1789323354977396500,16.210396484375,0.24372805655002594,0.07269082218408585,1.2882769107818604
1789323354996247600,16.22924755859375,0.14110571146011353,-0.04825693368911743,1.405635952949524
1789323355015098600,16.2480986328125,0.11911521852016449,-0.1050657257437706,1.4447301626205444
1789323355033949700,16.26694970703125,0.15515519678592682,-0.04703523963689804,1.4367891550064087
1789323355052800500,16.285800537109374,0.2852656841278076,0.15149012207984924,1.5326920747756958
1789323355071651600,16.304651611328126,0.4831801950931549,0.1960819661617279,1.7568731307983398
1789323355090502700,16.323502685546874,0.6560499668121338,0.13560809195041656,1.9132499694824219
1789323355109353700,16.342353759765626,0.730573296546936,0.10017894953489304,1.8985896110534668
1789323355128204800,16.361204833984374,0.7232431769371033,-0.04947862774133682,1.8741557598114014
1789323355147055600,16.3800556640625,0.7128587365150452,-0.25411245226860046,1.9132499694824219
1789323355165906700,16.39890673828125,0.7159129977226257,-0.43919917941093445,1.965782880783081
1789323355184757800,16.4177578125,0.7330167293548584,-0.5088357925415039,2.017704963684082
1789323355203608800,16.43660888671875,0.7519529461860657,-0.4416425824165344,2.09039568901062
1789323355222460000,16.4554599609375,0.7806627750396729,-0.38727715611457825,2.0885632038116455
1789323355241311000,16.47431103515625,0.7831062078475952,-0.5222744345664978,2.006709575653076
1789323355260162000,16.493162109375,0.679872989654541,-0.9743013978004456,1.8918702602386475
1789323355279012900,16.512012939453125,0.624285876750946,-1.1410627365112305,1.7629815340042114
1789323355297864000,16.530864013671874,0.7330167293548584,-0.6939224600791931,1.4502277374267578
1789323355316715000,16.549715087890625,0.8466343283653259,-0.2107423096895218,1.1618314981460571
1789323355335566000,16.568566162109374,0.7678350210189819,-0.21623992919921875,0.8643488883972168
1789323355354417200,16.587417236328125,0.53143709897995,-0.25533416867256165,0.5210527181625366
1789323355373268000,16.60626806640625,0.31031039357185364,-0.16492876410484314,0.2089097648859024
1789323355392119000,16.625119140625,0.182643324136734,0.010995250195264816,-0.020157959312200546
1789323355410970000,16.64397021484375,0.1459924876689911,0.1582094430923462,-0.17286977171897888
1789323355429821200,16.6628212890625,0.09529217332601547,0.22051586210727692,-0.42514967918395996
1789323355448672300,16.68167236328125,-0.009773556143045425,0.2919849753379822,-0.6713211536407471
1789323355467523300,16.7005234375,-0.12827792763710022,0.5192201733589172,-0.9620844125747681
1789323355486374400,16.71937451171875,-0.23334364593029022,0.7776085734367371,-1.2479609251022339
1789323355505225200,16.73822509765625,-0.36039987206459045,0.8918370008468628,-1.5161992311477661
1789323355524076300,16.757076171875,-0.5082249045372009,1.01706063747406,-1.738547682762146
1789323355542927400,16.77592724609375,-0.6859814524650574,0.943759024143219,-1.8888161182403564
1789323355561778400,16.7947783203125,-0.9565867781639099,0.8991671800613403,-1.9382946491241455
1789323355580629500,16.81362939453125,-1.1795459985733032,0.8130376935005188,-1.9376838207244873
1789323355599480300,16.832480224609377,-1.2931636571884155,0.6407787799835205,-2.043971300125122
1789323355618331400,16.851331298828125,-1.3818128108978271,0.3255815804004669,-2.0109856128692627
1789323355637182500,16.870182373046877,-1.3427186012268066,0.05008947476744652,-2.136820077896118
1789323355656033500,16.889033447265625,-1.2491827011108398,-0.09468132257461548,-2.1514804363250732
1789323355674884600,16.907884521484377,-1.1355650424957275,-0.23212195932865143,-2.1606431007385254
1789323355693735700,16.926735595703125,-0.9895725846290588,-0.4355340898036957,-2.2363882064819336
1789323355712586500,16.94558642578125,-0.8344173431396484,-0.6120689511299133,-2.2357773780822754
1789323355731437600,16.9644375,-0.6071822047233582,-0.70308518409729,-2.1472043991088867
1789323355750288600,16.98328857421875,-0.36039987206459045,-0.4990622103214264,-1.918136715888977
1789323355769139700,17.0021396484375,-0.17348061501979828,-0.2095206081867218,-1.566288709640503
1789323355787990800,17.02099072265625,-0.03298575058579445,-0.129499614238739,-1.178935170173645
1789323355806841600,17.039841552734377,0.007330167107284069,-0.06780404597520828,-0.781884491443634
1789323355825692700,17.058692626953125,0.07757759839296341,0.06047387793660164,-0.40987852215766907
1789323355844543700,17.077543701171876,0.1557660549879074,0.051922015845775604,-0.053143709897994995
1789323355863394800,17.096394775390625,0.2363978922367096,0.011606098152697086,0.2626643180847168
1789323355882246000,17.115245849609376,0.3005368411540985,0.023212196305394173,0.5296045541763306
1789323355901096700,17.1340966796875,0.3695625960826874,0.08857285231351852,0.8105943202972412
1789323355919947800,17.15294775390625,0.3805578351020813,0.11545012891292572,1.0488247871398926
1789323355938798800,17.171798828125,0.3671191930770874,-0.04703523963689804,1.1453386545181274
1789323355957650000,17.19064990234375,0.3402419090270996,-0.04153761267662048,1.119683027267456
1789323355976501000,17.2095009765625,0.32374903559684753,0.14904673397541046,1.100746750831604
1789323355995351800,17.228351806640624,0.29748260974884033,0.2217375487089157,1.1642749309539795
1789323356014203000,17.247202880859376,0.2522799074649811,0.10750912129878998,1.3665416240692139
1789323356033054000,17.266053955078124,0.3017585575580597,0.08429691940546036,1.4954304695129395
1789323356051905000,17.284905029296876,0.37200596928596497,0.10201149433851242,1.4905437231063843
1789323356070756000,17.303756103515624,0.4459185004234314,0.09895725548267365,1.5052039623260498
1789323356089607000,17.32260693359375,0.5424323678016663,0.08796200156211853,1.5326920747756958
1789323356108458000,17.3414580078125,0.6951441764831543,-0.01588202826678753,1.618821620941162
1789323356127309000,17.36030908203125,0.8991671800613403,-0.16798299551010132,1.7654249668121338
1789323356146160000,17.37916015625,1.035386085510254,-0.2504473626613617,1.9205801486968994
1789323356165011200,17.39801123046875,1.031110167503357,-0.3970507085323334,1.9969360828399658
1789323356183862300,17.4168623046875,0.8551861643791199,-0.47829338908195496,2.01526141166687
1789323356202713000,17.435713134765624,0.70797199010849,-0.7421793937683105,1.9773889780044556
1789323356221564200,17.454564208984376,0.5625903010368347,-0.9468132257461548,1.961506962776184
1789323356240415200,17.473415283203124,0.4477510452270508,-1.0378295183181763,1.9156934022903442
1789323356259266300,17.492266357421876,0.444085955619812,-0.6303943991661072,1.5846141576766968
1789323356278117400,17.511117431640624,0.5070032477378845,-0.2516690790653229,1.327981948852539
1789323356296968200,17.52996826171875,0.5289937257766724,-0.25716668367385864,1.0848647356033325
1789323356315819300,17.5488193359375,0.4563029110431671,-0.24250635504722595,0.9187142848968506
1789323356334670300,17.56767041015625,0.36162158846855164,-0.15149012207984924,0.6261184215545654
1789323356353521400,17.586521484375,0.265718549489975,-0.05986303091049194,0.4190412163734436
1789323356372372500,17.60537255859375,0.19302773475646973,-0.02870982140302658,0.15149012207984924
1789323356391223600,17.6242236328125,0.09529217332601547,0.10140064358711243,-0.12766708433628082
1789323356410074400,17.643074462890624,-0.042759306728839874,0.25411245226860046,-0.39643988013267517
1789323356428925400,17.661925537109376,-0.10750912129878998,0.448361873626709,-0.6456655263900757
1789323356447776500,17.680776611328124,-0.17470231652259827,0.7892146706581116,-1.009730577468872
1789323356466627600,17.699627685546876,-0.2877090573310852,0.9126058220863342,-1.3310362100601196
1789323356485478700,17.718478759765624,-0.4715740978717804,0.883895993232727,-1.6078263521194458
1789323356504329500,17.73732958984375,-0.6536065936088562,0.8722898960113525,-1.8075734376907349
1789323356523180500,17.7561806640625,-0.8790091872215271,0.8796200752258301,-1.942570686340332
1789323356542031600,17.775031494140624,-1.1673290729522705,0.8466343283653259,-2.0653510093688965
1789323356560882700,17.793882568359376,-1.3531030416488647,0.6468872427940369,-2.1026127338409424
1789323356579733800,17.812733642578124,-1.3647091388702393,0.4990622103214264,-2.141706943511963
1789323356598584600,17.83158447265625,-1.405635952949524,0.291374146938324,-2.11666202545166
1789323356617435600,17.850435546875,-1.3946406841278076,0.0030542362947016954,-2.3292369842529297
1789323356636286700,17.86928662109375,-1.3084348440170288,-0.20585553348064423,-2.4239182472229004
1789323356655137800,17.8881376953125,-1.1233481168746948,-0.3023693859577179,-2.452017307281494
1789323356673988600,17.906988525390624,-0.897334635257721,-0.4477510452270508,-2.4153664112091064
1789323356692839700,17.925839599609375,-0.7024743556976318,-0.5351021885871887,-2.327404499053955
1789323356711690800,17.944690673828124,-0.5259394645690918,-0.5497625470161438,-2.1893529891967773
1789323356730541800,17.963541748046875,-0.32313820719718933,-0.3939964771270752,-1.909584879875183
1789323356749393000,17.982392822265624,-0.11117420345544815,-0.19363857805728912,-1.5180318355560303
1789323356768243700,18.00124365234375,0.08918370306491852,-0.08612946420907974,-1.1019684076309204
1789323356787094800,18.0200947265625,0.07635590434074402,-0.09468132257461548,-0.6505523324012756
1789323356805945900,18.03894580078125,0.03542914241552353,-0.09651386737823486,-0.24556060135364532
1789323356824797000,18.057796875,0.0647498071193695,0.12094775587320328,0.10262233763933182
1789323356843647700,18.076647705078123,0.2089097648859024,0.17470231652259827,0.4446968138217926
1789323356862498800,18.095498779296875,0.3017585575580597,0.2089097648859024,0.7372926473617554
1789323356881350000,18.114349853515623,0.3298575282096863,0.12155860662460327,0.948034942150116
1789323356900201000,18.133200927734375,0.33535513281822205,0.18875180184841156,1.0659284591674805
1789323356919052000,18.152052001953123,0.3054236173629761,0.2724378705024719,1.1355650424957275
1789323356937902800,18.17090283203125,0.21990501880645752,0.2602209448814392,1.1880979537963867
1789323356956754000,18.18975390625,0.11056335270404816,0.1588202863931656,1.2473500967025757
1789323356975605000,18.20860498046875,0.05497625470161438,0.1178935244679451,1.2980504035949707
1789323356994456000,18.2274560546875,0.08063183724880219,0.16553960740566254,1.400138258934021
1789323357013307000,18.246306884765627,0.18814095854759216,0.2223484069108963,1.5962202548980713
1789323357032158000,18.265157958984375,0.3958290219306946,0.34512871503829956,1.7416019439697266
1789323357051009000,18.284009033203127,0.6273401379585266,0.2767138183116913,1.7116703987121582
1789323357069860000,18.302860107421875,0.7696675658226013,0.1844758689403534,1.7495429515838623
1789323357088711200,18.321711181640627,0.8276980519294739,0.014049487188458443,1.9541767835617065
1789323357107562000,18.34056201171875,0.8478559851646423,-0.3439069986343384,2.1410961151123047
1789323357126413000,18.3594130859375,0.9009997248649597,-0.5607577562332153,2.1441502571105957
1789323357145264000,18.37826416015625,0.8386932611465454,-0.5167768001556396,2.014650583267212
1789323357164115200,18.397115234375,0.7440119385719299,-0.4080459773540497,2.020148277282715
1789323357182966300,18.41596630859375,0.6261184215545654,-0.818535327911377,2.156978130340576
1789323357201817000,18.434817138671875,0.5937435626983643,-1.1740484237670898,2.1472043991088867
1789323357220668200,18.453668212890626,0.6719319820404053,-1.0561549663543701,1.877210021018982
1789323357239519200,18.472519287109375,0.7409577369689941,-0.6145123243331909,1.5284161567687988
1789323357258370300,18.491370361328126,0.6780404448509216,-0.5137225389480591,1.349437952041626
1789323357277221000,18.51022119140625,0.5289937257766724,-0.4581354558467865,1.1031901836395264
1789323357296072200,18.529072265625,0.35795649886131287,-0.26877278089523315,0.7434011101722717
1789323357314923300,18.54792333984375,0.2339545041322708,-0.09895725548267365,0.47890424728393555
1789323357333774300,18.5667744140625,0.1832541823387146,0.0653606578707695,0.16004198789596558
1789323357352625200,18.585625244140626,0.14965757727622986,0.19913621246814728,-0.19180603325366974
1789323357371476200,18.604476318359374,0.04886778071522713,0.3781144618988037,-0.43614494800567627
1789323357390327300,18.623327392578126,0.0012216945178806782,0.5204418897628784,-0.684759795665741
1789323357409178400,18.642178466796874,-0.0006108472589403391,0.6859814524650574,-1.0469921827316284
1789323357428029400,18.661029541015626,-0.09590301662683487,0.790436327457428,-1.3775368928909302
1789323357446880300,18.67988037109375,-0.3280249834060669,0.8741224408149719,-1.6304277181625366
1789323357465731300,18.6987314453125,-0.5699204802513123,0.837471604347229,-1.7941347360610962
1789323357484582400,18.71758251953125,-0.730573296546936,0.8716790676116943,-1.95967435836792
1789323357503433200,18.73643310546875,-0.9828532338142395,0.8032641410827637,-2.043971300125122
1789323357522284300,18.7552841796875,-1.2381874322891235,0.7104153633117676,-2.061685800552368
1789323357541135400,18.77413525390625,-1.3500487804412842,0.5955760478973389,-2.1435394287109375
1789323357559986400,18.792986328125,-1.4312914609909058,0.288930743932724,-2.128268241882324
1789323357578837500,18.81183740234375,-1.381201982498169,0.021379653364419937,-2.2296688556671143
1789323357597688300,18.830688232421874,-1.2827792167663574,-0.13988402485847473,-2.3579468727111816
1789323357616539400,18.849539306640626,-1.113574504852295,-0.2510582208633423,-2.4092578887939453
1789323357635390500,18.868390380859374,-0.9089407324790955,-0.3689517378807068,-2.445297956466675
1789323357654241500,18.887241455078126,-0.7085828185081482,-0.5711421966552734,-2.3988735675811768
1789323357673092400,18.90609228515625,-0.5125008225440979,-0.6212316751480103,-2.2107326984405518
1789323357691943400,18.924943359375,-0.33230090141296387,-0.38666632771492004,-1.8882052898406982
1789323357710794500,18.94379443359375,-0.16248537600040436,-0.11483928561210632,-1.515588402748108
1789323357729645600,18.9626455078125,-0.06658235192298889,-0.08979454636573792,-1.1538904905319214
1789323357748496400,18.981496337890626,-0.08307522535324097,-0.16004198789596558,-0.7623373866081238
1789323357767347500,19.000347412109374,0.005497625097632408,-0.023823043331503868,-0.3793361485004425
1789323357786198500,19.019198486328126,0.1954711228609085,0.1325538605451584,-0.04092676565051079
1789323357805049600,19.038049560546874,0.3133646547794342,0.12522368133068085,0.24250635504722595
1789323357823900400,19.056900390625,0.3823903799057007,0.037261683493852615,0.5595360994338989
1789323357842751500,19.07575146484375,0.4343124032020569,0.13988402485847473,0.8454126119613647
1789323357861602600,19.0946025390625,0.4318690001964569,0.18936264514923096,1.0683718919754028
1789323357880453400,19.113453369140625,0.337798535823822,0.208298921585083,1.1630531549453735
1789323357899304400,19.132304443359374,0.21868331730365753,0.028098974376916885,1.1740484237670898
1789323357918155500,19.151155517578125,0.16737215220928192,0.1185043677687645,1.2003148794174194
1789323357937006600,19.170006591796874,0.1844758689403534,0.26816195249557495,1.2247487306594849
1789323357955857400,19.188857421875,0.19119518995285034,0.25777754187583923,1.3421077728271484
1789323357974708500,19.20770849609375,0.22784602642059326,0.24067382514476776,1.553460955619812
1789323357993559600,19.2265595703125,0.3170297145843506,0.24617144465446472,1.706783652305603
1789323358012410600,19.24541064453125,0.4556920528411865,0.11300674080848694,1.7855829000473022
1789323358031261400,19.264261474609373,0.6365028619766235,0.045202698558568954,1.9218018054962158
1789323358050112500,19.283112548828125,0.8069292306900024,-0.12644538283348083,2.075124502182007
1789323358068963600,19.301963623046873,0.9174925684928894,-0.3151971995830536,2.122159719467163
1789323358087814700,19.320814697265625,0.9309312105178833,-0.3762819170951843,2.0396952629089355
1789323358106665500,19.33966552734375,0.8441908955574036,-0.3170297145843506,2.0079312324523926
1789323358125516500,19.3585166015625,0.809983491897583,-0.4312581717967987,2.136820077896118
1789323358144367600,19.37736767578125,0.739736020565033,-0.7757760286331177,2.182633638381958
1789323358163218400,19.396218505859373,0.6444438695907593,-1.1691616773605347,2.029310941696167
1789323358182069500,19.415069580078125,0.6853706240653992,-1.1899304389953613,1.8851510286331177
1789323358200920600,19.433920654296877,0.7739434838294983,-0.8203678727149963,1.6829605102539062
1789323358219771600,19.452771728515625,0.6548282504081726,-0.739736020565033,1.318819284439087
1789323358238622500,19.47162255859375,0.4282039403915405,-0.517998456954956,1.1001359224319458
1789323358257473500,19.4904736328125,0.28098973631858826,-0.21623992919921875,0.7598940134048462
1789323358276324600,19.50932470703125,0.23945212364196777,-0.062306419014930725,0.4489727318286896
1789323358295175400,19.528175537109377,0.24006296694278717,0.1698155403137207,0.1704263836145401
1789323358314026500,19.547026611328125,0.2486148327589035,0.2754921019077301,-0.0390942245721817
1789323358332877600,19.565877685546877,0.21379654109477997,0.284654825925827,-0.3512371778488159
1789323358351728600,19.584728759765625,0.12216944992542267,0.23823043704032898,-0.7708892226219177
1789323358370579500,19.603579345703125,-0.05619794875383377,0.5625903010368347,-1.0799779891967773
1789323358389430500,19.622430419921876,-0.2864873707294464,0.8167027831077576,-1.3078240156173706
1789323358408281600,19.641281494140625,-0.43736663460731506,0.9022213816642761,-1.5522392988204956
1789323358427132700,19.660132568359376,-0.53143709897995,0.9492566585540771,-1.7434344291687012
1789323358445983500,19.6789833984375,-0.6603258848190308,0.9382613897323608,-1.8662147521972656
1789323358464834600,19.69783447265625,-0.8509102463722229,0.9211576581001282,-2.026256799697876
1789323358483685600,19.716685546875,-1.063485026359558,0.8264763355255127,-2.142317771911621
1789323358502536400,19.735536376953124,-1.2125318050384521,0.679872989654541,-2.163086414337158
1789323358521387500,19.754387451171876,-1.3230952024459839,0.4489727318286896,-2.191185474395752
1789323358540238600,19.773238525390624,-1.3421077728271484,0.16859383881092072,-2.2357773780822754
1789323358559089400,19.79208935546875,-1.3139324188232422,0.010995250195264816,-2.3408429622650146
1789323358577940500,19.8109404296875,-1.197871446609497,-0.1172826737165451,-2.3310694694519043
1789323358596791600,19.82979150390625,-1.0024003982543945,-0.4037700295448303,-2.3005270957946777
1789323358615642400,19.848642333984376,-0.781884491443634,-0.4953971207141876,-2.312744140625
1789323358634493400,19.867493408203124,-0.5888567566871643,-0.46241137385368347,-2.3231284618377686
1789323358653344500,19.886344482421876,-0.4752391576766968,-0.3414636254310608,-2.103834390640259
1789323358672195600,19.905195556640624,-0.37506023049354553,-0.24433889985084534,-1.6261518001556396
1789323358691046400,19.92404638671875,-0.1966928243637085,-0.12033691257238388,-1.1355650424957275
1789323358709897500,19.9428974609375,-0.0030542362947016954,-0.062306419014930725,-0.7214106321334839
1789323358728748500,19.96174853515625,0.06352811306715012,-0.12033691257238388,-0.3011476993560791
1789323358747599400,19.980599365234376,0.09956810623407364,-0.16370706260204315,0.1557660549879074
1789323358766450400,19.999450439453124,0.2480039894580841,0.10995250940322876,0.4831801950931549
1789323358785301500,20.018301513671876,0.3408527672290802,0.3555130958557129,0.6933116316795349
1789323358804152300,20.03715234375,0.30908870697021484,0.3695625960826874,0.8270871639251709
1789323358823003400,20.05600341796875,0.19058434665203094,0.18875180184841156,0.9773555994033813
1789323358841854200,20.074854248046876,0.1557660549879074,0.15026842057704926,1.058598279953003
1789323358860705300,20.093705322265624,0.1850867122411728,0.1319430023431778,1.0750911235809326
1789323358879556400,20.112556396484376,0.21868331730365753,0.07146912813186646,1.1202938556671143
1789323358898407400,20.131407470703124,0.24678228795528412,0.0397050715982914,1.2375766038894653
1789323358917258200,20.15025830078125,0.291374146938324,0.15515519678592682,1.364098310470581
1789323358936109300,20.169109375,0.342074453830719,0.21807247400283813,1.4997063875198364
1789323358954960400,20.18796044921875,0.42514967918395996,0.28098973631858826,1.6768521070480347
1789323358973811200,20.206811279296875,0.6145123243331909,0.20524467527866364,1.7868045568466187
1789323358992662300,20.225662353515624,0.8105943202972412,0.01954711228609085,1.806962490081787
1789323359011513300,20.244513427734375,0.9553651213645935,-0.12827792763710022,1.8937028646469116
1789323359030364200,20.2633642578125,0.9804098606109619,-0.284654825925827,1.963950276374817
1789323359049215200,20.28221533203125,0.8979454636573792,-0.43858832120895386,1.9731130599975586
1789323359068066300,20.30106640625,0.869235634803772,-0.42881476879119873,1.9028655290603638
1789323359086917000,20.319917236328124,0.8289197087287903,-0.48989951610565186,1.8796533346176147
1789323359105768200,20.338768310546875,0.6969767212867737,-0.9181034564971924,2.020759105682373
1789323359124619000,20.357618896484375,0.6420004963874817,-1.3708176612854004,2.058631658554077
1789323359143470000,20.376469970703123,0.7262973785400391,-1.0952491760253906,1.8839292526245117
1789323359162321200,20.395321044921875,0.7476770281791687,-0.5351021885871887,1.664635181427002
1789323359181172000,20.414171875,0.5974085927009583,-0.5210527181625366,1.4642772674560547
1789323359200023000,20.43302294921875,0.45141613483428955,-0.46485477685928345,1.252847671508789
1789323359218874000,20.4518740234375,0.39766156673431396,-0.10078980028629303,0.8582404255867004
1789323359237725000,20.470724853515627,0.265718549489975,0.08857285231351852,0.5070032477378845
1789323359256576000,20.489575927734375,0.18569757044315338,0.13927318155765533,0.2632751762866974
1789323359275427000,20.508427001953127,0.17897824943065643,0.208298921585083,0
1789323359294278000,20.52727783203125,0.1301104724407196,0.32191649079322815,-0.37261682748794556
1789323359313129000,20.54612890625,-0.055587101727724075,0.4422534108161926,-0.6872031688690186
1789323359331980000,20.56497998046875,-0.17592400312423706,0.7366818189620972,-0.9840749502182007
1789323359350830800,20.583830810546875,-0.2608317732810974,0.8222004175186157,-1.3151541948318481
1789323359369682000,20.602681884765627,-0.3836120665073395,0.8686248064041138,-1.6218758821487427
1789323359388533000,20.621532958984375,-0.5662553906440735,0.9284878373146057,-1.8002432584762573
1789323359407383800,20.6403837890625,-0.731184184551239,0.9633061289787292,-1.9492899179458618
1789323359435660300,20.668660400390625,-1.1245697736740112,0.9932376146316528,-2.0684051513671875
1789323359454511400,20.687511474609376,-1.299272060394287,0.8667922616004944,-2.081843852996826
1789323359473362200,20.706362060546876,-1.3549355268478394,0.7110261917114258,-2.1691949367523193
1789323359492213200,20.725213134765625,-1.3995274305343628,0.3939964771270752,-2.1667516231536865
1789323359511064300,20.744064208984376,-1.3610440492630005,0.15210096538066864,-2.3109116554260254
1789323359529915100,20.7629150390625,-1.2748382091522217,-0.08002099394798279,-2.292586088180542
1789323359558191600,20.791191650390626,-1.0347752571105957,-0.37078428268432617,-2.3145766258239746
1789323359577042700,20.810042724609374,-0.8301414251327515,-0.4679090082645416,-2.3109116554260254
1789323359595893500,20.8288935546875,-0.6383354067802429,-0.5436540842056274,-2.156367063522339
1789323359614744600,20.84774462890625,-0.45019441843032837,-0.4428642690181732,-1.9358513355255127
1789323359633595600,20.866595703125,-0.23273280262947083,-0.2583884000778198,-1.6774629354476929
1789323359652446500,20.885446533203126,-0.04947862774133682,-0.1459924876689911,-1.4355673789978027
1789323359671297500,20.904297607421874,0.02748812735080719,-0.20463383197784424,-1.045770525932312
1789323359690148600,20.923148681640626,0.11117420345544815,-0.12155860662460327,-0.5289937257766724
1789323359708999400,20.94199951171875,0.2095206081867218,0.14110571146011353,-0.08490777015686035
1789323359727850500,20.9608505859375,0.2602209448814392,0.1582094430923462,0.27976804971694946
1789323359746701300,20.979701416015626,0.23151111602783203,-0.054365407675504684,0.6041279435157776
1789323359765552400,20.998552490234374,0.25350162386894226,0.051922015845775604,0.8350282311439514
1789323359784403500,21.017403564453126,0.3249707520008087,0.284654825925827,0.9883508682250977
1789323359803254300,21.036254150390626,0.34696123003959656,0.3280249834060669,1.0757020711898804
1789323359822105300,21.055105224609374,0.2504473626613617,0.22906772792339325,1.1160179376602173
1789323359840956200,21.0739560546875,0.14171656966209412,0.09895725548267365,1.2082558870315552
1789323359859807200,21.09280712890625,0.11606097966432571,0.08429691940546036,1.2998830080032349
1789323359878658300,21.111658203125,0.1716480851173401,0.06902574002742767,1.3714284896850586
1789323359897509000,21.130509033203126,0.2626643180847168,0.11606097966432571,1.5131449699401855
1789323359916360200,21.149360107421874,0.4282039403915405,0.12094775587320328,1.7324391603469849
1789323359935211000,21.1682109375,0.6933116316795349,0.13988402485847473,1.8521652221679688
1789323359954062000,21.18706201171875,0.8301414251327515,0.09040539711713791,1.8662147521972656
1789323359972913000,21.205912841796874,0.8105943202972412,-0.10078980028629303,1.9822757244110107
1789323359991764000,21.224763916015625,0.8252546191215515,-0.2980934679508209,2.1154403686523438
1789323360010615000,21.243614990234374,0.8765658140182495,-0.38544461131095886,2.070237636566162
1789323360029465900,21.2624658203125,0.8515210747718811,-0.4178195297718048,1.9676153659820557
1789323360048317000,21.28131689453125,0.8283088803291321,-0.4471401870250702,2.0311434268951416
1789323360076593400,21.309593505859375,0.7012526392936707,-0.6914790868759155,2.102001667022705
1789323360095444200,21.3284443359375,0.5253286361694336,-1.1404517889022827,2.0690159797668457
1789323360114295300,21.34729541015625,0.42759308218955994,-1.1563338041305542,1.8381158113479614
1789323360133146000,21.36614599609375,0.47951510548591614,-0.70797199010849,1.5601803064346313
1789323360151997200,21.3849970703125,0.503948986530304,-0.3915531039237976,1.2888877391815186
1789323360170848300,21.40384814453125,0.36162158846855164,-0.25716668367385864,1.0390511751174927
1789323360189699000,21.422698974609375,0.23212195932865143,-0.04947862774133682,0.8038749694824219
1789323360208550100,21.441550048828127,0.20768806338310242,-0.016492875292897224,0.420873761177063
1789323360227401000,21.46040087890625,0.10873081535100937,0.07207997888326645,0.04703523963689804
1789323360246252000,21.479251953125,-0.042759306728839874,0.1582094430923462,-0.2504473626613617
1789323360265102800,21.498102783203127,-0.15332266688346863,0.2864873707294464,-0.5100574493408203
1789323360283954000,21.516953857421875,-0.2101314514875412,0.474017471075058,-0.813648521900177
1789323360302804700,21.5358046875,-0.2736595869064331,0.7605048418045044,-1.192984700202942
1789323360321655800,21.55465576171875,-0.4220954477787018,0.8429692387580872,-1.4221287965774536
1789323360340507000,21.5735068359375,-0.5686988234519958,0.8753440976142883,-1.646309733390808
1789323360359357700,21.592357666015626,-0.7421793937683105,0.9290986657142639,-1.8698798418045044
1789323360378208800,21.611208740234375,-0.9578084945678711,0.7843278646469116,-2.003655433654785
1789323360397059600,21.6300595703125,-1.1771026849746704,0.8301414251327515,-2.0329761505126953
1789323360415910700,21.64891064453125,-1.2510151863098145,0.8167027831077576,-2.0482470989227295
1789323360434761500,21.667761474609375,-1.2467392683029175,0.5448757410049438,-2.145371913909912
1789323360453612500,21.686612548828126,-1.3017154932022095,0.046424392610788345,-2.182633638381958
1789323360472463600,21.705463623046874,-1.2840009927749634,-0.19424942135810852,-2.3518383502960205
1789323360491314400,21.724314453125,-1.1581664085388184,-0.31031039357185364,-2.345118999481201
1789323360519591000,21.7525908203125,-0.8472451567649841,-0.5216635465621948,-2.315187454223633
1789323360538441700,21.771441650390624,-0.6450546979904175,-0.6474980711936951,-2.3438973426818848
1789323360557292800,21.790292724609376,-0.4856235682964325,-0.7623373866081238,-2.2938077449798584
1789323360576144000,21.809143798828124,-0.33169007301330566,-0.6859814524650574,-2.0830655097961426
1789323360594994700,21.82799462890625,-0.11300674080848694,-0.5357130169868469,-1.7263307571411133
1789323360613845500,21.846845458984376,0.1429382562637329,-0.3298575282096863,-1.3524922132492065
1789323360632696600,21.865696533203124,0.2754921019077301,-0.09345962852239609,-0.9064973592758179
1789323360651547600,21.884547607421876,0.2754921019077301,0.034818295389413834,-0.43614494800567627
1789323360670398500,21.9033984375,0.1973036676645279,-0.014049487188458443,-0.02748812735080719
1789323360689249500,21.92224951171875,0.208298921585083,-0.04337015375494957,0.3115321099758148
1789323360708100400,21.941100341796876,0.3268032968044281,0.13316470384597778,0.577861487865448
1789323360726951400,21.959951416015624,0.3970507085323334,0.17225892841815948,0.813648521900177
1789323360745802200,21.97880224609375,0.38727715611457825,0.23212195932865143,1.0201148986816406
1789323360774078700,22.00707861328125,0.3255815804004669,0.21440738439559937,1.1850436925888062
1789323360792929500,22.025929443359374,0.2620534598827362,0.10995250940322876,1.226581335067749
1789323360811780600,22.044780517578126,0.18875180184841156,0.07085828483104706,1.295607089996338
1789323360830631700,22.063631591796874,0.16676130890846252,0.07513421028852463,1.4734399318695068
1789323360849482500,22.082482421875,0.24617144465446472,0.2107423096895218,1.6829605102539062
1789323360868333600,22.10133349609375,0.34573954343795776,0.29381752014160156,1.8173469305038452
1789323360887184400,22.120184326171874,0.45202696323394775,0.2651077210903168,1.9083632230758667
1789323360906035200,22.13903515625,0.5656445622444153,0.17348061501979828,1.9578418731689453
1789323360924886300,22.15788623046875,0.6878139972686768,0.06719319522380829,1.890648603439331
1789323360943737300,22.1767373046875,0.7580614686012268,-0.10750912129878998,1.770311713218689
1789323360962588200,22.195588134765625,0.7525638341903687,-0.2724378705024719,1.8466676473617554
1789323360981439200,22.214439208984373,0.7317950129508972,-0.2907632887363434,1.9663937091827393
1789323361000290000,22.2332900390625,0.7794411182403564,-0.2870981991291046,2.0189266204833984
1789323361019141000,22.25214111328125,0.7965448498725891,-0.5644228458404541,2.101390838623047
1789323361037992000,22.270991943359373,0.7934905886650085,-1.022558331489563,2.101390838623047
1789323361056843000,22.289843017578125,0.8490777015686035,-1.081810474395752,1.9114174842834473
1789323361075693800,22.30869384765625,0.864959716796875,-0.5809157490730286,1.6151565313339233
1789323361094545000,22.327544921875,0.7641699314117432,-0.4605788290500641,1.405635952949524
1789323361113395700,22.346395751953125,0.6468872427940369,-0.49295374751091003,1.1343433856964111
1789323361132246800,22.365246826171877,0.5198310017585754,-0.3310792148113251,0.70308518409729
1789323361151097600,22.38409765625,0.26755109429359436,-0.08490777015686035,0.3310792148113251
1789323361169948700,22.40294873046875,0.07391251623630524,0.04459185153245926,0.17531315982341766
1789323361188799500,22.421799560546877,0.04153761267662048,0.22662433981895447,-0.023212196305394173
1789323361207650300,22.440650390625,0.030542362481355667,0.42881476879119873,-0.30725616216659546
1789323361226501400,22.45950146484375,-0.023823043331503868,0.6542174220085144,-0.6615476012229919
1789323361245352200,22.478352294921876,-0.13621893525123596,0.6328377723693848,-0.9474241137504578
1789323361264203300,22.497203369140625,-0.3023693859577179,0.6603258848190308,-1.152668833732605
1789323361283054000,22.51605419921875,-0.4727957844734192,0.7330167293548584,-1.382423758506775
1789323361301905200,22.5349052734375,-0.6694886088371277,0.7580614686012268,-1.6334819793701172
1789323361320756000,22.553755859375,-0.8851176500320435,0.7769976854324341,-1.816736102104187
1789323361339607000,22.57260693359375,-1.1532796621322632,0.7843278646469116,-1.9120283126831055
1789323361358457900,22.591457763671876,-1.3995274305343628,0.7605048418045044,-1.9150824546813965
1789323361377309000,22.610308837890624,-1.4435083866119385,0.6505523324012756,-1.964561104774475
1789323361396159700,22.62915966796875,-1.4587795734405518,0.4324798583984375,-2.037862777709961
1789323361415010800,22.6480107421875,-1.4728291034698486,0.0916270911693573,-2.0922281742095947
1789323361433861600,22.666861572265624,-1.4355673789978027,-0.16492876410484314,-2.197293996810913
1789323361452712700,22.685712646484376,-1.323706030845642,-0.33413344621658325,-2.231501340866089
1789323361480989000,22.713989013671874,-1.0213366746902466,-0.5399889945983887,-2.3402321338653564
1789323361499840000,22.732840087890626,-0.8044858574867249,-0.7513421177864075,-2.2993054389953613
1789323361518690800,22.75169091796875,-0.5277720093727112,-0.6823163628578186,-2.1691949367523193
1789323361537542000,22.7705419921875,-0.25594499707221985,-0.40254834294319153,-1.9083632230758667
1789323361556392700,22.789392822265626,-0.014660334214568138,-0.16126367449760437,-1.543076515197754
1789323361575243800,22.808243896484374,0.09956810623407364,-0.03420744836330414,-1.0708152055740356
1789323361594094600,22.827094482421874,0.09468132257461548,-0.005497625097632408,-0.5839699506759644
1789323361612945400,22.8459453125,0.061084724962711334,-0.12033691257238388,-0.17836740612983704
1789323361631796500,22.86479638671875,0.20035789906978607,-0.006108472589403391,0.1569877415895462
1789323361650647300,22.883647216796874,0.33352261781692505,-0.030542362481355667,0.40193748474121094
1789323361669498400,22.902498291015625,0.39888325333595276,-0.0397050715982914,0.578472375869751
1789323361688349200,22.92134912109375,0.4196520745754242,0.07269082218408585,0.8130376935005188
1789323361707200300,22.9402001953125,0.39949411153793335,0.05375456064939499,1.035386085510254
1789323361726051000,22.959051025390625,0.3042019307613373,0.1172826737165451,1.142895221710205
1789323361744902000,22.97790185546875,0.21562908589839935,-0.0024433890357613564,1.1807677745819092
1789323361763753000,22.9967529296875,0.21379654109477997,-0.045202698558568954,1.2284138202667236
1789323361782603800,23.015603759765625,0.31825143098831177,0.07696675509214401,1.2461284399032593
1789323361801454800,23.034454833984373,0.4703523814678192,0.2241809368133545,1.2919420003890991
1789323361820305700,23.0533056640625,0.6065713167190552,0.33352261781692505,1.4459518194198608
1789323361839156700,23.07215673828125,0.7085828185081482,0.2858765125274658,1.589500904083252
1789323361858007600,23.091007568359377,0.7360709309577942,0.129499614238739,1.6817388534545898
1789323361876858400,23.1098583984375,0.7067502737045288,-0.09834641218185425,1.8173469305038452
1789323361895709400,23.12870947265625,0.7556180357933044,-0.2473931461572647,2.0170938968658447
1789323361914560300,23.147560302734377,0.8912261724472046,-0.2644968628883362,2.109942674636841
1789323361933411300,23.166411376953125,0.9877400398254395,-0.23212195932865143,2.1117753982543945
1789323361952262100,23.18526220703125,0.9382613897323608,-0.20768806338310242,2.092839002609253
1789323361971113000,23.204113037109376,0.8576295375823975,-0.49356457591056824,2.102001667022705
1789323361989964000,23.222964111328125,0.7769976854324341,-0.9345963001251221,2.095282554626465
1789323362008814800,23.24181494140625,0.7159129977226257,-1.0891406536102295,1.9651719331741333
1789323362027665700,23.260665771484376,0.7415685653686523,-0.6810947060585022,1.742823600769043
1789323362046516700,23.279516845703125,0.7782194018363953,-0.4947862923145294,1.6438663005828857
1789323362065367600,23.298367431640624,0.7427902817726135,-0.6328377723693848,1.339664340019226
1789323362084218600,23.317218505859376,0.5638120174407959,-0.4990622103214264,0.869235634803772
1789323362103069400,23.3360693359375,0.3390202224254608,-0.2761029601097107,0.47890424728393555
1789323362121920300,23.354920166015624,0.15271180868148804,-0.06780404597520828,0.1698155403137207
1789323362140771300,23.373771240234376,0.06291726976633072,0.20402298867702484,-0.010995250195264816
1789323362159622100,23.3926220703125,0.026877280324697495,0.4428642690181732,-0.2095206081867218
1789323362178473200,23.41147314453125,-0.06902574002742767,0.503948986530304,-0.5711421966552734
1789323362197324000,23.430323974609376,-0.12522368133068085,0.6896465420722961,-0.9376505613327026
1789323362216174800,23.4491748046875,-0.21746163070201874,0.8283088803291321,-1.3078240156173706
1789323362235026000,23.46802587890625,-0.42576053738594055,0.8307522535324097,-1.5913335084915161
1789323362253876700,23.486876708984376,-0.6438329815864563,0.9431481957435608,-1.7495429515838623
1789323362272727600,23.5057275390625,-0.8466343283653259,1.007897973060608,-1.867436408996582
1789323362291578600,23.52457861328125,-1.100746750831604,0.9932376146316528,-1.9755563735961914
1789323362310429400,23.543429443359376,-1.3194301128387451,0.8936695456504822,-1.9804431200027466
1789323362329280500,23.562280517578124,-1.400138258934021,0.8160919547080994,-2.038473606109619
1789323362348131300,23.58113134765625,-1.45939040184021,0.43797749280929565,-2.1032235622406006
1789323362366982100,23.599982177734375,-1.478326678276062,-0.07085828483104706,-2.1380417346954346
1789323362385833200,23.618833251953124,-1.4227396249771118,-0.16248537600040436,-2.2278363704681396
1789323362404684000,23.63768408203125,-1.2852226495742798,-0.31031039357185364,-2.251659393310547
1789323362423534800,23.656534912109375,-1.0793671607971191,-0.5002838969230652,-2.280980110168457
1789323362442386000,23.675385986328124,-0.8393041491508484,-0.656660795211792,-2.3487839698791504
1789323362461236700,23.69423681640625,-0.5937435626983643,-0.6597150564193726,-2.396430253982544
1789323362480087600,23.713087646484375,-0.41048935055732727,-0.4080459773540497,-2.208899974822998
1789323362498938600,23.731938720703123,-0.24372805655002594,-0.24128466844558716,-1.8466676473617554
1789323362517789400,23.75078955078125,-0.11667182296514511,-0.1423274129629135,-1.45939040184021
1789323362536640300,23.76964013671875,-0.05131116881966591,-0.16676130890846252,-1.0201148986816406
1789323362555491300,23.7884912109375,0.16248537600040436,-0.13866232335567474,-0.4966188073158264
1789323362574342100,23.807342041015627,0.3573456406593323,0.08246438205242157,-0.05070032179355621
