time,seconds_elapsed,z,y,x
1789324327610606800,0.15060693359375,8.09671401977539,3.153141975402832,0.2826521694660187
1789324327629457200,0.16945703125,7.948358535766602,3.1028928756713867,0.08614161610603333
1789324327648307500,0.188307373046875,7.6013994216918945,3.246462106704712,-0.18903298676013947
1789324327667157500,0.207157470703125,7.043572425842285,3.4498519897460938,-0.4214358925819397
1789324327686007800,0.2260078125,6.705885410308838,3.660719633102417,-0.7636095285415649
1789324327714283000,0.254282958984375,7.507780075073242,3.6511483192443848,-1.0654042959213257
1789324327733133300,0.27313330078125,8.276473999023438,3.5168511867523193,-0.8763712644577026
1789324327751983600,0.291983642578125,9.040083885192871,3.253640651702881,-0.5697908997535706
1789324327770833700,0.310833740234375,9.47348403930664,3.2751760482788086,-0.36640095710754395
1789324327799109000,0.339109130859375,9.229117393493652,3.555136203765869,-0.35443684458732605
1789324327817959400,0.35795947265625,8.994620323181152,3.64127779006958,-0.5386841893196106
1789324327836809500,0.3768095703125,8.685647010803223,3.7755749225616455,-0.6343970894813538
1789324327855659800,0.39565966796875,8.745766639709473,3.9550366401672363,-0.5745765566825867
1789324327874510000,0.414510009765625,8.901300430297852,4.057928085327148,-0.4740779995918274
1789324327893360000,0.433360107421875,9.255437850952148,4.091427803039551,-0.41186460852622986
1789324327912210400,0.45221044921875,9.48784065246582,4.045963764190674,-0.23210379481315613
1789324327931060700,0.471060791015625,9.566803932189941,4.002892971038818,0.11485548317432404
1789324327949910800,0.489910888671875,9.767801284790039,3.9167516231536865,0.385543555021286
1789324327968761000,0.508760986328125,9.847063064575195,3.7588253021240234,0.6176473498344421
1789324327987611400,0.527611328125,9.361021041870117,3.842574119567871,0.48843491077423096
1789324328006461400,0.54646142578125,8.563612937927246,3.9335012435913086,0.2799602448940277
1789324328025311700,0.565311767578125,8.005785942077637,4.072285175323486,0.2225325107574463
1789324328044162000,0.584162109375,7.922037601470947,4.232903480529785,0.31375887989997864
1789324328063012000,0.60301220703125,8.487042427062988,4.2281174659729,0.3329014480113983
1789324328081862400,0.6218623046875,8.633005142211914,4.216153621673584,0.16510476171970367
1789324328100712700,0.640712646484375,7.677969455718994,4.486542224884033,-0.040677983313798904
1789324328119562800,0.659562744140625,6.87816858291626,4.800301551818848,-0.09571290761232376
1789324328138413000,0.6784130859375,7.2732834815979,4.805087089538574,-0.18903298676013947
1789324328157263400,0.697263427734375,8.175975799560547,4.7931227684021,-0.33768710494041443
1789324328176113700,0.71611376953125,8.656932830810547,4.666004180908203,-0.37836506962776184
1789324328194963700,0.734963623046875,8.784051895141602,4.658825874328613,-0.4166502356529236
1789324328213814000,0.75381396484375,9.226723670959473,4.66361141204834,-0.5291129350662231
1789324328232664300,0.772664306640625,9.681659698486328,4.505684852600098,-0.4956133961677551
1789324328251514400,0.791514404296875,9.301200866699219,4.445864677429199,-0.43100717663764954
1789324328270364700,0.81036474609375,8.738588333129883,4.500899314880371,-0.3807578980922699
1789324328289215000,0.829215087890625,8.64496898651123,4.47697114944458,-0.5338985323905945
1789324328308065000,0.84806494140625,8.666504859924316,4.381258487701416,-0.6032904386520386
1789324328326915300,0.866915283203125,8.408080101013184,4.40757942199707,-0.5626124143600464
1789324328345765600,0.885765625,8.173583030700684,4.474578380584717,-0.5315057039260864
1789324328364615700,0.90461572265625,8.31715202331543,4.508078098297119,-0.4166502356529236
1789324328383466000,0.923466064453125,8.810373306274414,4.4243292808532715,-0.19621145725250244
1789324328402316300,0.94231640625,9.313164710998535,4.5822553634643555,-0.2727817893028259
1789324328421166600,0.96116650390625,9.669695854187012,4.943870544433594,-0.6942176818847656
1789324328440016600,0.9800166015625,9.485447883605957,4.9725847244262695,-0.45972105860710144
1789324328458867000,0.998866943359375,8.97787094116211,5.0826544761657715,0.02632104977965355
1789324328477717200,1.01771728515625,8.97787094116211,4.884049892425537,0.2826521694660187
1789324328496567300,1.0365673828125,9.411270141601562,4.3788652420043945,0.5937191247940063
1789324328515417600,1.05541748046875,9.104690551757812,4.057928085327148,0.8090731501579285
1789324328534268000,1.074267822265625,8.238189697265625,3.8760735988616943,0.9002995491027832
1789324328553118200,1.0931181640625,7.39053201675415,3.380460262298584,0.7229315638542175
1789324328571968300,1.11196826171875,7.201498985290527,3.090928554534912,1.0654042959213257
1789324328590818600,1.130818603515625,7.608577728271484,3.418745279312134,1.3142578601837158
1789324328609668900,1.1496689453125,6.861418724060059,2.7412774562835693,2.181057929992676
1789324328628519200,1.168519287109375,7.225427150726318,2.3916261196136475,2.5618157386779785
1789324328647369200,1.187369140625,7.725826263427734,2.4873390197753906,1.994417667388916
1789324328666219500,1.206219482421875,8.089534759521484,2.4011974334716797,1.197009563446045
1789324328685069800,1.22506982421875,8.781659126281738,2.2121646404266357,0.6032904386520386
1789324328703920000,1.243920166015625,9.159725189208984,1.7691932916641235,0.37836506962776184
1789324328722770200,1.262770263671875,8.594719886779785,0.4166502356529236,-0.5338985323905945
1789324328741620500,1.281620361328125,7.917252063751221,0.37836506962776184,-1.350150227546692
1789324328760470800,1.300470703125,7.431210041046143,0.4166502356529236,-1.350150227546692
1789324328779320800,1.31932080078125,7.981858253479004,0.1986042857170105,-0.981655478477478
1789324328798171100,1.338171142578125,8.738588333129883,-0.3448655605316162,-1.225723385810852
1789324328817021400,1.357021484375,8.855836868286133,-1.4294124841690063,-2.3533411026000977
1789324328835871700,1.375871826171875,9.095118522644043,-2.4011974334716797,-2.612065076828003
1789324328854721800,1.3947216796875,8.707481384277344,-3.069094181060791,-2.434697151184082
1789324328873572000,1.413572021484375,8.489435195922852,-3.6894333362579346,-1.7404793500900269
1789324328892422400,1.43242236328125,9.894919395446777,-3.653541088104248,-1.8840487003326416
1789324328911272700,1.451272705078125,10.92173957824707,-3.0355947017669678,-3.160320520401001
1789324328930122800,1.470122802734375,9.614660263061523,-3.897608995437622,-3.552743434906006
1789324328948973000,1.48897314453125,8.19511890411377,-3.81864595413208,-4.271188259124756
1789324328967823400,1.5078232421875,8.542078018188477,-4.862514495849609,-5.379663467407227
1789324328986673700,1.526673583984375,9.957133293151855,-5.666802406311035,-6.971488952636719
1789324329005523700,1.545523681640625,13.320843696594238,-6.413661956787109,-8.889336585998535
1789324329024374000,1.5643740234375,14.134702682495117,-5.384449005126953,-10.3016996383667
1789324329043224300,1.583224365234375,13.615160942077637,-4.929513931274414,-10.481460571289062
1789324329062074400,1.602074462890625,12.339188575744629,-3.349353551864624,-10.404890060424805
1789324329080924700,1.620924560546875,9.325128555297852,-4.362115859985352,-9.847063064575195
1789324329099775000,1.63977490234375,8.262117385864258,-3.2679975032806396,-10.012167930603027
1789324329118625300,1.658625244140625,9.329915046691895,-2.8130621910095215,-8.4200439453125
1789324329137475600,1.6774755859375,12.777374267578125,-0.797109067440033,-7.850253105163574
1789324329156325600,1.69632568359375,11.3240327835083,1.3716856241226196,-8.616254806518555
1789324329175176000,1.715176025390625,8.508578300476074,-0.5913262963294983,-7.843074321746826
1789324329194026200,1.734026123046875,5.298008441925049,0.07896314561367035,-7.974679470062256
1789324329212876500,1.75287646484375,6.059524059295654,-1.1419745683670044,-3.6053855419158936
1789324329231726800,1.771726806640625,6.476174354553223,-1.225723385810852,-3.746861219406128
1789324329250577000,1.790576904296875,4.77876615524292,-1.3956137895584106,-5.992525100708008
1789324329269427200,1.80942724609375,2.449054002761841,-1.7596219778060913,-11.21635627746582
1789324329288277500,1.828277587890625,8.717052459716797,-0.4501497745513916,-2.513660192489624
1789324329307127800,1.8471279296875,8.072785377502441,0.15314064919948578,-3.160320520401001
1789324329325977900,1.865977783203125,7.416852951049805,-0.2799602448940277,-9.008976936340332
1789324329344828200,1.884828125,5.920740604400635,-2.4155545234680176,-8.664112091064453
1789324329363678500,1.903678466796875,4.824229717254639,-4.069892406463623,-4.905585289001465
1789324329382528800,1.92252880859375,4.730610370635986,-4.704289436340332,-3.890430450439453
1789324329401379000,1.941379150390625,5.446662425994873,-6.595815658569336,-4.182354927062988
1789324329420229000,1.96022900390625,4.8074798583984375,-6.504888534545898,-3.9023945331573486
1789324329439079400,1.979079345703125,7.074679374694824,-5.38205623626709,-7.701898097991943
1789324329467355000,2.00735498046875,4.079463481903076,-3.3613176345825195,-7.349853992462158
1789324329486205200,2.026205078125,3.356531858444214,-3.248854875564575,-8.3267240524292
1789324329533330700,2.07333056640625,3.2751760482788086,-3.4570305347442627,-5.31475830078125
1789324329571031300,2.11103125,2.9614171981811523,-4.924727916717529,-10.71117115020752
1789324329589881600,2.129881591796875,0.8500502705574036,-8.788837432861328,-6.859025955200195
1789324329618157000,2.158156982421875,4.632504463195801,-8.72901725769043,-3.9502511024475098
1789324329637007000,2.177007080078125,4.771587371826172,-9.253045082092285,-4.534399032592773
1789324329655857400,2.195857421875,5.987739562988281,-7.785646915435791,-5.906383514404297
1789324329674707700,2.214707763671875,2.896811008453369,-10.794919967651367,-7.004988193511963
1789324329693558000,2.23355810546875,3.1148569583892822,-11.041680335998535,-12.131012916564941
1789324329712408300,2.252408203125,3.9023945331573486,-11.884252548217773,-11.666505813598633
1789324329731258400,2.27125830078125,4.4243292808532715,-13.215559005737305,-8.233403205871582
1789324329750108700,2.290108642578125,5.298008441925049,-13.722837448120117,-8.951549530029297
1789324329768959000,2.308958984375,4.555934429168701,-12.434901237487793,-8.851051330566406
1789324329787809300,2.327809326171875,1.9776679277420044,-10.81406307220459,-6.296413898468018
1789324329806659600,2.34665966796875,0.2105683982372284,-9.863813400268555,-6.7657060623168945
1789324329825510000,2.365510009765625,1.8290138244628906,-7.7353973388671875,-6.689135551452637
1789324329844360000,2.38435986328125,2.2815563678741455,-5.563910961151123,-6.703492641448975
1789324329863210200,2.403210205078125,-5.472983360290527,-2.2337000370025635,-7.170392036437988
1789324329882060500,2.422060546875,6.5527448654174805,4.570291042327881,-8.424829483032227
1789324329900910800,2.440910888671875,2.276770830154419,2.4394826889038086,-7.428816795349121
1789324329919761200,2.45976123046875,4.515256404876709,3.169891834259033,-7.2661051750183105
1789324329938611500,2.478611572265625,5.142475128173828,1.9680966138839722,-8.343473434448242
1789324329957461800,2.497461669921875,6.061916828155518,0.035892341285943985,-10.969895362854004
1789324329976311800,2.516311767578125,8.515756607055664,-1.4485549926757812,-12.772587776184082
1789324329995162000,2.535162109375,7.491030216217041,-3.500101327896118,-14.381462097167969
1789324330014012400,2.554012451171875,3.8306100368499756,-7.129714012145996,-13.80927848815918
1789324330032858400,2.5728583984375,2.832204818725586,-9.451948165893555,-10.799705505371094
1789324330051708700,2.591708740234375,2.0853450298309326,-2.9087750911712646,-13.497912406921387
1789324330079984000,2.619984130859375,4.488935470581055,-8.324331283569336,-0.7205387353897095
1789324330098834400,2.63883447265625,3.315854072570801,-13.09801197052002,0.8066803216934204
1789324330117684700,2.657684814453125,5.087440013885498,-13.955241203308105,-0.24885354936122894
1789324330136535000,2.67653515625,6.329913139343262,-10.13180923461914,-2.8202404975891113
1789324330155385000,2.695385009765625,5.492125988006592,-8.671290397644043,-3.569493293762207
1789324330174235400,2.7142353515625,3.315854072570801,-6.533602237701416,-6.861418724060059
1789324330193085700,2.733085693359375,6.7106709480285645,-4.6995038986206055,-6.81595516204834
1789324330211936000,2.75193603515625,7.371389389038086,-3.0475587844848633,-5.025226593017578
1789324330230786300,2.770786376953125,6.018846035003662,-3.270390272140503,-5.171188831329346
1789324330249636600,2.78963671875,6.634100914001465,-2.173879384994507,-1.2352946996688843
1789324330268487000,2.80848681640625,5.293222904205322,-3.0427730083465576,-2.5232315063476562
1789324330287337000,2.8273369140625,5.319543838500977,-2.0470597743988037,-2.7963123321533203
1789324330306187300,2.846187255859375,6.372983932495117,-1.6567305326461792,-3.303889751434326
1789324330325037600,2.86503759765625,6.215057849884033,-0.8500502705574036,-3.859323740005493
1789324330343888000,2.883887939453125,5.398806095123291,-1.8337994813919067,-4.536791801452637
1789324330362738200,2.90273828125,6.634100914001465,-2.1332013607025146,-6.009274959564209
1789324330381588500,2.92158837890625,8.115856170654297,-1.86729896068573,-5.84147834777832
1789324330400438800,2.940438720703125,6.5527448654174805,-1.0582258701324463,-7.52213716506958
1789324330419288800,2.959288818359375,5.793622016906738,-1.0103694200515747,-6.74656343460083
1789324330438139100,2.97813916015625,5.195116996765137,-0.8306085467338562,-6.988238334655762
1789324330456989400,2.996989501953125,6.904489517211914,-1.807478427886963,-7.536494255065918
1789324330475839700,3.01583984375,8.472685813903809,-2.834597587585449,-6.361020088195801
1789324330494690000,3.03468994140625,6.971488952636719,-3.5024940967559814,-4.124927043914795
1789324330513540400,3.053540283203125,7.024429798126221,-6.468996047973633,-7.110571384429932
1789324330532390700,3.072390625,10.375877380371094,-4.493721008300781,-7.599006652832031
1789324330551241000,3.091240966796875,6.329913139343262,-9.552447319030762,-6.6484575271606445
1789324330570091000,3.110091064453125,1.599302887916565,-9.949954986572266,-7.136892795562744
1789324330598366500,3.138366455078125,1.4676976203918457,-7.5942206382751465,-3.600599765777588
1789324330617216800,3.157216796875,2.26959228515625,-11.039287567138672,-1.378864049911499
1789324330636067000,3.176067138671875,4.903192520141602,-16.143476486206055,-2.9159533977508545
1789324330654917400,3.19491748046875,2.7364916801452637,-13.114761352539062,-3.098107099533081
1789324330673767700,3.213767578125,4.939085006713867,-10.706385612487793,-1.8601205348968506
1789324330692617700,3.23261767578125,8.7505521774292,-7.843074321746826,-2.588136672973633
1789324330711468000,3.251468017578125,7.263712406158447,-6.262914180755615,-5.025226593017578
1789324330730318300,3.270318359375,0.38793638348579407,-1.450947880744934,-6.1002020835876465
1789324330749168600,3.289168701171875,1.843370795249939,-2.1379871368408203,-6.277271270751953
1789324330768019000,3.30801904296875,3.418745279312134,-4.527220249176025,-5.2166523933410645
1789324330786869200,3.326869140625,1.6471593379974365,-5.590231895446777,-3.6487553119659424
1789324330805719600,3.345719482421875,4.744967460632324,-4.567898273468018,-4.091427803039551
1789324330824569900,3.36456982421875,5.080261707305908,-7.146463871002197,-7.206284523010254
1789324330843420200,3.383420166015625,9.164510726928711,-5.719444274902344,-8.8438720703125
1789324330862270200,3.402270263671875,2.6192433834075928,-2.6575286388397217,-12.343974113464355
1789324330881120500,3.42112060546875,7.40488862991333,-8.781659126281738,-8.918049812316895
1789324330899970800,3.439970703125,4.6995038986206055,-18.839290618896484,-4.72582483291626
1789324330918821000,3.458821044921875,5.7888360023498535,-16.86880111694336,-7.972286701202393
1789324330937671400,3.47767138671875,6.538387775421143,-9.894919395446777,-9.06401252746582
1789324330956521700,3.496521728515625,4.184747695922852,-13.89542007446289,-5.051547527313232
1789324330975372000,3.5153720703125,4.086641788482666,-11.321640014648438,-0.6296114325523376
1789324330994222300,3.534222412109375,5.068297386169434,-7.802396297454834,-1.048654556274414
1789324331013072400,3.553072265625,2.793919563293457,-8.982656478881836,-1.2281162738800049
1789324331031922700,3.571922607421875,3.660719633102417,-5.7888360023498535,-1.5897315740585327
1789324331050773000,3.59077294921875,5.877370834350586,-4.0818562507629395,0.5291129350662231
1789324331069623300,3.609623291015625,8.451150894165039,1.4988043308258057,3.468994617462158
1789324331088473600,3.6284736328125,9.150154113769531,-2.42512583732605,-1.158724308013916
1789324331107324000,3.647323974609375,9.174081802368164,-7.864609718322754,-1.958226203918457
1789324331126174200,3.66617431640625,4.896014213562012,3.0188448429107666,-8.089534759521484
1789324331145024500,3.6850244140625,7.555636405944824,-4.508078098297119,-5.434698581695557
1789324331163874600,3.70387451171875,8.056035995483398,-6.818347930908203,-4.1129631996154785
1789324331182724900,3.722724853515625,7.802396297454834,-5.427519798278809,-4.3310089111328125
1789324331201575200,3.7415751953125,7.1871418952941895,-3.0643084049224854,-1.8553348779678345
1789324331220425500,3.760425537109375,7.038786888122559,-2.255235433578491,-0.4262215197086334
1789324331239275800,3.77927587890625,6.224628925323486,-1.319043517112732,0.6152545213699341
1789324331258126000,3.7981259765625,5.9901323318481445,-0.5027918815612793,-0.2727817893028259
1789324331286401500,3.826401611328125,8.30279541015625,-2.3126630783081055,-0.8042874932289124
1789324331305251600,3.84525146484375,6.887740135192871,-1.9800606966018677,-1.7572290897369385
1789324331324102000,3.864101806640625,8.046463966369629,-1.80508553981781,-1.745265007019043
1789324331342952200,3.8829521484375,6.80159854888916,-2.3222343921661377,-2.6647071838378906
1789324331361802500,3.901802490234375,6.571887493133545,-1.8696918487548828,-2.2983062267303467
1789324331380652800,3.92065283203125,7.246962547302246,-2.5833511352539062,-1.1084750890731812
1789324331399503000,3.939503173828125,8.101499557495117,-2.111665964126587,-1.683051586151123
1789324331418353400,3.958353515625,6.4666032791137695,-2.762812852859497,-2.2480568885803223
1789324331437203500,3.977203369140625,4.34536600112915,-3.4618160724639893,-2.707777976989746
1789324331456053800,3.9960537109375,4.644468784332275,-2.2504496574401855,-2.6168506145477295
1789324331474904000,4.014904052734375,5.798407554626465,-1.9728822708129883,-2.6814568042755127
1789324331493754400,4.03375439453125,5.166403293609619,-2.2911276817321777,-4.350151538848877
1789324331512604700,4.052604736328125,3.4546377658843994,-3.969393730163574,-3.7612180709838867
1789324331531455000,4.071455078125,3.746861219406128,-4.153641223907471,-2.20737886428833
1789324331550305300,4.09030517578125,4.033999919891357,-7.673183917999268,-3.70139741897583
1789324331578580700,4.118580810546875,7.194320201873779,-19.19342803955078,-7.163213729858398
1789324331597431000,4.13743115234375,7.8765740394592285,-18.688243865966797,-8.726624488830566
1789324331616281000,4.156281005859375,7.821538925170898,-15.597614288330078,-3.777967929840088
1789324331635131400,4.17513134765625,7.9244303703308105,-14.929718017578125,1.7572290897369385
1789324331653981700,4.193981689453125,8.053643226623535,-14.292628288269043,1.5825530290603638
1789324331672832000,4.21283203125,7.203891754150391,-13.607982635498047,-1.7261223793029785
1789324331691682300,4.231682373046875,6.009274959564209,-11.364710807800293,-2.2480568885803223
1789324331710532600,4.25053271484375,5.877370834350586,-9.808479309082031,-3.969393730163574
1789324331729383000,4.2693828125,5.819942951202393,-8.09671401977539,-3.9478583335876465
1789324331748233200,4.288233154296875,4.888835906982422,-7.3043904304504395,-3.3996028900146484
1789324331767083300,4.307083251953125,4.022035598754883,-6.504888534545898,-4.304687976837158
1789324331785933600,4.32593359375,3.466601848602295,-6.423233509063721,-1.8936200141906738
1789324331804783900,4.344783935546875,2.4299113750457764,-3.270390272140503,-2.025524377822876
1789324331823634200,4.36363427734375,4.819443702697754,-2.949453115463257,0.7947162389755249
1789324331842484500,4.382484375,6.729813575744629,-7.357032299041748,3.318246841430664
1789324331861334800,4.401334716796875,6.188736438751221,-11.058429718017578,3.9263229370117188
1789324331880185000,4.42018505859375,8.11824893951416,-11.783754348754883,1.8577276468276978
1789324331899035400,4.439035400390625,8.429615020751953,-12.025429725646973,0.5291129350662231
1789324331917885400,4.457885498046875,8.702695846557617,-10.71117115020752,-0.8066803216934204
1789324331936735700,4.47673583984375,6.2653069496154785,-9.22433090209961,-1.3405789136886597
1789324331955586000,4.4955859375,5.678766250610352,-7.7114691734313965,-1.4318052530288696
1789324331974436400,4.514436279296875,6.308377742767334,-7.0531439781188965,0.07178468257188797
1789324331993286700,4.53328662109375,7.445566654205322,-7.40488862991333,0.48364928364753723
1789324332012137000,4.552136962890625,7.666005611419678,-7.464709281921387,-0.385543555021286
1789324332030987300,4.5709873046875,6.569494724273682,-7.83111047744751,-0.5673980712890625
1789324332049837600,4.589837646484375,7.325925827026367,-5.973382472991943,-0.8691928386688232
1789324332068687600,4.6086875,7.383353233337402,-4.9725847244262695,0.39990049600601196
1789324332087538000,4.627537841796875,8.506185531616211,-3.7899320125579834,0.6559324860572815
1789324332106388200,4.64638818359375,7.737790107727051,-3.667897939682007,1.103689432144165
1789324332125238500,4.665238525390625,7.05553674697876,-5.3940205574035645,1.7907286882400513
1789324332144088800,4.6840888671875,6.725028038024902,-5.78644323348999,-0.2584248483181
1789324332162939100,4.702939208984375,9.294022560119629,-5.223830699920654,-0.5602195858955383
1789324332181789400,4.72178955078125,7.957930088043213,-4.584648132324219,0.035892341285943985
1789324332200639700,4.7406396484375,6.08823823928833,-3.4713873863220215,0.35443684458732605
1789324332219490000,4.759489990234375,8.106285095214844,-1.3405789136886597,1.2352946996688843
1789324332238340400,4.77834033203125,9.013762474060059,-1.2472587823867798,1.7021942138671875
1789324332257190400,4.7971904296875,7.969893932342529,-1.592124342918396,0.9649057388305664
1789324332276040700,4.816040771484375,6.356234073638916,-1.6423736810684204,-0.8377870321273804
1789324332294891000,4.83489111328125,5.851049423217773,-1.6423736810684204,-0.3113660514354706
1789324332313741300,4.8537412109375,5.678766250610352,-0.521934449672699,-0.8210372924804688
1789324332332591600,4.872591552734375,5.695516109466553,-0.7253243923187256,0.9098708033561707
1789324332351442000,4.89144189453125,6.567101955413818,0.732502818107605,1.0773683786392212
1789324332370292200,4.910292236328125,5.947061538696289,-1.342971682548523,-1.0295119285583496
1789324332389142500,4.929142578125,6.9930243492126465,-2.2576282024383545,0.6678966283798218
1789324332407992800,4.947992919921875,7.531708240509033,-2.8369903564453125,0.12681959569454193
1789324332426843000,4.9668427734375,6.195915222167969,-3.308675527572632,0.22971096634864807
1789324332445693400,4.985693359375,7.048357963562012,-2.8130621910095215,0.6631109714508057
1789324332464543500,5.00454345703125,8.5133638381958,-2.8369903564453125,0.524327278137207
1789324332483393800,5.023393798828125,9.600303649902344,-4.189533233642578,0.23449662327766418
1789324332502244000,5.042244140625,8.994620323181152,-6.16480827331543,-0.8835497498512268
1789324332521094400,5.061094482421875,8.405686378479004,-8.784051895141602,-1.292722463607788
1789324332539944700,5.07994482421875,7.223034381866455,-11.10628604888916,-1.4676976203918457
1789324332558795000,5.098794921875,6.057131290435791,-11.453245162963867,-0.5434698462486267
1789324332577645300,5.117645263671875,5.999703884124756,-9.882955551147461,0.6535396575927734
1789324332596495600,5.13649560546875,6.28205680847168,-8.479864120483398,1.0965110063552856
1789324332615345700,5.155345703125,7.306783199310303,-7.481459140777588,0.39511483907699585
1789324332634196000,5.174196044921875,7.639684677124023,-7.483851909637451,-0.21774685382843018
1789324332653046300,5.19304638671875,8.341080665588379,-8.810373306274414,-0.5171487927436829
1789324332671896600,5.211896484375,8.211868286132812,-11.022537231445312,-0.062213387340307236
1789324332690747000,5.230746826171875,7.5341010093688965,-13.330414772033691,1.316650629043579
1789324332709597200,5.24959716796875,6.981060028076172,-13.529019355773926,2.1643080711364746
1789324332728447500,5.268447509765625,6.7896342277526855,-11.515758514404297,2.0614166259765625
1789324332747297800,5.2872978515625,5.810371398925781,-10.46471118927002,1.9151554107666016
1789324332766147800,5.30614794921875,5.446662425994873,-10.103095054626465,0.8500502705574036
1789324332784998100,5.324998046875,5.468197822570801,-8.963513374328613,0.5027918815612793
1789324332803848400,5.343848388671875,5.846263885498047,-8.10389232635498,0.6391827464103699
1789324332822698800,5.36269873046875,6.179165363311768,-8.012965202331543,0.490827739238739
1789324332841549000,5.381549072265625,5.949454307556152,-8.185546875,-0.4405784606933594
1789324332869824500,5.409824462890625,5.638088226318359,-7.3283185958862305,0.04785645380616188
1789324332888674800,5.4286748046875,5.923133373260498,-7.074679374694824,0.6200401782989502
1789324332907524900,5.44752490234375,6.236593246459961,-7.177570819854736,0.5530411601066589
1789324332926375200,5.466375244140625,7.163213729858398,-7.941180229187012,0.48364928364753723
1789324332945225500,5.4852255859375,7.855038642883301,-8.453543663024902,0.3209373354911804
1789324332964075800,5.50407568359375,8.30279541015625,-8.886942863464355,0.02153540402650833
1789324332982926000,5.522926025390625,8.848658561706543,-9.667302131652832,-0.40229329466819763
1789324333001776400,5.5417763671875,9.418449401855469,-9.75105094909668,-0.7061817646026611
1789324333020626700,5.560626708984375,9.516554832458496,-9.20997428894043,-0.37118661403656006
1789324333039477000,5.57947705078125,9.18843936920166,-8.348258972167969,-0.11724831163883209
1789324333058327000,5.5983271484375,8.549256324768066,-6.332305908203125,0.08135596662759781
1789324333077177300,5.61717724609375,7.826324462890625,-4.529613494873047,0.5434698462486267
1789324333096027600,5.636027587890625,6.617351055145264,-3.81864595413208,0.8066803216934204
1789324333114878000,5.6548779296875,4.9965128898620605,-3.200998544692993,0.8066803216934204
1789324333133728300,5.673728271484375,5.985346794128418,-2.8848466873168945,1.5251253843307495
1789324333152578600,5.69257861328125,7.709076404571533,-2.6479573249816895,1.0055837631225586
1789324333171428900,5.711428955078125,7.6636128425598145,-4.048357009887695,0.7253243923187256
1789324333190279200,5.730279052734375,6.384948253631592,-3.0499515533447266,0.19142581522464752
1789324333209129500,5.74912939453125,6.839883327484131,-2.5857439041137695,1.1467602252960205
1789324333227979500,5.7679794921875,5.8582282066345215,-2.3820550441741943,0.6343970894813538
1789324333246829800,5.786829833984375,5.815157413482666,-1.6304094791412354,1.292722463607788
1789324333265680100,5.80568017578125,5.954239845275879,-0.20817556977272034,0.8353942036628723
1789324333284530400,5.824530517578125,8.580363273620605,-0.13878370821475983,1.319043517112732
1789324333303380700,5.843380615234375,6.751348972320557,-2.1714866161346436,0.24167509377002716
1789324333322231000,5.86223095703125,8.367402076721191,-1.5131611824035645,0.04785645380616188
1789324333350506500,5.890506591796875,8.113463401794434,-1.8601205348968506,0.701396107673645
1789324333369356500,5.9093564453125,7.474280834197998,-1.678265929222107,0.19381862878799438
1789324333388206800,5.928206787109375,6.696314334869385,-1.6375880241394043,0.22013968229293823
1789324333407057200,5.94705712890625,7.7593255043029785,-1.80508553981781,0.3329014480113983
1789324333425907500,5.965907470703125,6.770491600036621,-2.4059832096099854,-0.3113660514354706
1789324333444757800,5.9847578125,5.803193092346191,-3.246462106704712,0
1789324333463608000,6.003608154296875,5.798407554626465,-4.065106391906738,-0.4381856322288513
1789324333482458400,6.022458251953125,7.373782157897949,-5.104189872741699,0.20578274130821228
1789324333501308700,6.04130859375,6.444768905639648,-6.586244106292725,-0.10767702013254166
1789324333520158700,6.06015869140625,6.514459609985352,-7.929215908050537,-0.1579262912273407
1789324333539009000,6.079009033203125,5.796014785766602,-8.793622970581055,-0.1866401731967926
1789324333557859300,6.097859375,6.588637351989746,-9.961918830871582,0.031106693670153618
1789324333576709600,6.116709716796875,7.201498985290527,-11.156535148620605,0.47647079825401306
1789324333604985000,6.144985107421875,7.170392036437988,-11.017751693725586,0.8018946647644043
1789324333623835400,6.16383544921875,7.426424026489258,-10.993824005126953,1.2951152324676514
1789324333642685400,6.182685546875,7.874181270599365,-11.24746322631836,1.6016956567764282
1789324333661535700,6.20153564453125,7.445566654205322,-11.094322204589844,1.800299882888794
1789324333680386000,6.220385986328125,6.512066841125488,-10.505388259887695,1.4557334184646606
1789324333699236400,6.239236328125,6.856633186340332,-10.033703804016113,0.9984052777290344
1789324333718086700,6.258086669921875,7.519744396209717,-9.573982238769531,0.12681959569454193
1789324333736937000,6.27693701171875,6.74656343460083,-9.456734657287598,-0.49322056770324707
1789324333755787300,6.295787353515625,5.815157413482666,-9.497411727905273,-0.646361231803894
1789324333774637300,6.31463720703125,6.021239280700684,-8.752944946289062,-0.23449662327766418
1789324333793487600,6.333487548828125,6.425626277923584,-9.243474006652832,0.3616153299808502
1789324333812338000,6.352337890625,6.3753767013549805,-9.964311599731445,0.368793785572052
1789324333831188200,6.371188232421875,5.798407554626465,-9.633803367614746,0.7995018362998962
1789324333850038500,6.39003857421875,6.3993048667907715,-9.159725189208984,0.6583253145217896
1789324333868888800,6.408888916015625,7.007380962371826,-9.389735221862793,0.675075113773346
1789324333887739000,6.42773876953125,7.103393077850342,-9.875777244567871,0.14117653667926788
1789324333906589200,6.446589111328125,8.058428764343262,-9.698409080505371,-0.5530411601066589
1789324333925439500,6.465439453125,8.95394229888916,-9.698409080505371,-0.9744769930839539
1789324333944289800,6.484289794921875,8.781659126281738,-9.241081237792969,-0.8715856671333313
1789324333963140000,6.50314013671875,8.30279541015625,-8.870193481445312,-1.0917253494262695
1789324333981990400,6.521990478515625,7.333104133605957,-8.314759254455566,-0.9314061999320984
1789324334000840400,6.54084033203125,6.425626277923584,-7.572386264801025,-0.8476574420928955
1789324334019690800,6.559690673828125,6.365805625915527,-6.598208427429199,-0.4453641176223755
1789324334038541000,6.578541015625,6.978667259216309,-6.203093528747559,-0.14117653667926788
1789324334057391400,6.597391357421875,7.560422420501709,-4.845765113830566,0.8955138921737671
1789324334076241700,6.61624169921875,8.0081787109375,-2.9255247116088867,1.1395817995071411
1789324334095092000,6.635092041015625,8.793622970581055,-4.024428367614746,0.9122636318206787
1789324334113942000,6.65394189453125,8.242975234985352,-5.370092391967773,0.08853443711996078
1789324334132792300,6.672792236328125,7.6253275871276855,-4.642076015472412,-0.4214358925819397
1789324334151642600,6.691642578125,7.666005611419678,-3.1339993476867676,0.6272186636924744
1789324334170493000,6.710492919921875,7.361817836761475,-1.8146568536758423,0.32572299242019653
1789324334189343200,6.72934326171875,5.892026424407959,-2.8776683807373047,-0.4860421121120453
1789324334208193500,6.748193603515625,5.573482036590576,-2.5618157386779785,0.14835500717163086
1789324334227043600,6.767043701171875,7.7114691734313965,-1.683051586151123,1.6112669706344604
1789324334245894000,6.785893798828125,7.488637447357178,-1.5705889463424683,0.4453641176223755
1789324334264744200,6.804744140625,5.221437931060791,-2.0614166259765625,0.26081767678260803
1789324334283594500,6.823594482421875,5.719444274902344,-1.0223335027694702,0.8210372924804688
1789324334302444800,6.84244482421875,7.165606498718262,-0.6990033388137817,1.9824535846710205
1789324334321295000,6.861295166015625,7.692326545715332,-0.701396107673645,1.4868401288986206
1789324334340145200,6.880145263671875,5.705087184906006,-1.1778669357299805,-0.2225325107574463
1789324334358995500,6.898995361328125,6.720242500305176,-2.14516544342041,0.47168517112731934
1789324334377845800,6.917845703125,6.5288166999816895,-2.6575286388397217,-0.5697908997535706
1789324334396696000,6.936696044921875,6.334698677062988,-2.9853453636169434,0.2994019389152527
1789324334415546400,6.95554638671875,6.346662998199463,-2.4610180854797363,-0.6272186636924744
1789324334434396400,6.974396484375,7.103393077850342,-2.7987051010131836,-0.1339980661869049
1789324334453246700,6.993246826171875,6.837490558624268,-3.722932815551758,-0.7396813035011292
1789324334472097000,7.012096923828125,6.5527448654174805,-4.936692237854004,-1.1443674564361572
1789324334490947300,7.030947265625,7.110571384429932,-6.6245293617248535,-1.0390832424163818
1789324334509797600,7.049797607421875,7.718647480010986,-9.20997428894043,-0.4621138870716095
1789324334528647700,7.068647705078125,6.935596466064453,-12.162118911743164,-0.5291129350662231
1789324334547498000,7.087498046875,5.520840167999268,-13.344772338867188,-0.2584248483181
1789324334566348300,7.106348388671875,6.480959892272949,-12.434901237487793,0.8500502705574036
1789324334585198600,7.125198486328125,8.740981101989746,-11.166107177734375,1.6567305326461792
1789324334604049000,7.144048828125,8.269295692443848,-11.417353630065918,1.1611171960830688
1789324334622899000,7.16289892578125,7.730611801147461,-10.684850692749023,0.26560330390930176
1789324334641749200,7.181749267578125,8.120641708374023,-9.569196701049805,-0.14835500717163086
1789324334660599600,7.200599609375,7.936394691467285,-8.970691680908203,0.6343970894813538
1789324334679449900,7.219449951171875,6.368198394775391,-8.319544792175293,0.7564310431480408
1789324334698300000,7.2382998046875,5.539982795715332,-8.039285659790039,0.7564310431480408
1789324334717150200,7.257150146484375,5.800800323486328,-7.802396297454834,0.038285162299871445
1789324334736000500,7.27600048828125,6.236593246459961,-9.957133293151855,-0.5937191247940063
1789324334754850800,7.294850830078125,6.104988098144531,-10.92891788482666,0.33050861954689026
1789324334773701000,7.313701171875,5.829514026641846,-9.75105094909668,0.31854450702667236
1789324334792551200,7.33255126953125,6.4594244956970215,-9.36341381072998,-0.28983065485954285
1789324334811401500,7.3514013671875,6.384948253631592,-9.684052467346191,-0.5961119532585144
1789324334830251800,7.370251708984375,6.619743824005127,-9.904491424560547,-0.14356936514377594
1789324334849102000,7.38910205078125,7.093822002410889,-9.990633010864258,0.17946170270442963
1789324334867952000,7.4079521484375,7.132106781005859,-9.655338287353516,0.13639089465141296
1789324334886802400,7.426802490234375,6.7106709480285645,-8.908478736877441,0.02632104977965355
1789324334905652700,7.44565283203125,6.372983932495117,-8.266902923583984,-0.40707895159721375
1789324334924503000,7.4645029296875,5.831906795501709,-7.206284523010254,-0.6056832075119019
1789324334943353000,7.48335302734375,5.638088226318359,-6.356234073638916,-0.8018946647644043
1789324334962203400,7.502203369140625,6.16480827331543,-6.059524059295654,-0.3448655605316162
1789324334981053700,7.5210537109375,7.065107822418213,-6.332305908203125,0.059820566326379776
1789324334999904000,7.539904052734375,8.115856170654297,-6.325127601623535,-0.038285162299871445
1789324335018754300,7.55875439453125,9.131011009216309,-6.835097789764404,-0.30179476737976074
1789324335037604400,7.577604248046875,10.720743179321289,-7.826324462890625,0.004785645287483931
1789324335056454700,7.59645458984375,10.028918266296387,-7.898109436035156,0.5506483316421509
1789324335075305000,7.615304931640625,7.225427150726318,-6.004489421844482,1.0223335027694702
1789324335094155300,7.6341552734375,6.921239376068115,-4.057928085327148,0.040677983313798904
1789324335113005300,7.65300537109375,8.824729919433594,-4.182354927062988,-0.26560330390930176
1789324335131855600,7.671855712890625,9.260522842407227,-5.386841773986816,0.9960124492645264
1789324335150706000,7.690705810546875,7.086643218994141,-3.990929126739502,0.9744769930839539
1789324335169556000,7.709555908203125,6.2653069496154785,-2.839383125305176,1.7979071140289307
1789324335188406300,7.72840625,6.301199436187744,-1.5346965789794922,1.6064813137054443
1789324335207256600,7.747256591796875,5.872584819793701,-1.922333836555481,1.568196177482605
1789324335226107000,7.76610693359375,5.415555953979492,-1.9920248985290527,0.3400799036026001
1789324335244957200,7.784957275390625,6.660421848297119,-0.24646073579788208,0.6798607110977173
1789324335263807200,7.80380712890625,6.140880107879639,-0.734895646572113,-0.07417750358581543
1789324335282657500,7.822657470703125,6.873383045196533,-0.41186460852622986,0.6942176818847656
1789324335301507800,7.8415078125,7.682755470275879,-0.9481559991836548,-0.09810572862625122
1789324335320358000,7.86035791015625,8.503792762756348,-1.4294124841690063,0.33768710494041443
1789324335339208200,7.879208251953125,7.618149280548096,-2.1475582122802734,-0.8787640929222107
1789324335358058500,7.89805859375,6.689135551452637,-2.533101797103882,-0.3089732229709625
1789324335376908800,7.91690869140625,6.957131862640381,-2.5689942836761475,-0.2799602448940277
1789324335395758800,7.9357587890625,7.524529933929443,-2.190629243850708,-0.16510476171970367
1789324335414609200,7.954609130859375,7.862216949462891,-2.441875457763672,0.02871387079358101
1789324335433459500,7.97345947265625,6.897311210632324,-3.0116662979125977,-0.31854450702667236
1789324335452309500,7.9923095703125,7.079464912414551,-4.232903480529785,-0.2727817893028259
1789324335471159800,8.011159912109376,7.067500591278076,-5.819942951202393,-0.3568296730518341
1789324335490010000,8.030010009765626,7.483851909637451,-7.723433494567871,-0.39511483907699585
1789324335508860400,8.0488603515625,6.6939215660095215,-9.89970588684082,-0.6559324860572815
1789324335527710500,8.06771044921875,5.609374523162842,-11.194820404052734,-0.4262215197086334
1789324335546560800,8.086560791015625,5.721837043762207,-10.804491996765137,0.18424734473228455
1789324335565411000,8.1054111328125,6.6915283203125,-8.80798053741455,0.5745765566825867
1789324335584261000,8.12426123046875,7.065107822418213,-7.809575080871582,0.6176473498344421
1789324335603111400,8.143111328125,7.354639530181885,-8.436793327331543,0.1052841991186142
1789324335621961700,8.161961669921874,7.668398380279541,-9.765408515930176,-0.0933200865983963
1789324335640812000,8.18081201171875,8.089534759521484,-10.97468090057373,0.10289137065410614
1789324335659662000,8.199662109375,6.959524631500244,-11.206785202026367,0.014356935396790504
1789324335678512400,8.218512451171875,6.361020088195801,-10.42642593383789,0.2994019389152527
1789324335697362700,8.23736279296875,6.476174354553223,-9.404091835021973,0.34247273206710815
1789324335716212700,8.256212646484375,6.442375659942627,-9.679266929626465,0.10049854964017868
1789324335735063000,8.27506298828125,5.992525100708008,-10.589137077331543,-0.3329014480113983
1789324335753913000,8.2939130859375,5.587839126586914,-10.000204086303711,0.6080760359764099
1789324335772763400,8.312763427734374,5.611767292022705,-8.882157325744629,-0.06939185410737991
1789324335791613700,8.33161376953125,5.32911491394043,-8.448758125305176,0.2273181527853012
1789324335810464000,8.350464111328124,5.219045162200928,-8.39611530303955,-0.2994019389152527
1789324335829314000,8.36931396484375,5.020441055297852,-8.257331848144531,0.19142581522464752
1789324335848164400,8.388164306640626,5.815157413482666,-8.353044509887695,-0.23449662327766418
1789324335867014400,8.407014404296875,6.636493682861328,-9.035298347473145,0.6152545213699341
1789324335885864700,8.42586474609375,6.792026996612549,-10.117452621459961,0.6798607110977173
1789324335904715000,8.444715087890625,6.641279220581055,-10.086345672607422,0.5697908997535706
1789324335923565300,8.4635654296875,6.6006011962890625,-9.157332420349121,-0.24406790733337402
1789324335942415400,8.482415283203125,6.653243541717529,-8.053643226623535,-0.3161516785621643
1789324335961265700,8.501265625,7.129714012145996,-6.86381196975708,-0.7229315638542175
1789324335980115700,8.52011572265625,7.675576686859131,-7.067500591278076,-0.9864411354064941
1789324335998966000,8.538966064453126,8.091927528381348,-6.799205780029297,-1.6351951360702515
1789324336017816300,8.55781640625,9.078369140625,-6.1695942878723145,-0.9146564602851868
1789324336036666400,8.576666259765625,10.119845390319824,-6.835097789764404,-0.41186460852622986
1789324336055516700,8.5955166015625,8.910871505737305,-7.747361660003662,0.35922250151634216
1789324336074367000,8.614366943359375,6.9475603103637695,-6.066702842712402,0.41904306411743164
1789324336093217000,8.633217041015625,6.930810928344727,-4.144069671630859,0.675075113773346
1789324336112067300,8.6520673828125,8.80798053741455,-3.4139597415924072,-0.09571290761232376
1789324336130917600,8.670917724609374,10.208379745483398,-4.057928085327148,0.5099703073501587
1789324336149767700,8.689767578125,9.023334503173828,-3.576671600341797,0.16031911969184875
1789324336168618000,8.708617919921876,7.151249408721924,-3.2129626274108887,0.08374879509210587
1789324336187468000,8.727468017578126,7.072286605834961,-3.1387851238250732,0.4956133961677551
1789324336206318300,8.746318359375,6.588637351989746,-3.64127779006958,0.490827739238739
1789324336225168600,8.765168701171875,5.319543838500977,-2.5833511352539062,0.7923234105110168
1789324336244018700,8.784018798828125,5.075475692749023,-1.043868899345398,1.0893324613571167
1789324336262869000,8.802868896484375,4.756931304931641,-0.6702894568443298,1.596909999847412
1789324336281719000,8.821718994140625,5.549553871154785,0.06699903309345245,1.5634105205535889
1789324336300569300,8.8405693359375,5.2956156730651855,-0.9888339638710022,0.1986042857170105
1789324336319419600,8.859419677734374,6.55992317199707,-0.7444669604301453,1.7883358001708984
1789324336338269700,8.878269775390624,6.3825554847717285,-1.843370795249939,0.6367899179458618
1789324336357120000,8.8971201171875,5.707480430603027,-2.1020946502685547,0.41186460852622986
1789324336375970300,8.91597021484375,6.966702938079834,-1.8194425106048584,-0.4788636267185211
1789324336394820400,8.9348203125,8.242975234985352,-2.441875457763672,-0.22971096634864807
1789324336413670700,8.953670654296875,8.276473999023438,-3.842574119567871,-0.7995018362998962
1789324336432520700,8.972520751953125,6.868597507476807,-4.395615100860596,-1.3956137895584106
1789324336451371000,8.99137109375,7.833503246307373,-5.365306377410889,-1.2687941789627075
1789324336470221000,9.010220947265625,7.689933776855469,-6.8279194831848145,-0.8835497498512268
1789324336489071400,9.0290712890625,8.247760772705078,-9.097511291503906,-0.20338992774486542
1789324336507921700,9.047921630859374,7.0531439781188965,-10.620244026184082,-0.6846463680267334
1789324336526771700,9.066771728515626,6.270092487335205,-11.190034866333008,-0.10049854964017868
1789324336545622000,9.0856220703125,6.854240417480469,-10.658529281616211,0.35922250151634216
1789324336564472000,9.10447216796875,7.132106781005859,-9.806086540222168,0.15314064919948578
1789324336583322400,9.123322265625,8.166404724121094,-8.63779067993164,-0.18424734473228455
1789324336602172400,9.14217236328125,8.779266357421875,-9.025727272033691,-0.4788636267185211
1789324336621022700,9.161022705078125,7.5774712562561035,-10.534102439880371,-0.6846463680267334
1789324336639873000,9.179873046875,6.229414463043213,-11.436495780944824,-0.22492532432079315
1789324336658723000,9.19872314453125,6.160022735595703,-10.44078254699707,0.34725838899612427
1789324336677573400,9.217573486328124,6.516852378845215,-9.138189315795898,0.610468864440918
1789324336696423400,9.23642333984375,5.427519798278809,-9.049654960632324,0.20817556977272034
1789324336715273700,9.255273681640626,6.284449577331543,-8.927620887756348,-0.5913262963294983
1789324336743549000,9.283548828125,6.983452796936035,-9.36341381072998,-0.8811569213867188
1789324336762399200,9.302399169921875,6.890132904052734,-10.378270149230957,0.16271193325519562
1789324336790674400,9.33067431640625,6.605386734008789,-9.866206169128418,-0.6583253145217896
1789324336809524700,9.349524658203125,6.119344711303711,-9.212367057800293,-0.33050861954689026
1789324336828374800,9.368374755859374,6.002096652984619,-8.436793327331543,-1.3381860256195068
1789324336847224800,9.387224853515624,5.6309099197387695,-8.067999839782715,-0.8066803216934204
1789324336866075100,9.4060751953125,6.404090881347656,-7.615756034851074,-1.1850453615188599
1789324336884925200,9.42492529296875,6.799205780029297,-7.771289825439453,-0.3161516785621643
1789324336903775500,9.443775390625,7.560422420501709,-8.678468704223633,-0.5051847100257874
1789324336922625500,9.46262548828125,7.1488566398620605,-9.478269577026367,-0.03349951654672623
1789324336941475800,9.481475830078125,7.402495861053467,-8.903693199157715,-0.7588238716125488
1789324336960326100,9.500326171875,7.4479594230651855,-8.319544792175293,-0.5003990530967712
1789324336979176200,9.51917626953125,7.723433494567871,-8.259724617004395,-0.9936196208000183
1789324336998026500,9.538026611328124,7.6253275871276855,-7.948358535766602,-1.2544373273849487
1789324337016876500,9.55687646484375,8.197511672973633,-6.305984973907471,-1.9606190919876099
1789324337035726800,9.575726806640626,9.389735221862793,-5.25254487991333,-0.9218349456787109
1789324337054577000,9.594576904296876,9.344271659851074,-5.410770416259766,0.1052841991186142
1789324337073427000,9.613427001953125,6.435197353363037,-5.563910961151123,1.1443674564361572
1789324337101702400,9.641702392578125,6.114559173583984,-3.76361083984375,0.4046861231327057
1789324337120552400,9.660552490234375,7.385746002197266,-3.514458179473877,-0.4142574071884155
1789324337139402800,9.67940283203125,7.385746002197266,-4.2831525802612305,0.29700911045074463
1789324337158252800,9.698252685546874,6.461817741394043,-2.760420083999634,0.016749758273363113
1789324337177103000,9.71710302734375,8.367402076721191,-1.5538392066955566,1.4174482822418213
1789324337195953200,9.735953125,7.819146156311035,-2.1858434677124023,0.37597227096557617
1789324337214803500,9.754803466796876,5.736194133758545,-3.1148569583892822,0.5865406394004822
1789324337233653500,9.773653564453125,5.700301647186279,-1.9680966138839722,0.1866401731967926
1789324337252503800,9.79250390625,7.364210605621338,-1.3070793151855469,0.9481559991836548
1789324337271353900,9.811353759765625,6.121737480163574,-2.0063817501068115,0.2799602448940277
1789324337290204200,9.8302041015625,5.817550182342529,-1.2352946996688843,1.0079765319824219
1789324337309054200,9.84905419921875,5.1065826416015625,-0.9577272534370422,0.05024927482008934
1789324337327904500,9.867904541015625,6.837490558624268,-0.5482555031776428,1.2400803565979004
1789324337346754600,9.886754638671874,7.574779033660889,-1.3357932567596436,0.4405784606933594
1789324337365604600,9.9056044921875,7.481459140777588,-2.3676979541778564,0.5554339289665222
1789324337384455000,9.924454833984376,5.762515068054199,-2.700599431991577,-1.0701899528503418
1789324337403305000,9.943304931640625,7.469494819641113,-3.667897939682007,-0.924227774143219
1789324337422155300,9.9621552734375,7.287640571594238,-4.579862594604492,-1.7021942138671875
1789324337441005300,9.98100537109375,7.11775016784668,-5.860620975494385,-0.7995018362998962
1789324337459855600,9.999855712890625,6.5766730308532715,-6.4905314445495605,-1.319043517112732
1789324337478705700,10.01870556640625,7.2182488441467285,-7.2110700607299805,-0.8042874932289124
1789324337497555700,10.0375556640625,7.835896015167236,-8.00100040435791,-0.7851449251174927
1789324337516406000,10.056406005859374,7.4862446784973145,-9.875777244567871,-0.5913262963294983
1789324337535256000,10.075256103515626,6.114559173583984,-11.580364227294922,-1.434198021888733
1789324337554106400,10.0941064453125,5.709873199462891,-12.40140151977539,-1.1300104856491089
1789324337572956400,10.112956298828125,7.05553674697876,-11.290534019470215,-0.39990049600601196
1789324337601231600,10.141231689453125,6.9236321449279785,-8.819944381713867,-0.04785645380616188
1789324337620082000,10.16008203125,7.536494255065918,-9.26291561126709,-0.4788636267185211
1789324337638932000,10.178931884765625,7.888537883758545,-11.218749046325684,-0.5913262963294983
1789324337657782000,10.197781982421875,7.3522467613220215,-12.461221694946289,-0.016749758273363113
1789324337676632300,10.21663232421875,6.234200477600098,-11.297712326049805,0.15553347766399384
1789324337695482400,10.235482421875,6.868597507476807,-10.050453186035156,-0.12203395366668701
1789324337714332400,10.25433251953125,6.736992359161377,-10.15573787689209,-0.41186460852622986
1789324337733182700,10.2731826171875,6.341877460479736,-9.810872077941895,-0.4453641176223755
1789324337752032800,10.29203271484375,6.258128643035889,-8.321938514709473,-0.8428717851638794
1789324337770883000,10.310883056640625,6.444768905639648,-8.027321815490723,-1.6351951360702515
1789324337789733000,10.329733154296875,5.609374523162842,-8.54447078704834,-1.0606186389923096
1789324337808583200,10.348583251953125,5.341378211975098,-8.647361755371094,-1.2305090427398682
1789324337827433500,10.36743359375,5.539982795715332,-8.13260555267334,-0.6655037999153137
1789324337846283500,10.386283447265624,6.04038143157959,-7.809575080871582,-0.4692923426628113
1789324337865133600,10.405133544921876,6.1241302490234375,-8.417651176452637,0.04307080805301666
1789324337883984000,10.42398388671875,6.665207386016846,-9.499805450439453,-0.22492532432079315
1789324337902834000,10.442833984375,8.276473999023438,-10.179665565490723,-0.4668995141983032
1789324337921684000,10.46168408203125,9.126225471496582,-10.443175315856934,-1.0845468044281006
1789324337940534300,10.4805341796875,8.896514892578125,-10.091131210327148,-1.709372639656067
1789324337959384300,10.49938427734375,8.499007225036621,-8.724231719970703,-2.190629243850708
1789324337978234400,10.518234375,8.10389232635498,-6.794419765472412,-1.9127626419067383
1789324337997084700,10.537084716796874,8.235795974731445,-5.9566330909729,-1.1778669357299805
1789324338015934700,10.555934814453124,7.627720355987549,-6.009274959564209,-1.0390832424163818
1789324338034784800,10.57478466796875,7.7353973388671875,-4.943870544433594,-0.4381856322288513
1789324338053635000,10.593635009765626,8.360222816467285,-4.041178226470947,0.732502818107605
1789324338072485000,10.612485107421875,7.395317554473877,-4.1991047859191895,1.0965110063552856
1789324338100760300,10.64076025390625,6.404090881347656,-3.9382870197296143,-1.2592228651046753
1789324338119610400,10.6596103515625,7.0770721435546875,-3.5168511867523193,-1.3262219429016113
1789324338147885600,10.687885498046874,6.6149582862854,-1.6112669706344604,0.5889334678649902
1789324338166736000,10.70673583984375,5.90877628326416,-1.8385851383209229,0.9840483069419861
1789324338185586000,10.7255859375,6.442375659942627,-1.7907286882400513,1.3884353637695312
1789324338204436000,10.74443603515625,6.21266508102417,-1.7333009243011475,1.1802598237991333
1789324338223286300,10.763286376953126,7.5101728439331055,-1.5107684135437012,0.39511483907699585
1789324338242136300,10.78213623046875,6.332305908203125,-1.6423736810684204,0.8715856671333313
1789324338260986400,10.800986328125,6.444768905639648,-1.40279221534729,0.08614161610603333
1789324338279836400,10.81983642578125,5.171188831329346,-1.3573286533355713,0.1698904037475586
1789324338298686700,10.838686767578125,6.203093528747559,-1.3668999671936035,0.11485548317432404
1789324338317536800,10.857536865234374,6.224628925323486,-1.7883358001708984,-0.22971096634864807
1789324338336386800,10.87638671875,6.329913139343262,-2.3054845333099365,-0.31854450702667236
1789324338355237000,10.895237060546876,6.0523457527160645,-2.6024937629699707,-0.6367899179458618
1789324338374087200,10.914087158203126,7.764111042022705,-3.3924243450164795,-0.7133602499961853
1789324338392937200,10.932937255859375,7.977072715759277,-4.079463481903076,-0.9433703422546387
1789324338411787300,10.951787353515625,7.668398380279541,-6.136094570159912,-1.3405789136886597
1789324338430637300,10.97063720703125,6.94038200378418,-8.515756607055664,-2.0685951709747314
1789324338449487600,10.989487548828125,6.99541711807251,-10.119845390319824,-1.6926229000091553
1789324338468337700,11.008337646484375,7.225427150726318,-11.056036949157715,-1.2783654928207397
1789324338487187700,11.027187744140624,7.115357398986816,-11.314461708068848,-0.7731808423995972
1789324338515463000,11.055462890625,7.5341010093688965,-10.491031646728516,-0.4740779995918274
1789324338534313000,11.07431298828125,7.70668363571167,-10.282557487487793,-0.4956133961677551
1789324338553163300,11.093163330078125,7.409674644470215,-10.620244026184082,-0.2512463629245758
1789324338572013300,11.112013427734375,7.014858722686768,-10.289735794067383,-0.39990049600601196
1789324338600288500,11.14028857421875,6.191129684448242,-9.329915046691895,-0.3089732229709625
1789324338619138600,11.159138671875,6.140880107879639,-8.83669376373291,-0.3616153299808502
1789324338637988600,11.177988525390624,5.9183478355407715,-9.17886734008789,-0.9457631707191467
1789324338656838700,11.196838623046874,6.207879066467285,-10.25623607635498,-1.6567305326461792
1789324338675689000,11.21568896484375,6.018846035003662,-10.529316902160645,-1.0462616682052612
1789324338694539000,11.2345390625,6.526423931121826,-9.282057762145996,-0.48843491077423096
1789324338713389000,11.25338916015625,6.87816858291626,-9.013762474060059,-0.6152545213699341
1789324338732239000,11.272239013671875,6.602993965148926,-8.879764556884766,-1.3046865463256836
1789324338751089200,11.291089111328125,6.104988098144531,-8.67607593536377,-0.9314061999320984
1789324338769939200,11.309939208984375,7.285247802734375,-8.71226692199707,-1.1922239065170288
1789324338788789500,11.32878955078125,7.833503246307373,-9.451948165893555,-0.6391827464103699
1789324338807639600,11.3476396484375,7.809575080871582,-9.765408515930176,-2.17627215385437
1789324338826489600,11.366489501953126,6.964310169219971,-9.746265411376953,-1.8864415884017944
1789324338845339600,11.385339599609376,6.784848690032959,-9.080761909484863,-1.628016710281372
1789324338864189700,11.404189697265625,6.461817741394043,-8.386544227600098,-0.5482555031776428
1789324338883040000,11.4230400390625,7.0531439781188965,-7.773682594299316,-0.7707880139350891
1789324338901890000,11.44189013671875,7.936394691467285,-7.957930088043213,-1.311864972114563
1789324338930165000,11.4701650390625,9.198010444641113,-8.286046028137207,-2.2193429470062256
1789324338949015300,11.489015380859374,9.423234939575195,-7.967501163482666,-2.0853450298309326
1789324338967865300,11.507865234375,8.793622970581055,-7.792825222015381,-1.800299882888794
1789324338996140300,11.536140380859376,7.019644260406494,-5.317151069641113,-0.734895646572113
1789324339014990300,11.554990234375,5.805585861206055,-2.95184588432312,1.4126626253128052
1789324339033840600,11.573840576171875,5.726622581481934,-1.800299882888794,0.05742774158716202
1789324339052690700,11.592690673828125,7.105785846710205,-3.2727832794189453,-1.3381860256195068
1789324339071540700,11.611540771484375,7.378567695617676,-3.7348971366882324,-1.5083755254745483
1789324339099816000,11.63981591796875,7.3043904304504395,-1.8888343572616577,0.21296121180057526
1789324339118666000,11.658666015625,6.09541654586792,-2.5929224491119385,0.6870391964912415
1789324339137516000,11.67751611328125,5.077868938446045,-2.173879384994507,-0.10767702013254166
1789324339156366000,11.696365966796876,5.461019515991211,-1.3980066776275635,0.07896314561367035
1789324339175216000,11.715216064453125,7.297211647033691,-0.016749758273363113,1.0845468044281006
1789324339194066200,11.734066162109375,6.030810356140137,-1.1850453615188599,0.5362913608551025
1789324339212916200,11.752916259765625,5.683551788330078,-1.4605190753936768,-0.3496512174606323
1789324339231766300,11.771766357421875,5.705087184906006,-1.7668004035949707,-0.06699903309345245
1789324339250616300,11.7906162109375,7.004988193511963,-1.2640085220336914,0.8066803216934204
1789324339269466600,11.809466552734374,6.770491600036621,-1.4629119634628296,0.643968403339386
1789324339288316700,11.828316650390626,6.6245293617248535,-2.403590440750122,-0.3735794425010681
1789324339307166700,11.847166748046876,7.057929515838623,-3.0355947017669678,-1.3573286533355713
1789324339326016800,11.866016845703125,8.046463966369629,-3.3828530311584473,-1.9438693523406982
1789324339344866800,11.88486669921875,8.345866203308105,-4.093820571899414,-1.7069798707962036
1789324339363716900,11.903716796875,6.94038200378418,-4.836193561553955,-1.8912272453308105
1789324339382567000,11.92256689453125,7.120142936706543,-6.531209468841553,-2.2432711124420166
1789324339401417000,11.9414169921875,7.0025954246521,-7.733004570007324,-2.173879384994507
1789324339420267000,11.96026708984375,6.286842346191406,-8.956335067749023,-1.5490535497665405
1789324339448542200,11.988542236328126,5.3318071365356445,-9.59791088104248,-0.9050851464271545
1789324339476817200,12.016817138671875,7.079464912414551,-9.576375007629395,-0.46450668573379517
1789324339505092400,12.04509228515625,7.740182876586914,-10.476675033569336,-1.2951152324676514
1789324339523942400,12.0639423828125,7.036394119262695,-11.666505813598633,-1.8649061918258667
1789324339542792400,12.08279248046875,7.086643218994141,-11.929716110229492,-1.6040884256362915
1789324339561642500,12.101642578125,7.910073280334473,-12.54018497467041,-0.5315057039260864
1789324339580492500,12.120492431640624,7.457530975341797,-12.458828926086426,0.3616153299808502
1789324339599342600,12.139342529296876,7.093822002410889,-11.158928871154785,-0.1746760457754135
1789324339618192600,12.158192626953126,7.199106216430664,-9.250652313232422,-0.43100717663764954
1789324339637042700,12.177042724609375,6.428019046783447,-8.362615585327148,-1.4270195960998535
1789324339655892700,12.195892822265625,5.879763603210449,-8.314759254455566,-1.1324033737182617
1789324339674742800,12.21474267578125,5.3748779296875,-8.235795974731445,-1.1371889114379883
1789324339693592800,12.2335927734375,5.185545921325684,-8.149654388427734,-1.0103694200515747
1789324339712443000,12.25244287109375,5.475376605987549,-8.271688461303711,-1.1132607460021973
1789324339731293000,12.27129296875,5.947061538696289,-8.331509590148926,-0.7755736112594604
1789324339750143000,12.29014306640625,6.94038200378418,-8.31715202331543,-1.4246268272399902
1789324339768993000,12.308992919921875,7.977072715759277,-8.52054214477539,-1.678265929222107
1789324339787843000,12.327843017578125,8.884550094604492,-9.368199348449707,-1.9920248985290527
1789324339806693000,12.346693115234375,8.666504859924316,-10.660922050476074,-1.7644076347351074
1789324339825543200,12.365543212890625,8.542078018188477,-11.13021469116211,-2.1786649227142334
1789324339844393200,12.384393310546875,8.101499557495117,-10.079167366027832,-2.2241287231445312
1789324339863243300,12.4032431640625,7.553243637084961,-8.52054214477539,-3.1866414546966553
1789324339882093300,12.42209326171875,6.7417778968811035,-6.7417778968811035,-2.7508487701416016
1789324339900943400,12.440943359375,7.553243637084961,-4.381258487701416,-1.9247267246246338
1789324339919793400,12.45979345703125,8.767302513122559,-4.254438877105713,-0.09571290761232376
1789324339938643500,12.4786435546875,8.817551612854004,-4.386044025421143,-0.24646073579788208
1789324339957493500,12.497493408203125,7.060322284698486,-4.211368083953857,0.19142581522464752
1789324339976343600,12.516343505859375,5.5758748054504395,-3.9071803092956543,-0.42382872104644775
1789324339995193600,12.535193603515625,6.626922130584717,-4.069892406463623,-0.9361918568611145
1789324340014043600,12.554043701171874,7.857431411743164,-4.445864677429199,-1.2544373273849487
1789324340032893700,12.572893798828124,7.3522467613220215,-4.132105827331543,-0.37836506962776184
1789324340051743700,12.59174365234375,7.031608581542969,-2.784348249435425,0.8401798605918884
1789324340070593500,12.610593505859375,6.392126560211182,-2.2097716331481934,1.7931214570999146
1789324340098868700,12.63886865234375,5.085047245025635,-1.3716856241226196,0.6320042610168457
1789324340117718800,12.65771875,6.0762739181518555,-1.1467602252960205,0.46450668573379517
1789324340136568800,12.67656884765625,5.49930477142334,-0.3496512174606323,1.0845468044281006
1789324340155419000,12.6954189453125,6.377769470214844,0.21296121180057526,0.7468597888946533
1789324340174268700,12.7142685546875,6.658029079437256,-0.8883354067802429,0.17228323221206665
1789324340193118700,12.73311865234375,7.000202655792236,-2.094916343688965,-0.10289137065410614
1789324340211968800,12.75196875,5.211866855621338,-2.997309446334839,-0.39990049600601196
1789324340230818800,12.77081884765625,6.631708145141602,-2.9949166774749756,-0.6080760359764099
1789324340249668900,12.7896689453125,7.65164852142334,-3.294318675994873,-0.17946170270442963
1789324340268519000,12.808518798828125,6.880561351776123,-3.5192439556121826,-0.7707880139350891
1789324340287369000,12.827368896484375,5.865406513214111,-3.373281717300415,-1.474876046180725
1789324340306219000,12.846218994140624,8.604290962219238,-3.497708559036255,-1.7404793500900269
1789324340325069000,12.865069091796874,7.627720355987549,-4.491328239440918,-1.5897315740585327
1789324340343919000,12.883919189453126,6.916453838348389,-7.091429233551025,-1.9752750396728516
1789324340362769000,12.902768798828125,6.372983932495117,-9.904491424560547,-2.1786649227142334
1789324340381619000,12.921618896484375,6.62213659286499,-11.790932655334473,-2.2504496574401855
1789324340409894000,12.949893798828125,6.859025955200195,-11.426924705505371,-2.2169501781463623
1789324340428744000,12.968743896484375,6.504888534545898,-9.62901782989502,-1.5825530290603638
1789324340447594000,12.987593994140624,6.945167541503906,-9.358628273010254,-1.201795220375061
1789324340466444000,13.006444091796874,8.13260555267334,-10.845169067382812,-1.2281162738800049
1789324340485294000,13.025294189453126,8.089534759521484,-12.736696243286133,-1.3980066776275635
1789324340504144100,13.04414404296875,7.960322856903076,-12.978370666503906,-1.9151554107666016
1789324340522994000,13.062993896484375,7.060322284698486,-11.424531936645508,-1.4940186738967896
1789324340541844000,13.081843994140625,6.6245293617248535,-9.22433090209961,-0.5267201066017151
1789324340560694000,13.100694091796875,6.435197353363037,-8.654540061950684,-0.15314064919948578
1789324340579544000,13.1195439453125,6.1695942878723145,-9.39452075958252,-1.201795220375061
1789324340598394000,13.13839404296875,5.0587263107299805,-9.684052467346191,-0.5937191247940063
1789324340617244200,13.157244140625,4.919942378997803,-8.85344409942627,-0.9481559991836548
1789324340636094000,13.176093994140626,4.91037130355835,-8.355437278747559,-1.0295119285583496
1789324340654944000,13.194944091796875,5.36769962310791,-8.362615585327148,-1.0965110063552856
1789324340673794000,13.2137939453125,6.15762996673584,-8.817551612854004,-0.6870391964912415
1789324340692644000,13.23264404296875,7.206284523010254,-9.437591552734375,-1.1012966632843018
1789324340711494100,13.251494140625,8.022536277770996,-9.837491989135742,-2.3030917644500732
1789324340730344000,13.270343994140624,8.264510154724121,-9.835099220275879,-3.248854875564575
1789324340749194000,13.289194091796874,7.701898097991943,-9.09272575378418,-3.2919256687164307
1789324340768044000,13.3080439453125,7.45992374420166,-7.998608112335205,-3.059522867202759
1789324340786894000,13.32689404296875,7.069893836975098,-7.804789066314697,-2.063809633255005
1789324340815169000,13.3551689453125,7.337889671325684,-7.433602809906006,-1.8098711967468262
1789324340834018800,13.374018798828125,7.34267520904541,-6.777669906616211,-2.341377019882202
1789324340852868900,13.392868896484375,8.779266357421875,-5.628517150878906,-1.9800606966018677
1789324340871719000,13.411718994140625,10.03131103515625,-6.152844429016113,-1.0151549577713013
1789324340890569000,13.43056884765625,9.28445053100586,-6.365805625915527,-0.8114659786224365
1789324340909419000,13.4494189453125,6.2892351150512695,-5.056333541870117,-0.8401798605918884
1789324340928268800,13.468268798828126,5.9422760009765625,-3.911965847015381,-1.0199406147003174
1789324340947118800,13.487118896484375,6.468996047973633,-3.614956855773926,-1.501197099685669
1789324340965969000,13.505968994140625,6.078666687011719,-3.332603693008423,-1.017547845840454
1789324340984819000,13.52481884765625,5.214259624481201,-1.7883358001708984,-0.11485548317432404
1789324341003668700,13.543668701171875,5.66201639175415,-1.1778669357299805,0.9409775137901306
1789324341022518800,13.562518798828124,5.207081317901611,-1.3716856241226196,1.8337994813919067
1789324341041368800,13.581368896484374,6.21984338760376,-1.695015788078308,0.643968403339386
1789324341060218600,13.600218505859376,7.464709281921387,-1.5394822359085083,0.797109067440033
1789324341079068700,13.619068603515625,5.750551223754883,-1.568196177482605,0.26081767678260803
1789324341097918700,13.637918701171875,6.018846035003662,-0.5434698462486267,0.27038896083831787
1789324341116768800,13.656768798828125,7.325925827026367,-0.8859425783157349,-0.3233301639556885
1789324341135618600,13.67561865234375,7.292426109313965,-1.410269856452942,-0.30179476737976074
1789324341154468600,13.694468505859374,6.224628925323486,-2.228914260864258,-0.2826521694660187
1789324341173318700,13.713318603515624,6.937989234924316,-3.0667014122009277,-0.7540382146835327
1789324341192168400,13.73216845703125,6.8997039794921875,-3.4378879070281982,-1.3621143102645874
1789324341211018500,13.7510185546875,6.500102519989014,-3.921537160873413,-1.2735798358917236
1789324341229868500,13.76986865234375,5.087440013885498,-3.9311084747314453,-1.505982756614685
1789324341248718300,13.78871826171875,5.817550182342529,-4.658825874328613,-1.4126626253128052
1789324341267568400,13.807568359375,6.777669906616211,-5.2956156730651855,-1.3310075998306274
1789324341286418400,13.82641845703125,7.457530975341797,-6.444768905639648,-1.4126626253128052
1789324341305268200,13.845268310546874,6.389733791351318,-7.9316086769104,-2.059023857116699
1789324341324118300,13.8641181640625,6.016453266143799,-9.614660263061523,-2.8824539184570312
1789324341352393200,13.892393310546876,6.856633186340332,-12.561720848083496,-2.42512583732605
1789324341371243300,13.9112431640625,7.646862983703613,-14.400605201721191,-1.8026927709579468
1789324341390093000,13.930093017578125,8.187939643859863,-15.214463233947754,-1.1371889114379883
1789324341408943000,13.948943115234375,9.128618240356445,-14.271093368530273,-0.8452646136283875
1789324341427793200,13.967793212890625,8.065607070922852,-10.55803108215332,-1.201795220375061
1789324341446643000,13.986642822265624,7.840681552886963,-8.510971069335938,-1.5466607809066772
1789324341465493000,14.005492919921876,6.49770975112915,-7.599006652832031,-2.417947292327881
1789324341484342800,14.0243427734375,6.140880107879639,-7.742575645446777,-2.5618157386779785
1789324341503192800,14.04319287109375,5.879763603210449,-8.616254806518555,-1.8601205348968506
1789324341522043000,14.06204296875,6.234200477600098,-9.61226749420166,-1.323829174041748
1789324341540892700,14.080892578125,5.678766250610352,-9.294022560119629,-0.7612167000770569
1789324341559742700,14.09974267578125,5.149653434753418,-8.74337387084961,-0.612861692905426
1789324341578592500,14.118592529296874,5.175974369049072,-8.503792762756348,-1.446162223815918
1789324341597442600,14.137442626953124,5.523232936859131,-8.685647010803223,-1.3716856241226196
1789324341616292600,14.156292724609376,6.294020652770996,-9.691230773925781,-1.5466607809066772
1789324341635142400,14.175142333984375,6.954739093780518,-10.610672950744629,-1.4676976203918457
1789324341653992400,14.193992431640625,8.130212783813477,-10.675278663635254,-2.17627215385437
1789324341672842200,14.21284228515625,8.41286563873291,-10.356734275817871,-2.3198416233062744
1789324341691692300,14.2316923828125,8.173583030700684,-9.724730491638184,-2.358126640319824
1789324341710542300,14.250542236328124,7.8287177085876465,-8.254939079284668,-2.4849462509155273
1789324341729392000,14.26939208984375,7.58943510055542,-7.596613883972168,-2.5232315063476562
1789324341748242200,14.2882421875,7.613363265991211,-7.373782157897949,-2.7675983905792236
1789324341767092000,14.307092041015625,7.433602809906006,-6.782455921173096,-2.975774049758911
1789324341785942000,14.32594189453125,7.945965766906738,-5.535196781158447,-2.8441689014434814
1789324341804791800,14.344791748046875,8.374580383300781,-6.188736438751221,-1.8792630434036255
1789324341823641900,14.363641845703125,8.089534759521484,-6.526423931121826,-1.165902853012085
1789324341842491600,14.38249169921875,6.133701801300049,-4.46979284286499,0.18424734473228455
1789324341861341700,14.401341796875,7.462316513061523,-2.683849811553955,0.5291129350662231
1789324341880191500,14.42019140625,9.095118522644043,-3.6511483192443848,-1.1300104856491089
1789324341899041500,14.43904150390625,7.392924785614014,-4.632504463195801,-0.4381856322288513
1789324341917891600,14.4578916015625,4.931906700134277,-1.9606190919876099,-0.7109674215316772
1789324341936741400,14.476741455078125,4.862514495849609,-0.6367899179458618,0.31375887989997864
1789324341955591400,14.49559130859375,4.790729999542236,-1.0199406147003174,0.7995018362998962
1789324341974441200,14.514441162109375,5.187938690185547,-0.9984052777290344,0.8210372924804688
1789324341993291300,14.533291259765624,4.953442096710205,-0.5721837282180786,1.256830096244812
1789324342012141000,14.55214111328125,6.21984338760376,-0.6918248534202576,0.4286143481731415
1789324342030991000,14.5709912109375,5.638088226318359,-0.9936196208000183,0.6942176818847656
1789324342049841000,14.5898408203125,6.136094570159912,-1.1611171960830688,0.3616153299808502
1789324342068691000,14.60869091796875,7.017251491546631,-1.446162223815918,0.01196411345154047
1789324342087540700,14.627540771484375,7.502994537353516,-1.6878372430801392,-1.3525429964065552
1789324342106390800,14.646390869140625,6.04038143157959,-2.6240291595458984,-1.7021942138671875
1789324342125240600,14.665240478515624,6.152844429016113,-3.667897939682007,-1.9103697538375854
1789324342144090600,14.684090576171876,6.435197353363037,-3.928715705871582,-2.087737798690796
1789324342162940400,14.7029404296875,6.873383045196533,-4.838586330413818,-2.204986095428467
1789324342181790500,14.72179052734375,7.115357398986816,-6.7896342277526855,-2.317448616027832
1789324342200640300,14.74064013671875,6.832705020904541,-8.568398475646973,-2.0446670055389404
1789324342219490300,14.759490234375,6.547959327697754,-10.067203521728516,-2.6623141765594482
1789324342238340000,14.778340087890625,6.997809886932373,-11.204392433166504,-2.8465616703033447
1789324342257190000,14.79718994140625,7.567600727081299,-12.212368965148926,-2.8992037773132324
1789324342276040000,14.8160400390625,7.45992374420166,-12.363116264343262,-2.5307090282440186
1789324342294889700,14.8348896484375,7.802396297454834,-11.35513973236084,-2.0039889812469482
1789324342313739800,14.85373974609375,8.01775074005127,-10.773385047912598,-1.4916257858276367
1789324342332589600,14.872589599609375,7.642077445983887,-9.794121742248535,-1.280758261680603
1789324342351439600,14.891439697265625,6.830312252044678,-8.589934349060059,-1.745265007019043
1789324342370289400,14.910289306640625,6.480959892272949,-8.525327682495117,-1.8146568536758423
1789324342389139200,14.92913916015625,6.928418159484863,-9.131011009216309,-2.231307029724121
1789324342407989200,14.9479892578125,6.887740135192871,-10.225129127502441,-2.2408783435821533
1789324342426839000,14.966839111328126,6.93320369720459,-9.844670295715332,-3.1579277515411377
1789324342445689000,14.985689208984375,6.423233509063721,-8.546863555908203,-2.707777976989746
1789324342464539000,15.004538818359375,6.1002020835876465,-8.534899711608887,-2.564208507537842
1789324342483388700,15.023388671875,5.286044120788574,-8.97787094116211,-1.5155540704727173
1789324342502238700,15.04223876953125,5.209474086761475,-9.080761909484863,-1.194616675376892
1789324342521088500,15.061088623046874,5.669195175170898,-9.282057762145996,-0.6918248534202576
1789324342539938600,15.0799384765625,6.394519329071045,-9.59791088104248,-1.1156535148620605
1789324342558788400,15.098788330078126,6.713063716888428,-9.731908798217773,-0.981655478477478
1789324342577638100,15.11763818359375,7.811967849731445,-9.265308380126953,-1.311864972114563
1789324342596488200,15.13648828125,8.221439361572266,-9.322735786437988,-1.7859430313110352
1789324342615338000,15.155337890625,8.300402641296387,-9.576375007629395,-2.0135602951049805
1789324342634187800,15.174187744140625,8.245368003845215,-9.282057762145996,-2.760420083999634
1789324342653037800,15.193037841796874,7.890930652618408,-8.180761337280273,-3.1172497272491455
1789324342671887600,15.2118876953125,7.881359577178955,-6.638886451721191,-4.232903480529785
1789324342690737400,15.2307373046875,6.701099872589111,-6.023632049560547,-3.873680830001831
1789324342709587500,15.24958740234375,7.081857681274414,-4.5391845703125,-3.3780672550201416
1789324342728437200,15.268437255859375,7.246962547302246,-3.8234314918518066,-1.8457635641098022
1789324342747287000,15.287287109375,7.184749126434326,-3.9071803092956543,-0.5362913608551025
1789324342766137000,15.30613720703125,5.640480995178223,-3.998107433319092,0.5769693851470947
1789324342784987000,15.32498681640625,4.982155799865723,-4.022035598754883,0.1986042857170105
1789324342803837000,15.3438369140625,7.115357398986816,-3.4235310554504395,-0.6296114325523376
1789324342832111600,15.372111572265625,7.756932735443115,-3.528815269470215,0.20817556977272034
1789324342850961400,15.39096142578125,6.507281303405762,-1.927119493484497,-0.016749758273363113
1789324342869811500,15.4098115234375,8.070392608642578,-1.194616675376892,1.2352946996688843
1789324342888661200,15.4286611328125,7.656434059143066,-1.7668004035949707,0.6918248534202576
1789324342907511000,15.447510986328124,5.935097694396973,-2.489732027053833,-0.35443684458732605
1789324342926361000,15.466361083984374,3.7899320125579834,-1.5705889463424683,-0.2874378263950348
1789324342945211000,15.4852109375,4.687539577484131,-0.9672985672950745,-0.48843491077423096
1789324342964060700,15.504060791015625,3.88803768157959,-1.3932210206985474,1.0606186389923096
1789324342982910700,15.52291064453125,4.924727916717529,-0.4381856322288513,1.4724832773208618
1789324343001760500,15.541760498046875,5.470590591430664,-0.33768710494041443,0.7492526173591614
1789324343020610300,15.5606103515625,6.892525672912598,-1.1635099649429321,-0.16031911969184875
1789324343039460000,15.579460205078124,7.096214771270752,-2.23848557472229,-0.5937191247940063
1789324343058310100,15.59831005859375,6.033203125,-3.2823543548583984,-1.5203397274017334
1789324343077160000,15.617159912109376,7.182356357574463,-4.704289436340332,-2.4011974334716797
1789324343096009700,15.636009765625,7.618149280548096,-8.72901725769043,-3.4402806758880615
1789324343114859500,15.654859619140625,7.462316513061523,-11.599507331848145,-3.404388427734375
1789324343133709600,15.67370947265625,6.365805625915527,-12.590434074401855,-3.1028928756713867
1789324343152559400,15.692559326171875,5.748157978057861,-11.745469093322754,-1.9920248985290527
1789324343180834000,15.720833984375,6.760920524597168,-8.913264274597168,-1.0965110063552856
1789324343199684000,15.73968408203125,7.898109436035156,-8.142476081848145,-1.5346965789794922
1789324343218534000,15.758533935546875,9.257830619812012,-8.870193481445312,-2.465803623199463
1789324343237383700,15.7773837890625,9.176474571228027,-10.940882682800293,-2.7675983905792236
1789324343256233500,15.7962333984375,7.656434059143066,-11.872288703918457,-3.4498519897460938
1789324343275083300,15.815083251953125,7.766504287719727,-11.374282836914062,-2.729313373565674
1789324343293933300,15.833933349609374,7.412067413330078,-10.977073669433594,-2.1379871368408203
1789324343312783000,15.852783203125,6.942774772644043,-10.909775733947754,-2.379662036895752
1789324343331633000,15.8716328125,6.5288166999816895,-9.174081802368164,-2.6623141765594482
1789324343350482700,15.890482666015625,7.3283185958862305,-8.465507507324219,-2.2815563678741455
1789324343369332500,15.90933251953125,7.953144073486328,-9.382556915283203,-2.4921247959136963
1789324343388182500,15.9281826171875,6.5288166999816895,-10.467103958129883,-1.8649061918258667
1789324343407032300,15.9470322265625,5.729015827178955,-9.703194618225098,-1.6040884256362915
1789324343425882000,15.965882080078124,5.456233978271484,-8.96112060546875,-1.6399807929992676
1789324343444732000,15.98473193359375,5.173581600189209,-8.695218086242676,-1.3884353637695312
1789324343463581700,16.003581787109376,5.530411243438721,-8.410472869873047,-2.0614166259765625
1789324343482431700,16.022431640625,6.346662998199463,-8.056035995483398,-2.4705893993377686
1789324343510706400,16.05070654296875,6.997809886932373,-8.027321815490723,-2.5307090282440186
1789324343529556200,16.06955615234375,7.086643218994141,-8.115856170654297,-2.1092731952667236
1789324343548406000,16.088406005859376,7.2349982261657715,-7.943572998046875,-1.958226203918457
1789324343567255800,16.107255859375,7.3283185958862305,-8.219046592712402,-2.5232315063476562
1789324343586105600,16.126105712890624,7.261319637298584,-8.633005142211914,-2.6623141765594482
1789324343604955600,16.14495556640625,8.075178146362305,-8.86780071258545,-3.3134610652923584
1789324343623805400,16.163805419921875,9.166903495788574,-8.491828918457031,-3.239283561706543
1789324343642655200,16.1826552734375,9.774979591369629,-7.371389389038086,-2.769991397857666
1789324343661505000,16.201505126953126,8.55882740020752,-5.484947681427002,-1.6208382844924927
1789324343680354800,16.220354736328126,6.315556049346924,-2.612065076828003,0.4405784606933594
1789324343699204600,16.23920458984375,5.999703884124756,-0.9146564602851868,-0.7229315638542175
1789324343718054400,16.258054443359374,7.096214771270752,-2.472982168197632,-1.225723385810852
1789324343736904400,16.276904541015625,6.035595893859863,-2.1619153022766113,-1.77397882938385
1789324343755754200,16.295754150390625,5.537590026855469,-2.533101797103882,-0.22492532432079315
1789324343774604000,16.31460400390625,4.6372904777526855,-2.276770830154419,-0.059820566326379776
1789324343793453800,16.333453857421876,4.627718925476074,-2.674278497695923,1.4940186738967896
1789324343812303600,16.3523037109375,5.458626747131348,-0.8210372924804688,1.6328023672103882
1789324343831153400,16.3711533203125,7.613363265991211,-0.6583253145217896,0.8452646136283875
1789324343850003200,16.390003173828124,6.535995006561279,-1.83619225025177,-0.34725838899612427
1789324343868853000,16.40885302734375,7.163213729858398,-1.4868401288986206,0.2994019389152527
1789324343887703000,16.427703125,8.604290962219238,-2.628814697265625,-0.13878370821475983
1789324343906552800,16.446552734375,7.098607540130615,-3.0667014122009277,-1.0151549577713013
1789324343925402600,16.465402587890626,4.577469825744629,-2.8609185218811035,-1.1994023323059082
1789324343944252400,16.48425244140625,4.5583271980285645,-3.5024940967559814,-1.378864049911499
1789324343963102200,16.503102294921874,5.290830135345459,-3.3517463207244873,-0.8306085467338562
1789324343981952000,16.521951904296873,6.760920524597168,-2.3198416233062744,-0.5267201066017151
1789324344000801800,16.5408017578125,5.508875846862793,-1.9199410676956177,-0.7995018362998962
1789324344019651600,16.559651611328125,6.457031726837158,-3.037987470626831,-1.342971682548523
1789324344038501400,16.57850146484375,6.5766730308532715,-4.749752998352051,-2.880061149597168
1789324344057351200,16.59735107421875,7.606184959411621,-8.628219604492188,-4.596612453460693
1789324344076201000,16.616200927734376,7.012166976928711,-13.414163589477539,-6.054738521575928
1789324344104475600,16.6444755859375,5.90877628326416,-15.343676567077637,-3.8688950538635254
1789324344123325400,16.663325439453125,8.20947551727295,-13.651053428649902,-0.7755736112594604
1789324344142175200,16.68217529296875,9.289237022399902,-13.06690502166748,0.45254257321357727
1789324344161025000,16.70102490234375,8.254939079284668,-12.997513771057129,-1.7715860605239868
1789324344179874800,16.719874755859376,8.455936431884766,-10.469496726989746,-2.966202735900879
1789324344198724600,16.738724609375,8.436793327331543,-9.463912963867188,-2.358126640319824
1789324344217574400,16.757574462890624,6.73938512802124,-9.454340934753418,-2.4299113750457764
1789324344236424200,16.776424072265623,5.449055194854736,-8.298009872436523,-1.9728822708129883
1789324344255274000,16.79527392578125,5.556732177734375,-7.462316513061523,-1.8792630434036255
1789324344274123800,16.814123779296875,5.199902534484863,-7.3043904304504395,-2.307877540588379
1789324344292973600,16.8329736328125,5.025226593017578,-7.462316513061523,-1.8625133037567139
1789324344311823400,16.8518232421875,4.737788677215576,-7.285247802734375,-1.9824535846710205
1789324344330673200,16.870673095703125,4.709074974060059,-6.744170665740967,-1.4653047323226929
1789324344349523000,16.88952294921875,5.671587944030762,-6.949953556060791,-1.6304094791412354
1789324344368372700,16.908372802734377,6.301199436187744,-8.362615585327148,-1.347757339477539
1789324344387222500,16.927222412109376,7.8454670906066895,-10.44796085357666,-2.245664119720459
1789324344406072300,16.946072265625,9.832706451416016,-11.690434455871582,-3.0188448429107666
1789324344424922000,16.964922119140624,10.46231746673584,-12.568899154663086,-3.200998544692993
1789324344443772000,16.98377197265625,10.344770431518555,-11.731112480163574,-3.75643253326416
1789324344462621700,17.00262158203125,8.858229637145996,-9.767801284790039,-3.801896095275879
1789324344481471500,17.021471435546875,7.890930652618408,-7.859824180603027,-3.7683966159820557
1789324344500321300,17.0403212890625,7.313961505889893,-6.911668300628662,-3.2344980239868164
1789324344519171000,17.059171142578126,7.58943510055542,-6.99541711807251,-2.762812852859497
1789324344538020900,17.078020751953126,8.075178146362305,-6.653243541717529,-2.2265214920043945
1789324344556870700,17.09687060546875,8.10389232635498,-6.432804584503174,-2.17627215385437
1789324344575720400,17.115720458984374,5.729015827178955,-5.013262748718262,-1.2544373273849487
1789324344594570200,17.1345703125,2.5594229698181152,-2.6814568042755127,-0.16271193325519562
1789324344613420000,17.153419921875,3.6511483192443848,-1.1443674564361572,-0.1698904037475586
1789324344632269800,17.172269775390625,5.726622581481934,-2.2887349128723145,-0.368793785572052
1789324344651119600,17.19111962890625,6.215057849884033,-2.427518606185913,-0.11006984114646912
1789324344669969400,17.209969482421876,6.389733791351318,-1.0941181182861328,1.1443674564361572
1789324344688819200,17.228819091796876,6.464210510253906,-1.0271191596984863,0.40707895159721375
1789324344707669000,17.2476689453125,6.234200477600098,-2.0709879398345947,0.9122636318206787
1789324344726518500,17.2665185546875,6.598208427429199,-0.6343970894813538,0.4956133961677551
1789324344745368300,17.285368408203126,8.724231719970703,-1.0103694200515747,-0.4046861231327057
1789324344764218000,17.304218017578126,8.577970504760742,-2.4873390197753906,-0.9720842242240906
1789324344783068000,17.32306787109375,6.514459609985352,-2.14516544342041,-0.8548358678817749
1789324344801917700,17.341917724609374,7.907680511474609,-1.9920248985290527,-1.1922239065170288
1789324344820767500,17.360767578125,7.864609718322754,-2.777169704437256,-1.5107684135437012
1789324344839617300,17.3796171875,6.028417587280273,-3.5958142280578613,-1.3908281326293945
1789324344858467000,17.398467041015625,4.026821613311768,-3.334996461868286,-1.2999008893966675
1789324344877316900,17.41731689453125,4.701896667480469,-2.4945175647735596,-1.450947880744934
1789324344896166400,17.43616650390625,5.839085578918457,-2.0542383193969727,-0.5626124143600464
1789324344915016200,17.45501611328125,6.143272876739502,-2.3988046646118164,-0.6894320249557495
1789324344933866000,17.473865966796875,5.257330417633057,-4.347758769989014,-1.3573286533355713
1789324344952715800,17.4927158203125,4.922335147857666,-6.09541654586792,-2.839383125305176
1789324344971565600,17.511565673828127,5.5758748054504395,-8.142476081848145,-3.0571300983428955
1789324344990415400,17.530415283203126,6.205486297607422,-10.04566764831543,-3.3756744861602783
1789324345009265200,17.54926513671875,6.093023777008057,-12.147762298583984,-3.9717864990234375
1789324345028115000,17.568114990234374,7.654041290283203,-13.749458312988281,-3.4067811965942383
1789324345046964500,17.586964599609374,8.56600570678711,-15.32214069366455,-2.2600209712982178
1789324345065814300,17.605814208984373,7.6875410079956055,-14.376676559448242,-1.8505492210388184
1789324345084664000,17.6246640625,7.3761749267578125,-11.393424987792969,-1.2496516704559326
1789324345103513900,17.643513916015625,7.368996620178223,-9.61944580078125,-1.1228320598602295
1789324345122363600,17.66236376953125,7.323532581329346,-9.035298347473145,-1.2687941789627075
1789324345141213200,17.681213134765624,7.227819919586182,-9.221938133239746,-2.252842426300049
1789324345160063000,17.70006298828125,7.110571384429932,-9.111868858337402,-3.0475587844848633
1789324345188337700,17.728337646484373,6.3442702293396,-8.549256324768066,-2.604886531829834
1789324345207187500,17.7471875,6.04038143157959,-8.654540061950684,-2.588136672973633
1789324345226037000,17.766037109375,6.231807708740234,-8.846264839172363,-2.6647071838378906
1789324345244886800,17.78488671875,5.204688549041748,-8.65932559967041,-1.5083755254745483
1789324345263736600,17.803736572265624,5.391627788543701,-8.046463966369629,-1.3932210206985474
1789324345282586400,17.82258642578125,5.56869649887085,-7.960322856903076,-1.3405789136886597
1789324345301436200,17.841436279296875,6.748956203460693,-8.499007225036621,-1.4796617031097412
1789324345320285700,17.86028564453125,8.903693199157715,-9.866206169128418,-2.3054845333099365
1789324345339135500,17.879135498046875,10.103095054626465,-11.405388832092285,-3.1100711822509766
1789324345357985300,17.8979853515625,10.589137077331543,-11.288141250610352,-3.8545382022857666
1789324345376835000,17.9168349609375,10.613065719604492,-11.158928871154785,-3.828217029571533
1789324345395684600,17.9356845703125,9.334700584411621,-10.318449020385742,-4.3549370765686035
1789324345414534400,17.954534423828125,7.606184959411621,-8.11107063293457,-4.891228675842285
1789324345433384200,17.97338427734375,6.550352096557617,-4.721039295196533,-2.760420083999634
1789324345452234000,17.99223388671875,5.49930477142334,-3.6583266258239746,-1.1922239065170288
1789324345471083800,18.011083740234376,4.7234320640563965,-3.497708559036255,-0.5123631358146667
1789324345489933300,18.029933349609376,5.0347981452941895,-1.8385851383209229,-0.18424734473228455
1789324345508783000,18.048783203125,5.556732177734375,-1.807478427886963,-0.17946170270442963
1789324345527633000,18.0676328125,6.892525672912598,-2.001596212387085,1.1204391717910767
1789324345546482700,18.086482666015623,9.008976936340332,-2.542673110961914,0.8787640929222107
1789324345565332200,18.105332275390627,9.638588905334473,-4.179962158203125,-0.38315072655677795
1789324345584182000,18.12418212890625,8.376973152160645,-4.07467794418335,0.11006984114646912
1789324345603031800,18.14303173828125,8.903693199157715,-3.366103172302246,0.4956133961677551
1789324345621881600,18.161881591796874,8.16401195526123,-2.6336004734039307,-0.275174617767334
1789324345640731100,18.180731201171874,5.980561256408691,-2.7723841667175293,-0.890728235244751
1789324345659581000,18.199580810546873,5.705087184906006,-2.341377019882202,-0.8715856671333313
1789324345678430700,18.2184306640625,4.453042984008789,-2.0063817501068115,-0.8258228898048401
1789324345697280300,18.2372802734375,4.359723091125488,-1.0965110063552856,0.4788636267185211
1789324345716130000,18.256130126953124,4.405186653137207,-1.098903775215149,0.5554339289665222
1789324345734979800,18.274979736328124,4.146462440490723,-1.5466607809066772,0.39511483907699585
1789324345753829600,18.29382958984375,3.638885021209717,-1.6926229000091553,-0.3329014480113983
1789324345772679200,18.31267919921875,4.622933387756348,-1.9007984399795532,0.28983065485954285
1789324345791529000,18.331529052734375,6.971488952636719,-1.7979071140289307,-0.10289137065410614
1789324345810378800,18.350378662109375,6.849454879760742,-2.621636390686035,-1.1419745683670044
1789324345829228300,18.369228271484374,5.870192050933838,-3.8473596572875977,-2.5689942836761475
1789324345848078000,18.388078125,6.725028038024902,-6.500102519989014,-3.524029493331909
1789324345866927600,18.406927734375,7.646862983703613,-8.834300994873047,-3.7755749225616455
1789324345885777400,18.42577734375,8.015357971191406,-12.174083709716797,-3.7827534675598145
1789324345904627200,18.444627197265625,7.199106216430664,-15.738790512084961,-4.182354927062988
1789324345932901600,18.472901611328126,7.531708240509033,-15.073287010192871,-2.0997018814086914
1789324345951751400,18.49175146484375,9.138189315795898,-10.4790678024292,-1.0031908750534058
1789324345970601200,18.510601318359374,9.717552185058594,-8.113463401794434,-2.059023857116699
1789324345989450800,18.52945068359375,8.561220169067383,-6.921239376068115,-3.6221351623535156
1789324346008300500,18.548300537109377,7.232605457305908,-6.751348972320557,-3.9406797885894775
1789324346027150300,18.567150390625,6.4666032791137695,-8.003393173217773,-3.811467409133911
1789324346045999900,18.585999755859376,6.277271270751953,-10.424033164978027,-2.557030200958252
1789324346064849700,18.604849609375,5.38205623626709,-12.691231727600098,-1.83619225025177
1789324346083699200,18.62369921875,5.774479389190674,-11.47238826751709,-2.2959132194519043
1789324346102549000,18.642549072265624,5.590231895446777,-8.970691680908203,-1.7285152673721313
1789324346121398800,18.661398681640627,6.22702169418335,-8.333902359008789,-1.9390836954116821
1789324346140248300,18.680248291015626,6.016453266143799,-8.597112655639648,-2.4059832096099854
1789324346159098000,18.69909814453125,5.5830535888671875,-8.664112091064453,-2.0781664848327637
1789324346177947600,18.71794775390625,5.980561256408691,-8.66889762878418,-1.8816559314727783
1789324346196797400,18.73679736328125,5.903990745544434,-8.41286563873291,-1.2400803565979004
1789324346215647200,18.755647216796874,5.8821563720703125,-7.855038642883301,-1.8457635641098022
1789324346234496800,18.774496826171877,5.913562297821045,-7.512565612792969,-1.8649061918258667
1789324346253346600,18.7933466796875,6.638886451721191,-7.3761749267578125,-2.310270309448242
1789324346272196000,18.812196044921876,8.400900840759277,-7.220641613006592,-2.7029922008514404
1789324346291046000,18.8310458984375,10.306485176086426,-9.296415328979492,-3.528815269470215
1789324346309895700,18.849895751953124,10.088738441467285,-11.288141250610352,-5.472983360290527
1789324346328745200,18.8687451171875,8.314759254455566,-10.806884765625,-5.949454307556152
1789324346347595000,18.887594970703127,7.004988193511963,-8.015357971191406,-4.1297125816345215
1789324346366444500,18.906444580078126,6.68435001373291,-4.934299468994141,-2.355733871459961
1789324346385294300,18.92529443359375,7.069893836975098,-4.252045631408691,-1.8337994813919067
1789324346404143900,18.944143798828126,7.538887023925781,-4.4721856117248535,-0.7301099896430969
1789324346422993700,18.96299365234375,7.036394119262695,-4.120141506195068,0.4262215197086334
1789324346441843200,18.98184326171875,7.414460182189941,-4.00528621673584,-0.02871387079358101
1789324346460693000,19.00069287109375,8.106285095214844,-4.35254430770874,-0.9050851464271545
1789324346479542800,19.019542724609376,6.646064758300781,-3.387638568878174,-1.2951152324676514
1789324346498392300,19.038392333984376,5.233402252197266,-1.9462621212005615,-0.5889334678649902
1789324346517242000,19.0572421875,5.422734260559082,-0.4573282301425934,-0.4860421121120453
1789324346536091600,19.076091552734376,5.927918910980225,-1.1419745683670044,0.5315057039260864
1789324346554941400,19.09494140625,5.171188831329346,-1.3980066776275635,0.4262215197086334
1789324346573791000,19.113791015625,5.4179487228393555,-1.3645070791244507,0.20578274130821228
1789324346602065700,19.142065673828125,6.669992923736572,-1.561017632484436,0.6367899179458618
1789324346620915200,19.160915283203124,5.982954025268555,-1.8194425106048584,-0.3400799036026001
1789324346639765000,19.179764892578124,5.714658737182617,-1.407876968383789,-0.5291129350662231
1789324346658614500,19.198614501953124,6.444768905639648,-0.8428717851638794,-0.9672985672950745
1789324346677464300,19.21746435546875,7.661220073699951,-1.477268934249878,-1.074975609779358
1789324346696313900,19.23631396484375,6.533602237701416,-2.1954147815704346,-1.415055513381958
1789324346715163600,19.25516357421875,6.985845565795898,-2.4945175647735596,-2.0614166259765625
1789324346734013200,19.27401318359375,7.323532581329346,-4.122534275054932,-3.0092735290527344
1789324346752863000,19.292863037109374,6.451947212219238,-7.471887588500977,-3.1890344619750977
1789324346771712500,19.31171240234375,5.9901323318481445,-9.375378608703613,-3.6870405673980713
1789324346790562300,19.330562255859373,6.279664039611816,-9.897313117980957,-3.2440693378448486
1789324346809411800,19.349411865234377,7.093822002410889,-10.639387130737305,-2.7675983905792236
1789324346837686300,19.377686279296874,7.474280834197998,-11.745469093322754,-3.311068296432495
1789324346856536000,19.3965361328125,7.52931547164917,-12.700803756713867,-3.380460262298584
1789324346875385600,19.415385498046874,8.20947551727295,-12.705589294433594,-2.98295259475708
1789324346894235400,19.4342353515625,7.567600727081299,-10.68963623046875,-2.4538395404815674
1789324346913085000,19.4530849609375,6.634100914001465,-8.467900276184082,-1.7691932916641235
1789324346931934700,19.471934814453125,6.104988098144531,-7.498208999633789,-2.0853450298309326
1789324346950784300,19.4907841796875,6.1002020835876465,-7.654041290283203,-1.628016710281372
1789324346969634000,19.509634033203124,5.84147834777832,-8.611469268798828,-1.709372639656067
1789324346988483600,19.528483642578124,5.985346794128418,-9.08554744720459,-2.1403799057006836
1789324347007333000,19.5473330078125,6.136094570159912,-9.37059211730957,-2.2504496574401855
1789324347035607800,19.57560791015625,6.0523457527160645,-9.023334503173828,-1.4796617031097412
1789324347054457300,19.594457275390624,6.555137634277344,-8.7505521774292,-2.14516544342041
1789324347073307000,19.613306884765624,6.744170665740967,-8.951549530029297,-2.496910333633423
1789324347101581300,19.641581298828125,7.048357963562012,-10.512567520141602,-3.380460262298584
1789324347120431000,19.66043115234375,6.973881721496582,-11.199605941772461,-3.617349624633789
1789324347139280600,19.67928076171875,7.292426109313965,-10.778170585632324,-3.2297122478485107
1789324347158130400,19.69813037109375,7.6253275871276855,-9.664909362792969,-2.441875457763672
1789324347176980000,19.71697998046875,7.364210605621338,-9.176474571228027,-2.4921247959136963
1789324347195829500,19.73582958984375,6.8518476486206055,-8.207082748413086,-2.887239694595337
1789324347214679300,19.75467919921875,6.978667259216309,-7.112964630126953,-3.4618160724639893
1789324347233528800,19.77352880859375,6.8757758140563965,-6.7896342277526855,-3.4163525104522705
1789324347252378600,19.792378662109375,7.191927433013916,-6.612565517425537,-3.1100711822509766
1789324347271228200,19.811228271484374,7.120142936706543,-6.516852378845215,-2.6551358699798584
1789324347290078000,19.830077880859374,7.385746002197266,-5.738586902618408,-2.564208507537842
1789324347308927500,19.848927490234374,7.39053201675415,-5.470590591430664,-2.434697151184082
1789324347327777000,19.867777099609373,6.15762996673584,-5.1783671379089355,-1.4174482822418213
1789324347346626800,19.886626708984377,5.199902534484863,-3.145963668823242,-0.23210379481315613
1789324347365476400,19.905476318359376,7.0097737312316895,-1.994417667388916,-0.062213387340307236
1789324347384326000,19.924325927734376,9.63619613647461,-3.677469253540039,-0.9026923179626465
1789324347403175700,19.94317578125,8.764909744262695,-4.342973232269287,-0.9505487680435181
1789324347422025200,19.962025146484375,7.048357963562012,-2.9063823223114014,-0.8114659786224365
1789324347440874800,19.980874755859375,6.772884368896484,-2.317448616027832,-0.368793785572052
1789324347459724500,19.999724609375,6.387341022491455,-1.7715860605239868,-0.4956133961677551
1789324347478574000,20.018573974609374,5.461019515991211,-0.701396107673645,-0.17706887423992157
1789324347497424000,20.037423828125,5.132903575897217,-0.3041875660419464,-0.7875377535820007
1789324347516273400,20.0562734375,5.338985443115234,-1.012762188911438,0.6248258352279663
1789324347535123000,20.075123046875,5.616552829742432,-1.0965110063552856,-0.04307080805301666
1789324347553972700,20.09397265625,4.29033088684082,-1.529910922050476,0.36640095710754395
1789324347572822300,20.112822265625,5.982954025268555,-0.9337990283966064,-0.12921242415905
1789324347591671800,20.131671875,6.439982891082764,-1.8625133037567139,0.09810572862625122
1789324347610521600,20.150521484375,6.823133945465088,-2.2791635990142822,-0.490827739238739
1789324347629371100,20.16937109375,6.667600154876709,-2.496910333633423,-1.1754741668701172
1789324347648220700,20.188220703125,7.330711364746094,-3.2991042137145996,-2.4705893993377686
1789324347667070500,20.207070556640623,6.655636310577393,-6.231807708740234,-2.8704898357391357
1789324347685920000,20.225919921875,6.988238334655762,-8.72901725769043,-3.531208038330078
1789324347704769500,20.24476953125,6.602993965148926,-10.009775161743164,-3.2105698585510254
1789324347723619000,20.263619140625,6.538387775421143,-10.431211471557617,-3.3278181552886963
1789324347742468900,20.28246875,6.602993965148926,-10.308877944946289,-2.5522444248199463
1789324347761318400,20.301318359375,7.134500026702881,-9.497411727905273,-2.612065076828003
1789324347780168000,20.32016796875,8.101499557495117,-9.533304214477539,-2.8776683807373047
1789324347799017700,20.339017822265625,8.788837432861328,-10.158130645751953,-3.2177481651306152
1789324347817867300,20.3578671875,7.627720355987549,-9.990633010864258,-3.691826343536377
1789324347836716800,20.376716796875,6.930810928344727,-8.886942863464355,-3.586242914199829
1789324347855566300,20.39556640625,7.203891754150391,-8.975478172302246,-2.190629243850708
1789324347874416000,20.414416015625,6.918846607208252,-10.328021049499512,-1.350150227546692
1789324347893265700,20.433265625,6.332305908203125,-11.431710243225098,-1.8170497417449951
1789324347912115200,20.452115234375,6.394519329071045,-9.90688419342041,-2.403590440750122
1789324347930965000,20.470965087890626,7.52213716506958,-8.499007225036621,-2.5378875732421875
1789324347949814500,20.489814453125,7.8382887840271,-9.509376525878906,-2.753241539001465
1789324347968664000,20.5086640625,7.065107822418213,-10.261021614074707,-2.95902419090271
1789324347987513600,20.527513671875,6.138487339019775,-9.483055114746094,-2.3150558471679688
1789324348006363100,20.546363037109376,6.291627883911133,-8.42722225189209,-3.4259238243103027
1789324348025213000,20.565212890625,5.537590026855469,-8.113463401794434,-2.7269206047058105
1789324348044062500,20.5840625,6.310770511627197,-8.029714584350586,-2.9087750911712646
1789324348062912000,20.602912109375,6.981060028076172,-8.123034477233887,-2.441875457763672
1789324348081761500,20.621761474609375,7.127321243286133,-8.386544227600098,-2.525923490524292
1789324348100611300,20.640611328125,7.194320201873779,-8.882157325744629,-2.691028118133545
1789324348119460900,20.6594609375,7.457530975341797,-9.844670295715332,-2.9398818016052246
1789324348138310400,20.678310302734374,7.819146156311035,-9.861420631408691,-3.4331023693084717
1789324348157160000,20.697159912109374,7.5774712562561035,-9.365806579589844,-3.770789384841919
1789324348176009700,20.716009765625,7.661220073699951,-7.6253275871276855,-3.7899320125579834
1789324348194859300,20.734859375,7.524529933929443,-6.521637916564941,-2.999702215194702
1789324348213708800,20.753708740234377,7.680362701416016,-5.492125988006592,-2.786741018295288
1789324348232558300,20.772558349609376,7.560422420501709,-4.388436794281006,-2.018345832824707
1789324348251408000,20.791407958984376,7.9005022048950195,-4.117748737335205,-1.477268934249878
1789324348270257700,20.810257568359376,7.840681552886963,-4.412364959716797,-0.5865406394004822
1789324348289107200,20.829107177734375,7.313961505889893,-3.969393730163574,-0.24406790733337402
1789324348307956700,20.847956787109375,6.4666032791137695,-3.5742788314819336,-0.2273181527853012
1789324348326806300,20.86680615234375,6.198307991027832,-2.755634307861328,-1.2831511497497559
1789324348345655800,20.88565576171875,6.195915222167969,-1.9824535846710205,-1.776371717453003
1789324348364505600,20.904505615234374,6.937989234924316,-1.1802598237991333,-0.7779664397239685
1789324348383355100,20.923355224609374,6.705885410308838,-0.9912267923355103,-0.47647079825401306
1789324348402204700,20.94220458984375,5.954239845275879,-1.40279221534729,0.5482555031776428
1789324348421054200,20.96105419921875,4.951049327850342,-1.0414760112762451,-0.7277171611785889
1789324348439904000,20.979904052734376,5.657230854034424,-1.1252248287200928,0.3616153299808502
1789324348458753500,20.99875341796875,5.566303730010986,-1.6256239414215088,-0.17946170270442963
1789324348477603000,21.01760302734375,6.205486297607422,-2.008774518966675,0.8476574420928955
1789324348496452600,21.03645263671875,5.25972318649292,-2.0135602951049805,-0.016749758273363113
1789324348515302100,21.05530224609375,5.365306377410889,-1.5131611824035645,-0.07896314561367035
1789324348534151700,21.074151611328126,6.27487850189209,-1.8194425106048584,-1.1515458822250366
1789324348553001200,21.093001220703126,6.356234073638916,-2.6814568042755127,-0.734895646572113
1789324348571851000,21.11185107421875,6.315556049346924,-2.705385208129883,-1.2855439186096191
1789324348590700500,21.130700439453125,7.120142936706543,-3.3062827587127686,-1.7572290897369385
1789324348609550000,21.149550048828125,7.512565612792969,-4.9893341064453125,-2.9566314220428467
1789324348628399600,21.168399658203125,7.256533622741699,-8.221439361572266,-3.531208038330078
1789324348647249200,21.187249267578125,6.638886451721191,-11.029715538024902,-4.321437835693359
1789324348666098700,21.2060986328125,5.980561256408691,-12.95205020904541,-4.048357009887695
1789324348684948500,21.224948486328124,6.22702169418335,-13.426127433776855,-3.552743434906006
1789324348703798000,21.243798095703124,7.2661051750183105,-12.535399436950684,-2.4131617546081543
1789324348722647600,21.2626474609375,8.918049812316895,-10.28016471862793,-2.2097716331481934
1789324348741497000,21.2814970703125,8.616254806518555,-9.001798629760742,-2.801098108291626
1789324348760346600,21.3003466796875,7.926823139190674,-8.388936996459961,-3.1962127685546875
1789324348779196200,21.319196044921874,7.261319637298584,-8.120641708374023,-3.1794631481170654
1789324348798045700,21.338045654296874,7.041179656982422,-8.522934913635254,-2.3150558471679688
1789324348816895200,21.356895263671873,5.78644323348999,-10.296914100646973,-2.094916343688965
1789324348835744800,21.375744873046877,5.549553871154785,-11.118250846862793,-2.6024937629699707
1789324348854594300,21.39459423828125,6.030810356140137,-9.425627708435059,-2.1858434677124023
1789324348873444000,21.413444091796876,7.065107822418213,-8.97787094116211,-2.475374937057495
1789324348892293600,21.432293701171876,8.034500122070312,-9.669695854187012,-2.848954439163208
1789324348911143200,21.45114306640625,7.917252063751221,-10.17727279663086,-3.497708559036255
1789324348929992700,21.46999267578125,7.057929515838623,-9.621838569641113,-3.5910286903381348
1789324348948842200,21.48884228515625,6.516852378845215,-8.717052459716797,-3.9406797885894775
1789324348967691800,21.50769189453125,6.021239280700684,-8.73619556427002,-3.0236306190490723
1789324348986541300,21.526541259765626,6.310770511627197,-8.941978454589844,-2.659921407699585
1789324349005390800,21.545390869140626,6.519245147705078,-8.846264839172363,-2.533101797103882
1789324349024240400,21.564240478515625,6.468996047973633,-8.149654388427734,-3.045166015625
1789324349043090000,21.58308984375,5.944668769836426,-7.599006652832031,-3.2033913135528564
1789324349061939500,21.601939453125,6.203093528747559,-7.065107822418213,-2.973381280899048
1789324349080789000,21.6207890625,6.736992359161377,-7.050751209259033,-2.506481647491455
1789324349099638800,21.639638671875,7.70668363571167,-7.409674644470215,-2.705385208129883
1789324349118488300,21.65848828125,8.142476081848145,-7.938787460327148,-3.4618160724639893
1789324349137337900,21.677337890625,9.044869422912598,-8.286046028137207,-3.5575289726257324
1789324349156187400,21.6961875,9.19561767578125,-8.724231719970703,-3.749253988265991
1789324349175037000,21.715036865234374,8.094321250915527,-7.905287742614746,-2.755634307861328
1789324349193886500,21.733886474609374,6.425626277923584,-4.711467742919922,-1.7309080362319946
1789324349212736000,21.752736083984374,6.045167446136475,-2.6790640354156494,-0.7372884750366211
1789324349231585500,21.77158544921875,6.112166404724121,-1.6423736810684204,-1.6136597394943237
1789324349250435000,21.79043505859375,6.509674072265625,-2.358126640319824,-1.323829174041748
1789324349269284600,21.80928466796875,4.433900356292725,-2.121237277984619,-1.415055513381958
1789324349288134100,21.828134033203124,4.7234320640563965,-1.7237296104431152,0.4501497745513916
1789324349306983700,21.846983642578124,5.156831741333008,-1.8792630434036255,0.12921242415905
1789324349325833200,21.865833251953124,5.302793979644775,-2.1020946502685547,0.7372884750366211
1789324349344682800,21.884682861328123,4.977370262145996,-1.4437693357467651,1.3908281326293945
1789324349363532300,21.9035322265625,6.6484575271606445,-0.2874378263950348,0.37836506962776184
1789324349382381800,21.9223818359375,6.5527448654174805,-0.8620143532752991,0.27038896083831787
1789324349401231400,21.9412314453125,7.718647480010986,-0.9840483069419861,-0.0933200865983963
1789324349420081000,21.960080810546874,7.091429233551025,-1.7691932916641235,-1.220937728881836
1789324349438930400,21.978930419921873,6.504888534545898,-2.142772674560547,-1.9992033243179321
1789324349457780000,21.997780029296877,6.4905314445495605,-2.755634307861328,-1.9247267246246338
1789324349476629500,22.01662939453125,6.887740135192871,-3.334996461868286,-2.0159530639648438
1789324349495479000,22.03547900390625,7.40488862991333,-3.638885021209717,-1.8194425106048584
1789324349514328600,22.05432861328125,6.258128643035889,-3.945465326309204,-2.4705893993377686
1789324349533178000,22.07317822265625,6.203093528747559,-5.132903575897217,-2.451446771621704
1789324349552027600,22.092027587890627,6.662814617156982,-6.10259485244751,-2.793919563293457
1789324349570877200,22.110877197265626,6.7896342277526855,-7.3761749267578125,-2.36291241645813
1789324349589726700,22.129726806640626,6.298806667327881,-8.63061237335205,-3.0738797187805176
1789324349608576300,22.148576171875,5.7409796714782715,-10.299306869506836,-3.670290946960449
1789324349627425800,22.16742578125,5.793622016906738,-11.54686450958252,-3.7971103191375732
1789324349646275300,22.186275390625,6.713063716888428,-12.324831008911133,-3.4331023693084717
1789324349665124900,22.205124755859377,8.360222816467285,-12.320045471191406,-2.755634307861328
1789324349683974400,22.223974365234376,8.149654388427734,-11.36231803894043,-2.3844478130340576
1789324349702824000,22.242823974609376,7.282855033874512,-10.215558052062988,-2.643171787261963
1789324349721673500,22.261673583984376,7.313961505889893,-8.930013656616211,-2.2576282024383545
1789324349740523000,22.28052294921875,7.45992374420166,-9.181260108947754,-2.4370899200439453
1789324349759372500,22.29937255859375,7.060322284698486,-9.509376525878906,-3.191427230834961
1789324349778222000,22.31822216796875,7.254140853881836,-10.24905776977539,-4.172783374786377
1789324349797071600,22.337071533203126,7.357032299041748,-9.837491989135742,-4.1368913650512695
1789324349815921200,22.355921142578126,6.689135551452637,-9.138189315795898,-2.3988046646118164
1789324349834770700,22.374770751953125,6.1313090324401855,-8.764909744262695,-2.3294129371643066
1789324349853620200,22.3936201171875,5.56151819229126,-8.65214729309082,-1.9103697538375854
1789324349872469800,22.4124697265625,5.250152111053467,-8.666504859924316,-2.4849462509155273
1789324349891319300,22.4313193359375,4.5200419425964355,-8.410472869873047,-1.8553348779678345
1789324349910168800,22.4501689453125,5.030012130737305,-8.012965202331543,-2.489732027053833
1789324349929018400,22.469018310546875,5.784050464630127,-8.168797492980957,-1.8577276468276978
1789324349947868000,22.487867919921875,7.1249284744262695,-9.080761909484863,-2.166700839996338
1789324349966717400,22.506717529296875,8.03210735321045,-10.112667083740234,-2.417947292327881
1789324349985566700,22.525566650390626,8.616254806518555,-9.89970588684082,-3.538386583328247
1789324350004416300,22.544416259765626,8.812766075134277,-8.958727836608887,-3.952643871307373
1789324350023265800,22.563265869140626,8.74337387084961,-8.71226692199707,-4.242474555969238
1789324350042115300,22.582115234375,7.809575080871582,-8.290831565856934,-4.184747695922852
1789324350060964900,22.60096484375,7.414460182189941,-6.444768905639648,-4.062713623046875
1789324350079814400,22.619814453125,7.2589263916015625,-5.25254487991333,-2.801098108291626
1789324350098664000,22.638663818359376,7.8287177085876465,-5.00369119644165,-2.355733871459961
1789324350117513500,22.657513427734376,6.756134510040283,-5.19033145904541,-0.7851449251174927
1789324350136363000,22.676363037109375,5.2956156730651855,-3.7660038471221924,-0.004785645287483931
1789324350155212500,22.695212646484375,6.02602481842041,-2.0470597743988037,-0.3400799036026001
1789324350174062000,22.71406201171875,8.17836856842041,-1.8864415884017944,-0.12681959569454193
1789324350192911600,22.73291162109375,9.274879455566406,-3.0571300983428955,-0.9577272534370422
1789324350211761000,22.751760986328126,7.608577728271484,-4.261617183685303,-0.5003990530967712
1789324350230610400,22.7706103515625,5.097011566162109,-3.0188448429107666,-1.2687941789627075
1789324350249460000,22.7894599609375,5.650052547454834,-1.2640085220336914,0.2946162819862366
1789324350277734400,22.817734375,5.166403293609619,-0.6296114325523376,0.4501497745513916
1789324350296583700,22.836583740234374,4.812265396118164,-0.5147559642791748,-0.16510476171970367
1789324350315433200,22.85543310546875,5.152046203613281,-0.4453641176223755,0.7109674215316772
1789324350334282800,22.87428271484375,6.588637351989746,-0.9026923179626465,0.16271193325519562
1789324350353132300,22.89313232421875,6.3993048667907715,-1.4724832773208618,0.23210379481315613
1789324350371981800,22.91198193359375,5.4418768882751465,-2.0446670055389404,-1.5514464378356934
1789324350390831400,22.930831298828124,6.526423931121826,-2.700599431991577,-1.0654042959213257
1789324350409681000,22.949680908203124,7.555636405944824,-2.4993033409118652,-2.0279171466827393
1789324350428530400,22.968530517578124,7.469494819641113,-3.3206396102905273,-1.8864415884017944
1789324350447379700,22.987379638671875,7.615756034851074,-5.233402252197266,-3.1387851238250732
1789324350466229200,23.006229248046875,7.311568737030029,-8.044071197509766,-3.404388427734375
1789324350485078800,23.025078857421875,6.9690961837768555,-9.37059211730957,-4.278367042541504
1789324350503928300,23.04392822265625,5.822335720062256,-10.629815101623535,-3.7253258228302
1789324350522777900,23.06277783203125,5.006083965301514,-10.684850692749023,-2.784348249435425
1789324350551052000,23.091052001953123,6.303592205047607,-9.993025779724121,-1.4198411703109741
1789324350569901600,23.109901611328127,8.173583030700684,-8.834300994873047,-1.8505492210388184
1789324350588751000,23.128751220703126,8.855836868286133,-8.530113220214844,-3.528815269470215
1789324350607600600,23.1476005859375,8.15683364868164,-9.001798629760742,-5.032404899597168
1789324350626450200,23.1664501953125,7.012166976928711,-9.674481391906738,-4.383651256561279
1789324350645299500,23.185299560546873,6.181558132171631,-10.706385612487793,-2.643171787261963
1789324350664149000,23.20414892578125,6.550352096557617,-11.747861862182617,-1.6351951360702515
1789324350682998500,23.22299853515625,6.799205780029297,-12.18365478515625,-1.6328023672103882
1789324350701848000,23.24184814453125,7.203891754150391,-10.605887413024902,-2.628814697265625
1789324350720697600,23.260697509765624,7.33549690246582,-8.846264839172363,-2.714956283569336
1789324350739547100,23.279547119140624,6.909275531768799,-7.919644832611084,-2.3748764991760254
1789324350758396400,23.298396484375,6.983452796936035,-8.147261619567871,-3.390031576156616
1789324350777246000,23.317245849609375,6.121737480163574,-8.793622970581055,-3.222533941268921
1789324350796095500,23.336095458984374,5.700301647186279,-8.680861473083496,-3.19860577583313
1789324350814945000,23.354945068359374,5.5998029708862305,-8.134998321533203,-2.564208507537842
1789324350833794600,23.373794677734374,5.863013744354248,-7.668398380279541,-3.02123761177063
1789324350852644000,23.39264404296875,5.935097694396973,-7.847859859466553,-2.542673110961914
1789324350871493400,23.411493408203125,6.361020088195801,-8.369794845581055,-2.724527597427368
1789324350890343000,23.430343017578124,6.894918441772461,-8.774480819702148,-2.729313373565674
1789324350909192400,23.4491923828125,7.972286701202393,-9.176474571228027,-2.7125635147094727
1789324350928042000,23.4680419921875,8.886942863464355,-9.823135375976562,-2.693420886993408
1789324350946891500,23.4868916015625,8.848658561706543,-10.359127044677734,-3.308675527572632
1789324350965740800,23.50574072265625,8.286046028137207,-8.894122123718262,-4.041178226470947
1789324350984590300,23.52459033203125,7.3522467613220215,-6.902096748352051,-3.739682674407959
1789324351003439900,23.54343994140625,6.981060028076172,-5.242973327636719,-3.3517463207244873
1789324351022289400,23.562289306640626,7.357032299041748,-4.124927043914795,-2.0398812294006348
1789324351041139000,23.581138916015625,7.498208999633789,-3.684647798538208,-0.39032918214797974
1789324351059988500,23.599988525390625,7.069893836975098,-3.6436707973480225,-0.14356936514377594
1789324351078837800,23.618837646484376,5.978168487548828,-3.0643084049224854,-1.1371889114379883
1789324351097687300,23.637687255859376,5.204688549041748,-2.2504496574401855,-1.4605190753936768
1789324351116536800,23.656536865234376,5.456233978271484,-1.709372639656067,-1.1300104856491089
1789324351135386400,23.675386474609375,6.030810356140137,-1.6878372430801392,-0.2225325107574463
1789324351154235600,23.694235595703127,7.043572425842285,-1.5251253843307495,0.40229329466819763
1789324351173085200,23.713085205078126,8.238189697265625,-2.3030917644500732,0.610468864440918
1789324351191934700,23.731934814453126,7.050751209259033,-2.786741018295288,-0.3568296730518341
1789324351210784300,23.7507841796875,6.198307991027832,-2.3844478130340576,0.2225325107574463
1789324351229633800,23.7696337890625,5.587839126586914,-1.3381860256195068,-1.4533406496047974
1789324351257908000,23.797907958984375,7.615756034851074,-1.750050663948059,0.007178467698395252
1789324351276757200,23.81675732421875,6.270092487335205,-1.7715860605239868,-0.09571290761232376
1789324351295606800,23.835606689453126,5.84865665435791,-1.5705889463424683,-0.8979067206382751
1789324351314456300,23.854456298828126,5.796014785766602,-1.7931214570999146,-1.1060823202133179
1789324351333305900,23.873305908203125,6.392126560211182,-2.2504496574401855,-1.3453645706176758
1789324351352155400,23.8921552734375,5.3940205574035645,-2.4083759784698486,-1.5035899877548218
1789324351371004700,23.911004638671876,5.796014785766602,-3.3230323791503906,-2.1068804264068604
1789324351389854200,23.929854248046876,6.617351055145264,-5.171188831329346,-2.1092731952667236
1789324351408703700,23.948703857421876,7.220641613006592,-6.80159854888916,-3.1172497272491455
1789324351427553300,23.96755322265625,6.365805625915527,-10.27059268951416,-4.419543266296387
1789324351446402600,23.986402587890623,5.836692810058594,-12.561720848083496,-4.984548568725586
1789324351474676700,24.0146767578125,6.200700759887695,-14.32882022857666,-3.959822416305542
1789324351493526300,24.0335263671875,8.717052459716797,-12.662518501281738,-2.283949136734009
1789324351512375800,24.052375732421876,9.289237022399902,-10.009775161743164,-1.8936200141906738
1789324351531225300,24.071225341796875,8.762516975402832,-9.664909362792969,-2.8034908771514893
1789324351550074600,24.09007470703125,7.917252063751221,-9.559625625610352,-3.5431721210479736
1789324351568924200,24.108924072265626,7.383353233337402,-8.781659126281738,-3.045166015625
1789324351587773700,24.127773681640626,6.033203125,-7.938787460327148,-2.458625316619873
1789324351606623200,24.146623291015626,5.389235019683838,-7.950751304626465,-2.652743101119995
1789324351625472500,24.165472412109374,5.755336761474609,-8.688039779663086,-2.999702215194702
1789324351644322000,24.184322021484373,6.327520370483398,-9.308379173278809,-2.6407787799835205
1789324351663171600,24.203171630859377,6.363412857055664,-8.817551612854004,-2.3365912437438965
1789324351682020900,24.222020751953124,6.15045166015625,-8.796015739440918,-2.1260228157043457
1789324351700870400,24.240870361328124,6.519245147705078,-9.282057762145996,-2.9470601081848145
1789324351719720000,24.259719970703124,6.258128643035889,-9.847063064575195,-3.1794631481170654
1789324351738569500,24.278569580078123,6.327520370483398,-10.076774597167969,-3.2057840824127197
1789324351757418800,24.297418701171875,6.847062110900879,-9.645767211914062,-3.7923247814178467
1789324351785693000,24.32569287109375,7.254140853881836,-9.332307815551758,-2.999702215194702
1789324351804542500,24.34454248046875,7.3043904304504395,-9.329915046691895,-3.037987470626831
1789324351823392000,24.36339208984375,7.239784240722656,-8.44157886505127,-3.3230323791503906
1789324351842241500,24.382241455078123,7.158428192138672,-7.744968891143799,-3.1172497272491455
1789324351861090800,24.4010908203125,7.189534664154053,-7.881359577178955,-3.208176851272583
1789324351879940400,24.4199404296875,7.608577728271484,-7.704290866851807,-3.801896095275879
1789324351898790000,24.438789794921874,7.464709281921387,-7.2421770095825195,-3.840181350708008
1789324351917639200,24.45763916015625,7.378567695617676,-6.3131632804870605,-2.8058836460113525
1789324351936488700,24.47648876953125,7.8765740394592285,-5.736194133758545,-1.8744773864746094
1789324351955338200,24.495338134765625,7.354639530181885,-5.2956156730651855,-0.3281157910823822
1789324351983612400,24.5236123046875,5.683551788330078,-2.968595504760742,-0.6032904386520386
1789324352002461700,24.542461669921874,7.5774712562561035,-2.2815563678741455,-1.561017632484436
