time,seconds_elapsed,z,y,x
1789324327589256700,0.129256591796875,0.4011739492416382,-0.7769213318824768,0.5800758004188538
1789324327608107000,0.14810693359375,0.1898207813501358,-0.11048699915409088,0.752945601940155
1789324327626957300,0.166957275390625,0.188599094748497,0.3891860544681549,0.7327876687049866
1789324327645807400,0.185807373046875,0.3083251416683197,0.4551575779914856,0.4652365446090698
1789324327664657700,0.20465771484375,0.28938889503479004,0.375747412443161,-0.004504998680204153
1789324327683507700,0.2235078125,0.14095300436019897,0.5058578848838806,-0.4901285767555237
1789324327711783200,0.251783203125,0.026724567636847496,0.00007635590736754239,-0.8866447806358337
1789324327730633200,0.27063330078125,0.08719844371080399,-0.34871742129325867,-0.9739959836006165
1789324327749483500,0.2894833984375,0.18432316184043884,0.031229566782712936,-0.6452837586402893
1789324327768333800,0.308333740234375,0.0988045409321785,0.10758547484874725,-0.10529479384422302
1789324327796609000,0.336609130859375,0.052990999072790146,-0.044515494257211685,0.21784339845180511
1789324327815459300,0.355459228515625,0.08842013776302338,-0.05734328553080559,0.12560546398162842
1789324327834309600,0.3743095703125,0.19226416945457458,-0.15813308954238892,-0.024662958458065987
1789324327853159700,0.39315966796875,0.13179029524326324,-0.006032116711139679,-0.20547375082969666
1789324327872010000,0.412010009765625,0.03588727489113808,-0.04756972938776016,-0.32275640964508057
1789324327890860300,0.4308603515625,0.03405473381280899,0.17783290147781372,-0.3190913498401642
1789324327909710300,0.44971044921875,0.04749337583780289,0.1790546029806137,-0.10895988345146179
1789324327928560600,0.468560546875,-0.03680354729294777,-0.0029778804164379835,0.07673768699169159
1789324327947411000,0.487410888671875,-0.1119377613067627,-0.28580015897750854,0.22761696577072144
1789324327966261000,0.506260986328125,-0.2811424434185028,-0.35054996609687805,0.4774535000324249
1789324327985111300,0.525111328125,-0.2817533016204834,-0.04085041210055351,0.8018133640289307
1789324328003961600,0.543961669921875,-0.18523943424224854,0.16989189386367798,0.8690065741539001
1789324328022811600,0.562811767578125,-0.21394924819469452,-0.05428905040025711,0.6295544505119324
1789324328041662000,0.581661865234375,-0.36666107177734375,-0.29801711440086365,0.3522298038005829
1789324328060512300,0.60051220703125,-0.42163732647895813,-0.2674747407436371,0.3375694751739502
1789324328079362300,0.6193623046875,-0.30985227227211,-0.3456631898880005,0.6600968241691589
1789324328098212600,0.638212646484375,-0.18340688943862915,-0.14408360421657562,0.8745042085647583
1789324328117063000,0.65706298828125,-0.4246915578842163,0.09414683282375336,0.44874367117881775
1789324328135913000,0.675912841796875,-0.7624900937080383,-0.2680855989456177,-0.264725923538208
1789324328154763300,0.69476318359375,-0.7081246972084045,-0.436068594455719,-0.4119401276111603
1789324328173613600,0.713613525390625,-0.4796678125858307,-0.12270393967628479,-0.25983914732933044
1789324328192464000,0.7324638671875,-0.2945810854434967,0.16378341615200043,-0.33680590987205505
1789324328211314000,0.75131396484375,-0.07345438003540039,-0.0555107444524765,-0.5677061676979065
1789324328230164200,0.770164306640625,0.1104106456041336,-0.4379011392593384,-0.4760790765285492
1789324328249014500,0.7890146484375,0.21364383399486542,-0.1459161341190338,-0.11140327155590057
1789324328267864600,0.807864501953125,0.15988926589488983,0.30733251571655273,0.0755159929394722
1789324328286715000,0.82671484375,-0.004428642801940441,-0.031076854094862938,0.12316207587718964
1789324328305565200,0.845565185546875,0.03771981969475746,-0.5264739990234375,0.31741151213645935
1789324328324415500,0.86441552734375,0.18004722893238068,-0.27052897214889526,0.5452575087547302
1789324328343265500,0.883265625,0.21120044589042664,0.11858072131872177,0.46462568640708923
1789324328362115800,0.90211572265625,0.07620319724082947,0.00007635590736754239,0.20929154753684998
1789324328380966100,0.920966064453125,-0.1650814712047577,-0.3200076222419739,0.07124006003141403
1789324328399816200,0.939816162109375,-0.4491254389286041,-0.17890189588069916,0.19951798021793365
1789324328418666500,0.95866650390625,-0.24021568894386292,-0.15202461183071136,0.3607816696166992
1789324328437516800,0.977516845703125,0.14461809396743774,-0.6804074645042419,0.4322507977485657
1789324328456367000,0.9963671875,-0.004428642801940441,-0.8331193327903748,0.1653105467557907
1789324328475217200,1.015217041015625,0.05543438717722893,-0.31267744302749634,-0.1608818918466568
1789324328494067500,1.0340673828125,0.2154763638973236,0.3507026731967926,-0.15355172753334045
1789324328512917800,1.052917724609375,0.4384356141090393,1.0673028230667114,0.18302510678768158
1789324328531767800,1.071767822265625,0.7023216485977173,1.8436896800994873,0.34306707978248596
1789324328550618000,1.0906181640625,1.1703070402145386,2.3219830989837646,0.1683647781610489
1789324328569468400,1.109468505859375,1.811085820198059,2.895568609237671,0.015042114071547985
1789324328588318700,1.128318603515625,2.7010903358459473,2.306101083755493,0.06635328382253647
1789324328607168800,1.147168701171875,2.7194156646728516,2.103299856185913,-0.504788875579834
1789324328626019000,1.16601904296875,1.6125603914260864,2.91878080368042,-1.6324893236160278
1789324328644869400,1.184869384765625,1.262544870376587,2.7843945026397705,-2.4779019355773926
1789324328663719400,1.203719482421875,1.0682954788208008,3.1783909797668457,-2.6397764682769775
1789324328682569700,1.22256982421875,1.0340880155563354,2.9059531688690186,-2.360619306564331
1789324328701420000,1.241419921875,1.1025029420852661,1.4093773365020752,-1.9684553146362305
1789324328720270300,1.260270263671875,0.8331193327903748,0.27862271666526794,-1.5524682998657227
1789324328739120400,1.279120361328125,0.34192174673080444,0.027564482763409615,-1.4461809396743774
1789324328757970700,1.297970703125,-0.1785201132297516,0.31893861293792725,-1.637376070022583
1789324328776821000,1.316821044921875,-0.6061131954193115,0.5125772356987,-1.966011881828308
1789324328795671000,1.335671142578125,-1.0630269050598145,0.3885752260684967,-2.2256219387054443
1789324328814521300,1.354521240234375,-1.4839006662368774,-0.37864893674850464,-2.4076545238494873
1789324328833371600,1.37337158203125,-1.4576343297958374,-1.2057361602783203,-2.4974489212036133
1789324328852222000,1.392221923828125,-1.1271659135818481,-1.0408073663711548,-2.368560314178467
1789324328871072300,1.411072265625,-0.9494093656539917,-0.6034407615661621,-2.3673386573791504
1789324328889922300,1.42992236328125,-1.1528215408325195,-0.25647950172424316,-2.583578586578369
1789324328908772600,1.448772705078125,-1.5052803754806519,-0.061619218438863754,-2.5725831985473633
1789324328927623000,1.467622802734375,-1.5559806823730469,0.10941801220178604,-2.1248321533203125
1789324328946473000,1.486472900390625,-1.6219521760940552,0.5339568853378296,-1.974563717842102
1789324328965323300,1.5053232421875,-1.5602566003799438,1.2481136322021484,-2.290982723236084
1789324328984173600,1.524173583984375,-1.529103398323059,1.640277624130249,-2.6312246322631836
1789324329003024000,1.54302392578125,-1.3098092079162598,1.9713568687438965,-2.8053159713745117
1789324329021874000,1.5618740234375,-0.8406785130500793,2.1356747150421143,-2.2543318271636963
1789324329040724200,1.58072412109375,-0.24571330845355988,2.340308666229248,-1.5371971130371094
1789324329059574500,1.599574462890625,-0.03680354729294777,2.4148318767547607,-1.0888352394104004
1789324329078424800,1.6184248046875,0.5404471158981323,1.5541481971740723,-0.6006919145584106
1789324329097275000,1.63727490234375,0.8734351992607117,1.3544011116027832,-0.5701495409011841
1789324329116125200,1.656125244140625,1.2429977655410767,1.7117466926574707,-0.7246938943862915
1789324329134975500,1.6749755859375,1.2197855710983276,2.439265727996826,-0.46813806891441345
1789324329153825800,1.69382568359375,0.8874847292900085,3.340341806411743,-0.18409408628940582
1789324329172676000,1.712676025390625,0.8227348923683167,2.84975528717041,-0.34963369369506836
1789324329191526100,1.731526123046875,0.9736141562461853,1.840024709701538,-0.634899377822876
1789324329210376400,1.75037646484375,1.3450093269348145,1.002553105354309,-1.012479305267334
1789324329229226800,1.769226806640625,1.2680425643920898,0.890157163143158,-1.0143119096755981
1789324329248077000,1.7880771484375,1.1776371002197266,1.0929584503173828,-0.7338566184043884
1789324329266927400,1.80692724609375,1.537426233291626,0.6317687630653381,-0.8133431077003479
1789324329285777400,1.82577734375,1.8288003206253052,-0.5307499170303345,-0.7888329029083252
1789324329304627700,1.844627685546875,0.7915816903114319,0.1546207070350647,-0.32336726784706116
1789324329323478000,1.86347802734375,0.1782146841287613,0.6531484127044678,-0.2940466105937958
1789324329342328300,1.882328369140625,0.50685054063797,-0.19050799310207367,-0.2934357523918152
1789324329361178400,1.901178466796875,0.39445462822914124,-0.6657471656799316,-0.5408288836479187
1789324329380028700,1.920028564453125,-0.26220619678497314,-0.5179221034049988,-0.9599464535713196
1789324329398879000,1.93887890625,-0.5065450668334961,-0.5942780375480652,-1.1584718227386475
1789324329417729300,1.957729248046875,-0.3214583694934845,-0.7640935778617859,-1.0112576484680176
1789324329436579600,1.97657958984375,-0.19806721806526184,-0.47882789373397827,-0.9465078115463257
1789324329474280000,2.014280029296875,0.20814619958400726,-0.9485694169998169,-0.3294757306575775
1789324329493130200,2.033130126953125,-0.08200624585151672,-0.5686224699020386,-0.4992912709712982
1789324329530830800,2.070830810546875,-0.6079457402229309,0.9805625677108765,-0.8163973689079285
1789324329549681200,2.08968115234375,-0.9286405444145203,1.3641746044158936,-0.980715274810791
1789324329587381500,2.127381591796875,-0.18707197904586792,-0.44278791546821594,-0.5695387125015259
1789324329606231800,2.146231689453125,-0.01847812905907631,-0.7891383171081543,-0.9794935584068298
1789324329625082000,2.16508203125,0.06642963737249374,-0.20883341133594513,-0.9226847887039185
1789324329643932400,2.183932373046875,-0.16630317270755768,0.4838673770427704,-0.6880430579185486
1789324329662782500,2.202782470703125,-0.44790375232696533,0.3244362473487854,-0.07230904698371887
1789324329681632800,2.2216328125,-0.8828269839286804,0.27617931365966797,0.39376741647720337
1789324329700483000,2.240483154296875,-1.1638166904449463,1.0459232330322266,0.2752630412578583
1789324329719333400,2.25933349609375,-0.8174663186073303,1.5962965488433838,0.10911259055137634
1789324329738183700,2.27818359375,-1.2303991317749023,1.8638477325439453,-0.2543415129184723
1789324329757034000,2.297033935546875,-1.455190896987915,2.400782346725464,-1.0234745740890503
1789324329775884000,2.315884033203125,-1.2920947074890137,2.750797986984253,-1.2012311220169067
1789324329794734300,2.334734375,-0.7661551833152771,2.7721774578094482,-1.0723423957824707
1789324329813584600,2.353584716796875,-0.14248012006282806,1.6146219968795776,-1.0582928657531738
1789324329832435000,2.37243505859375,0.11590826511383057,1.066081166267395,-1.156028389930725
1789324329851285200,2.39128515625,0.2307475507259369,1.3464601039886475,-1.2372710704803467
1789324329870135300,2.41013525390625,0.22219568490982056,2.716590404510498,-1.786422848701477
1789324329888985600,2.428985595703125,0.15500248968601227,0.9555178284645081,-0.14316733181476593
1789324329907836000,2.4478359375,0.1904316395521164,0.9255862832069397,0.14270919561386108
1789324329926686200,2.466686279296875,0.06704048812389374,0.1295759677886963,0.5159368515014648
1789324329945536500,2.48553662109375,-0.01725643500685692,-1.47084379196167,1.0192749500274658
1789324329964386800,2.50438671875,-0.06551336497068405,-2.078636884689331,1.3882267475128174
1789324329983237000,2.523237060546875,0.35413870215415955,-2.1886656284332275,1.9386764764785767
1789324330002087400,2.54208740234375,1.2991957664489746,-2.8648736476898193,2.7242259979248047
1789324330020937700,2.560937744140625,1.4134242534637451,-3.242988109588623,3.1450998783111572
1789324330039783700,2.57978369140625,1.272929310798645,-3.5716240406036377,3.1579275131225586
1789324330058634000,2.598634033203125,1.726788878440857,-3.596057891845703,2.6839101314544678
1789324330077484000,2.617484130859375,0.7304205894470215,-5.211214542388916,2.4426255226135254
1789324330096334300,2.636334228515625,0.20936790108680725,-5.932013988494873,2.3412249088287354
1789324330115184600,2.6551845703125,0.07559234648942947,-4.8196611404418945,2.1964540481567383
1789324330134035000,2.674034912109375,-0.435075968503952,-2.0419859886169434,2.5354743003845215
1789324330152885200,2.69288525390625,-0.7447755336761475,0.31588438153266907,2.982614517211914
1789324330171735600,2.711735595703125,-0.6836907863616943,1.3079767227172852,2.635042428970337
1789324330190585600,2.730585693359375,-0.15347537398338318,1.5315468311309814,1.6741032600402832
1789324330209436000,2.749435791015625,0.13056860864162445,0.9842276573181152,0.9942302703857422
1789324330228286200,2.7682861328125,0.12690351903438568,0.8883246183395386,0.39376741647720337
1789324330247136500,2.787136474609375,0.25029465556144714,0.9316948056221008,-0.1865374743938446
1789324330265986800,2.80598681640625,0.296108216047287,0.7698202729225159,-0.3215347230434418
1789324330284837000,2.824837158203125,0.06765133142471313,0.30366745591163635,-0.27388864755630493
1789324330303687400,2.8436875,-0.05757235363125801,-0.2124984860420227,-0.19631104171276093
1789324330322537500,2.862537353515625,-0.2793098986148834,-0.6107708811759949,-0.038101598620414734
1789324330341387800,2.8813876953125,-0.7740961909294128,-0.1874537467956543,-0.3343625068664551
1789324330360238000,2.900238037109375,-1.284153699874878,0.7203416228294373,-0.8951966762542725
1789324330379088400,2.91908837890625,-1.510167121887207,0.8932114243507385,-1.1926792860031128
1789324330397938700,2.937938720703125,-1.5816363096237183,-0.08422056585550308,-1.0931111574172974
1789324330416789000,2.9567890625,-1.394106149673462,-0.1984490007162094,-1.101052165031433
1789324330435639300,2.975639404296875,-1.3256912231445312,0.15034478902816772,-1.1419789791107178
1789324330454489600,2.994489501953125,-0.8724426031112671,0.8211314082145691,-1.1951227188110352
1789324330473339600,3.013339599609375,-0.6635328531265259,1.019656777381897,-1.567739486694336
1789324330492190000,3.03218994140625,-0.6849125027656555,0.3904077410697937,-2.009992837905884
1789324330511040300,3.051040283203125,-1.0294303894042969,-0.32428354024887085,-2.383220672607422
1789324330529890600,3.069890625,-0.8504521250724792,-0.7097281813621521,-2.4717934131622314
1789324330548740900,3.088740966796875,-0.811357855796814,-1.5465888977050781,-2.1333839893341064
1789324330567591200,3.107591064453125,-0.8657232522964478,-0.9919396042823792,-2.2292871475219727
1789324330595866600,3.13586669921875,0.48547086119651794,-1.3621129989624023,-2.4840104579925537
1789324330614717000,3.154717041015625,1.504440426826477,0.13324105739593506,-2.421093225479126
1789324330633567000,3.17356689453125,-0.1107160672545433,0.6311579346656799,-2.4607982635498047
1789324330652417300,3.192417236328125,-1.2572764158248901,1.2358967065811157,-1.6086663007736206
1789324330671267600,3.211267578125,-0.8522846102714539,1.852852463722229,-1.5646852254867554
1789324330690118000,3.230117919921875,-0.4387410581111908,1.3794457912445068,-1.4412940740585327
1789324330708968200,3.24896826171875,-0.3978142738342285,-0.43179264664649963,-0.5780905485153198
1789324330727818500,3.267818603515625,-0.4631749391555786,-2.0053350925445557,0.3235199749469757
1789324330746668800,3.286668701171875,-0.668419599533081,-0.4861580729484558,-0.3716242015361786
1789324330765518800,3.305518798828125,0.3840702176094055,0.9652913808822632,-0.2396811991930008
1789324330784369200,3.324369140625,1.4922235012054443,2.009840250015259,1.525667428970337
1789324330803219500,3.343219482421875,1.921038269996643,2.0642056465148926,2.6130518913269043
1789324330822069800,3.36206982421875,1.6675366163253784,0.9237537384033203,1.9618886709213257
1789324330840920000,3.380920166015625,1.7616071701049805,-0.5160895586013794,0.13110309839248657
1789324330859770400,3.399770263671875,1.4097591638565063,-2.242420196533203,-0.39056047797203064
1789324330878620700,3.41862060546875,0.026724567636847496,-0.7592067718505859,0.338791161775589
1789324330897470700,3.437470703125,-0.8516737818717957,-1.4671787023544312,0.8628981113433838
1789324330916321000,3.456321044921875,-1.3183610439300537,-1.6968573331832886,1.2862153053283691
1789324330935171300,3.47517138671875,-1.7209094762802124,-2.2436420917510986,-0.0295497365295887
1789324330954021600,3.494021728515625,-2.596940755844116,-1.6736451387405396,0.3797179162502289
1789324330972872000,3.512871826171875,-2.362375497817993,-0.7402704954147339,0.9777373671531677
1789324330991722200,3.53172216796875,-1.8681236505508423,-0.4324035048484802,2.2001190185546875
1789324331010572500,3.550572509765625,-1.9072941541671753,-1.8336870670318604,3.4737355709075928
1789324331029422800,3.5694228515625,-1.7667230367660522,-1.281481146812439,3.9208757877349854
1789324331048273000,3.58827294921875,-1.3330214023590088,0.14301460981369019,4.774916648864746
1789324331067123200,3.607123291015625,-0.48455458879470825,-0.24609509110450745,3.4761791229248047
1789324331085973500,3.625973388671875,-0.1369825005531311,0.752105712890625,1.4774104356765747
1789324331104823800,3.64482373046875,0.6479562520980835,1.1479346752166748,1.3277528285980225
1789324331123674000,3.663674072265625,1.2796486616134644,0.9567395448684692,2.2282180786132812
1789324331142524400,3.6825244140625,0.15927842259407043,0.39590537548065186,3.032093048095703
1789324331161374700,3.701374755859375,0.2557922899723053,0.6678087711334229,2.2984654903411865
1789324331180225000,3.72022509765625,0.3248180150985718,0.39346200227737427,2.242267608642578
1789324331199075000,3.739074951171875,0.40667155385017395,-0.36154523491859436,1.637452483177185
1789324331217925400,3.75792529296875,0.20570281147956848,-0.5753417611122131,1.0186641216278076
1789324331236775700,3.776775634765625,-0.001985253533348441,-0.5912237763404846,0.5562527775764465
1789324331255626000,3.7956259765625,-0.14492350816726685,-0.3029038906097412,0.21723255515098572
1789324331274476300,3.814476318359375,-0.10338589549064636,0.16134002804756165,-0.05459447205066681
1789324331293326600,3.83332666015625,-0.3849864900112152,0.2682383060455322,-0.2665584683418274
1789324331312177000,3.852177001953125,-0.43080002069473267,0.39346200227737427,-0.4858526289463043
1789324331331027200,3.871027099609375,-0.4643966257572174,0.5786250829696655,-0.6593332886695862
1789324331349877200,3.889877197265625,-0.5059342384338379,0.4276694357395172,-0.9410101771354675
1789324331368727600,3.9087275390625,-0.5163186192512512,0.37147149443626404,-1.2189457416534424
1789324331387577900,3.927577880859375,-0.6830799579620361,0.38185590505599976,-1.5585768222808838
1789324331406428200,3.94642822265625,-0.8724426031112671,0.3629196286201477,-1.7986397743225098
1789324331425278500,3.965278564453125,-0.9347490072250366,0.4325562119483948,-1.8346797227859497
1789324331444128800,3.984128662109375,-0.9054283499717712,0.22853323817253113,-2.0356485843658447
1789324331462979000,4.00297900390625,-0.6409314870834351,0.05077667906880379,-2.2689921855926514
1789324331481829400,4.021829345703125,-0.6067240238189697,0.3763582706451416,-2.545706033706665
1789324331500679700,4.0406796875,-0.3177932798862457,-0.09032903611660004,-2.8444101810455322
1789324331519529700,4.05952978515625,-0.16935740411281586,-0.32611608505249023,-3.2322983741760254
1789324331538380000,4.078380126953125,-0.11560284346342087,-0.05123481526970863,-3.8010733127593994
1789324331557230300,4.097230224609375,0.17088451981544495,1.3030898571014404,-4.0148701667785645
1789324331576080600,4.11608056640625,-0.2725905776023865,0.6891884207725525,-3.5066449642181396
1789324331594931000,4.134930908203125,-0.6910209655761719,-0.6614712476730347,-2.831582546234131
1789324331613781200,4.15378125,-0.4558447599411011,-0.8691592812538147,-1.7790926694869995
1789324331632631600,4.172631591796875,0.22219568490982056,-0.24487338960170746,-1.4999353885650635
1789324331651481600,4.191481689453125,0.37979426980018616,0.07948649674654007,-1.2403253316879272
1789324331670332000,4.210331787109375,0.1635543555021286,0.194325789809227,-0.8035695552825928
1789324331689182200,4.22918212890625,0.111632339656353,0.30183491110801697,-0.24395711719989777
1789324331708032500,4.248032470703125,0.06765133142471313,0.2572430372238159,0.15798036754131317
1789324331726882800,4.2668828125,-0.024586603045463562,-0.22227205336093903,0.440802663564682
1789324331745733000,4.285733154296875,-1.0599727630615234,-0.8746569156646729,0.47684264183044434
1789324331764583400,4.30458349609375,-2.572506904602051,-1.2503279447555542,0.1659213900566101
1789324331783433700,4.323433837890625,-3.3818795680999756,-1.4024289846420288,0.3546731770038605
1789324331802283800,4.34228369140625,-3.5901784896850586,-1.4427448511123657,0.9398648738861084
1789324331821134000,4.361134033203125,-2.980552911758423,-0.9381850361824036,1.7144192457199097
1789324331839984400,4.379984375,-1.6543270349502563,-1.2723184823989868,1.916685938835144
1789324331858834700,4.398834716796875,-0.2420482337474823,-0.7140040993690491,1.8304802179336548
1789324331877685000,4.41768505859375,0.2576248347759247,0.7588250041007996,1.6936503648757935
1789324331896535300,4.436535400390625,0.2838912606239319,0.8712208867073059,1.3833400011062622
1789324331915385600,4.455385498046875,-0.015423892997205257,0.5719057321548462,1.3943352699279785
1789324331934236000,4.47423583984375,-0.2573194205760956,0.12468919903039932,1.6453934907913208
1789324331953086000,4.4930859375,-0.26098448038101196,0.29450473189353943,1.831091046333313
1789324331971936500,4.5119365234375,-0.1785201132297516,0.3274904787540436,1.7797797918319702
1789324331990786600,4.53078662109375,-0.13453911244869232,0.38429927825927734,1.711364984512329
1789324332009636900,4.549636962890625,-0.2286095917224884,0.2853420376777649,1.826815128326416
1789324332028487200,4.568487060546875,-0.20784078538417816,0.0019088976550847292,2.057180881500244
1789324332047337500,4.58733740234375,-0.06856760382652283,0.09720107167959213,2.256927967071533
1789324332066187800,4.606187744140625,-0.0032069480512291193,0.034283801913261414,2.1390342712402344
1789324332085038000,4.6250380859375,-0.15836215019226074,-0.03474193811416626,2.073673725128174
1789324332103888400,4.643888427734375,-0.5083776116371155,-0.31206658482551575,2.308238983154297
1789324332122738700,4.66273876953125,-0.7099572420120239,-0.4391228258609772,2.556854009628296
1789324332141588700,4.681588623046875,-0.8565605878829956,-0.6706339120864868,2.4517881870269775
1789324332160439000,4.70043896484375,-0.654370129108429,-0.13003410398960114,2.152472972869873
1789324332179289300,4.719289306640625,-0.3752129375934601,0.26640576124191284,2.0089240074157715
1789324332198139600,4.7381396484375,-0.26098448038101196,0.2468586415052414,1.641728401184082
1789324332216990000,4.756989990234375,-0.13087402284145355,0.2890070974826813,1.2477319240570068
1789324332235840300,4.77584033203125,-0.17974179983139038,0.24013933539390564,0.9013814926147461
1789324332254690600,4.794690673828125,-0.2670929729938507,0.40751147270202637,0.6814764738082886
1789324332273540900,4.813540771484375,-0.1895153671503067,0.4295019805431366,0.34489962458610535
1789324332292391200,4.83239111328125,0.007177455350756645,0.3360423445701599,-0.11079242080450058
1789324332311241200,4.8512412109375,0.06032116711139679,-0.00786465872079134,-0.5408288836479187
1789324332330091500,4.870091552734375,0.031000498682260513,-0.3175642192363739,-0.8958075046539307
1789324332348941800,4.88894189453125,-0.15530791878700256,-0.04879142343997955,-1.0118684768676758
1789324332367792000,4.907792236328125,-0.32512345910072327,-0.09888090193271637,-1.346612811088562
1789324332386642400,4.926642333984375,-0.1901262104511261,0.04772244393825531,-1.595227599143982
1789324332405492700,4.94549267578125,-0.16019469499588013,0.09048175066709518,-1.8957644701004028
1789324332424343000,4.964343017578125,-0.08200624585151672,0.09842276573181152,-2.080240249633789
1789324332443193300,4.983193359375,-0.025808297097682953,0.13018682599067688,-2.248223304748535
1789324332462043600,5.002043701171875,-0.07101099193096161,0.07032378762960434,-2.499892473220825
1789324332480894000,5.02089404296875,-0.18218518793582916,0.2468586415052414,-2.60312557220459
1789324332499744300,5.039744140625,-0.4283566474914551,0.24869118630886078,-2.612288236618042
1789324332518594300,5.05859423828125,-0.7551599144935608,-0.20639002323150635,-2.5292131900787354
1789324332537444600,5.077444580078125,-0.8254073858261108,-0.8740460872650146,-2.586021900177002
1789324332556295000,5.096294921875,-0.5627430081367493,-1.1367104053497314,-2.6171751022338867
1789324332575145200,5.115145263671875,-0.08872556686401367,-0.7604284882545471,-2.545095205307007
1789324332593995500,5.13399560546875,0.2295258641242981,-0.593667209148407,-2.357564926147461
1789324332612845800,5.152845703125,0.2570139765739441,-0.778143048286438,-2.1419358253479004
1789324332631696100,5.171696044921875,0.3058817684650421,-1.2148988246917725,-1.9782288074493408
1789324332650546200,5.190546142578125,0.4818057715892792,-1.2546038627624512,-1.7564913034439087
1789324332669396500,5.209396484375,0.6216897964477539,-0.9375742077827454,-1.4455699920654297
1789324332688246800,5.228246826171875,0.7603521347045898,-0.25770118832588196,-1.1767972707748413
1789324332707097000,5.24709716796875,0.7035433053970337,0.06604786217212677,-0.8176190853118896
1789324332725947400,5.265947509765625,0.4818057715892792,0.07154548168182373,-0.33619505167007446
1789324332744797700,5.284797607421875,0.2582356929779053,-0.045737188309431076,0.17019732296466827
1789324332763648000,5.30364794921875,0.1916533261537552,0.009849912486970425,0.493946373462677
1789324332782498300,5.322498291015625,0.18432316184043884,0.011071606539189816,0.7401177883148193
1789324332801348400,5.341348388671875,0.09391776472330093,-0.07933378964662552,0.9814024567604065
1789324332820198700,5.36019873046875,0.031000498682260513,-0.03962871432304382,1.2465101480484009
1789324332839049000,5.379049072265625,-0.0068720318377017975,0.05016583204269409,1.4065521955490112
1789324332867324400,5.407324462890625,-0.0038177953101694584,0.08131904155015945,1.5672049522399902
1789324332886174700,5.4261748046875,0.034665580838918686,0.036727190017700195,1.6673839092254639
1789324332905025000,5.44502490234375,0.03649812191724777,0.1924932450056076,1.6826550960540771
1789324332923875300,5.463875244140625,-0.005650337319821119,0.20165595412254333,1.6203486919403076
1789324332942725600,5.4827255859375,-0.01175880990922451,0.1546207070350647,1.6991480588912964
1789324332961576000,5.501575927734375,-0.038636088371276855,-0.07505785673856735,1.7638977766036987
1789324332980426000,5.520426025390625,0.03588727489113808,-0.11231953650712967,1.8867545127868652
1789324332999276300,5.5392763671875,0.11346487700939178,-0.10926530510187149,2.051072359085083
1789324333018126600,5.558126708984375,0.24724042415618896,0.0019088976550847292,2.180572032928467
1789324333036977000,5.576976806640625,0.3089359998703003,0.02145601063966751,2.1365909576416016
1789324333055827200,5.5958271484375,0.2545706033706665,-0.019470756873488426,2.0724520683288574
1789324333074677500,5.614677490234375,0.08231166750192642,-0.012751436792314053,2.033968687057495
1789324333093527800,5.63352783203125,-0.031916771084070206,0.0067956759594380856,2.0724520683288574
1789324333112378000,5.652378173828125,-0.17424418032169342,-0.24731677770614624,2.0345795154571533
1789324333131228200,5.671228271484375,-0.2664821147918701,-0.5276956558227539,1.8518598079681396
1789324333150078500,5.690078369140625,-0.38254308700561523,-0.2925194799900055,1.7632869482040405
1789324333168928800,5.7089287109375,-0.4362976551055908,0.16317257285118103,1.9319571256637573
1789324333187779000,5.727779052734375,-0.3312319219112396,0.0067956759594380856,1.9056907892227173
1789324333206629400,5.74662939453125,-0.15652960538864136,-0.044515494257211685,1.5366625785827637
1789324333225479700,5.765479736328125,-0.03130592033267021,0.20409934222698212,1.2581162452697754
1789324333244330000,5.784330078125,0.021226942539215088,0.3146626949310303,0.8787801265716553
1789324333263180300,5.80318017578125,0.03894151374697685,0.22425730526447296,0.43408334255218506
1789324333282030300,5.8220302734375,-0.016034740954637527,0.38368842005729675,-0.08635853230953217
1789324333300880600,5.840880615234375,-0.001374406274408102,0.37086063623428345,-0.4064424932003021
1789324333319731000,5.85973095703125,0.04504998400807381,0.5021927952766418,-0.7882220149040222
1789324333338581200,5.878581298828125,0.17332790791988373,0.47592636942863464,-1.1621369123458862
1789324333357431600,5.897431640625,0.20997874438762665,0.5816792845726013,-1.6208832263946533
1789324333376281900,5.91628173828125,0.12079504877328873,0.4973060190677643,-1.96540105342865
1789324333395132200,5.935132080078125,0.04871506989002228,0.3885752260684967,-2.3007562160491943
1789324333413982200,5.953982177734375,-0.03680354729294777,0.5395308136940002,-2.6251161098480225
1789324333432832500,5.97283251953125,-0.11560284346342087,0.4172850251197815,-2.791877508163452
1789324333451682800,5.991682861328125,-0.2041756957769394,0.4270585775375366,-2.837690830230713
1789324333470533000,6.010533203125,-0.3892624080181122,0.0031305921729654074,-2.806537628173828
1789324333489383400,6.029383544921875,-0.5780141949653625,-0.26991814374923706,-2.614731788635254
1789324333508233700,6.048233642578125,-0.5419742465019226,-0.5044834613800049,-2.5909087657928467
1789324333527084000,6.067083984375,-0.37826716899871826,-0.7323294878005981,-2.5554795265197754
1789324333545934300,6.085934326171875,-0.13942588865756989,-0.8868738412857056,-2.5273804664611816
1789324333564784400,6.104784423828125,0.10735640674829483,-0.9577321410179138,-2.568307399749756
1789324333583634700,6.123634765625,0.35536038875579834,-1.051802635192871,-2.571361541748047
1789324333602485000,6.142485107421875,0.5636593103408813,-0.9058101177215576,-2.496227264404297
1789324333621335300,6.161335205078125,0.6687250137329102,-0.6706339120864868,-2.293426036834717
1789324333640185600,6.180185546875,0.6449019908905029,-0.40491536259651184,-2.016712188720703
1789324333659036000,6.199035888671875,0.5355603098869324,-0.2124984860420227,-1.6654750108718872
1789324333677886000,6.217885986328125,0.556939959526062,0.058717694133520126,-1.2415471076965332
1789324333696736300,6.236736328125,0.5025745630264282,0.35558944940567017,-0.7228613495826721
1789324333715586600,6.255586669921875,0.3706315755844116,0.4673745036125183,-0.2140256017446518
1789324333734436900,6.274436767578125,0.2441861927509308,0.39468368887901306,0.21540001034736633
1789324333753287200,6.293287109375,0.2557922899723053,0.3219928741455078,0.5745782256126404
1789324333772137500,6.312137451171875,0.15866757929325104,0.2334200143814087,0.9343672394752502
1789324333790987800,6.33098779296875,0.0988045409321785,0.05444176122546196,1.2159677743911743
1789324333809837800,6.349837890625,-0.001374406274408102,-0.04634803533554077,1.288658618927002
1789324333828688100,6.368688232421875,-0.1522536724805832,-0.006642963737249374,1.3295854330062866
1789324333847538400,6.387538330078125,-0.2658712565898895,0.2071535736322403,1.4713020324707031
1789324333866388700,6.406388671875,-0.2939702570438385,0.25479966402053833,1.6307331323623657
1789324333885239000,6.425239013671875,-0.3226800560951233,0.2627406716346741,1.6655514240264893
1789324333904089300,6.44408935546875,-0.3092414140701294,0.2755684554576874,1.7315229177474976
1789324333922939400,6.462939453125,-0.20539739727973938,0.23769593238830566,1.880645990371704
1789324333941789700,6.481789794921875,-0.011147962883114815,0.22486814856529236,1.9392873048782349
1789324333960640000,6.500639892578125,0.14034216105937958,0.22242476046085358,1.9172968864440918
1789324333979490300,6.519490234375,0.21303297579288483,0.24319356679916382,2.053515672683716
1789324333998340600,6.538340576171875,0.2276933193206787,0.10758547484874725,2.2343266010284424
1789324334017191000,6.55719091796875,0.2570139765739441,0.02023431472480297,2.357106924057007
1789324334036041000,6.576041015625,0.16783028841018677,-0.09704835712909698,2.389481782913208
1789324334054891300,6.594891357421875,-0.0068720318377017975,-0.18134528398513794,2.4976017475128174
1789324334073741600,6.613741455078125,-0.24754585325717926,-0.4757736623287201,2.556854009628296
1789324334092591900,6.632591796875,-0.47172680497169495,-0.4531722962856293,2.5214247703552246
1789324334111442200,6.651442138671875,-0.5676298141479492,-0.30962321162223816,2.465226888656616
1789324334130292500,6.67029248046875,-0.386208176612854,-0.18256697058677673,2.19584321975708
1789324334149142500,6.689142578125,-0.18523943424224854,-0.20822255313396454,1.7907750606536865
1789324334167992800,6.707992919921875,-0.054518118500709534,0.1662268042564392,1.5091744661331177
1789324334186843100,6.726843017578125,-0.15775130689144135,0.21326205134391785,1.244066834449768
1789324334205693400,6.745693359375,-0.08078455179929733,0.25418880581855774,0.9325346946716309
1789324334224543700,6.764543701171875,-0.04230117425322533,0.0067956759594380856,0.40781688690185547
1789324334243394000,6.78339404296875,-0.0850604772567749,0.07765395939350128,0.2850365936756134
1789324334262244000,6.802244140625,-0.09116895496845245,-0.06039752438664436,0.033978380262851715
1789324334281094400,6.821094482421875,-0.019088976085186005,-0.08666395395994186,-0.4204919934272766
1789324334299944700,6.83994482421875,-0.037414394319057465,0.04283566400408745,-0.8530482053756714
1789324334318795000,6.858794921875,-0.15836215019226074,0.19004985690116882,-1.0582928657531738
1789324334337645300,6.877645263671875,-0.2151709496974945,0.11919157207012177,-1.272700309753418
1789324334356495600,6.89649560546875,-0.09666658192873001,0.24930204451084137,-1.702125906944275
1789324334375345700,6.915345703125,-0.06184828653931618,0.36841726303100586,-2.0521414279937744
1789324334394196000,6.934196044921875,-0.11865708231925964,0.25174543261528015,-2.216459274291992
1789324334413046300,6.95304638671875,-0.16813570261001587,0.2688491642475128,-2.3300769329071045
1789324334431896600,6.971896484375,-0.22066856920719147,0.09109259396791458,-2.539597511291504
1789324334450746600,6.99074658203125,-0.2982461750507355,0.32932302355766296,-2.60312557220459
1789324334469597000,7.009596923828125,-0.44362783432006836,0.08559497445821762,-2.6916985511779785
1789324334488447200,7.028447265625,-0.5505260825157166,-0.2625879645347595,-2.67825984954834
1789324334507297500,7.047297607421875,-0.462564080953598,-0.8037986159324646,-2.8126461505889893
1789324334526147800,7.06614794921875,-0.19928891956806183,-0.958342969417572,-2.9317615032196045
1789324334544998100,7.084998046875,0.18798823654651642,-1.0065999031066895,-2.9054949283599854
1789324334563848200,7.10384814453125,0.45615020394325256,-0.8661050796508789,-2.8224196434020996
1789324334582698500,7.122698486328125,0.448820024728775,-0.9094752073287964,-2.641608953475952
1789324334601548800,7.141548828125,0.40728241205215454,-1.1232717037200928,-2.247612476348877
1789324334620399000,7.160399169921875,0.49952033162117004,-0.769591212272644,-1.6960173845291138
1789324334639249400,7.17924951171875,0.7432484030723572,-0.23265644907951355,-1.2934690713882446
1789324334658099500,7.198099365234375,0.7444701194763184,0.0892600566148758,-0.9904888272285461
1789324334676949800,7.21694970703125,0.6687250137329102,0.34642675518989563,-0.60252445936203
1789324334695800000,7.235800048828125,0.718814492225647,0.3012240529060364,-0.17859646677970886
1789324334714650400,7.254650390625,0.580763041973114,0.24380441009998322,0.2208976447582245
1789324334733500400,7.27350048828125,0.35658207535743713,0.17294612526893616,0.48600533604621887
1789324334752350700,7.292350830078125,0.15316994488239288,0.13385190069675446,0.6998018622398376
1789324334771201000,7.311200927734375,0.025502873584628105,-0.09032903611660004,1.0626451969146729
1789324334790051300,7.33005126953125,-0.03497100621461868,-0.2259371280670166,1.3833400011062622
1789324334808901400,7.3489013671875,-0.06245913356542587,-0.37864893674850464,1.4254884719848633
1789324334827751700,7.367751708984375,-0.10888352245092392,-0.28641101717948914,1.2660572528839111
1789324334846602000,7.38660205078125,-0.1632489264011383,0.012904148548841476,1.206194281578064
1789324334865452300,7.405452392578125,-0.17118994891643524,0.2572430372238159,1.2300173044204712
1789324334884302600,7.424302490234375,-0.19256959855556488,0.3500918447971344,1.3399698734283447
1789324334903152600,7.443152587890625,-0.22433365881443024,0.25174543261528015,1.473745346069336
1789324334922003000,7.4620029296875,-0.18523943424224854,0.07826480269432068,1.5739243030548096
1789324334940853200,7.480853271484375,-0.06490252166986465,0.05566345527768135,1.6264572143554688
1789324334959703600,7.49970361328125,0.05360184609889984,-0.0011453386396169662,1.6600537300109863
1789324334978553600,7.5185537109375,0.111632339656353,-0.05795413255691528,1.806657075881958
1789324334997404000,7.53740380859375,0.11529742181301117,-0.11415208131074905,2.062067747116089
1789324335016254200,7.556254150390625,0.08353336155414581,-0.23265644907951355,2.2575387954711914
1789324335035104500,7.5751044921875,0.07681404054164886,-0.27358320355415344,2.4695026874542236
1789324335053954600,7.59395458984375,0.02733541466295719,-0.26991814374923706,2.693683624267578
1789324335072804900,7.612804931640625,-0.20539739727973938,-0.5460211038589478,2.84334135055542
1789324335091655200,7.6316552734375,-0.3996468186378479,-0.8746569156646729,2.6045000553131104
1789324335110505500,7.65050537109375,-0.31657159328460693,-0.24304085969924927,2.0981075763702393
1789324335129355500,7.66935546875,-0.09483403712511063,0.4527141749858856,1.884921908378601
1789324335148205800,7.688205810546875,-0.01969982497394085,0.42095011472702026,1.8463622331619263
1789324335167056100,7.70705615234375,0.009620844386518002,0.139960378408432,1.6325656175613403
1789324335185906400,7.725906494140625,-0.05757235363125801,0.27679017186164856,1.414493203163147
1789324335204756500,7.744756591796875,-0.22250111401081085,0.31893861293792725,1.22390878200531
1789324335223606800,7.763606689453125,-0.2658712565898895,0.3885752260684967,0.9581902623176575
1789324335242457000,7.78245703125,-0.2292204350233078,0.29389387369155884,0.5165477395057678
1789324335261307400,7.801307373046875,-0.1907370537519455,0.3134410083293915,0.09872818738222122
1789324335280157400,7.820157470703125,-0.1119377613067627,0.4533250331878662,-0.3728458881378174
1789324335299007700,7.8390078125,-0.05024218559265137,0.5505260825157166,-0.8029587268829346
1789324335317858000,7.857858154296875,0.018783552572131157,0.5284592509269714,-1.2219998836517334
1789324335336708400,7.876708251953125,0.010842538438737392,0.4795914590358734,-1.5927842855453491
1789324335355558400,7.895558349609375,0.020005248486995697,0.3806341886520386,-1.9318044185638428
1789324335374408700,7.91440869140625,-0.04840964451432228,0.41239824891090393,-2.244558334350586
1789324335393259000,7.933259033203125,-0.20234315097332,0.2340308576822281,-2.5267696380615234
1789324335412109300,7.952109375,-0.3110739588737488,0.3916294574737549,-2.6635994911193848
1789324335430959400,7.97095947265625,-0.4362976551055908,0.42400434613227844,-2.7472856044769287
1789324335449809700,7.9898095703125,-0.6036698222160339,0.3507026731967926,-2.7381229400634766
1789324335468660000,8.008659912109374,-0.7435538172721863,-0.07322531193494797,-2.756448268890381
1789324335487510000,8.027510009765624,-0.798530101776123,-0.41041299700737,-2.7179648876190186
1789324335506360300,8.0463603515625,-0.6323796510696411,-0.6284855008125305,-2.7821037769317627
1789324335525210600,8.065210693359376,-0.3617742955684662,-0.6755207180976868,-2.7631676197052
1789324335544060700,8.084060791015625,-0.037414394319057465,-0.5863370299339294,-2.7118563652038574
1789324335562911000,8.102910888671875,0.1757712960243225,-0.6468108892440796,-2.6312246322631836
1789324335581761300,8.12176123046875,0.1751604527235031,-0.7940250635147095,-2.4491920471191406
1789324335600611300,8.140611328125,0.10857810080051422,-0.9009233713150024,-2.2140159606933594
1789324335619461600,8.159461669921875,0.2026485800743103,-0.8099071383476257,-2.0002193450927734
1789324335638312000,8.17831201171875,0.510515570640564,-0.5209763646125793,-1.74305260181427
1789324335657162200,8.197162353515624,0.7157602906227112,-0.1874537467956543,-1.3967022895812988
1789324335676012300,8.21601220703125,0.8092962503433228,0.11552648991346359,-0.906191885471344
1789324335694862600,8.234862548828126,0.682774543762207,0.29389387369155884,-0.3429143726825714
1789324335713713000,8.253712890625,0.39567631483078003,0.09842276573181152,0.10300412029027939
1789324335732563000,8.27256298828125,0.12018419802188873,-0.012751436792314053,0.31435728073120117
1789324335751413200,8.291413330078125,0.1122431829571724,0.022066857665777206,0.4908921420574188
1789324335770263300,8.31026318359375,0.0328330397605896,0.037948887795209885,0.7052994966506958
1789324335789113600,8.329113525390625,-0.03802524134516716,-0.15691138803958893,0.9893434643745422
1789324335807964000,8.3479638671875,-0.11254860460758209,-0.13003410398960114,1.1328926086425781
1789324335826814200,8.366814208984374,-0.14858859777450562,-0.09949174523353577,1.146942138671875
1789324335845664300,8.385664306640624,-0.18340688943862915,0.044668205082416534,1.159769892692566
1789324335864514600,8.4045146484375,-0.19379130005836487,0.0025197449140250683,1.2513970136642456
1789324335883364900,8.42336474609375,-0.1656923145055771,0.06910209357738495,1.3246986865997314
1789324335902215000,8.44221484375,-0.21822518110275269,0.15584240853786469,1.4548090696334839
1789324335921065200,8.461065185546875,-0.1895153671503067,0.24075017869472504,1.7394639253616333
1789324335939915500,8.47991552734375,-0.13209572434425354,0.1271325796842575,2.0009829998016357
1789324335958765600,8.498765625,-0.0068720318377017975,0.1265217363834381,2.1475863456726074
1789324335977616000,8.517615966796875,0.06276455521583557,0.22425730526447296,2.2263855934143066
1789324335996466000,8.5364658203125,0.052990999072790146,0.22792237997055054,2.374821424484253
1789324336015316200,8.555316162109374,0.12873606383800507,0.05016583204269409,2.4890499114990234
1789324336034166500,8.57416650390625,0.164165198802948,0.019623467698693275,2.438349485397339
1789324336053016600,8.5930166015625,0.04749337583780289,-0.08910734206438065,2.5446369647979736
1789324336071867000,8.611866943359376,-0.12720894813537598,-0.4244624972343445,2.646648406982422
1789324336090717200,8.63071728515625,-0.2426590770483017,-0.5576272010803223,2.4884390830993652
1789324336109567200,8.649567138671875,-0.34405970573425293,-0.3022930324077606,2.256927967071533
1789324336128417500,8.66841748046875,-0.358720064163208,0.06543701142072678,2.1103246212005615
1789324336147267800,8.687267822265625,-0.3709369897842407,0.040392275899648666,1.9765490293502808
1789324336166118000,8.706117919921875,-0.23288552463054657,-0.07811209559440613,1.5617073774337769
1789324336184968200,8.72496826171875,0.029167955741286278,0.009239064529538155,1.0724186897277832
1789324336203818200,8.743818359375,0.2166980654001236,0.17050273716449738,0.7224032282829285
1789324336222668500,8.76266845703125,0.2551814317703247,0.0489441379904747,0.5293754935264587
1789324336241518800,8.781518798828126,0.21120044589042664,-0.04695888236165047,0.2746522128582001
1789324336260369000,8.800368896484375,0.111021488904953,-0.07750124484300613,-0.01122431829571724
1789324336279219200,8.81921923828125,-0.0594048947095871,-0.01885990984737873,-0.343525230884552
1789324336298069200,8.8380693359375,-0.14370182156562805,-0.017027366906404495,-0.658111572265625
1789324336316919600,8.85691943359375,-0.11743538826704025,0.22303560376167297,-0.9465078115463257
1789324336335769900,8.875769775390625,-0.13331741094589233,0.5370874404907227,-1.1865707635879517
1789324336354620000,8.894619873046874,-0.09300149232149124,0.645207405090332,-1.4467917680740356
1789324336373470200,8.91347021484375,-0.051463883370161057,0.7508839964866638,-1.8010830879211426
1789324336392320500,8.932320556640626,-0.0587940476834774,0.6201626658439636,-2.2060749530792236
1789324336411170600,8.951170654296876,-0.12048961967229843,0.8791618943214417,-2.519439458847046
1789324336430020900,8.970020751953125,-0.3239017724990845,0.6629219651222229,-2.7472856044769287
1789324336448871000,8.988870849609375,-0.4411844313144684,0.3219928741455078,-2.80898118019104
1789324336467721200,9.00772119140625,-0.5981721878051758,-0.07872293889522552,-2.9006083011627197
1789324336486571300,9.0265712890625,-0.733169436454773,-0.10254598408937454,-2.892667293548584
1789324336505421600,9.045421630859375,-0.6574243903160095,-0.4495072364807129,-2.932983160018921
1789324336524271900,9.06427197265625,-0.3978142738342285,-0.6596387028694153,-2.860903024673462
1789324336543122000,9.083121826171874,-0.08994726091623306,-0.5228089094161987,-2.776606321334839
1789324336561972200,9.10197216796875,0.1104106456041336,-0.5869478583335876,-2.637943983078003
1789324336580822300,9.120822265625,0.1391204595565796,-0.6101600527763367,-2.3019778728485107
1789324336599672600,9.139672607421875,0.17271706461906433,-0.8239566087722778,-1.8084132671356201
1789324336618522600,9.158522705078125,0.27472856640815735,-0.727442741394043,-1.5011571645736694
1789324336637373000,9.177373046875,0.6015318632125854,-0.2149418741464615,-1.4193036556243896
1789324336656223200,9.19622314453125,0.8080745935440063,0.20898611843585968,-1.156028389930725
1789324336675073300,9.2150732421875,0.6949914693832397,0.16989189386367798,-0.7063685059547424
1789324336693923600,9.233923583984375,0.4091149568557739,-0.05978667363524437,-0.2769428789615631
1789324336712773600,9.252773681640624,0.22647161781787872,0.12468919903039932,0.0626882016658783
1789324336741048800,9.281048828125,0.09208522737026215,0.21265120804309845,0.4963897466659546
1789324336759899100,9.299899169921876,0.12995775043964386,0.08376242965459824,0.7657734155654907
1789324336788174300,9.32817431640625,0.017561858519911766,0.02023431472480297,1.2013075351715088
1789324336807024600,9.347024658203125,-0.025197450071573257,-0.21005509793758392,1.5061203241348267
1789324336825874700,9.365874755859375,-0.12843063473701477,-0.24181915819644928,1.5775893926620483
1789324336844725000,9.38472509765625,-0.150421142578125,-0.33955472707748413,1.5885846614837646
1789324336863575000,9.403574951171874,-0.19562382996082306,-0.2515927255153656,1.5342192649841309
1789324336882425300,9.42242529296875,-0.10460758954286575,-0.0946049690246582,1.4816863536834717
1789324336901275400,9.441275390625,-0.06001574173569679,0.27862271666526794,1.4670259952545166
1789324336920125700,9.460125732421876,-0.03558185324072838,0.2566322088241577,1.5635398626327515
1789324336938975700,9.478975830078125,-0.01725643500685692,0.07154548168182373,1.755956768989563
1789324336957826000,9.497825927734375,0.10491301864385605,-0.23693238198757172,1.9429523944854736
1789324336976676400,9.51667626953125,0.2020377367734909,-0.19295138120651245,2.005258798599243
1789324336995526400,9.5355263671875,0.2307475507259369,-0.08849649876356125,2.138423442840576
1789324337014376400,9.55437646484375,0.2020377367734909,-0.15324631333351135,2.247765302658081
1789324337033226800,9.573226806640625,0.2032594233751297,-0.18378867208957672,2.1653008460998535
1789324337052076800,9.592076904296874,0.12873606383800507,-0.21921780705451965,2.129260778427124
1789324337070927000,9.610927001953126,-0.055739812552928925,-0.5661790370941162,2.3790974617004395
1789324337099202300,9.639202392578126,-0.17363333702087402,-0.9968263506889343,2.1475863456726074
1789324337118052600,9.658052490234375,-0.15775130689144135,-0.4250733256340027,1.945395827293396
1789324337136902700,9.676902587890625,-0.11377029865980148,0.04405735805630684,1.9417307376861572
1789324337155753000,9.6957529296875,-0.07406523078680038,-0.0011453386396169662,1.7693954706192017
1789324337174603000,9.71460302734375,-0.05757235363125801,-0.08666395395994186,1.345467448234558
1789324337193453300,9.733453369140625,-0.07773031294345856,0.004963133949786425,1.0962417125701904
1789324337212303400,9.752303466796874,0.0010689827613532543,0.0892600566148758,0.8250255584716797
1789324337231153400,9.7711533203125,0.13056860864162445,0.18821731209754944,0.39498910307884216
1789324337250003700,9.790003662109376,0.18249061703681946,0.193104088306427,-0.03565821051597595
1789324337268853800,9.808853759765626,0.14828316867351532,0.12041326612234116,-0.24640052020549774
1789324337287704000,9.8277041015625,0.08170082420110703,0.07643226534128189,-0.5591543316841125
1789324337306554000,9.84655419921875,0.041384901851415634,0.012293301522731781,-0.9184088706970215
1789324337325404400,9.865404296875,0.007177455350756645,0.15217731893062592,-1.3569971323013306
1789324337344254500,9.88425439453125,-0.11804623156785965,0.38429927825927734,-1.6783028841018677
1789324337363104800,9.903104736328125,-0.15775130689144135,0.7246175408363342,-1.971509575843811
1789324337381954800,9.921954833984374,-0.1620272397994995,0.7209524512290955,-2.3160274028778076
1789324337400805000,9.94080517578125,-0.03802524134516716,0.7649334669113159,-2.705137014389038
1789324337419655200,9.9596552734375,-0.05390727147459984,0.6226060390472412,-2.840134382247925
1789324337438505500,9.97850537109375,-0.20539739727973938,0.35803285241127014,-2.8224196434020996
1789324337457355500,9.99735546875,-0.44362783432006836,0.13690614700317383,-2.655047655105591
1789324337476205600,10.01620556640625,-0.5609105229377747,-0.33588963747024536,-2.5988497734069824
1789324337495056000,10.035055908203125,-0.3972034156322479,-0.5576272010803223,-2.7955424785614014
1789324337513906000,10.053906005859375,-0.08811471611261368,-0.5961105823516846,-3.0557634830474854
1789324337532756200,10.072756103515625,0.18554484844207764,-0.4782170355319977,-3.135784387588501
1789324337551606300,10.091606201171874,0.48302745819091797,-0.3713187873363495,-2.93664813041687
1789324337570456300,10.110456298828124,0.6925480961799622,-0.33772218227386475,-2.55731201171875
1789324337598731500,10.1387314453125,0.45737189054489136,-0.5753417611122131,-1.8426207304000854
1789324337617581800,10.157581787109375,0.42194274067878723,-0.32733777165412903,-1.5323103666305542
1789324337636432000,10.176431884765625,0.5099047422409058,-0.026190076023340225,-1.275754451751709
1789324337655282200,10.1952822265625,0.5245651006698608,0.21142950654029846,-0.9990406632423401
1789324337674132200,10.21413232421875,0.534338653087616,0.21020781993865967,-0.5029563903808594
1789324337692982300,10.232982177734375,0.4671454429626465,0.028786176815629005,0.07001836597919464
1789324337711832600,10.25183251953125,0.1910424828529358,-0.036574479192495346,0.4835619628429413
1789324337730682600,10.2706826171875,0.111632339656353,0.2199813723564148,0.6753680109977722
1789324337749533000,10.289532958984376,0.0022906772792339325,0.23708508908748627,0.9606336951255798
1789324337768383000,10.308383056640626,-0.06429167091846466,-0.02802261710166931,1.3094274997711182
1789324337787233000,10.32723291015625,-0.006261184345930815,-0.27052897214889526,1.4865732192993164
1789324337806083300,10.346083251953125,-0.01725643500685692,-0.1459161341190338,1.3699012994766235
1789324337824933400,10.364933349609375,-0.04107947647571564,-0.0952158197760582,1.3644037246704102
1789324337843783400,10.383783447265625,-0.05512896552681923,-0.03901786729693413,1.503066062927246
1789324337862633700,10.4026337890625,-0.014202198944985867,0.011071606539189816,1.5501012802124023
1789324337881483800,10.42148388671875,-0.049020491540431976,0.12346750497817993,1.5317758321762085
1789324337900333800,10.440333740234376,0.004123218823224306,0.1821088343858719,1.7425181865692139
1789324337919184100,10.45918408203125,0.12079504877328873,0.1784437596797943,1.996096134185791
1789324337938034200,10.4780341796875,0.3339807391166687,0.21570543944835663,2.2086710929870605
1789324337956884500,10.496884521484375,0.49952033162117004,0.05993938818573952,2.421856641769409
1789324337975734500,10.515734619140625,0.5190674662590027,-0.07078192383050919,2.542804479598999
1789324337994584600,10.53458447265625,0.4011739492416382,-0.10010259598493576,2.447512149810791
1789324338013435000,10.553434814453125,0.24052110314369202,0.0019088976550847292,2.427354335784912
1789324338032285000,10.572284912109374,0.09636115282773972,-0.18378867208957672,2.493936538696289
1789324338051135000,10.591135009765624,0.05604523420333862,-0.27113983035087585,2.4566750526428223
1789324338069985000,10.609985107421876,-0.20539739727973938,-0.5997756719589233,2.418802499771118
1789324338098260200,10.63826025390625,-0.45950984954833984,-0.7891383171081543,2.1310932636260986
1789324338117110500,10.657110595703125,-0.24754585325717926,-0.4232407808303833,1.889197826385498
1789324338135960600,10.675960693359375,0.010231691412627697,-0.2008923888206482,1.5959148406982422
1789324338154810600,10.694810546875,0.10796725004911423,-0.1874537467956543,1.1444987058639526
1789324338173661000,10.713660888671875,0.1391204595565796,-0.11170869320631027,0.6503232717514038
1789324338192511000,10.732510986328125,0.11774080991744995,0.1924932450056076,0.23006035387516022
1789324338211361000,10.751361083984374,0.10796725004911423,0.34459421038627625,-0.16821207106113434
1789324338230211300,10.77021142578125,0.07742489129304886,0.35620030760765076,-0.4351523220539093
1789324338249061400,10.789061279296876,0.06398624926805496,0.378190815448761,-0.7308024168014526
1789324338267911400,10.807911376953125,-0.02764083817601204,0.3763582706451416,-1.01370108127594
1789324338286761500,10.826761474609375,-0.0587940476834774,0.43438875675201416,-1.3747117519378662
1789324338305611800,10.84561181640625,-0.11377029865980148,0.7221741676330566,-1.7290031909942627
1789324338324461800,10.8644619140625,-0.20661908388137817,0.7227849960327148,-1.9812830686569214
1789324338343312000,10.883311767578125,-0.30130040645599365,0.7276718020439148,-2.1914145946502686
1789324338362162200,10.902162109375,-0.3489464819431305,0.5688515305519104,-2.418038845062256
1789324338381012200,10.92101220703125,-0.4253024160861969,0.6213843822479248,-2.5060009956359863
1789324338399862300,10.9398623046875,-0.5719057321548462,0.6000047326087952,-2.614731788635254
1789324338418712300,10.95871240234375,-0.7887565493583679,0.428891122341156,-2.638554811477661
1789324338437562600,10.977562744140625,-0.9310839176177979,-0.25709033012390137,-2.7558374404907227
1789324338456412700,10.99641259765625,-0.783869743347168,-0.4580591022968292,-2.9061057567596436
1789324338475262700,11.0152626953125,-0.3764346241950989,-0.4250733256340027,-3.0875275135040283
1789324338494112800,11.03411279296875,-0.056961506605148315,-0.3010713458061218,-3.0887491703033447
1789324338512963000,11.052963134765625,0.009620844386518002,-0.34871742129325867,-2.8273065090179443
1789324338531813000,11.071813232421874,0.11407572776079178,-0.49654245376586914,-2.5151636600494385
1789324338550663200,11.0906630859375,0.2722851634025574,-0.5246414542198181,-2.0961222648620605
1789324338569513200,11.10951318359375,0.3883461356163025,-0.1996707022190094,-1.7137320041656494
1789324338597788400,11.137788330078125,0.27595025300979614,0.193104088306427,-1.197566032409668
1789324338616638500,11.156638427734375,0.18798823654651642,0.39834877848625183,-0.7485169768333435
1789324338635488500,11.175488525390625,0.10491301864385605,0.3232145607471466,-0.23540526628494263
1789324338654338800,11.1943388671875,0.0261137206107378,0.29022881388664246,0.154926136136055
1789324338673188900,11.21318896484375,0.01572931744158268,0.24808034300804138,0.46279314160346985
1789324338692039000,11.232038818359374,0.07009471952915192,0.24136102199554443,0.7908181548118591
1789324338710889000,11.250888916015626,0.041384901851415634,0.06726955622434616,1.141444444656372
1789324338729739000,11.269739013671876,-0.012369656935334206,-0.09277242422103882,1.3650145530700684
1789324338748589300,11.28858935546875,-0.029473381116986275,-0.17584764957427979,1.492681622505188
1789324338767439400,11.307439453125,-0.04169032722711563,-0.061619218438863754,1.488405704498291
1789324338786289400,11.326289306640625,0.009009997360408306,0.03489464893937111,1.4822971820831299
1789324338805139500,11.345139404296875,-0.015423892997205257,0.352535218000412,1.4719128608703613
1789324338823989500,11.363989501953125,-0.016645587980747223,0.15950748324394226,1.608131766319275
1789324338842839600,11.382839599609374,0.0261137206107378,0.05322006717324257,1.8879761695861816
1789324338861689900,11.40168994140625,0.10246963053941727,0.052609220147132874,1.9796032905578613
1789324338880540000,11.420539794921876,0.07375980913639069,0.09781191498041153,1.843918800354004
1789324338899390000,11.439389892578125,-0.04963133856654167,-0.09032903611660004,1.8555248975753784
1789324338918240000,11.458239990234375,-0.058183200657367706,-0.2393757700920105,2.1451427936553955
1789324338937090000,11.477090087890625,0.0725381150841713,-0.22227205336093903,2.404142141342163
1789324338965365200,11.505365234375,0.2570139765739441,-0.12514732778072357,2.380319118499756
1789324338993640400,11.533640380859374,0.2154763638973236,-0.6113817691802979,2.505542755126953
1789324339012490500,11.552490478515624,0.023059483617544174,-0.9803335070610046,2.464616060256958
1789324339031340500,11.571340576171876,-0.2793098986148834,-1.119606614112854,2.2239420413970947
1789324339050190600,11.590190673828126,-0.3171824514865875,-0.640091598033905,2.0639002323150635
1789324339069040600,11.60904052734375,-0.13148486614227295,-0.13186664879322052,2.0584025382995605
1789324339097315800,11.63731591796875,0.14645062386989594,-0.05856497958302498,1.682044267654419
1789324339116166000,11.656165771484375,0.2032594233751297,-0.2015032321214676,1.3057624101638794
1789324339135016000,11.675015869140625,0.23929941654205322,0.034283801913261414,0.8934404850006104
1789324339153866000,11.693865966796874,0.3217637836933136,-0.015194825828075409,0.4414134919643402
1789324339172716300,11.71271630859375,0.24968381226062775,0.1283542811870575,0.08590039610862732
1789324339191566300,11.73156640625,0.07070557028055191,0.08131904155015945,-0.33863845467567444
1789324339210416400,11.75041650390625,-0.036192700266838074,0.29083964228630066,-0.7882220149040222
1789324339229266400,11.769266357421875,0.03161134570837021,0.3372640311717987,-1.1639693975448608
1789324339248116500,11.788116455078125,0.0456608310341835,0.49974942207336426,-1.5005463361740112
1789324339266966500,11.806966552734375,-0.07650861889123917,0.5792359113693237,-1.8279603719711304
1789324339285816600,11.825816650390625,-0.21822518110275269,0.7655443549156189,-2.1297190189361572
1789324339304666600,11.84466650390625,-0.284196674823761,0.8364025950431824,-2.3826098442077637
1789324339323516700,11.8635166015625,-0.2915268540382385,0.755770742893219,-2.583578586578369
1789324339342366700,11.88236669921875,-0.3171824514865875,0.617719292640686,-2.701472043991089
1789324339361217000,11.901217041015625,-0.43080002069473267,0.5346440672874451,-2.7576699256896973
1789324339380067000,11.920067138671875,-0.6439857482910156,0.13079766929149628,-2.7204082012176514
1789324339398917000,11.938917236328125,-0.7527165412902832,-0.3810923397541046,-2.7039153575897217
1789324339417767200,11.95776708984375,-0.5932853817939758,-0.4977641701698303,-2.843188524246216
1789324339446042000,11.9860419921875,-0.18462859094142914,-0.47088688611984253,-2.849297046661377
1789324339464892200,12.00489208984375,0.0065666078589856625,-0.6358156204223633,-2.6403872966766357
1789324339483742200,12.0237421875,0.05787777900695801,-0.9754467010498047,-2.4595766067504883
1789324339502592300,12.04259228515625,0.1385096162557602,-1.0530242919921875,-2.3325202465057373
1789324339521442300,12.0614423828125,0.4359922409057617,-0.7286643981933594,-2.0747427940368652
1789324339540292400,12.080292236328125,0.8117396235466003,-0.2399866133928299,-1.7082343101501465
1789324339559142400,12.099142333984375,0.8502230048179626,0.04772244393825531,-1.2323843240737915
1789324339577992400,12.117992431640625,0.5404471158981323,0.12346750497817993,-0.7546254396438599
1789324339596842500,12.136842529296874,0.37735089659690857,0.24991288781166077,-0.23235101997852325
1789324339615692500,12.155692626953124,0.2948864996433258,0.24197186529636383,0.3113030195236206
1789324339634542600,12.17454248046875,0.14706148207187653,0.16928105056285858,0.6545991897583008
1789324339653392600,12.193392578125,0.12812520563602448,0.23708508908748627,0.8720608353614807
1789324339672242700,12.21224267578125,0.029167955741286278,0.3476484417915344,1.13228178024292
1789324339691092700,12.2310927734375,-0.05390727147459984,0.26335152983665466,1.399832844734192
1789324339709942800,12.24994287109375,-0.09605573117733002,0.05566345527768135,1.5702592134475708
1789324339728792800,12.268792724609375,-0.14858859777450562,-0.14102935791015625,1.5946931838989258
1789324339747643000,12.287642822265624,-0.150421142578125,-0.20761170983314514,1.6124076843261719
1789324339766493000,12.306492919921874,-0.14736689627170563,-0.28518930077552795,1.6240137815475464
1789324339785343200,12.32534326171875,0.009009997360408306,-0.15568970143795013,1.7211384773254395
1789324339804193000,12.344193115234376,0.21058958768844604,-0.03840702027082443,1.8084896802902222
1789324339823043000,12.36304296875,0.2808370292186737,0.20898611843585968,1.9924310445785522
1789324339841893000,12.38189306640625,0.28999972343444824,0.09170344471931458,2.14025616645813
1789324339860743200,12.4007431640625,0.34070006012916565,0.009849912486970425,2.2288289070129395
1789324339879593200,12.41959326171875,0.4390464723110199,-0.2931303381919861,2.31679105758667
1789324339898443300,12.438443359375,0.3877353072166443,-0.4366794228553772,2.2746424674987793
1789324339917293300,12.457293212890624,0.27839362621307373,-0.3328354060649872,2.146364450454712
1789324339936143400,12.476143310546876,0.09391776472330093,-0.31389912962913513,2.2318832874298096
1789324339954993400,12.494993408203126,-0.1369825005531311,-0.8496121764183044,2.421245813369751
1789324339973843500,12.513843505859375,-0.3171824514865875,-1.4195326566696167,2.3247320652008057
1789324339992693500,12.532693603515625,-0.3501681983470917,-1.2613232135772705,1.9747164249420166
1789324340011543600,12.55154345703125,-0.1253764033317566,-0.4745519757270813,1.8812568187713623
1789324340030393600,12.5703935546875,0.13240113854408264,-0.32611608505249023,1.8249825239181519
1789324340049243600,12.58924365234375,0.2942756712436676,-0.21555273234844208,1.5916389226913452
1789324340068093700,12.60809375,0.30343836545944214,0.13385190069675446,1.2623921632766724
1789324340096368600,12.63636865234375,0.21425467729568481,0.141182079911232,0.4798968732357025
1789324340115218700,12.65521875,0.23929941654205322,0.4160633385181427,0.0358109213411808
1789324340134068700,12.67406884765625,0.2160872220993042,0.47531551122665405,-0.35207709670066833
1789324340152918800,12.692918701171875,0.07314895838499069,0.5474718809127808,-0.7650098204612732
1789324340171768800,12.711768798828125,-0.00992626789957285,0.6311579346656799,-1.137092113494873
1789324340190619000,12.730618896484375,-0.023975754156708717,0.8871029615402222,-1.4907727241516113
1789324340209469000,12.749468994140624,-0.04840964451432228,0.8400676846504211,-1.7876445055007935
1789324340228319000,12.768319091796876,-0.09910997003316879,0.8449544906616211,-2.1010091304779053
1789324340247168800,12.787168701171876,-0.17302247881889343,0.7435538172721863,-2.2897610664367676
1789324340266018800,12.806018798828125,-0.2976353168487549,0.9713998436927795,-2.4516353607177734
1789324340284868900,12.824868896484375,-0.4894413650035858,0.7704311013221741,-2.6312246322631836
1789324340303719000,12.843718994140625,-0.5835118293762207,0.6018372774124146,-2.7613351345062256
1789324340322569000,12.86256884765625,-0.6476507782936096,0.3372640311717987,-2.687422513961792
1789324340341419000,12.8814189453125,-0.7301151752471924,0.35436776280403137,-2.75339412689209
1789324340360269000,12.90026904296875,-0.7655443549156189,-0.2143310308456421,-2.8767852783203125
1789324340379119000,12.919119140625,-0.6317687630653381,-0.51914381980896,-2.8053159713745117
1789324340407394000,12.94739404296875,0.009009997360408306,-0.5160895586013794,-2.873120069503784
1789324340426244000,12.966244140625,0.2692309319972992,-0.35054996609687805,-2.8022618293762207
1789324340445094100,12.98509423828125,0.35413870215415955,-0.4531722962856293,-2.568307399749756
1789324340463944000,13.00394384765625,0.4506525695323944,-0.6895701885223389,-2.3245792388916016
1789324340482794000,13.0227939453125,0.5905365943908691,-0.5716766715049744,-1.9959434270858765
1789324340501644000,13.04164404296875,0.6528429985046387,-0.09765920788049698,-1.5353646278381348
1789324340520494000,13.060494140625,0.6473453640937805,0.11552648991346359,-0.7802810072898865
1789324340539344100,13.07934423828125,0.44637662172317505,0.2181488275527954,-0.017332790419459343
1789324340558194000,13.09819384765625,0.32603973150253296,0.21265120804309845,0.38155046105384827
1789324340577044000,13.1170439453125,0.2038702666759491,0.16928105056285858,0.5929036140441895
1789324340595894000,13.13589404296875,0.13973131775856018,0.15767495334148407,0.8995489478111267
1789324340614744000,13.154744140625,0.05482354015111923,0.30672168731689453,1.2129136323928833
1789324340633594000,13.173593994140624,-0.0007635590736754239,0.2071535736322403,1.4315968751907349
1789324340652444200,13.192444091796874,-0.05757235363125801,0.11674818396568298,1.4816863536834717
1789324340671294000,13.2112939453125,-0.14064757525920868,0.09353598952293396,1.452365756034851
1789324340690144000,13.23014404296875,-0.23899398744106293,0.08131904155015945,1.488405704498291
1789324340708994000,13.248994140625,-0.32573428750038147,-0.00786465872079134,1.5702592134475708
1789324340727844000,13.267843994140625,-0.31229567527770996,-0.1459161341190338,1.7681736946105957
1789324340746694000,13.28669384765625,-0.09605573117733002,-0.20577916502952576,2.0235843658447266
1789324340765544000,13.3055439453125,0.13240113854408264,0.08070819079875946,2.0877232551574707
1789324340784394000,13.32439404296875,0.2667875289916992,0.1546207070350647,1.996096134185791
1789324340803244000,13.343244140625,0.27595025300979614,0.08131904155015945,2.099940061569214
1789324340822093800,13.36209375,0.17454960942268372,-0.33772218227386475,2.3100717067718506
1789324340840943900,13.38094384765625,0.11346487700939178,-0.6871268153190613,2.424299955368042
1789324340859794000,13.3997939453125,0.16905197501182556,-0.6290963292121887,2.387038469314575
1789324340878644000,13.41864404296875,0.13362284004688263,-0.4446204602718353,2.418802499771118
1789324340897493800,13.43749365234375,-0.056961506605148315,-0.7439355850219727,2.572125196456909
1789324340916343800,13.45634375,-0.22372281551361084,-1.420754313468933,2.464616060256958
1789324340935193900,13.47519384765625,-0.20661908388137817,-1.2710968255996704,2.1536946296691895
1789324340954044000,13.4940439453125,-0.08017370104789734,-0.565568208694458,2.027249336242676
1789324340972894000,13.51289404296875,0.09269607067108154,-0.2124984860420227,1.9521151781082153
1789324340991743700,13.53174365234375,0.11346487700939178,-0.2546469569206238,1.4890165328979492
1789324341010593800,13.55059375,0.08047912269830704,-0.0420721061527729,1.0272160768508911
1789324341029443800,13.56944384765625,0.028557108715176582,0.06726955622434616,0.5776324272155762
1789324341048293600,13.588293701171875,0.08292251825332642,0.20837527513504028,0.3241308331489563
1789324341067143700,13.607143798828124,0.16599774360656738,0.4441623091697693,0.10483665764331818
1789324341095418600,13.635418701171876,0.13973131775856018,0.5064687132835388,-0.6122980117797852
1789324341114268700,13.6542685546875,0.07620319724082947,0.5474718809127808,-1.1505308151245117
1789324341133118700,13.67311865234375,0.010231691412627697,0.8596147894859314,-1.5744588375091553
1789324341151968500,13.691968505859375,-0.10888352245092392,0.9726215600967407,-2.0185446739196777
1789324341170818600,13.710818603515625,-0.21272756159305573,1.1094512939453125,-2.3624517917633057
1789324341189668600,13.729668701171875,-0.33001023530960083,0.9683456420898438,-2.5475385189056396
1789324341208518400,13.748518310546874,-0.4283566474914551,0.9255862832069397,-2.630002975463867
1789324341227368400,13.767368408203126,-0.5969504714012146,0.7740961909294128,-2.728349208831787
1789324341246218500,13.786218505859376,-0.8235748410224915,0.5774033665657043,-2.672762155532837
1789324341265068500,13.805068603515625,-0.9475768208503723,0.13629528880119324,-2.597627878189087
1789324341283918300,13.82391845703125,-0.7948650121688843,0.011071606539189816,-2.6978068351745605
1789324341302768400,13.842768310546875,-0.5627430081367493,-0.02802261710166931,-2.912825107574463
1789324341321618200,13.8616181640625,-0.36727190017700195,-0.30962321162223816,-2.98246169090271
1789324341349893000,13.88989306640625,-0.04840964451432228,-0.8447254300117493,-2.959860324859619
1789324341368743200,13.9087431640625,0.25090551376342773,-0.861218273639679,-2.98551607131958
1789324341387593200,13.92759326171875,0.4665345847606659,-0.49348822236061096,-2.6135098934173584
1789324341406443000,13.946443115234375,0.39384377002716064,-0.06100837141275406,-1.8640004396438599
1789324341425293000,13.96529296875,0.18187977373600006,0.19004985690116882,-1.3667707443237305
1789324341444143000,13.98414306640625,0.37002071738243103,0.11674818396568298,-0.9880454540252686
1789324341462993000,14.002992919921875,0.61313796043396,-0.1599656194448471,-0.41438350081443787
1789324341481843000,14.021843017578124,0.6339067220687866,-0.02802261710166931,0.06757497787475586
1789324341500692700,14.040692626953126,0.4378247857093811,0.2596864402294159,0.3216874301433563
1789324341519542800,14.059542724609376,0.27411770820617676,0.141182079911232,0.5483117699623108
1789324341538392800,14.078392822265625,0.1892099380493164,-0.0952158197760582,0.9734614491462708
1789324341557242600,14.09724267578125,0.14522893726825714,-0.15202461183071136,1.330807089805603
1789324341576092700,14.1160927734375,0.08353336155414581,-0.07933378964662552,1.460917592048645
1789324341594942500,14.1349423828125,0.0462716780602932,-0.21005509793758392,1.4896273612976074
1789324341613792500,14.15379248046875,-0.030695075169205666,-0.2381540685892105,1.515893816947937
1789324341632642300,14.172642333984374,-0.07406523078680038,-0.07383616268634796,1.585530400276184
1789324341651492400,14.191492431640626,-0.08628217875957489,0.20898611843585968,1.7529025077819824
1789324341670342400,14.21034228515625,0.018783552572131157,0.29083964228630066,1.985711693763733
1789324341689192200,14.229192138671875,0.13973131775856018,0.2334200143814087,2.106048583984375
1789324341708042200,14.248042236328125,0.241742804646492,0.20898611843585968,2.181182861328125
1789324341726892300,14.266892333984375,0.24724042415618896,0.1527881771326065,2.2984654903411865
1789324341745742000,14.2857421875,0.2020377367734909,-0.034131091088056564,2.438960313796997
1789324341764592000,14.304592041015624,0.10491301864385605,-0.3071798086166382,2.5495238304138184
1789324341783442000,14.32344189453125,0.07375980913639069,-0.43057096004486084,2.533641815185547
1789324341802292000,14.3422919921875,0.1776038408279419,-0.44156619906425476,2.4133048057556152
1789324341821141800,14.361141845703125,0.15500248968601227,-0.6504759788513184,2.531198263168335
1789324341839991800,14.37999169921875,-0.06612421572208405,-1.5032187700271606,2.6661956310272217
1789324341858841600,14.398841552734375,-0.2689255177974701,-1.5496431589126587,2.3583285808563232
1789324341877691600,14.417691650390625,-0.2982461750507355,-0.7879166007041931,2.117043972015381
1789324341896541400,14.43654150390625,-0.09483403712511063,-0.2754157483577728,2.033968687057495
1789324341915391500,14.4553916015625,0.09269607067108154,-0.22410458326339722,1.594082236289978
1789324341934241300,14.4742412109375,0.23380178213119507,-0.05978667363524437,0.9252045154571533
1789324341953091300,14.49309130859375,0.21242213249206543,0.1008661538362503,0.364446759223938
1789324341971941000,14.511941162109375,0.11590826511383057,0.26640576124191284,0.005879404954612255
1789324341990791200,14.530791259765625,0.07009471952915192,0.19615831971168518,-0.2500655949115753
1789324342009641000,14.549640869140624,-0.027029991149902344,0.2444152534008026,-0.475468248128891
1789324342028491000,14.568490966796874,-0.0844496339559555,0.3623087704181671,-0.6617766618728638
1789324342047340800,14.5873408203125,-0.15347537398338318,0.6580352187156677,-1.0277504920959473
1789324342066190800,14.60619091796875,-0.21394924819469452,0.9078717231750488,-1.46511709690094
1789324342085040600,14.62504052734375,-0.2151709496974945,1.3220261335372925,-1.9476864337921143
1789324342103890700,14.643890625,-0.2670929729938507,1.288429617881775,-2.3386287689208984
1789324342122740500,14.662740478515625,-0.3483356535434723,1.2450593709945679,-2.6483283042907715
1789324342141590500,14.681590576171875,-0.5926745533943176,1.002553105354309,-2.7985966205596924
1789324342160440300,14.7004404296875,-0.9634588360786438,0.7704311013221741,-2.7259058952331543
1789324342179290400,14.719290283203126,-1.2273448705673218,0.2590755820274353,-2.669708013534546
1789324342198140200,14.73814013671875,-1.181531310081482,-0.10560022294521332,-2.765000104904175
1789324342216990200,14.756990234375,-0.9768974781036377,-0.32367268204689026,-2.893278121948242
1789324342235840000,14.775840087890625,-0.6067240238189697,-0.4348468780517578,-3.020334243774414
1789324342254690000,14.79468994140625,-0.19318044185638428,-0.43973368406295776,-3.1394495964050293
1789324342273539800,14.813539794921875,0.07070557028055191,-0.36459946632385254,-2.999565362930298
1789324342292390000,14.832389892578124,0.13179029524326324,-0.19722731411457062,-2.5585336685180664
1789324342311239700,14.85123974609375,0.10735640674829483,-0.1587439328432083,-2.051530599594116
1789324342330089700,14.87008984375,0.06642963737249374,-0.03229855000972748,-1.734500765800476
1789324342348939500,14.888939453125,0.14461809396743774,0.13629528880119324,-1.4431266784667969
1789324342367789300,14.907789306640625,0.28938889503479004,0.11980241537094116,-0.9190196990966797
1789324342386639400,14.926639404296875,0.3382566571235657,0.03489464893937111,-0.37773266434669495
1789324342405489200,14.9454892578125,0.23258009552955627,-0.06589514762163162,-0.0008399150101467967
1789324342424339200,14.964339111328124,0.15744587779045105,-0.0823880210518837,0.30458372831344604
1789324342443189000,14.98318896484375,0.14461809396743774,-0.23326729238033295,0.7388961315155029
1789324342462038800,15.002038818359376,0.21914145350456238,-0.22105035185813904,1.1109020709991455
1789324342480888800,15.020888916015625,0.31626617908477783,-0.2638096511363983,1.4138823747634888
1789324342499738600,15.039738525390625,0.2942756712436676,-0.2247154414653778,1.5635398626327515
1789324342518588700,15.058588623046875,0.21058958768844604,-0.2937411665916443,1.6551669836044312
1789324342537438500,15.0774384765625,0.06765133142471313,-0.3187859058380127,1.7144192457199097
1789324342556288300,15.096288330078124,-0.046577103435993195,-0.28457847237586975,1.8463622331619263
1789324342575138300,15.11513818359375,-0.10888352245092392,-0.0823880210518837,1.9973177909851074
1789324342593988000,15.133988037109376,-0.06001574173569679,0.09353598952293396,2.033357858657837
1789324342612838000,15.152837890625,0.08292251825332642,0.16439427435398102,1.9973177909851074
1789324342631688000,15.17168798828125,0.17943638563156128,0.12163496017456055,1.9973177909851074
1789324342650537700,15.190537841796875,0.19776180386543274,-0.05734328553080559,2.1683549880981445
1789324342669387500,15.209387451171875,0.24846212565898895,-0.16363070905208588,2.337559700012207
1789324342688237600,15.228237548828124,0.3364241421222687,-0.5008183717727661,2.349165916442871
1789324342707087400,15.24708740234375,0.3749074935913086,-0.569844126701355,2.2783076763153076
1789324342725937200,15.265937255859376,0.3315373361110687,-0.769591212272644,2.103605270385742
1789324342744787200,15.284787109375,0.23929941654205322,-0.9656731486320496,2.0522940158843994
1789324342763637000,15.303636962890625,0.10308047384023666,-1.4885584115982056,2.0467965602874756
1789324342782486800,15.32248681640625,-0.010537114925682545,-1.8355196714401245,1.897749662399292
1789324342801336800,15.3413369140625,-0.030695075169205666,-1.2185639142990112,1.7651195526123047
1789324342829611500,15.369611572265624,0.09086353331804276,-0.3035147190093994,1.8127655982971191
1789324342848461600,15.388461669921876,0.10430216789245605,-0.23632153868675232,1.525667428970337
1789324342867311400,15.407311279296875,0.1763821393251419,-0.07750124484300613,0.8989381194114685
1789324342886161200,15.4261611328125,0.1629435122013092,0.17233528196811676,0.33146098256111145
1789324342905011200,15.44501123046875,0.16844113171100616,0.45210331678390503,-0.08696937561035156
1789324342923861000,15.463861083984375,0.2429644912481308,0.37269318103790283,-0.4211028218269348
1789324342942710800,15.482710693359374,0.3046600818634033,0.45088163018226624,-0.7668423652648926
1789324342961560800,15.501560791015624,0.28877803683280945,0.24319356679916382,-1.082115888595581
1789324342980410600,15.52041064453125,0.04443913698196411,0.5076904296875,-1.3521103858947754
1789324342999260400,15.539260498046875,-0.21028417348861694,0.7270609736442566,-1.6990716457366943
1789324343018110500,15.5581103515625,-0.30985227227211,1.2499462366104126,-1.9855589866638184
1789324343036960300,15.576960205078125,-0.31229567527770996,1.4747380018234253,-2.334352731704712
1789324343055810000,15.59581005859375,-0.28725093603134155,1.4576343297958374,-2.600682258605957
1789324343074659800,15.614659912109374,-0.36482852697372437,1.5223840475082397,-2.874952554702759
1789324343093510000,15.633510009765626,-0.6641436815261841,0.940857470035553,-2.929928779602051
1789324343112359700,15.652359619140626,-1.006829023361206,0.31771692633628845,-3.019723415374756
1789324343131209500,15.67120947265625,-1.0764656066894531,-0.06345175951719284,-3.1406712532043457
1789324343150059300,15.690059326171875,-0.8040276765823364,-0.08544225990772247,-3.1321194171905518
1789324343178334200,15.718334228515625,-0.13209572434425354,0.10697462409734726,-2.932983160018921
1789324343197184000,15.73718408203125,-0.04230117425322533,0.1533990204334259,-2.774162769317627
1789324343216033800,15.75603369140625,-0.06795676052570343,-0.03474193811416626,-2.4901187419891357
1789324343234883600,15.774883544921876,0.1623326539993286,-0.031076854094862938,-2.0240423679351807
1789324343253733600,15.793733642578125,0.40728241205215454,0.31710609793663025,-1.6074445247650146
1789324343272583400,15.81258349609375,0.6015318632125854,0.6555918455123901,-1.1535850763320923
1789324343291433200,15.83143310546875,0.3871244490146637,0.4704287350177765,-0.5060105919837952
1789324343310283000,15.850282958984375,0.2820587158203125,0.13507360219955444,-0.03993413969874382
1789324343329132800,15.8691328125,0.2154763638973236,-0.0958266630768776,0.2563267946243286
1789324343347982800,15.88798291015625,0.1360662281513214,-0.16546325385570526,0.5244887471199036
1789324343366832600,15.90683251953125,0.11590826511383057,-0.022524992004036903,0.776157796382904
1789324343385682400,15.925682373046875,0.10430216789245605,-0.07017108052968979,1.0241618156433105
1789324343404532200,15.9445322265625,0.03955236077308655,-0.05123481526970863,1.2520078420639038
1789324343423382000,15.963382080078125,-0.06245913356542587,-0.22838051617145538,1.427320957183838
1789324343442232000,15.982232177734375,-0.17180079221725464,-0.47088688611984253,1.4358727931976318
1789324343461081900,16.001081787109374,-0.31534990668296814,-0.5130353569984436,1.4120497703552246
1789324343479931600,16.019931640625,-0.3568875193595886,-0.36215606331825256,1.4560308456420898
1789324343498781400,16.038781494140625,-0.24510246515274048,-0.09827005118131638,1.6282896995544434
1789324343517631200,16.05763134765625,0.028557108715176582,0.025731941685080528,1.8170415163040161
1789324343536481300,16.076481201171877,0.2851129472255707,0.07643226534128189,1.9227944612503052
1789324343555331000,16.0953310546875,0.3571929335594177,-0.1471378356218338,2.048018217086792
1789324343574180900,16.114180908203124,0.39201122522354126,-0.5313607454299927,2.2758641242980957
1789324343593030700,16.13303076171875,0.4518742561340332,-0.4855472147464752,2.556854009628296
1789324343611880400,16.15188037109375,0.49890950322151184,-0.5356366634368896,2.702235460281372
1789324343630730200,16.170730224609375,0.48791423439979553,-0.5008183717727661,2.721782684326172
1789324343649580000,16.189580078125,0.35169529914855957,-0.6266529560089111,2.7675962448120117
1789324343668430000,16.20843017578125,0.18371231853961945,-0.9497911334037781,2.854947328567505
1789324343687279900,16.22727978515625,-0.05268557742238045,-1.3028608560562134,2.6161060333251953
1789324343706129700,16.246129638671874,-0.1882936656475067,-1.1580899953842163,2.108492136001587
1789324343724979500,16.2649794921875,-0.00992626789957285,-0.26014456152915955,1.9008039236068726
1789324343743829200,16.283829345703126,0.12751436233520508,-0.20761170983314514,1.5103962421417236
1789324343762679000,16.302678955078125,0.23441264033317566,-0.25831204652786255,1.0883007049560547
1789324343781528800,16.32152880859375,0.2032594233751297,-0.48249298334121704,0.6338303685188293
1789324343800378600,16.340378662109377,0.14400723576545715,-0.12453648447990417,0.3754419982433319
1789324343819228700,16.359228759765625,-0.023364907130599022,0.06116108223795891,-0.014889402315020561
1789324343838078500,16.378078369140624,-0.15286453068256378,0.2468586415052414,-0.3074852526187897
1789324343856928300,16.39692822265625,-0.10827267915010452,0.36780640482902527,-0.732024073600769
1789324343875778000,16.415778076171875,-0.10827267915010452,0.5596888065338135,-1.2519314289093018
1789324343894627800,16.4346279296875,-0.07467607408761978,0.8547280430793762,-1.6410411596298218
1789324343913477600,16.4534775390625,-0.06551336497068405,1.078908920288086,-1.9275285005569458
1789324343932327400,16.472327392578126,-0.11499200016260147,1.0410364866256714,-2.325800895690918
1789324343951177200,16.49117724609375,-0.2848075330257416,0.8864920735359192,-2.6373331546783447
1789324343970027000,16.510027099609374,-0.5835118293762207,1.0031639337539673,-2.6593234539031982
1789324343988876800,16.528876708984374,-0.9225320816040039,1.0954018831253052,-2.452857255935669
1789324344007726600,16.5477265625,-1.1063971519470215,0.8828269839286804,-2.4601874351501465
1789324344026576600,16.56657666015625,-1.0752438306808472,0.7502731680870056,-2.5096659660339355
1789324344045426400,16.585426513671877,-0.9439117312431335,0.19676917791366577,-2.716132402420044
1789324344064276200,16.604276123046876,-0.672695517539978,-0.26075541973114014,-2.991013526916504
1789324344083126000,16.6231259765625,-0.23716144263744354,-0.8630508184432983,-3.224968194961548
1789324344101975800,16.641975830078124,0.18493400514125824,-0.6303179860115051,-3.138838529586792
1789324344120825600,16.66082568359375,0.2411319613456726,-0.2644205093383789,-2.68803334236145
1789324344139675400,16.67967529296875,0.12018419802188873,-0.3865899443626404,-2.1040632724761963
1789324344158525200,16.698525146484375,0.01572931744158268,-0.2674747407436371,-1.8640004396438599
1789324344177375000,16.717375,0.14156384766101837,0.33237725496292114,-1.5652960538864136
1789324344196224800,16.736224853515626,0.39201122522354126,0.36780640482902527,-0.9098569750785828
1789324344215074600,16.755074462890626,0.34192174673080444,0.1668376624584198,-0.3948363959789276
1789324344233924400,16.77392431640625,0.27350685000419617,0.33054471015930176,-0.08452598750591278
1789324344252774100,16.792774169921874,0.1385096162557602,0.12163496017456055,0.3082487881183624
1789324344271624000,16.8116240234375,-0.016034740954637527,-0.12575818598270416,0.6765896677970886
1789324344290473700,16.8304736328125,-0.0038177953101694584,-0.33527877926826477,0.9410865306854248
1789324344309323500,16.849323486328124,-0.008093725889921188,-0.4195757210254669,1.2275738716125488
1789324344328173300,16.86817333984375,-0.011147962883114815,-0.4385119676589966,1.534830093383789
1789324344347023000,16.887023193359376,0.021837789565324783,-0.2662530541419983,1.7693954706192017
1789324344365873000,16.905872802734375,0.05726693198084831,-0.2503710091114044,1.8231500387191772
1789324344384722700,16.92472265625,0.025502873584628105,-0.33466795086860657,1.7278578281402588
1789324344403572500,16.943572509765627,-0.004428642801940441,-0.3926984369754791,1.7785581350326538
1789324344422422300,16.96242236328125,0.18554484844207764,-0.10498937219381332,1.907523274421692
1789324344441272000,16.98127197265625,0.3382566571235657,0.1295759677886963,2.0822255611419678
1789324344460121900,17.000121826171874,0.3749074935913086,-0.2625879645347595,2.239213228225708
1789324344478971600,17.0189716796875,0.31626617908477783,-0.48127129673957825,2.3015198707580566
1789324344497821400,17.037821533203125,0.2716743052005768,-0.3707079291343689,2.3125150203704834
1789324344516671200,17.056671142578125,0.217308908700943,-0.5215871930122375,2.325342893600464
1789324344535520800,17.075520751953125,0.3358132839202881,-0.5344150066375732,2.3626043796539307
1789324344554370600,17.09437060546875,0.4628695249557495,-0.7127823829650879,2.445068836212158
1789324344573220400,17.113220458984376,0.3993414044380188,-1.1696960926055908,2.59167218208313
1789324344592070100,17.132070068359376,0.2026485800743103,-2.1801137924194336,2.5043210983276367
1789324344610920000,17.150919921875,0.06337540596723557,-1.8819440603256226,2.184847831726074
1789324344629769700,17.169769775390623,0.03588727489113808,-0.967505693435669,1.972883939743042
1789324344648619500,17.18861962890625,0.11651911586523056,-0.30656898021698,1.9967069625854492
1789324344667469300,17.20746923828125,0.1366770714521408,-0.3029038906097412,1.692428708076477
1789324344686319000,17.226319091796874,0.14278554916381836,-0.19783815741539001,1.164045810699463
1789324344705169000,17.2451689453125,0.16111096739768982,0.09170344471931458,0.6851415634155273
1789324344724018700,17.264018798828126,0.08842013776302338,0.47470468282699585,0.22822780907154083
1789324344742868500,17.282868408203125,0.14278554916381836,0.7911999225616455,-0.3447469174861908
1789324344761718300,17.30171826171875,0.22219568490982056,0.8724426031112671,-0.8524373769760132
1789324344780568000,17.320568115234376,0.2710634768009186,0.7991409301757812,-1.2885823249816895
1789324344799417600,17.33941748046875,0.25212720036506653,0.9353598356246948,-1.789476990699768
1789324344818267400,17.358267333984376,0.13056860864162445,0.9518527388572693,-2.065579891204834
1789324344837117200,17.3771171875,-0.04291202127933502,0.8443436026573181,-2.308086395263672
1789324344855967000,17.395967041015624,-0.2151709496974945,0.6519267559051514,-2.5273804664611816
1789324344874816800,17.414816650390627,-0.37948885560035706,0.6482616662979126,-2.739955425262451
1789324344893666600,17.43366650390625,-0.6012263894081116,0.5816792845726013,-2.699028730392456
1789324344912516400,17.452516357421874,-0.7276718020439148,0.8254073858261108,-2.6306138038635254
1789324344931366100,17.4713662109375,-0.6885775923728943,0.7667660117149353,-2.691087484359741
1789324344950215700,17.490215576171874,-0.6323796510696411,0.3342097997665405,-2.776606321334839
1789324344969065500,17.5090654296875,-0.5413633584976196,-0.2919086217880249,-2.8486862182617188
1789324344987915300,17.527915283203125,-0.40331190824508667,-0.4195757210254669,-2.9439783096313477
1789324345006765000,17.54676513671875,-0.07467607408761978,-0.4879906177520752,-3.1034095287323
1789324345025614800,17.56561474609375,0.2276933193206787,-0.3865899443626404,-3.0307185649871826
1789324345044464600,17.584464599609376,0.40483900904655457,-0.18012358248233795,-2.849297046661377
1789324345063314200,17.603314208984376,0.5227325558662415,-0.10193513333797455,-2.400935173034668
1789324345082164000,17.6221640625,0.4634803533554077,0.2987806797027588,-1.6666967868804932
1789324345101013800,17.641013671875,0.3718532621860504,0.34642675518989563,-1.203063726425171
1789324345119863600,17.659863525390627,0.2777827978134155,0.19860170781612396,-0.7613447308540344
1789324345138713300,17.67871337890625,0.26006820797920227,0.17477867007255554,-0.24762220680713654
1789324345157563000,17.69756298828125,0.10491301864385605,0.2969481348991394,0.12194038182497025
1789324345176412700,17.71641259765625,0.05360184609889984,0.1802763044834137,0.4163687527179718
1789324345195262500,17.735262451171874,0.07314895838499069,-0.08605311065912247,0.8164737224578857
1789324345214112300,17.7541123046875,0.11407572776079178,-0.07200361788272858,1.2098593711853027
1789324345232962000,17.772962158203125,0.1501157134771347,-0.15141376852989197,1.5458253622055054
1789324345251811800,17.791811767578125,0.13240113854408264,-0.20516832172870636,1.7761147022247314
1789324345270661400,17.810661376953124,0.03649812191724777,-0.2937411665916443,1.9362330436706543
1789324345289511200,17.82951123046875,-0.0050394898280501366,-0.3694862425327301,2.013199806213379
1789324345308361000,17.84836083984375,-0.049020491540431976,-0.27236151695251465,1.9722731113433838
1789324345327210800,17.867210693359375,0.023059483617544174,0.017180079594254494,1.9832683801651
1789324345346060300,17.886060302734375,0.2435753494501114,0.141182079911232,2.1426994800567627
1789324345364910000,17.90491015625,0.5282301902770996,0.006184828467667103,2.445068836212158
1789324345383760000,17.923759765625,0.6723901033401489,-0.1721825748682022,2.5873963832855225
1789324345402609700,17.942609619140626,0.6711684465408325,-0.2656421959400177,2.6161060333251953
1789324345421459500,17.96145947265625,0.6626165509223938,-0.6590278148651123,2.7462165355682373
1789324345440309000,17.98030908203125,0.556939959526062,-0.722555935382843,2.6258797645568848
1789324345459158800,17.99915869140625,0.453095942735672,-1.0664629936218262,2.3797082901000977
1789324345478008600,18.018008544921877,0.2276933193206787,-1.518489956855774,2.279529333114624
1789324345496858400,18.0368583984375,0.08964183181524277,-1.4616811275482178,2.099940061569214
1789324345515708000,18.0557080078125,0.03771981969475746,-1.1501489877700806,2.0645110607147217
1789324345534557700,18.0745576171875,-0.1113269105553627,-0.7378271222114563,1.9624994993209839
1789324345553407500,18.093407470703124,-0.1785201132297516,-0.3725404739379883,1.6062992811203003
1789324345572257300,18.11225732421875,-0.00015271181473508477,-0.0817771777510643,1.3851724863052368
1789324345600531700,18.14053173828125,0.2912214398384094,0.31710609793663025,0.5690805912017822
1789324345619381500,18.159381591796876,0.25029465556144714,0.5584670901298523,0.07246175408363342
1789324345638231300,18.178231201171876,0.23991025984287262,0.575570821762085,-0.4510343372821808
1789324345657080800,18.197080810546876,0.21425467729568481,0.5737382769584656,-0.9153546094894409
1789324345675930600,18.2159306640625,0.10613471269607544,0.34398335218429565,-1.2421579360961914
1789324345694780400,18.234780517578123,-0.05329642444849014,0.4130091071128845,-1.4968812465667725
1789324345713630200,18.253630126953126,-0.22250111401081085,0.6055023670196533,-1.6611990928649902
1789324345732479700,18.272479736328126,-0.3061871826648712,1.0056072473526,-1.7228946685791016
1789324345751329500,18.29132958984375,-0.40575528144836426,1.1827529668807983,-1.8939319849014282
1789324345770179000,18.310178955078126,-0.47539186477661133,1.259719729423523,-2.1016199588775635
1789324345789028900,18.32902880859375,-0.6189410090446472,1.4148749113082886,-2.212794303894043
1789324345807878700,18.347878662109373,-0.7893673777580261,1.3818892240524292,-2.2030205726623535
1789324345826728200,18.366728271484376,-0.9506310224533081,1.2377293109893799,-2.2665488719940186
1789324345845578000,18.385577880859376,-1.094791054725647,0.6641436815261841,-2.522493839263916
1789324345864427800,18.404427734375,-1.2334532737731934,0.013514995574951172,-2.802872657775879
1789324345883277300,18.42327734375,-1.1625950336456299,-0.10376767814159393,-3.173046112060547
1789324345902127000,18.442127197265624,-0.8131904006004333,-0.16485241055488586,-3.443040609359741
1789324345930401800,18.47040185546875,-0.049020491540431976,0.2725142240524292,-3.084473133087158
1789324345949251300,18.489251220703125,0.07314895838499069,0.37147149443626404,-2.4772911071777344
1789324345968101000,18.50810107421875,-0.08383878320455551,0.26457321643829346,-1.9214200973510742
1789324345986951000,18.526950927734376,-0.03008422814309597,0.0293970238417387,-1.7106777429580688
1789324346005800400,18.545800537109375,0.3180987238883972,-0.20944425463676453,-1.4382398128509521
1789324346024650200,18.564650146484375,0.4634803533554077,-0.09338327497243881,-0.8585458397865295
1789324346043500000,18.5835,0.3865135908126831,0.1533990204334259,-0.3459686040878296
1789324346062349600,18.602349609375,0.37857258319854736,-0.059175826609134674,-0.014278554357588291
1789324346081199400,18.621199462890626,0.29061058163642883,-0.08299887180328369,0.46218231320381165
1789324346100049000,18.640048828125,0.19654010236263275,-0.2558686435222626,0.9942302703857422
1789324346118898700,18.658898681640625,0.1623326539993286,-0.19722731411457062,1.3509650230407715
1789324346137748500,18.67774853515625,0.22341738641262054,0.00129805039614439,1.4877948760986328
1789324346156598000,18.696597900390625,0.24846212565898895,0.03489464893937111,1.452365756034851
1789324346175447800,18.71544775390625,0.17943638563156128,0.07276718318462372,1.4511439800262451
1789324346194297300,18.73429736328125,0.01572931744158268,-0.011529741808772087,1.5439927577972412
1789324346213147100,18.753147216796876,-0.11377029865980148,0.023288551717996597,1.6203486919403076
1789324346231997000,18.771996826171875,-0.21211670339107513,-0.12453648447990417,1.7076998949050903
1789324346250846500,18.790846435546875,-0.18462859094142914,-0.2008923888206482,1.8518598079681396
1789324346269696300,18.8096962890625,-0.05085303261876106,-0.20944425463676453,1.930735468864441
1789324346288545800,18.8285458984375,0.09391776472330093,-0.028633465990424156,1.9276812076568604
1789324346307395600,18.8473955078125,0.18249061703681946,0.019623467698693275,1.9967069625854492
1789324346326245000,18.8662451171875,0.4121691882610321,-0.2613662779331207,2.215390205383301
1789324346345095000,18.885094970703125,0.5960342288017273,-0.5771743059158325,2.319845199584961
1789324346363944700,18.90394482421875,0.44576579332351685,-0.8459470868110657,2.1738526821136475
1789324346382794200,18.922794189453125,0.24846212565898895,-0.9662840366363525,2.0376336574554443
1789324346401644000,18.94164404296875,0.10735640674829483,-1.1086114645004272,2.0993292331695557
1789324346420493600,18.96049365234375,-0.0459662564098835,-1.3297381401062012,2.198286533355713
1789324346439343400,18.97934326171875,-0.09422318637371063,-1.3419550657272339,2.073673725128174
1789324346458193000,18.99819287109375,-0.04840964451432228,-0.9693382382392883,2.0816147327423096
1789324346477042700,19.017042724609375,0.011453386396169662,-0.6284855008125305,2.154916524887085
1789324346495892500,19.035892578125,0.07314895838499069,-0.4232407808303833,1.9056907892227173
1789324346514742000,19.054741943359375,0.10430216789245605,-0.27358320355415344,1.3992220163345337
1789324346533591800,19.073591796875,0.10979979485273361,-0.21921780705451965,0.8421292901039124
1789324346552441300,19.09244140625,0.09513945877552032,-0.06345175951719284,0.4285857081413269
1789324346571291100,19.111291015625,0.06826218217611313,0.16072918474674225,0.0064902519807219505
1789324346599565600,19.139565673828123,0.004734066314995289,0.5816792845726013,-0.5396072268486023
1789324346618415400,19.158415283203126,-0.05329642444849014,0.7820371985435486,-0.8805363178253174
1789324346637265000,19.177264892578126,-0.08078455179929733,0.9738432168960571,-1.3185137510299683
1789324346656114700,19.19611474609375,-0.13270656764507294,1.2169604301452637,-1.8346797227859497
1789324346674964200,19.214964111328126,-0.2029540091753006,1.5284925699234009,-2.259218692779541
1789324346693813800,19.233813720703125,-0.4155288338661194,1.421594262123108,-2.4779019355773926
1789324346712663600,19.25266357421875,-0.6085565686225891,1.238340139389038,-2.670318841934204
1789324346731513000,19.27151318359375,-0.8364025950431824,0.8315158486366272,-2.7472856044769287
1789324346750363000,19.29036279296875,-1.118003249168396,0.6006155610084534,-2.797374963760376
1789324346769212400,19.30921240234375,-1.2530004978179932,0.2847311794757843,-3.03804874420166
1789324346788062200,19.328062255859376,-1.1766445636749268,-0.024968381971120834,-3.124789237976074
1789324346806911700,19.346911865234375,-0.7484406232833862,-0.23143476247787476,-3.074699640274048
1789324346835186400,19.3751865234375,-0.12965233623981476,-0.30962321162223816,-2.9806292057037354
1789324346854036000,19.394035888671876,0.06276455521583557,-0.29862794280052185,-2.8486862182617188
1789324346872885800,19.4128857421875,0.18371231853961945,-0.20761170983314514,-2.579913377761841
1789324346891735300,19.4317353515625,0.21364383399486542,-0.13797512650489807,-2.079629421234131
1789324346910585000,19.450585205078124,0.2148655205965042,0.04527905210852623,-1.5194826126098633
1789324346929434600,19.4694345703125,0.2154763638973236,0.10392039269208908,-1.101052165031433
1789324346948284200,19.4882841796875,0.32542887330055237,0.1668376624584198,-0.704535961151123
1789324346967134000,19.507134033203126,0.36757734417915344,0.2560213506221771,-0.29771167039871216
1789324346985983500,19.5259833984375,0.28572380542755127,0.24930204451084137,0.057801421731710434
1789324347004833300,19.544833251953126,0.20631365478038788,0.10392039269208908,0.49028128385543823
1789324347033107700,19.573107666015623,0.19531841576099396,-0.017027366906404495,1.0577583312988281
1789324347051957200,19.591957275390627,0.15683503448963165,0.07337802648544312,1.322255253791809
1789324347070807000,19.61080712890625,0.06459710001945496,-0.05184566229581833,1.4511439800262451
1789324347099081500,19.63908154296875,-0.09239064902067184,-0.3071798086166382,1.4236558675765991
1789324347117931000,19.657930908203124,-0.11865708231925964,-0.39147675037384033,1.4725236892700195
1789324347136780800,19.67678076171875,-0.072232685983181,-0.3187859058380127,1.6282896995544434
1789324347155630300,19.69563037109375,0.004734066314995289,-0.173404261469841,1.8329235315322876
1789324347174480000,19.71447998046875,0.02489202655851841,-0.04695888236165047,1.9063016176223755
1789324347193329700,19.73332958984375,0.06642963737249374,-0.04879142343997955,1.9270703792572021
1789324347212179200,19.75217919921875,0.10185877978801727,-0.07627955079078674,2.0235843658447266
1789324347231029000,19.771029052734374,0.19959434866905212,-0.32306185364723206,2.1158220767974854
1789324347249878500,19.78987841796875,0.36818817257881165,-0.41468894481658936,2.181182861328125
1789324347268728300,19.808728271484377,0.4549284875392914,-0.6535302400588989,2.1976757049560547
1789324347287577900,19.827577880859376,0.45920443534851074,-0.7353837490081787,2.2373807430267334
1789324347306427400,19.846427490234376,0.42133188247680664,-0.9332982301712036,2.2721991539001465
1789324347325277200,19.865277099609376,0.28572380542755127,-1.2069578170776367,2.3705453872680664
1789324347344126700,19.884126708984375,0.08842013776302338,-1.6840295791625977,2.274031639099121
1789324347362976300,19.902976318359375,-0.06062658876180649,-1.5801855325698853,1.9386764764785767
1789324347381826000,19.921825927734375,-0.045355409383773804,-0.7873057723045349,1.812154769897461
1789324347400675600,19.940675537109374,0.07498150318861008,-0.33772218227386475,1.9148534536361694
1789324347419525000,19.959525146484374,0.1892099380493164,-0.2680855989456177,1.6521127223968506
1789324347438375000,19.978375,0.27411770820617676,-0.017027366906404495,1.193366527557373
1789324347457224400,19.997224365234374,0.3095468580722809,0.3537569046020508,0.807921826839447
1789324347476074200,20.01607421875,0.3327590525150299,0.37208232283592224,0.36994436383247375
1789324347494923800,20.034923828125,0.28572380542755127,0.2584647536277771,-0.0942995473742485
1789324347513773300,20.053773193359376,0.2667875289916992,0.23830679059028625,-0.5444939732551575
1789324347532623000,20.072623046875,0.12018419802188873,0.39590537548065186,-0.8347227573394775
1789324347551472600,20.09147265625,0.04810422286391258,0.3671955466270447,-1.1334271430969238
1789324347570322200,20.110322265625,-0.07101099193096161,0.6586460471153259,-1.4614521265029907
1789324347589172000,20.129171875,-0.12659808993339539,0.9182561635971069,-1.7986397743225098
1789324347608021500,20.148021484375,-0.2530434727668762,1.4136532545089722,-2.135216474533081
1789324347626871000,20.16687109375,-0.4491254389286041,1.417318344116211,-2.5273804664611816
1789324347645720800,20.185720947265626,-0.5529694557189941,1.4527474641799927,-2.7356793880462646
1789324347664570400,20.2045703125,-0.807081937789917,1.1546540260314941,-2.788823127746582
1789324347683420000,20.223419921875,-1.1699252128601074,0.7502731680870056,-2.7839365005493164
1789324347702269400,20.24226953125,-1.3098092079162598,0.21509459614753723,-2.8767852783203125
1789324347721119200,20.261119140625,-1.21818208694458,-0.0426829531788826,-2.9091601371765137
1789324347739968800,20.27996875,-0.8192988634109497,-0.23326729238033295,-2.857848882675171
1789324347758818300,20.298818359375,-0.4228590130805969,-0.120871402323246,-2.7179648876190186
1789324347777668000,20.317668212890624,-0.23655059933662415,-0.18134528398513794,-2.5591444969177246
1789324347796517600,20.336517578125,-0.13392825424671173,-0.22899135947227478,-2.369171142578125
1789324347815367200,20.3553671875,0.007788302376866341,-0.24548424780368805,-2.0692451000213623
1789324347834217000,20.374217041015626,0.2698417901992798,-0.03901786729693413,-1.6801353693008423
1789324347853066500,20.39306640625,0.3761292099952698,0.24258272349834442,-1.178629755973816
1789324347871916000,20.411916015625,0.3242071866989136,0.3794125020503998,-0.7662315368652344
1789324347890765600,20.430765625,0.3095468580722809,0.3219928741455078,-0.45714282989501953
1789324347909615400,20.449615478515625,0.21853061020374298,0.08376242965459824,-0.0552053228020668
1789324347928465000,20.46846484375,0.15805672109127045,0.030007870867848396,0.35406234860420227
1789324347947314400,20.487314453125,0.2166980654001236,0.02023431472480297,0.6026771664619446
1789324347966164000,20.5061640625,0.266176700592041,0.06116108223795891,0.831744909286499
1789324347985013800,20.525013671875,0.22708246111869812,-0.1727934181690216,1.2074159383773804
1789324348003863300,20.54386328125,0.17149536311626434,-0.2131093442440033,1.4713020324707031
1789324348022712800,20.562712890625,0.15927842259407043,-0.5344150066375732,1.4358727931976318
1789324348041562400,20.581562255859374,0.09391776472330093,-0.28702184557914734,1.4633609056472778
1789324348060412200,20.600412109375,0.03894151374697685,-0.16607409715652466,1.6398957967758179
1789324348079261700,20.61926171875,0.08170082420110703,-0.05795413255691528,1.7577893733978271
1789324348098111200,20.638111328125,0.1623326539993286,-0.15202461183071136,1.7779473066329956
1789324348116960800,20.656960693359373,0.3089359998703003,-0.2674747407436371,1.8158198595046997
1789324348135810600,20.675810546875,0.44454410672187805,-0.2638096511363983,1.9655537605285645
1789324348154660000,20.69466015625,0.5972558856010437,-0.36459946632385254,2.184847831726074
1789324348173509600,20.713509521484376,0.7463026642799377,-0.5356366634368896,2.3192343711853027
1789324348192359200,20.732359130859376,0.7585195899009705,-0.7121715545654297,2.369934558868408
1789324348211209000,20.751208984375,0.5917583107948303,-0.6785749197006226,2.4200241565704346
1789324348230058500,20.77005859375,0.4140017330646515,-0.6284855008125305,2.394979476928711
1789324348248908000,20.788907958984375,0.27350685000419617,-0.6229878664016724,2.3125150203704834
1789324348267757600,20.807757568359374,0.14828316867351532,-0.7530983090400696,2.2630364894866943
1789324348286607000,20.826607177734374,0.05360184609889984,-0.9229138493537903,2.265479803085327
1789324348305456600,20.84545654296875,-0.024586603045463562,-1.0670738220214844,2.022362470626831
1789324348324306400,20.864306396484373,-0.08689302206039429,-0.8923714756965637,1.6887636184692383
1789324348343156000,20.883156005859377,0.029167955741286278,-0.4617241621017456,1.368068814277649
1789324348362005500,20.902005615234376,0.19226416945457458,-0.12636902928352356,0.9881218075752258
1789324348380855000,20.92085498046875,0.2588465213775635,0.0623827762901783,0.5586961507797241
1789324348399704800,20.939704833984376,0.2289150059223175,0.12224581092596054,0.07918107509613037
1789324348418554400,20.958554443359375,0.13301199674606323,0.16439427435398102,-0.35085538029670715
1789324348437404000,20.97740380859375,0.14156384766101837,0.2566322088241577,-0.7619556188583374
1789324348456253400,20.99625341796875,0.09575030952692032,0.47775891423225403,-0.9721634387969971
1789324348475103000,21.01510302734375,0.007177455350756645,0.6714738607406616,-1.1719105243682861
1789324348493952500,21.033952392578126,-0.17424418032169342,0.8119687438011169,-1.3673815727233887
1789324348512802000,21.052802001953125,-0.31168481707572937,0.9396358132362366,-1.6856330633163452
1789324348531651800,21.07165185546875,-0.36971530318260193,1.2175712585449219,-2.0466437339782715
1789324348550501400,21.09050146484375,-0.44729289412498474,1.380056619644165,-2.25311017036438
1789324348569351000,21.109350830078125,-0.5969504714012146,1.4906200170516968,-2.3538999557495117
1789324348588200400,21.128200439453124,-0.8455653190612793,1.3470709323883057,-2.424147367477417
1789324348607050000,21.147050048828124,-1.1351069211959839,1.0233218669891357,-2.5127201080322266
1789324348625899500,21.1658994140625,-1.2853753566741943,0.6152759194374084,-2.640998125076294
1789324348644749300,21.184749267578123,-1.3372973203659058,0.1283542811870575,-2.924431324005127
1789324348663598800,21.203598876953127,-1.2578872442245483,-0.23204560577869415,-3.1284542083740234
1789324348682448400,21.222448486328126,-0.8993198871612549,-0.3419981002807617,-3.2390174865722656
1789324348701298000,21.2412978515625,-0.4130854606628418,-0.1862320601940155,-3.022777557373047
1789324348720147500,21.2601474609375,-0.3220692276954651,-0.053678203374147415,-2.465074062347412
1789324348738997000,21.2789970703125,-0.30985227227211,-0.1599656194448471,-1.904927134513855
1789324348757846500,21.297846435546877,-0.13331741094589233,-0.0035887276753783226,-1.679524540901184
1789324348776696000,21.316696044921876,0.10552386194467545,0.41056570410728455,-1.5048222541809082
1789324348795545900,21.3355458984375,0.28633466362953186,0.43499961495399475,-1.113879919052124
1789324348814395400,21.3543955078125,0.39140036702156067,0.15584240853786469,-0.5597651600837708
1789324348833245000,21.373244873046875,0.29916244745254517,0.16500511765480042,-0.12362021207809448
1789324348852094500,21.392094482421875,0.1647760421037674,0.15156647562980652,0.2844257652759552
1789324348870944000,21.410944091796875,0.18187977373600006,0.11369394510984421,0.6521558165550232
1789324348889793500,21.42979345703125,0.20875705778598785,0.07276718318462372,0.9795699119567871
1789324348908643000,21.44864306640625,0.22524993121623993,0.05566345527768135,1.2489535808563232
1789324348927492600,21.46749267578125,0.2429644912481308,-0.05306735634803772,1.4383162260055542
1789324348946342100,21.486342041015625,0.26251161098480225,-0.17829103767871857,1.5232239961624146
1789324348965191700,21.505191650390625,0.30099499225616455,-0.4110238552093506,1.5610965490341187
1789324348984041200,21.524041259765625,0.21791976690292358,-0.2796916961669922,1.5861412286758423
1789324349002891000,21.54289111328125,0.0859767496585846,-0.10926530510187149,1.6234029531478882
1789324349021740500,21.561740478515624,0.005344913341104984,-0.11476293206214905,1.7229710817337036
1789324349040590000,21.580590087890624,0.09086353331804276,-0.26991814374923706,1.867130994796753
1789324349059439600,21.599439697265623,0.2673983871936798,-0.3542150557041168,1.8965280055999756
1789324349078289200,21.6182890625,0.4115583300590515,-0.33894386887550354,1.9020256996154785
1789324349097138700,21.637138671875,0.4384356141090393,-0.3798706531524658,1.9484500885009766
1789324349115988200,21.65598828125,0.4225535988807678,-0.643756628036499,2.0608458518981934
1789324349134837800,21.674837646484374,0.43293800950050354,-0.8068528771400452,2.138423442840576
1789324349153687300,21.693687255859373,0.4378247857093811,-0.7158366441726685,2.148808002471924
1789324349172536800,21.712536865234377,0.4017847776412964,-0.8410603404045105,2.198897361755371
1789324349191386400,21.731386474609376,0.2435753494501114,-1.2753727436065674,2.1475863456726074
1789324349210236000,21.75023583984375,0.033443886786699295,-1.5612492561340332,1.9234052896499634
1789324349229085400,21.76908544921875,-0.10949437320232391,-1.1544249057769775,1.8335343599319458
1789324349247935000,21.78793505859375,-0.017867282032966614,-0.49532076716423035,1.663107991218567
1789324349266784500,21.806784423828127,0.13423368334770203,-0.4623350203037262,1.4438138008117676
1789324349285634000,21.825634033203126,0.20814619958400726,-0.6413132548332214,0.9710180759429932
1789324349304483800,21.84448388671875,0.1256818175315857,-0.4501180648803711,0.8109760880470276
1789324349323333400,21.86333349609375,0.10796725004911423,-0.24670593440532684,0.7694385051727295
1789324349342183000,21.882182861328126,0.08353336155414581,-0.12026055157184601,0.5599178671836853
1789324349361032400,21.901032470703125,-0.03497100621461868,0.1668376624584198,0.1530935913324356
1789324349379882000,21.919882080078125,-0.06245913356542587,0.30733251571655273,-0.30870693922042847
1789324349398731500,21.9387314453125,-0.10399674624204636,0.7423321604728699,-0.6739935874938965
1789324349417581000,21.9575810546875,-0.1498102843761444,0.9982771277427673,-1.090667724609375
1789324349436430600,21.9764306640625,-0.10521844029426575,1.4136532545089722,-1.5891191959381104
1789324349455280000,21.995280029296875,-0.17118994891643524,1.4478607177734375,-2.094900608062744
1789324349474129700,22.014129638671875,-0.34161633253097534,1.3195828199386597,-2.4351425170898438
1789324349492979200,22.032979248046875,-0.6329904794692993,1.002553105354309,-2.542651653289795
1789324349511828700,22.051828857421874,-0.9555178284645081,0.7759287357330322,-2.407043695449829
1789324349530678300,22.07067822265625,-1.1406044960021973,0.5327351689338684,-2.4168171882629395
1789324349549527800,22.08952783203125,-1.1558756828308105,0.3201603293418884,-2.519439458847046
1789324349568377300,22.10837744140625,-0.9817842841148376,0.11186140775680542,-2.744842052459717
1789324349587227000,22.127226806640625,-0.7893673777580261,0.01046075951308012,-2.876174211502075
1789324349606076400,22.146076416015624,-0.5627430081367493,-0.3664320111274719,-2.941534996032715
1789324349624926000,22.164926025390624,-0.2793098986148834,-0.4886014461517334,-2.938480854034424
1789324349643775500,22.183775390625,-0.016034740954637527,-0.39147675037384033,-2.8718984127044678
1789324349662625000,22.202625,0.14034216105937958,-0.19722731411457062,-2.612288236618042
1789324349681474600,22.221474609375,0.14645062386989594,-0.20761170983314514,-2.025264024734497
1789324349700324000,22.240323974609375,0.21303297579288483,-0.05856497958302498,-1.5726262331008911
1789324349719173600,22.259173583984374,0.38162681460380554,0.24319356679916382,-1.2342169284820557
1789324349738023200,22.278023193359374,0.5288410186767578,0.17233528196811676,-0.7796701788902283
1789324349756872700,22.296872802734374,0.49646610021591187,0.14545799791812897,-0.36123979091644287
1789324349775722000,22.315721923828125,0.43415969610214233,0.1014770045876503,0.007711946498602629
1789324349794571500,22.334571533203125,0.3174878656864166,0.056274302303791046,0.3406237065792084
1789324349813421000,22.353421142578124,0.3486410677433014,-0.20333577692508698,0.6912500262260437
1789324349832270600,22.3722705078125,0.3633013963699341,-0.1465269923210144,0.9954519867897034
1789324349851120000,22.3911201171875,0.2948864996433258,-0.26991814374923706,1.2404017448425293
1789324349869969700,22.4099697265625,0.19287502765655518,-0.22166119515895844,1.3082057237625122
1789324349888819200,22.428819091796875,0.07925742864608765,-0.43973368406295776,1.3601278066635132
1789324349907668700,22.447668701171875,-0.016034740954637527,-0.4073587656021118,1.503066062927246
1789324349926518300,22.466518310546874,-0.03008422814309597,-0.4855472147464752,1.636230707168579
1789324349945367800,22.485367919921874,0.09636115282773972,-0.16363070905208588,1.6844877004623413
1789324349964217300,22.50421728515625,0.17882554233074188,-0.004810422193259001,1.7944401502609253
1789324349983067000,22.52306689453125,0.28633466362953186,-0.07505785673856735,2.0412988662719727
1789324350001916400,22.54191650390625,0.4628695249557495,-0.3444415032863617,2.259982109069824
1789324350020766000,22.560765869140624,0.6412369012832642,-0.30901235342025757,2.3821516036987305
1789324350039615500,22.579615478515624,0.7310314774513245,-0.29801711440086365,2.493936538696289
1789324350058464800,22.59846484375,0.6473453640937805,-0.5325824618339539,2.556854009628296
1789324350077314300,22.617314208984375,0.5013529062271118,-0.7934142351150513,2.458507537841797
1789324350096163800,22.636163818359375,0.43232715129852295,-0.8355627059936523,2.3797082901000977
1789324350115013400,22.655013427734374,0.34314343333244324,-1.1263259649276733,2.3827624320983887
1789324350133863000,22.67386279296875,0.15744587779045105,-1.5704119205474854,2.31679105758667
1789324350152712400,22.69271240234375,-0.008093725889921188,-1.4818390607833862,2.068176031112671
1789324350171562000,22.71156201171875,-0.11560284346342087,-0.8551098108291626,1.7907750606536865
1789324350190411500,22.73041162109375,-0.008093725889921188,-0.226547971367836,1.502455234527588
1789324350209261000,22.749260986328125,0.18371231853961945,-0.1990598440170288,1.2171895503997803
1789324350228110600,22.768110595703124,0.2985515892505646,-0.1477486789226532,0.9239828586578369
1789324350246960000,22.786960205078124,0.30404922366142273,0.18333053588867188,0.4719558656215668
1789324350275234300,22.815234375,0.1372879147529602,0.35864371061325073,-0.14316733181476593
1789324350294083800,22.834083740234377,0.0065666078589856625,0.39468368887901306,-0.5035672187805176
1789324350312933400,22.852933349609376,-0.072232685983181,0.39346200227737427,-0.9220739603042603
1789324350331783000,22.871782958984376,-0.15714046359062195,0.705070436000824,-1.1987876892089844
1789324350350632400,22.890632568359376,-0.21028417348861694,1.112505555152893,-1.3679924011230469
1789324350369481700,22.909481689453123,-0.279920756816864,1.3556227684020996,-1.6385977268218994
1789324350388331300,22.928331298828127,-0.28786176443099976,1.3763915300369263,-2.0112144947052
1789324350407180800,22.947180908203126,-0.3978142738342285,1.5407094955444336,-2.2989237308502197
1789324350426030300,22.9660302734375,-0.6598677635192871,1.4612993001937866,-2.450413703918457
1789324350444880000,22.9848798828125,-1.0550858974456787,1.2536113262176514,-2.487675428390503
1789324350463729400,23.0037294921875,-1.3110309839248657,0.8235748410224915,-2.5939629077911377
1789324350482579000,23.022578857421873,-1.4625210762023926,0.3268796503543854,-2.8370800018310547
1789324350501428500,23.041428466796877,-1.3617312908172607,-0.22960221767425537,-3.051487445831299
1789324350520277800,23.06027783203125,-1.0868499279022217,-0.31206658482551575,-3.0655369758605957
1789324350548552200,23.08855224609375,-0.4540122151374817,0.06055023521184921,-2.852351188659668
1789324350567401500,23.1074013671875,-0.35322242975234985,0.022677704691886902,-2.589686870574951
1789324350586251000,23.1262509765625,-0.40819868445396423,-0.11354123055934906,-2.2317304611206055
1789324350605100500,23.1451005859375,-0.2011214643716812,0.02817532978951931,-1.9232525825500488
1789324350623950000,23.1639501953125,0.4164451062679291,0.35436776280403137,-1.5897300243377686
1789324350642799600,23.182799560546876,0.6430694460868835,0.38124504685401917,-1.0619579553604126
1789324350661649200,23.201649169921875,0.455539345741272,0.3366532027721405,-0.5909183621406555
1789324350680498700,23.220498779296875,0.24662958085536957,0.08742751181125641,-0.2525089979171753
1789324350699348000,23.239347900390626,0.018783552572131157,0.036727190017700195,0.04680617153644562
1789324350718197500,23.258197509765626,0.023059483617544174,0.22914408147335052,0.42186638712882996
1789324350737047000,23.277047119140626,0.026724567636847496,0.13873867690563202,0.7651625275611877
1789324350755896600,23.295896484375,0.05360184609889984,0.09720107167959213,0.9954519867897034
1789324350774746000,23.31474609375,0.0719272643327713,-0.12881241738796234,1.1799278259277344
1789324350793595400,23.333595458984377,0.0859767496585846,-0.05795413255691528,1.395556926727295
1789324350812445000,23.35244482421875,0.03405473381280899,-0.20333577692508698,1.5800328254699707
1789324350831294500,23.37129443359375,-0.010537114925682545,-0.3187859058380127,1.6490585803985596
1789324350850144000,23.39014404296875,-0.024586603045463562,-0.4446204602718353,1.5904171466827393
1789324350868993500,23.40899365234375,0.01695101149380207,-0.27358320355415344,1.6105751991271973
1789324350887843000,23.427843017578127,0.04504998400807381,-0.26930728554725647,1.764508605003357
1789324350906692600,23.446692626953126,0.18065807223320007,-0.25953373312950134,1.926459550857544
1789324350925542000,23.4655419921875,0.34131091833114624,-0.2558686435222626,2.0431313514709473
1789324350944391400,23.484391357421874,0.4121691882610321,-0.3145099878311157,2.233104944229126
1789324350963241000,23.503240966796874,0.48669254779815674,-0.5942780375480652,2.424299955368042
1789324350982090500,23.522090576171873,0.5954233407974243,-0.852055549621582,2.493325710296631
1789324351000939800,23.540939697265625,0.585038959980011,-0.8184589743614197,2.4517881870269775
1789324351019789300,23.559789306640624,0.530062735080719,-0.852055549621582,2.390092611312866
1789324351038638800,23.578638916015624,0.4653128981590271,-1.0090433359146118,2.2783076763153076
1789324351057488400,23.59748828125,0.27656111121177673,-1.2112337350845337,2.195232391357422
1789324351076338000,23.616337890625,0.062153708189725876,-1.304693341255188,2.213557720184326
1789324351095187200,23.635187255859375,0.05115845799446106,-1.0548568964004517,2.120098114013672
1789324351114036700,23.65403662109375,0.1122431829571724,-0.7353837490081787,1.6850985288619995
1789324351132886300,23.67288623046875,0.12690351903438568,-0.3285594582557678,1.2617813348770142
1789324351151735800,23.69173583984375,0.06276455521583557,-0.03352024406194687,0.863508939743042
1789324351170585300,23.71058544921875,0.05665608495473862,0.13507360219955444,0.4585172235965729
1789324351189434600,23.7294345703125,0.09697200357913971,0.38552096486091614,0.17386239767074585
1789324351208284200,23.7482841796875,0.13484452664852142,0.4802022874355316,-0.2799971103668213
1789324351227133700,23.7671337890625,0.10002623498439789,0.5590779781341553,-0.736299991607666
