time,seconds_elapsed,z,y,x
1789322875484164600,0.19816455078125,0.7348492741584778,1.7843612432479858,0.3970507085323334
1789322875503014700,0.2170146484375,1.1306782960891724,0.6963658928871155,0.4605788290500641
1789322875521864700,0.23586474609375,0.8747332692146301,0.08796200156211853,0.6444438695907593
1789322875540714800,0.25471484375,0.30725616216659546,-0.025655584409832954,0.8588512539863586
1789322875559564800,0.273564697265625,-0.15332266688346863,-0.5100574493408203,0.9413156509399414
1789322875578414800,0.292414794921875,-0.40193748474121094,-1.0524898767471313,0.5399889945983887
1789322875597265000,0.311264892578125,-0.5418215394020081,-0.7605048418045044,0.10140064358711243
1789322875616115000,0.330114990234375,-0.5986303091049194,-0.37567105889320374,-0.0024433890357613564
1789322875634965000,0.348965087890625,-0.4227063059806824,-0.10811996459960938,0.0397050715982914
1789322875653815000,0.36781494140625,-0.08612946420907974,-0.291374146938324,-0.25472331047058105
1789322875672665000,0.3866650390625,0.22479179501533508,-0.4837910234928131,-0.4300364851951599
1789322875710365400,0.424365478515625,0.3536805510520935,-2.1575889587402344,0.7183563709259033
1789322875729215500,0.443215576171875,0.5454866290092468,-1.5864466428756714,1.2522368431091309
1789322875748065500,0.4620654296875,0.42392799258232117,-0.7452336549758911,0.9852966070175171
1789322875766915600,0.48091552734375,0.4086568057537079,-0.3683409094810486,0.5760289430618286
1789322875785765600,0.499765625,0.1453816443681717,-0.27854636311531067,0.1979145109653473
1789322875804615700,0.51861572265625,-0.05070032179355621,-0.4819584786891937,-0.0397050715982914
1789322875823465700,0.5374658203125,-0.22601348161697388,-0.6639909744262695,-0.22479179501533508
1789322875851741000,0.565740966796875,-0.45324867963790894,0.08246438205242157,-0.4355340898036957
1789322875870591000,0.584591064453125,-0.19180603325366974,1.090362310409546,-0.43797749280929565
1789322875889441000,0.60344091796875,-0.1429382562637329,0.20035789906978607,-0.14110571146011353
1789322875908291000,0.622291015625,-0.3762819170951843,-1.077534556388855,0.37200596928596497
1789322875927141000,0.64114111328125,-0.5277720093727112,-1.3921972513198853,0.6835380792617798
1789322875945991200,0.6599912109375,-0.6218425035476685,-0.8130376935005188,0.527161180973053
1789322875964841200,0.67884130859375,-0.3939964771270752,-0.15515519678592682,0.14171656966209412
1789322875983691300,0.697691162109375,-0.2357870489358902,0.856407880783081,-0.41415444016456604
1789322876002541300,0.716541259765625,-0.18691925704479218,1.5925551652908325,-0.7488987445831299
1789322876021391400,0.735391357421875,-0.10934165865182877,1.9535658359527588,-0.3042019307613373
1789322876040241400,0.754241455078125,0.3939964771270752,1.7831394672393799,0.5515950918197632
1789322876059091500,0.773091552734375,0.8710681796073914,-0.12339114397764206,1.0848647356033325
1789322876077941800,0.791941650390625,0.8741224408149719,-1.100746750831604,1.086086392402649
1789322876096791800,0.810791748046875,1.0243908166885376,-0.5662553906440735,0.444085955619812
1789322876115641900,0.829641845703125,1.7409909963607788,1.362265706062317,-0.5717530250549316
1789322876134492000,0.848491943359375,2.5662457942962646,1.8924812078475952,-1.45939040184021
1789322876153342000,0.867342041015625,2.9162611961364746,-0.09284878522157669,-2.163086414337158
1789322876172192000,0.88619189453125,2.8142497539520264,2.6578726768493652,-2.913817882537842
1789322876191042000,0.9050419921875,0.4202629029750824,6.190478801727295,-3.619957208633423
1789322876209892000,0.92389208984375,-0.4446968138217926,4.988331317901611,-5.143486499786377
1789322876228742100,0.9427421875,-0.10873081535100937,2.118494749069214,-6.759253978729248
1789322876247592200,0.96159228515625,-0.5919110178947449,0.8063184022903442,-6.445813179016113
1789322876266442500,0.9804423828125,-0.7220214605331421,-1.1245697736740112,-4.6157145500183105
1789322876285292500,0.99929248046875,-0.9822424054145813,-2.5479202270507812,-3.781831741333008
1789322876304142600,1.018142578125,-1.0958600044250488,-1.9908275604248047,-3.9174399375915527
1789322876322992600,1.03699267578125,-0.5790832042694092,-0.2095206081867218,-4.217442035675049
1789322876341842700,1.0558427734375,-0.19119518995285034,0.49295374751091003,-4.298074245452881
1789322876360692700,1.074692626953125,-0.10078980028629303,1.6615809202194214,-4.516757488250732
1789322876379542800,1.093542724609375,-0.3054236173629761,2.5283732414245605,-5.323075771331787
1789322876398392800,1.112392822265625,-0.8020424246788025,2.4843921661376953,-5.192965030670166
1789322876417243000,1.131242919921875,-0.5198310017585754,2.816693067550659,-4.464224338531494
1789322876436093000,1.150093017578125,-0.21440738439559937,3.3579037189483643,-3.8478033542633057
1789322876454943200,1.168943115234375,-0.5644228458404541,7.501433372497559,-1.1123528480529785
1789322876473793300,1.187793212890625,-0.841747522354126,7.365825176239014,-1.4398432970046997
1789322876492643300,1.206643310546875,-0.6096255779266357,6.534996509552002,-3.9003360271453857
1789322876511493400,1.225493408203125,0.4489727318286896,4.392144680023193,-2.96696138381958
1789322876530343400,1.244343505859375,1.109298586845398,1.6536399126052856,-2.5314273834228516
1789322876549193500,1.263193359375,1.2675080299377441,1.4355673789978027,-1.0720369815826416
1789322876568043500,1.28204345703125,0.6920899152755737,1.8179577589035034,-0.004886778071522713
1789322876586893600,1.3008935546875,1.4135769605636597,2.3726069927215576,-0.33535513281822205
1789322876605743600,1.31974365234375,3.238788604736328,1.964561104774475,-0.2999260127544403
1789322876624594000,1.338593994140625,3.252837896347046,1.3035480976104736,0.3921639323234558
1789322876643444000,1.35744384765625,2.232112169265747,0.6169557571411133,0.7727217674255371
1789322876671719200,1.38571923828125,1.7794743776321411,-1.5357463359832764,0.8490777015686035
1789322876690569200,1.4045693359375,1.8875943422317505,-3.035987138748169,0.4837910234928131
1789322876709419300,1.423419189453125,1.3757044076919556,-2.9016008377075195,-0.14904673397541046
1789322876728269300,1.442269287109375,1.0714260339736938,-2.2266147136688232,-0.08429691940546036
1789322876747119400,1.461119384765625,0.8747332692146301,-1.3787586688995361,0.29748260974884033
1789322876765969400,1.479969482421875,1.174659252166748,-0.18875180184841156,0.5210527181625366
1789322876784819500,1.4988193359375,1.5461307764053345,-0.6713211536407471,1.0066763162612915
1789322876803669800,1.517669677734375,2.0170938968658447,-1.1447277069091797,1.381201982498169
1789322876822519800,1.536519775390625,2.3866565227508545,-1.077534556388855,1.2027583122253418
1789322876841369900,1.555369873046875,2.6383256912231445,-1.3793694972991943,1.2070342302322388
1789322876860220000,1.574219970703125,2.3048031330108643,-1.9462357759475708,1.6298168897628784
1789322876879070000,1.593070068359375,0.5479300022125244,-1.700675129890442,1.3903647661209106
1789322876897920000,1.611919921875,-0.49051034450531006,-1.6951775550842285,1.1172395944595337
1789322876926195200,1.6401953125,-0.34451785683631897,-0.5931326746940613,0.9474241137504578
1789322876945045200,1.659045166015625,0.36162158846855164,-0.36101073026657104,0.47890424728393555
1789322876963895300,1.677895263671875,0.5418215394020081,-0.7214106321334839,-0.046424392610788345
1789322876982745600,1.69674560546875,-0.20524467527866364,-1.1056334972381592,-0.37444937229156494
1789322877001595600,1.715595703125,-1.4862676858901978,-1.5699537992477417,-0.12705622613430023
1789322877020445700,1.73444580078125,-2.4880571365356445,-1.3732609748840332,0.15515519678592682
1789322877039295700,1.753295654296875,-2.816082239151001,-0.7165238261222839,0.8594620823860168
1789322877058145800,1.772145751953125,-2.2486050128936768,0.5668662786483765,1.4074684381484985
1789322877076995800,1.790995849609375,-1.5650670528411865,1.3163758516311646,1.482602596282959
1789322877095846100,1.80984619140625,-0.4282039403915405,1.326149344444275,1.3285927772521973
1789322877114696200,1.8286962890625,0.16370706260204315,0.6426113247871399,1.4178528785705566
1789322877133546200,1.847546142578125,0.0794101431965828,1.5119233131408691,0.9730796813964844
1789322877152396300,1.866396240234375,-0.5265503525733948,1.2827792167663574,0.4599680006504059
1789322877171246300,1.885246337890625,-0.6273401379585266,0.6731536984443665,-0.37139514088630676
1789322877190096400,1.904096435546875,-0.5375455617904663,0.8020424246788025,-1.0726478099822998
1789322877208946400,1.922946533203125,-0.3292466700077057,0.5296045541763306,-1.4960412979125977
1789322877227796700,1.941796630859375,-0.41354358196258545,-1.5986636877059937,-1.3041589260101318
1789322877246646800,1.960646728515625,-1.5760623216629028,-2.2021806240081787,-1.616989016532898
1789322877265496800,1.979496826171875,-3.108678102493286,-1.77642023563385,-1.4514493942260742
1789322877284347000,1.998346923828125,-3.435481309890747,-0.034818295389413834,-1.919358491897583
1789322877303197000,2.017197021484375,-2.526540517807007,1.2052016258239746,-2.426361560821533
1789322877331472100,2.04547216796875,-0.6053496599197388,1.0274450778961182,-1.8478893041610718
1789322877350322200,2.064322265625,-0.11178504675626755,0.13621893525123596,-1.6976208686828613
1789322877369172200,2.083172119140625,-0.45141613483428955,-0.3115321099758148,-1.5039823055267334
1789322877388022500,2.1020224609375,-0.9956810474395752,-0.008551862090826035,-1.4691640138626099
1789322877406872600,2.12087255859375,-1.2192511558532715,0.046424392610788345,-1.5296379327774048
1789322877425722600,2.13972265625,-1.7666466236114502,-0.020157959312200546,-1.2479609251022339
1789322877444572700,2.15857275390625,-2.761106014251709,0.8069292306900024,-1.1086877584457397
1789322877463422700,2.177422607421875,-3.4648020267486572,1.364098310470581,-1.0298885107040405
1789322877482272800,2.196272705078125,-2.694523572921753,0.22051586210727692,0.3035911023616791
1789322877501123000,2.215123046875,-1.3139324188232422,-3.489846706390381,1.2045907974243164
1789322877519973000,2.23397314453125,-3.163654327392578,-3.356682062149048,1.3488271236419678
1789322877538823200,2.2528232421875,-3.0836334228515625,-1.064706802368164,1.4746615886688232
1789322877557673200,2.271673095703125,-3.4794623851776123,-0.7824953198432922,1.4300698041915894
1789322877576523300,2.290523193359375,-3.1972508430480957,-1.6683002710342407,1.81246018409729
1789322877595373300,2.309373291015625,-2.530205726623535,-1.8875943422317505,2.2559351921081543
1789322877614223400,2.328223388671875,-1.936462163925171,-0.8105943202972412,1.9431815147399902
1789322877633073700,2.34707373046875,-0.9449806809425354,-0.8008207678794861,1.295607089996338
1789322877661348600,2.3753486328125,0.4159869849681854,-0.4862344264984131,1.7898588180541992
1789322877680198700,2.39419873046875,0.8429692387580872,2.112997055053711,2.0341978073120117
1789322877699049000,2.413049072265625,-0.5063923597335815,3.230236768722534,1.7984106540679932
1789322877717899000,2.43189892578125,0.14110571146011353,-0.10262233763933182,1.7684792280197144
1789322877736749000,2.4507490234375,-0.2858765125274658,-0.45324867963790894,2.6212220191955566
1789322877755599000,2.46959912109375,-0.5943543910980225,-0.30725616216659546,3.142885446548462
1789322877774449200,2.48844921875,-0.5399889945983887,-2.0861196517944336,3.4776298999786377
1789322877793299500,2.507299560546875,-0.8845068216323853,-1.6628025770187378,3.305370807647705
1789322877812149500,2.5261494140625,-0.9779664874076843,0.01588202826678753,2.896713972091675
1789322877830999600,2.54499951171875,-0.3799470067024231,0.739736020565033,2.33901047706604
1789322877849849600,2.563849609375,0.031153209507465363,-0.0525328628718853,2.2846450805664062
1789322877868699600,2.58269970703125,-0.08612946420907974,-0.469741553068161,2.685360908508301
1789322877887550000,2.601550048828125,-0.34879377484321594,-0.6646018028259277,2.474618673324585
1789322877906400000,2.62039990234375,-1.0427162647247314,-1.0744802951812744,2.1203272342681885
1789322877925250000,2.63925,-1.105022668838501,-0.41293275356292725,1.7061727046966553
1789322877944100000,2.65810009765625,-0.6426113247871399,0.8808417320251465,0.7317950129508972
1789322877962950100,2.6769501953125,-0.390942245721817,1.1160179376602173,0.11178504675626755
1789322877981800400,2.695800537109375,-0.06169557198882103,1.4587795734405518,-0.21440738439559937
1789322878000650500,2.714650390625,0.10995250940322876,0.9688037633895874,-0.4220954477787018
1789322878019500500,2.73350048828125,0.08796200156211853,0.2852656841278076,-0.7317950129508972
1789322878038350600,2.7523505859375,-0.02870982140302658,0.09468132257461548,-1.155722975730896
1789322878057200600,2.77120068359375,-0.1319430023431778,0.1575985997915268,-1.5180318355560303
1789322878076050700,2.79005078125,-0.1710372269153595,0.02748812735080719,-1.8411699533462524
1789322878094901000,2.80890087890625,-0.18691925704479218,-0.08674030750989914,-2.0018227100372314
1789322878113751000,2.8277509765625,-0.18142163753509521,0.23028941452503204,-2.1319332122802734
1789322878132601000,2.84660107421875,-0.1447708010673523,-0.2498365342617035,-2.315798282623291
1789322878160876300,2.874876220703125,-0.38788801431655884,-0.021379653364419937,-2.491722345352173
1789322878179726300,2.893726318359375,-0.5320479869842529,-0.061084724962711334,-2.7940917015075684
1789322878198576400,2.912576416015625,-0.6065713167190552,-0.13988402485847473,-2.981010913848877
1789322878217426700,2.9314267578125,-0.6413896083831787,-0.8478559851646423,-2.775155544281006
1789322878236276700,2.95027685546875,-0.7275190949440002,-1.0897514820098877,-2.6187784671783447
1789322878255126800,2.969126708984375,-0.41415444016456604,-1.2314680814743042,-2.7940917015075684
1789322878273976800,2.987976806640625,-0.18081079423427582,-1.1312891244888306,-2.6126701831817627
1789322878292827100,3.0068271484375,-0.1050657257437706,-1.5791164636611938,-2.428805112838745
1789322878311677200,3.02567724609375,0.08674030750989914,-1.5455199480056763,-2.260822057723999
1789322878330527200,3.04452734375,0.284654825925827,-1.1019684076309204,-2.139263391494751
1789322878349377300,3.063377197265625,0.4086568057537079,-0.9339854717254639,-1.8381158113479614
1789322878368227300,3.082227294921875,0.4349232614040375,-0.6963658928871155,-1.3891429901123047
1789322878387077400,3.101077392578125,0.17958909273147583,-0.30908870697021484,-1.0787562131881714
1789322878405927700,3.119927734375,0.12155860662460327,-0.11545012891292572,-0.7177455425262451
1789322878424777700,3.13877783203125,0.18875180184841156,-0.028098974376916885,-0.1172826737165451
1789322878443627800,3.157627685546875,0.09407047927379608,0.42514967918395996,0.4056025743484497
1789322878462477800,3.176477783203125,0.007330167107284069,0.33413344621658325,0.786160409450531
1789322878481328000,3.195328125,-0.10873081535100937,0.37444937229156494,1.045770525932312
1789322878500178200,3.21417822265625,-0.2651077210903168,0.6627692580223083,1.3157650232315063
1789322878519028200,3.2330283203125,-0.2761029601097107,0.8356390595436096,1.5400222539901733
1789322878537878300,3.251878173828125,-0.12766708433628082,0.6817055344581604,1.5039823055267334
1789322878556728300,3.270728271484375,-0.06719319522380829,0.6053496599197388,1.5094798803329468
1789322878575578600,3.28957861328125,-0.20707722008228302,0.9028322696685791,1.5510175228118896
1789322878594428700,3.3084287109375,-0.3432961702346802,0.7794411182403564,1.5943876504898071
1789322878613278700,3.32727880859375,-0.37689274549484253,0.8203678727149963,1.6896798610687256
1789322878632128800,3.346128662109375,-0.20341213047504425,0.786771297454834,1.9175258874893188
1789322878660404000,3.374404052734375,0.06352811306715012,0.42453885078430176,1.946846604347229
1789322878679254000,3.39325390625,0.10323318839073181,0.6157340407371521,2.0042662620544434
1789322878698104300,3.412104248046875,-0.09345962852239609,0.43797749280929565,2.2730391025543213
1789322878716954400,3.430954345703125,-0.21379654109477997,0.18753011524677277,2.6242761611938477
1789322878735804400,3.449804443359375,-0.14110571146011353,0.04825693368911743,2.8093628883361816
1789322878754654500,3.468654541015625,-0.17653486132621765,0.1832541823387146,2.9657397270202637
1789322878773504500,3.48750439453125,-0.395218163728714,0.2987042963504791,2.8173038959503174
1789322878792354800,3.506354736328125,-0.81425940990448,0.007330167107284069,2.68902587890625
1789322878811204900,3.525204833984375,-0.8594620823860168,-0.12278030067682266,2.6419906616210938
1789322878830055000,3.544054931640625,-0.6022953987121582,0.051922015845775604,2.4013168811798096
1789322878848905000,3.562905029296875,-0.08002099394798279,0.36284327507019043,2.4709534645080566
1789322878867755300,3.58175537109375,0.09590301662683487,0.08918370306491852,2.1026127338409424
1789322878886605300,3.600605224609375,0.14110571146011353,0.34573954343795776,1.296217918395996
1789322878905455400,3.619455322265625,0.01832541823387146,0.2730487287044525,0.684148907661438
1789322878924305400,3.638305419921875,0.10017894953489304,0.21196399629116058,-0.02993151545524597
1789322878943155700,3.65715576171875,0.19424942135810852,0.3823903799057007,-0.7128587365150452
1789322878962005800,3.676005859375,0.23090025782585144,0.46546560525894165,-1.106244444847107
1789322878980855800,3.694855712890625,0.15393351018428802,0.2883199155330658,-1.4068576097488403
1789322878999705900,3.713705810546875,0.19363857805728912,0.16553960740566254,-1.728774070739746
1789322879018556200,3.73255615234375,0.2510582208633423,0.011606098152697086,-1.9590635299682617
1789322879037406200,3.75140625,0.18630841374397278,-0.10811996459960938,-2.2883102893829346
1789322879056256300,3.77025634765625,-0.05619794875383377,-0.41415444016456604,-2.754997491836548
1789322879075106300,3.789106201171875,-0.11361759155988693,-0.4453076422214508,-3.103180408477783
1789322879093956600,3.80795654296875,-0.01588202826678753,-0.5864133834838867,-3.2754392623901367
1789322879112806700,3.826806640625,-0.042759306728839874,-0.6700994372367859,-3.2369558811187744
1789322879131656700,3.84565673828125,-0.4068242609500885,-1.2559019327163696,-2.804476022720337
1789322879159932000,3.873931884765625,-0.5125008225440979,-1.7049510478973389,-2.642601490020752
1789322879178782000,3.892781982421875,-0.19974705576896667,-1.7104486227035522,-2.806919574737549
1789322879197632000,3.911632080078125,0.12705622613430023,-1.7073944807052612,-2.6639811992645264
1789322879216482300,3.930482421875,0.5125008225440979,-2.2736499309539795,-2.3921542167663574
1789322879235332400,3.949332275390625,0.8594620823860168,-2.5405900478363037,-2.373828887939453
1789322879254182400,3.968182373046875,0.7666133046150208,-1.3414969444274902,-2.2883102893829346
1789322879282457600,3.99645751953125,0.7598940134048462,-0.2486148327589035,-1.482602596282959
1789322879301307600,4.0153076171875,0.786771297454834,-0.24372805655002594,-0.7488987445831299
1789322879320158000,4.034157958984375,0.5992411375045776,-0.10323318839073181,-0.12461283802986145
1789322879339008000,4.053008056640625,0.2993151545524597,0.2107423096895218,0.24006296694278717
1789322879357858000,4.071858154296875,0.2651077210903168,0.5638120174407959,0.4446968138217926
1789322879376708000,4.0907080078125,0.1692046970129013,0.5277720093727112,0.7507312893867493
1789322879395558400,4.109558349609375,0.04214845970273018,0.4202629029750824,1.138619303703308
1789322879414408400,4.128408447265625,-0.1423274129629135,0.4092676639556885,1.4581687450408936
1789322879433258500,4.147258544921875,-0.19302773475646973,0.24617144465446472,1.667689323425293
1789322879452108500,4.166108642578125,-0.2779355049133301,0.6505523324012756,1.6707435846328735
1789322879470958800,4.184958740234375,-0.34757208824157715,1.009730577468872,1.8228446245193481
1789322879489809000,4.203808837890625,-0.34573954343795776,1.13800847530365,2.1575889587402344
1789322879508659000,4.222658935546875,-0.16553960740566254,0.610236406326294,2.2968621253967285
1789322879527509000,4.241509033203125,-0.16737215220928192,0.9443698525428772,2.1343767642974854
1789322879546359300,4.260359375,-0.25777754187583923,1.216196894645691,1.9670045375823975
1789322879565209300,4.279209228515625,-0.21868331730365753,0.939483106136322,1.997546911239624
1789322879584059400,4.298059326171875,-0.09040539711713791,1.0970816612243652,2.315187454223633
1789322879602909400,4.316909423828125,0.1698155403137207,1.2510151863098145,2.9877302646636963
1789322879621759700,4.335759765625,0.05497625470161438,0.6768187880516052,3.4965660572052
1789322879640609800,4.35460986328125,-0.20402298867702484,0.12522368133068085,3.629119873046875
1789322879668885000,4.382885009765625,-0.554649293422699,0.7605048418045044,2.8954923152923584
1789322879687735000,4.401735107421875,-0.5754181146621704,0.3286358118057251,2.4678993225097656
1789322879706585000,4.420585205078125,0.1325538605451584,0.6762079000473022,1.9792214632034302
1789322879725435400,4.439435302734375,0.4318690001964569,0.5332696437835693,0.3506263196468353
1789322879744285400,4.458285400390625,0.5998520255088806,0.36284327507019043,1.4196853637695312
1789322879763135500,4.477135498046875,0.3512371778488159,1.111131191253662,0.994459331035614
1789322879781985500,4.495985595703125,0.18630841374397278,0.2883199155330658,0.45508119463920593
1789322879800835800,4.5148359375,0.08429691940546036,-0.08368607610464096,-0.2608317732810974
1789322879819686000,4.533685791015625,0.11117420345544815,-0.21318569779396057,-0.6646018028259277
1789322879838536000,4.552535888671875,0.12155860662460327,-0.0922379344701767,-0.8472451567649841
1789322879857386200,4.57138623046875,0.1973036676645279,-0.5088357925415039,-1.3439403772354126
1789322879876236300,4.590236328125,0.16615045070648193,-0.22906772792339325,-1.5516283512115479
1789322879895086300,4.60908642578125,-0.14721418917179108,0.16676130890846252,-1.5821707248687744
1789322879913936400,4.627936279296875,-0.4227063059806824,-0.12155860662460327,-1.8301746845245361
1789322879932786700,4.64678662109375,-0.3542914092540741,-0.047646086663007736,-2.36833119392395
1789322879951636700,4.66563671875,-0.23212195932865143,-0.22479179501533508,-2.7165141105651855
1789322879970486800,4.68448681640625,-0.0922379344701767,-0.1575985997915268,-2.888772964477539
1789322879989337000,4.703337158203125,-0.36162158846855164,-1.1435060501098633,-2.8924381732940674
1789322880008187100,4.722187255859375,-0.3512371778488159,-1.4911545515060425,-2.509436845779419
1789322880027037200,4.741037109375,-0.04581354558467865,-0.9706363081932068,-2.913817882537842
1789322880045887500,4.759887451171875,0.314586341381073,-1.5333030223846436,-3.203359365463257
1789322880064737500,4.778737548828125,1.4679423570632935,-2.370163679122925,-3.044539213180542
1789322880083587600,4.797587646484375,4.194840908050537,-3.2668874263763428,-2.2040133476257324
1789322880102437600,4.816437744140625,5.542980670928955,-3.444643974304199,-2.226003885269165
1789322880121288000,4.835287841796875,4.632818222045898,-1.738547682762146,-2.918093681335449
1789322880140138000,4.854137939453125,3.710362672805786,-0.41537612676620483,-2.5943446159362793
1789322880158988000,4.872988037109375,2.9968929290771484,0.05864133685827255,-1.844224214553833
1789322880177838300,4.89183837890625,2.70857310295105,0.4618005156517029,-1.2693406343460083
1789322880196688400,4.9106884765625,1.5009280443191528,0.47707170248031616,-0.8069292306900024
1789322880215538400,4.929538330078125,0.20219044387340546,-0.42331716418266296,0.23028941452503204
1789322880234388500,4.948388427734375,-0.5057815313339233,-1.4893219470977783,0.9260444641113281
1789322880253238800,4.96723876953125,-0.5870242118835449,-1.2100883722305298,1.1221264600753784
1789322880272088800,4.9860888671875,0.024433890357613564,0.7201889157295227,0.9645278453826904
1789322880290939000,5.00493896484375,0.2901524603366852,1.650585651397705,1.0738694667816162
1789322880309789200,5.0237890625,0.24189551174640656,1.5033714771270752,1.2980504035949707
1789322880328639200,5.04263916015625,0.342074453830719,0.6187883019447327,1.571175456047058
1789322880347489300,5.0614892578125,0.13316470384597778,-0.130721315741539,1.9205801486968994
1789322880366339600,5.080339599609375,0.037261683493852615,0.043981000781059265,1.982886552810669
1789322880385189600,5.099189697265625,0.033596597611904144,0.2718270421028137,1.982886552810669
1789322880404039700,5.118039794921875,0.2602209448814392,0.5283828973770142,1.9517333507537842
1789322880422890000,5.136889892578125,0.12155860662460327,0.5259394645690918,1.9822757244110107
1789322880441740000,5.155739990234375,-0.5454866290092468,0.33230090141296387,2.0134289264678955
1789322880460590000,5.174590087890625,-1.1911520957946777,0.3286358118057251,2.234555721282959
1789322880479440400,5.1934404296875,-0.990183413028717,0.5467082858085632,2.356724977493286
1789322880498290400,5.21229052734375,-1.2180293798446655,0.0781884491443634,2.5430335998535156
1789322880517140500,5.231140380859375,-1.4709964990615845,-0.05803048983216286,2.897324800491333
1789322880535990800,5.24999072265625,-1.5858358144760132,0.18753011524677277,2.88510799407959
1789322880554840800,5.2688408203125,-1.4771050214767456,0.3011476993560791,2.5595264434814453
1789322880573691000,5.28769091796875,-1.1441168785095215,-0.49295374751091003,2.610226631164551
1789322880592541200,5.306541259765625,-0.5528167486190796,-0.9071081876754761,2.566856622695923
1789322880611391200,5.32539111328125,-0.6108472347259521,-0.11361759155988693,2.2644870281219482
1789322880630241300,5.3442412109375,-0.6578825116157532,0.17225892841815948,1.84850013256073
1789322880649091600,5.363091552734375,-0.30786702036857605,0.3176405727863312,1.5986636877059937
1789322880667941600,5.381941650390625,0.10750912129878998,0.04459185153245926,0.8228112459182739
1789322880686791700,5.400791748046875,0.14782503247261047,0.16859383881092072,0.04214845970273018
1789322880705642000,5.41964208984375,-0.06047387793660164,0.4080459773540497,-0.2583884000778198
1789322880724492000,5.438491943359375,-0.10811996459960938,0.4734066128730774,-0.7800519466400146
1789322880743342000,5.457342041015625,0.04031591862440109,0.6615476012229919,-1.4477843046188354
1789322880762192400,5.4761923828125,0.130721315741539,0.7556180357933044,-1.784972071647644
1789322880781042400,5.49504248046875,0.012827792204916477,0.4752391576766968,-2.081233024597168
1789322880799892500,5.513892578125,-0.07085828483104706,0.3249707520008087,-2.6175568103790283
1789322880818742800,5.53274267578125,-0.14904673397541046,0.8539644479751587,-2.9016008377075195
1789322880837592800,5.5515927734375,-0.3897205591201782,1.0824213027954102,-2.943138360977173
1789322880856443000,5.57044287109375,-0.5839699506759644,0.39827242493629456,-2.891827344894409
1789322880875293200,5.589293212890625,-0.9578084945678711,-0.22540263831615448,-2.749499797821045
1789322880894143200,5.608143310546875,-1.295607089996338,-0.3830012381076813,-2.73483943939209
1789322880912993300,5.6269931640625,-1.1080769300460815,-0.7452336549758911,-2.7922592163085938
1789322880931843600,5.645843505859375,-1.0421054363250732,-0.896723747253418,-2.656651020050049
1789322880950693600,5.664693603515625,-1.2534586191177368,-1.2876659631729126,-2.468510150909424
1789322880969543700,5.683543701171875,-0.8741224408149719,-2.0427496433258057,-2.781263828277588
1789322880988394000,5.70239404296875,-0.3658975064754486,-1.5082582235336304,-2.9327540397644043
1789322881007244000,5.721244140625,0.12583453953266144,-1.298661231994629,-2.8179147243499756
1789322881026094000,5.740093994140625,0.4068242609500885,-0.8478559851646423,-2.2424967288970947
1789322881044944400,5.7589443359375,0.367730051279068,-0.2089097648859024,-1.4722182750701904
1789322881063794400,5.77779443359375,0.42514967918395996,-0.12705622613430023,-0.8985562920570374
1789322881082644500,5.79664453125,0.37200596928596497,-0.21318569779396057,-0.47951510548591614
1789322881101494800,5.815494873046875,0.2638860046863556,-0.15271180868148804,-0.06169557198882103
1789322881120344800,5.8343447265625,0.3139754831790924,-0.08796200156211853,0.6310052275657654
1789322881139195000,5.85319482421875,0.3286358118057251,0.1954711228609085,1.1716049909591675
1789322881158045200,5.872045166015625,0.2919849753379822,0.2864873707294464,1.5864466428756714
1789322881176895200,5.890895263671875,0.2620534598827362,0.3304683566093445,1.7477103471755981
1789322881195745300,5.909745361328125,0.051922015845775604,0.5858024954795837,1.8753774166107178
1789322881214595600,5.928595703125,-0.23212195932865143,0.9187142848968506,2.003655433654785
1789322881233445600,5.947445556640625,-0.24433889985084534,0.5112791657447815,2.1581997871398926
1789322881252296000,5.9662958984375,-0.3133646547794342,0.4599680006504059,2.1624755859375
1789322881271146000,5.98514599609375,-0.4306473135948181,0.6737645268440247,1.9627286195755005
1789322881289996000,6.00399609375,-0.38666632771492004,0.6499415040016174,1.742823600769043
1789322881308846300,6.022846435546875,-0.0030542362947016954,0.2363978922367096,2.0922281742095947
1789322881327696400,6.0416962890625,0.20096874237060547,0.17714570462703705,2.518599510192871
1789322881346546400,6.06054638671875,-0.08979454636573792,0.11300674080848694,2.5809059143066406
1789322881365396700,6.079396728515625,-0.1441599577665329,0.09407047927379608,2.3029704093933105
1789322881384246800,6.098246826171875,-0.17836740612983704,0.19913621246814728,2.1288790702819824
1789322881403097000,6.11709716796875,-0.08490777015686035,0.4086568057537079,2.1667516231536865
1789322881421947100,6.135947021484375,-0.15210096538066864,0.17775654792785645,2.269984722137451
1789322881440797200,6.154797119140625,-0.26877278089523315,-0.707361102104187,2.5778517723083496
1789322881459647500,6.1736474609375,-0.4202629029750824,-0.6340594291687012,2.6468775272369385
1789322881478497500,6.19249755859375,-0.4294256269931793,-0.16553960740566254,2.222949504852295
1789322881497347600,6.21134765625,-0.29381752014160156,0.4844018816947937,1.9963252544403076
1789322881516198000,6.230197998046875,0.03787253051996231,0.04459185153245926,1.455114483833313
1789322881535048000,6.2490478515625,0.17836740612983704,-0.03787253051996231,1.1593880653381348
1789322881553898200,6.267898193359375,-0.037261683493852615,0.26694026589393616,0.8948912620544434
1789322881572748300,6.286748291015625,-0.10628741979598999,0.5283828973770142,0.3017585575580597
1789322881591598600,6.3055986328125,0.05741964280605316,0.47768256068229675,-0.6230642199516296
1789322881610448600,6.32444873046875,0.15087927877902985,0.5925218462944031,-1.5693429708480835
1789322881629298700,6.343298583984375,0.05803048983216286,0.6536065936088562,-2.2302796840667725
1789322881648149000,6.36214892578125,-0.04703523963689804,0.7824953198432922,-2.588236093521118
1789322881666999000,6.3809990234375,-0.04703523963689804,0.836860716342926,-3.0665295124053955
1789322881685849000,6.39984912109375,0.04153761267662048,0.21868331730365753,-3.211911201477051
1789322881704699400,6.418699462890625,-0.34879377484321594,0.09590301662683487,-2.954744577407837
1789322881723549400,6.437549560546875,-0.8710681796073914,-0.7189671993255615,-2.608394145965576
1789322881742399700,6.456399658203125,-1.0286667346954346,-0.314586341381073,-2.8002002239227295
1789322881761249800,6.475249755859375,-0.832584798336029,-0.33291175961494446,-2.9455819129943848
1789322881780099800,6.494099853515625,-0.7262973785400391,-1.0714260339736938,-2.819136381149292
1789322881798950100,6.5129501953125,-0.5082249045372009,-1.5754514932632446,-2.6761982440948486
1789322881817800200,6.53180029296875,-0.2651077210903168,-1.5907225608825684,-2.5955662727355957
1789322881836650500,6.550650390625,-0.017714571207761765,-1.568121314048767,-2.517988681793213
1789322881855500500,6.56950048828125,0.09407047927379608,-1.4386216402053833,-2.4123122692108154
1789322881874350600,6.5883505859375,0.18569757044315338,-0.9449806809425354,-2.228447198867798
1789322881893201000,6.607200927734375,0.05741964280605316,-0.4306473135948181,-1.8277313709259033
1789322881912051000,6.626051025390625,0.4086568057537079,-0.13438639044761658,-1.478326678276062
1789322881930901200,6.6449013671875,0.6707102656364441,-0.18691925704479218,-1.0421054363250732
1789322881949751300,6.663751220703125,0.5796940326690674,-0.2773246467113495,-0.24433889985084534
1789322881968601300,6.682601318359375,0.39827242493629456,-0.24006296694278717,0.45324867963790894
1789322881987451600,6.70145166015625,0.2852656841278076,-0.013438640162348747,0.8105943202972412
1789322882006301700,6.7203017578125,0.20524467527866364,0.10873081535100937,0.9370396733283997
1789322882025152000,6.739152099609375,0.09773556143045425,0.2870981991291046,1.1215155124664307
1789322882044002000,6.758001953125,0.025655584409832954,0.44958359003067017,1.469774842262268
1789322882062852000,6.77685205078125,0.01832541823387146,0.5357130169868469,1.8106275796890259
1789322882081702400,6.795702392578125,-0.0787992998957634,0.43614494800567627,2.0329761505126953
1789322882100552400,6.814552490234375,-0.11361759155988693,0.4031592011451721,2.1759142875671387
1789322882119402800,6.83340283203125,-0.1459924876689911,0.22906772792339325,2.1313223838806152
1789322882138252800,6.852252685546875,-0.30664533376693726,0.5858024954795837,2.3402321338653564
1789322882166528000,6.880528076171875,0.1423274129629135,0.4074351191520691,2.598620653152466
1789322882185378300,6.89937841796875,0.2901524603366852,0.92054682970047,2.393375873565674
1789322882204228400,6.918228271484375,-0.05986303091049194,0.7214106321334839,2.5045502185821533
1789322882223078400,6.937078369140625,-0.3695625960826874,0.06902574002742767,2.7977569103240967
1789322882241928700,6.9559287109375,-0.09651386737823486,0.1441599577665329,2.68902587890625
1789322882260778800,6.97477880859375,-0.025655584409832954,0.393385648727417,2.38482403755188
1789322882279629000,6.993629150390625,-0.34451785683631897,-0.2852656841278076,2.083676338195801
1789322882298479000,7.01247900390625,-0.39888325333595276,-0.20402298867702484,2.1026127338409424
1789322882317329400,7.031329345703125,-0.10873081535100937,-0.2596100866794586,2.13315486907959
1789322882336179500,7.050179443359375,0.3261924386024475,0.06169557198882103,2.075124502182007
1789322882355029500,7.069029541015625,0.40010493993759155,-0.38422292470932007,1.9083632230758667
1789322882373879800,7.0878798828125,0.33474430441856384,-0.3384093940258026,1.5901117324829102
1789322882392729900,7.106729736328125,0.11545012891292572,-0.4031592011451721,1.2045907974243164
1789322882411580200,7.125580078125,-0.08918370306491852,-0.09529217332601547,0.6835380792617798
1789322882430430200,7.14443017578125,-0.29442837834358215,0.22906772792339325,-0.013438640162348747
1789322882449280500,7.163280517578125,-0.21807247400283813,0.5222744345664978,-0.5027272701263428
1789322882468130600,7.182130615234375,0.1569877415895462,0.6077930331230164,-1.096470832824707
1789322882486980900,7.20098095703125,0.3500154912471771,0.5253286361694336,-1.8894269466400146
1789322882505831000,7.219830810546875,0.27976804971694946,0.897334635257721,-2.3347346782684326
1789322882524681000,7.238680908203125,0.004886778071522713,0.758672297000885,-2.676809072494507
1789322882543531300,7.25753125,-0.12522368133068085,0.4227063059806824,-3.443422317504883
1789322882562381300,7.27638134765625,-0.0910162404179573,0.08551861345767975,-3.8184826374053955
1789322882581231600,7.295231689453125,-0.4202629029750824,0.04092676565051079,-3.6101837158203125
1789322882600081700,7.31408154296875,-0.9174925684928894,-0.4343124032020569,-3.1758713722229004
1789322882618932000,7.332931884765625,-1.0653176307678223,-1.02683424949646,-2.975513458251953
1789322882637782000,7.351781982421875,-0.7476770281791687,-1.1306782960891724,-2.9125959873199463
1789322882666057200,7.38005712890625,-0.16126367449760437,-1.4367891550064087,-2.7397263050079346
1789322882684907500,7.398907470703125,0.3310792148113251,-1.991438388824463,-2.83929443359375
1789322882703757600,7.417757568359375,0.395218163728714,-1.30476975440979,-2.749499797821045
1789322882722607900,7.43660791015625,0.32252734899520874,-0.601073682308197,-2.202791690826416
1789322882741458000,7.4554580078125,0.420873761177063,-0.5234960913658142,-1.4917653799057007
1789322882760308200,7.47430810546875,0.6090146899223328,-0.38910970091819763,-0.9791881442070007
1789322882779158300,7.493158203125,0.6022953987121582,-0.2870981991291046,-0.6700994372367859
1789322882798008300,7.51200830078125,0.2510582208633423,-0.07452336698770523,-0.3549022674560547
1789322882816858600,7.530858642578125,0.1453816443681717,0.29748260974884033,0.0910162404179573
1789322882835708700,7.549708740234375,0.2376195788383484,0.5833591222763062,0.5283828973770142
1789322882854559000,7.56855908203125,0.2724378705024719,0.31825143098831177,0.9339854717254639
1789322882873409000,7.587408935546875,0.17714570462703705,0.10689827054738998,1.3273711204528809
1789322882892259300,7.60625927734375,0.14660334587097168,0.16615045070648193,1.660359263420105
1789322882911109400,7.625109375,0.05008947476744652,0.30847787857055664,1.9718912839889526
1789322882929959700,7.643959716796875,-0.07452336698770523,0.46485477685928345,1.9841082096099854
1789322882948809700,7.662809814453125,-0.20402298867702484,0.5448757410049438,1.922412633895874
1789322882967659800,7.68165966796875,-0.3139754831790924,0.6969767212867737,2.023202419281006
1789322882986510000,7.700510009765625,-0.23212195932865143,0.6762079000473022,2.1349875926971436
1789322883005360000,7.719360107421875,-0.129499614238739,0.6096255779266357,2.226003885269165
1789322883024210400,7.73821044921875,-0.05131116881966591,0.6328377723693848,2.510047674179077
1789322883043060500,7.757060546875,0.0397050715982914,0.518609344959259,2.731785297393799
1789322883061910800,7.775910888671875,-0.022601349279284477,0.4556920528411865,2.6065616607666016
1789322883080760800,7.7947607421875,-0.261442631483078,0.5943543910980225,2.6816959381103516
1789322883099611100,7.813611083984375,-0.46363306045532227,0.0012216945178806782,2.836240291595459
1789322883118461200,7.832461181640625,-0.4062134325504303,-0.022601349279284477,2.740947961807251
1789322883137311500,7.8513115234375,-0.578472375869751,-0.08490777015686035,2.6523752212524414
1789322883165586700,7.879586669921875,-0.5882459282875061,-0.1301104724407196,2.1514804363250732
1789322883184436700,7.898436767578125,-0.15271180868148804,0.20707722008228302,1.6872364282608032
1789322883203287000,7.917287109375,0.15454435348510742,-0.19119518995285034,1.235133171081543
1789322883222137000,7.93613720703125,0.18630841374397278,-0.4819584786891937,0.8490777015686035
1789322883240987400,7.9549873046875,-0.06047387793660164,-0.30786702036857605,0.5961869359016418
1789322883259837400,7.97383740234375,-0.261442631483078,-0.06352811306715012,0.35978904366493225
1789322883278687700,7.992687744140625,-0.32191649079322815,0.1948602795600891,-0.31092125177383423
1789322883297537800,8.011537841796875,-0.20219044387340546,0.18569757044315338,-0.897334635257721
1789322883316387800,8.030387939453124,-0.04459185153245926,0.054365407675504684,-1.300493836402893
1789322883335238100,8.049238037109374,0.1582094430923462,-0.03237490355968475,-1.825287938117981
1789322883354088200,8.068088134765626,0.30481278896331787,0.1716480851173401,-2.176525115966797
1789322883372938500,8.0869384765625,0.17653486132621765,0.3512371778488159,-2.437356948852539
1789322883391788500,8.10578857421875,0.04703523963689804,0.474017471075058,-2.9480252265930176
1789322883410638800,8.124638916015625,-0.05741964280605316,0.3512371778488159,-3.2839913368225098
1789322883429489000,8.143489013671875,-0.2376195788383484,0.04214845970273018,-3.302316665649414
1789322883448339200,8.162339111328125,-0.5100574493408203,-0.3115321099758148,-3.1593782901763916
1789322883467189200,8.181189208984375,-0.6108472347259521,-0.9107732772827148,-2.9742915630340576
1789322883486039600,8.20003955078125,-0.5088357925415039,-1.2803359031677246,-2.9773459434509277
1789322883504889600,8.2188896484375,-0.15026842057704926,-1.5675103664398193,-3.0201051235198975
1789322883523739600,8.23773974609375,0.2492256760597229,-1.7519862651824951,-2.754997491836548
1789322883542590000,8.25658984375,0.5296045541763306,-1.9547876119613647,-2.422085762023926
1789322883561440300,8.275440185546875,0.420873761177063,-1.6640242338180542,-2.0170938968658447
1789322883580290300,8.294290283203125,0.45202696323394775,-0.9523108601570129,-1.7642031908035278
1789322883599140400,8.313140380859375,0.5650337338447571,-0.601073682308197,-1.553460955619812
1789322883617990700,8.33199072265625,0.5192201733589172,-0.45385950803756714,-1.2137534618377686
1789322883636840700,8.3508408203125,0.34635040163993835,-0.06902574002742767,-0.6658235192298889
1789322883665116000,8.379115966796874,0.314586341381073,0.21379654109477997,0.35795649886131287
1789322883683966200,8.39796630859375,0.2877090573310852,0.1704263836145401,0.7721109390258789
1789322883702816300,8.416816162109376,0.15454435348510742,0.11667182296514511,1.0512681007385254
1789322883721666600,8.43566650390625,0.09468132257461548,0.41110020875930786,1.252847671508789
1789322883740516600,8.4545166015625,0.05864133685827255,0.762948215007782,1.492987036705017
1789322883759367000,8.473366943359375,-0.03542914241552353,0.9016105532646179,1.7306066751480103
1789322883778217000,8.492217041015625,-0.038483377546072006,0.7708892226219177,1.9969360828399658
1789322883797067300,8.5110673828125,-0.2211267054080963,0.813648521900177,2.180190324783325
1789322883815917300,8.529917236328124,-0.342074453830719,0.6762079000473022,2.4501848220825195
1789322883834767600,8.548767578125,-0.17286977171897888,0.6444438695907593,2.6755874156951904
1789322883863042800,8.577042724609376,0.2620534598827362,0.8667922616004944,2.550363779067993
1789322883881892900,8.595892822265625,0.18019993603229523,0.8087617754936218,2.4611799716949463
1789322883900743200,8.6147431640625,-0.17531315982341766,0.6487197875976562,2.5045502185821533
1789322883919593200,8.63359326171875,-0.2761029601097107,0.42392799258232117,2.555861234664917
1789322883938443500,8.652443603515625,-0.05497625470161438,0.3365768492221832,2.4471304416656494
1789322883957293600,8.67129345703125,-0.258999228477478,0.2480039894580841,2.277925729751587
1789322883976144000,8.690143798828124,-0.5430431962013245,-0.3158080279827118,2.2449400424957275
1789322883994994000,8.708993896484374,-0.42392799258232117,-0.06413896381855011,2.0024337768554688
1789322884013844000,8.727843994140626,0.012827792204916477,0.23028941452503204,1.9187475442886353
1789322884032694300,8.7466943359375,0.4172086715698242,0.13988402485847473,1.6194324493408203
1789322884051544600,8.765544677734376,0.40987852215766907,-0.17592400312423706,1.2968287467956543
1789322884070394600,8.78439453125,0.17653486132621765,-0.0781884491443634,0.999346137046814
1789322884089244700,8.80324462890625,-0.05803048983216286,-0.19424942135810852,0.5399889945983887
1789322884108095000,8.822094970703125,-0.09895725548267365,-0.29687178134918213,-0.13316470384597778
1789322884126945000,8.840945068359375,-0.1973036676645279,0.1844758689403534,-0.739736020565033
1789322884145795300,8.85979541015625,-0.4416425824165344,0.38666632771492004,-1.0866972208023071
1789322884164645400,8.878645263671874,-0.2718270421028137,0.32191649079322815,-1.5552934408187866
1789322884183495700,8.89749560546875,-0.12583453953266144,0.4837910234928131,-2.1435394287109375
1789322884202345700,8.916345703125,0.07696675509214401,0.6426113247871399,-2.5943446159362793
1789322884221196000,8.935196044921875,0.09040539711713791,0.6536065936088562,-3.059810161590576
1789322884240046000,8.954046142578125,-0.09834641218185425,0.16370706260204315,-3.628509044647217
1789322884258896400,8.972896484375,-0.30847787857055664,-0.2724378705024719,-3.6737117767333984
1789322884277746400,8.991746337890625,-0.8814526200294495,-0.735460102558136,-3.236345052719116
1789322884296596700,9.0105966796875,-1.2009257078170776,-1.3120999336242676,-2.8411269187927246
1789322884315446800,9.02944677734375,-0.9535325765609741,-1.538800597190857,-2.602285623550415
1789322884334297000,9.048297119140624,-0.5088357925415039,-1.5546826124191284,-2.538757562637329
1789322884362572300,9.076572265625,0.28160059452056885,-1.871712327003479,-2.9009900093078613
1789322884381422300,9.09542236328125,0.6187883019447327,-1.5907225608825684,-2.761106014251709
1789322884400272600,9.114272705078125,0.975523054599762,-0.9639169573783875,-2.1691949367523193
1789322884419122700,9.133122802734375,1.0811996459960938,-0.5393781065940857,-1.692123293876648
1789322884437972700,9.15197265625,0.8655705451965332,-0.7647807598114014,-1.2473500967025757
1789322884456823000,9.170822998046875,0.38788801431655884,-0.45080527663230896,-0.8441908955574036
1789322884475673000,9.189673095703125,0.056808795779943466,0.02870982140302658,-0.2718270421028137
1789322884494523400,9.2085234375,-0.030542362481355667,0.675597071647644,0.42514967918395996
1789322884513373400,9.22737353515625,-0.053143709897994995,0.8222004175186157,0.8289197087287903
1789322884532223700,9.2462236328125,-0.043981000781059265,1.323706030845642,1.0555440187454224
1789322884560499000,9.2744990234375,0.07696675509214401,1.2137534618377686,1.6175998449325562
1789322884579349000,9.293348876953125,-0.014660334214568138,0.7293516397476196,1.945624828338623
1789322884598199300,9.31219921875,-0.015271181240677834,0.40987852215766907,2.4446871280670166
1789322884617049300,9.33104931640625,-0.2095206081867218,0.006108472589403391,2.6328279972076416
1789322884635899600,9.349899658203125,-0.5412106513977051,0.4587462842464447,2.3365671634674072
1789322884654749700,9.368749755859374,-0.8057075142860413,1.0573766231536865,2.095893383026123
1789322884673600000,9.38760009765625,-0.5680879354476929,1.0824213027954102,1.9810540676116943
1789322884692450000,9.406449951171876,-0.3292466700077057,1.1349542140960693,1.932186245918274
1789322884711300400,9.42530029296875,-0.03787253051996231,0.7525638341903687,2.521653890609741
1789322884730150400,9.444150390625,0.1820324808359146,0.16431790590286255,3.076303243637085
1789322884749000400,9.46300048828125,0.30481278896331787,0.1575985997915268,2.8521223068237305
1789322884767850800,9.481850830078125,0.26816195249557495,0.08979454636573792,2.656651020050049
1789322884786700800,9.50070068359375,-0.12400199472904205,-0.10750912129878998,2.7330069541931152
1789322884805551000,9.519551025390625,-0.38910970091819763,-0.5234960913658142,2.544255256652832
1789322884824401200,9.538401123046874,-0.4886777997016907,-0.4074351191520691,2.3176307678222656
1789322884843251500,9.55725146484375,-0.2345653474330902,0.2217375487089157,2.263265371322632
1789322884862101500,9.5761015625,-0.05008947476744652,0.14843589067459106,2.3726069927215576
1789322884880951800,9.594951904296876,-0.03176405653357506,0.265718549489975,1.908974051475525
1789322884899801900,9.6138017578125,-0.17286977171897888,0.004275931045413017,0.971247136592865
1789322884918652200,9.632652099609375,-0.15087927877902985,0.3915531039237976,0.16737215220928192
1789322884937502200,9.651502197265625,-0.05619794875383377,0.17531315982341766,-0.5106683373451233
1789322884975202600,9.68920263671875,0.1453816443681717,-0.10140064358711243,-1.5186426639556885
1789322884994052900,9.708052978515624,0.1563768982887268,-0.24678228795528412,-1.8075734376907349
1789322885012903000,9.72690283203125,0.04092676565051079,-0.3268032968044281,-2.1239922046661377
1789322885031753000,9.7457529296875,-0.09407047927379608,-0.1710372269153595,-2.4733970165252686
1789322885050603300,9.764603271484376,-0.2583884000778198,0.018936265259981155,-2.700021266937256
1789322885069453300,9.783453369140625,-0.393385648727417,0.1850867122411728,-3.0341546535491943
1789322885088303600,9.8023037109375,-0.39888325333595276,-0.5277720093727112,-3.001168966293335
1789322885107153700,9.821153564453125,-0.3390202224254608,-0.5332696437835693,-2.990173578262329
1789322885126003700,9.840003662109375,-0.5418215394020081,-0.916270911693573,-2.859452486038208
1789322885144854000,9.85885400390625,-0.8423583507537842,-1.4764941930770874,-2.786761522293091
1789322885163704000,9.8777041015625,-0.7721109390258789,-1.6426446437835693,-2.871669292449951
1789322885182554400,9.896554443359374,-0.30847787857055664,-1.867436408996582,-2.992617130279541
1789322885201404400,9.915404296875,0.23212195932865143,-1.4117443561553955,-2.7763772010803223
1789322885220254700,9.934254638671876,0.5112791657447815,-1.2607887983322144,-2.2760932445526123
1789322885239104800,9.953104736328125,0.4960079789161682,-1.4819917678833008,-1.7831394672393799
1789322885257955000,9.971955078125,0.4330907166004181,-1.1166287660598755,-1.4496169090270996
1789322885276805000,9.99080517578125,0.41476529836654663,-0.3414636254310608,-1.147171139717102
1789322885295655200,10.0096552734375,0.3549022674560547,0.0397050715982914,-0.6597150564193726
1789322885314505500,10.02850537109375,0.2486148327589035,-0.11300674080848694,0.10689827054738998
1789322885333355500,10.04735546875,0.0910162404179573,-0.18630841374397278,0.8167027831077576
1789322885352205800,10.066205810546874,0.12094775587320328,-0.022601349279284477,1.2876659631729126
1789322885371055900,10.085055908203126,0.11361759155988693,0.31947311758995056,1.4709964990615845
1789322885389906200,10.10390625,0.030542362481355667,0.3035911023616791,1.7501537799835205
1789322885408756200,10.122756103515625,-0.06841489672660828,0.45324867963790894,1.92363440990448
1789322885427606300,10.141606201171875,-0.08674030750989914,0.43919917941093445,1.9560092687606812
1789322885446456600,10.16045654296875,-0.1557660549879074,0.6181774139404297,1.9755563735961914
1789322885465306600,10.179306640625,-0.31886225938796997,0.5992411375045776,1.9132499694824219
1789322885484157000,10.198156982421875,-0.4056025743484497,0.49417543411254883,1.8711014986038208
1789322885503007000,10.217007080078124,-0.4459185004234314,0.8050966858863831,2.0476362705230713
1789322885521857300,10.235857177734376,-0.3054236173629761,0.8509102463722229,2.3689420223236084
1789322885587832600,10.30183251953125,0.2779355049133301,-0.0024433890357613564,2.387878179550171
1789322885606683000,10.320682861328125,0.26877278089523315,0.2363978922367096,2.4416327476501465
1789322885625533000,10.339532958984375,0.37689274549484253,0.004275931045413017,2.839905261993408
1789322885644383200,10.35838330078125,0.5607577562332153,-0.5809157490730286,2.6963560581207275
1789322885663233300,10.3772333984375,0.3304683566093445,-0.39643988013267517,2.25715708732605
1789322885682083600,10.39608349609375,0.0794101431965828,-0.10811996459960938,2.095893383026123
1789322885700933600,10.41493359375,0.09773556143045425,0.1979145109653473,2.156978130340576
1789322885719783700,10.43378369140625,0.28160059452056885,-0.1459924876689911,1.6768521070480347
1789322885738634000,10.452634033203125,0.4819584786891937,0.06780404597520828,1.2333005666732788
1789322885757484000,10.471484130859375,0.47890424728393555,-0.21318569779396057,0.5772506594657898
1789322885776334300,10.490334228515625,0.45447036623954773,0.04153761267662048,-0.04337015375494957
1789322885795184400,10.509184326171875,0.44958359003067017,-0.1056765764951706,-0.35795649886131287
1789322885814034700,10.52803466796875,0.47951510548591614,-0.017714571207761765,-0.8955020904541016
1789322885832884700,10.546884765625,0.5607577562332153,-0.03420744836330414,-1.4221287965774536
1789322885851734800,10.56573486328125,0.36101073026657104,0.05497625470161438,-2.107499361038208
1789322885870585000,10.584585205078126,0.30725616216659546,0.3524588644504547,-2.5344815254211426
1789322885889435100,10.60343505859375,0.25350162386894226,0.2987042963504791,-2.7910375595092773
1789322885908285400,10.622285400390625,0.37261682748794556,0.29687178134918213,-3.2369558811187744
1789322885927135500,10.641135498046875,0.4813476502895355,-0.39949411153793335,-3.39516544342041
1789322885945985500,10.659985595703125,0.1172826737165451,-0.813648521900177,-3.1764822006225586
1789322885964835800,10.6788359375,-0.42331716418266296,-0.9510892033576965,-2.735450267791748
1789322885983686000,10.697685791015624,-0.5705313682556152,-1.115407109260559,-2.602285623550415
1789322886002536200,10.7165361328125,-0.3805578351020813,-1.3946406841278076,-2.9187045097351074
1789322886021386200,10.73538623046875,0.183865025639534,-1.8918702602386475,-3.0982935428619385
1789322886040236300,10.754236328125,0.7464553713798523,-2.0024337768554688,-2.8863296508789062
1789322886059086600,10.773086669921875,1.1777135133743286,-1.7489320039749146,-2.2999162673950195
1789322886077936600,10.7919365234375,1.1190721988677979,-1.4483952522277832,-1.7483211755752563
1789322886096787000,10.810786865234375,0.9144383668899536,-1.1697725057601929,-1.3671525716781616
1789322886115637000,10.829636962890625,0.7043069005012512,-0.46424391865730286,-1.2094775438308716
1789322886134487000,10.848487060546875,0.53143709897995,0.26632940769195557,-0.9523108601570129
1789322886153337300,10.86733740234375,0.3518480062484741,0.1569877415895462,-0.1954711228609085
1789322886172187400,10.8861875,0.19424942135810852,0.46485477685928345,0.5882459282875061
1789322886191037700,10.90503759765625,0.265718549489975,-0.10201149433851242,1.0109522342681885
1789322886209887700,10.9238876953125,0.34879377484321594,0.7763868570327759,1.152668833732605
1789322886228737800,10.94273779296875,0.45508119463920593,0.9309312105178833,1.6328710317611694
1789322886247588000,10.961588134765625,0.3958290219306946,0.365286648273468,2.367720365524292
1789322886266438100,10.980438232421875,0.18142163753509521,0.3054236173629761,2.622443675994873
1789322886285288200,10.9992880859375,-0.2345653474330902,0.4477510452270508,2.257767915725708
1789322886304138500,11.018138427734375,-0.601073682308197,0.5558710098266602,1.8149036169052124
1789322886322988500,11.036988525390624,-0.6084038615226746,0.9046648144721985,1.9560092687606812
1789322886341838800,11.0558388671875,0.02748812735080719,0.8081509470939636,2.092839002609253
1789322886360689000,11.07468896484375,0.712247908115387,0.9718579649925232,2.047025442123413
1789322886379539200,11.093539306640626,0.9565867781639099,0.939483106136322,2.6010639667510986
1789322886398389200,11.11238916015625,0.3365768492221832,0.25716668367385864,3.2955973148345947
1789322886417239300,11.1312392578125,-0.05497625470161438,-0.03298575058579445,2.8008110523223877
1789322886436089600,11.150089599609375,-0.015271181240677834,0.45324867963790894,1.857051968574524
1789322886454939600,11.168939697265625,-0.4178195297718048,0.554649293422699,2.260822057723999
1789322886473790000,11.1877900390625,-0.056808795779943466,0.037261683493852615,2.7488889694213867
1789322886492640000,11.206639892578124,0.5479300022125244,0.033596597611904144,2.503939151763916
1789322886511490000,11.225489990234376,0.38605546951293945,-0.018936265259981155,2.0335869789123535
1789322886530340400,11.24434033203125,0.19913621246814728,0.16676130890846252,1.5589585304260254
1789322886549190400,11.2631904296875,0.2486148327589035,0.25533416867256165,1.2791141271591187
1789322886568040700,11.282040771484375,0.4477510452270508,0.1325538605451584,0.735460102558136
1789322886586890800,11.300890869140625,0.365286648273468,-0.19302773475646973,0.2987042963504791
1789322886605740800,11.31974072265625,0.2363978922367096,-0.314586341381073,-0.03665083646774292
1789322886624591000,11.338591064453125,0.09590301662683487,-0.025655584409832954,-0.34757208824157715
1789322886643441200,11.357441162109374,0.2608317732810974,0.06963659077882767,-0.7012526392936707
1789322886662291500,11.37629150390625,0.32191649079322815,0.0659715011715889,-0.9675820469856262
1789322886681141500,11.3951416015625,0.3261924386024475,0.41537612676620483,-1.4545036554336548
1789322886699991800,11.41399169921875,0.20585553348064423,0.12094775587320328,-1.7709225416183472
1789322886718841900,11.432841796875,0.1960819661617279,0.18997350335121155,-2.1545345783233643
1789322886737692000,11.45169189453125,0.10017894953489304,-0.024433890357613564,-2.761716842651367
1789322886756542200,11.470542236328125,0.10140064358711243,-0.06963659077882767,-3.265054941177368
1789322886775392300,11.489392333984375,0.07330167293548584,-0.23884128034114838,-3.4849600791931152
1789322886794242600,11.50824267578125,-0.2632751762866974,-0.44042086601257324,-3.4825165271759033
1789322886813092600,11.527092529296874,-0.7849387526512146,-0.3646758198738098,-3.4721322059631348
1789322886831943000,11.54594287109375,-0.8612946271896362,-1.318819284439087,-3.5173349380493164
1789322886850793000,11.56479296875,-0.3536805510520935,-1.8075734376907349,-3.2974298000335693
1789322886869643000,11.58364306640625,0.1698155403137207,-1.142895221710205,-2.9382517337799072
1789322886888493300,11.602493408203125,0.5375455617904663,-1.110520362854004,-2.6212220191955566
1789322886907343400,11.62134326171875,0.3268032968044281,-1.5107016563415527,-2.428194284439087
1789322886926193700,11.640193603515625,0.046424392610788345,-1.742823600769043,-2.2889211177825928
1789322886945043700,11.659043701171875,0.10750912129878998,-0.9730796813964844,-1.991438388824463
1789322886963893800,11.677893798828125,0.43919917941093445,-0.6499415040016174,-1.2412415742874146
1789322886982744000,11.696744140625,0.6004628539085388,-0.0036650835536420345,-0.5241069197654724
1789322887001594000,11.715593994140624,0.5937435626983643,-0.13560809195041656,-0.4434750974178314
1789322887020444400,11.7344443359375,0.2345653474330902,-0.14721418917179108,-0.22845686972141266
1789322887039294500,11.75329443359375,0.25716668367385864,0.3426853120326996,0.3640649616718292
1789322887058144800,11.772144775390625,0.30847787857055664,0.6193991303443909,0.8197570443153381
1789322887076994800,11.790994873046875,0.1820324808359146,0.6444438695907593,1.313321590423584
1789322887095844900,11.809844970703125,0.09407047927379608,0.8246437907218933,1.5552934408187866
1789322887114695200,11.828695068359375,0.06291726976633072,0.8386932611465454,1.5296379327774048
1789322887133545200,11.847545166015625,0.014049487188458443,1.1960389614105225,1.6353144645690918
1789322887152395500,11.8663955078125,0.07207997888326645,0.9309312105178833,1.882096767425537
1789322887171245600,11.88524560546875,0.12278030067682266,0.6688777208328247,2.1636972427368164
1789322887190096000,11.904095947265626,0.0910162404179573,0.577861487865448,2.2974729537963867
1789322887208946000,11.92294580078125,-0.004886778071522713,0.2339545041322708,1.95967435836792
1789322887227796000,11.9417958984375,-0.37261682748794556,0.6890357136726379,1.5888900756835938
1789322887246646300,11.960646240234375,-0.21746163070201874,1.0805888175964355,1.9670045375823975
1789322887265496300,11.979496337890625,0.3164188861846924,0.7403468489646912,2.271817207336426
1789322887284346600,11.9983466796875,0.5485408306121826,0.6352811455726624,2.1172728538513184
1789322887303196700,12.01719677734375,0.37078428268432617,0.7611156702041626,2.240053176879883
1789322887322047000,12.036046875,0.11545012891292572,-0.028098974376916885,2.5717432498931885
1789322887340897000,12.05489697265625,0.07635590434074402,0.03298575058579445,2.5802950859069824
1789322887359747000,12.0737470703125,-0.10262233763933182,-0.006719320081174374,2.8344075679779053
1789322887378597400,12.092597412109376,-0.4202629029750824,-0.021379653364419937,2.630384683609009
1789322887397447400,12.111447509765625,-0.6267293095588684,0.11667182296514511,2.501495838165283
1789322887416297700,12.130297607421875,-0.45385950803756714,0.09407047927379608,2.3634443283081055
1789322887435147800,12.149147705078125,-0.258999228477478,0.1056765764951706,1.8955353498458862
1789322887453997800,12.167997802734375,-0.30725616216659546,-0.21746163070201874,1.4074684381484985
1789322887472848100,12.18684814453125,-0.43797749280929565,-0.129499614238739,0.6707102656364441
1789322887491698400,12.205698486328124,-0.24372805655002594,0.06902574002742767,-0.3536805510520935
1789322887510548500,12.224548583984374,0.061084724962711334,0.2638860046863556,-1.022558331489563
1789322887529398500,12.2433984375,0.3512371778488159,0.17225892841815948,-1.6420338153839111
1789322887548248800,12.262248779296876,0.418430358171463,0.2620534598827362,-2.2095108032226562
1789322887567099000,12.281098876953125,0.21379654109477997,0.014660334214568138,-2.3982627391815186
1789322887585949200,12.29994921875,0.05131116881966591,0.008551862090826035,-2.552807092666626
1789322887604799200,12.31879931640625,-0.23028941452503204,-0.6352811455726624,-2.5864036083221436
1789322887623649300,12.337649169921875,-0.29320669174194336,-0.9706363081932068,-2.786761522293091
1789322887642499600,12.35649951171875,-0.3781144618988037,-0.8680139780044556,-2.9480252265930176
1789322887661349600,12.375349609375,-0.446529358625412,-0.9547542929649353,-2.935197353363037
1789322887680200000,12.394199951171874,-0.3915531039237976,-1.0231691598892212,-2.8979358673095703
1789322887699050000,12.413050048828126,-0.45202696323394775,-0.8979454636573792,-2.9358081817626953
1789322887717900300,12.431900390625,-0.38849884271621704,-1.152668833732605,-2.916872024536133
1789322887736750300,12.450750244140625,-0.23090025782585144,-1.1935955286026,-2.9761242866516113
1789322887755600400,12.469600341796875,0.261442631483078,-1.806351661682129,-2.916872024536133
1789322887774450700,12.48845068359375,0.40193748474121094,-1.3634874820709229,-2.353670835494995
1789322887793300700,12.50730078125,0.4874561131000519,-0.7837170362472534,-1.5907225608825684
1789322887812151000,12.526151123046875,0.8008207678794861,-0.7049177289009094,-1.0378295183181763
1789322887831001000,12.5450009765625,0.7769976854324341,-0.6187883019447327,-0.9034430980682373
1789322887849851400,12.563851318359376,0.5167768001556396,0.02626643143594265,-0.7006418108940125
1789322887868701400,12.582701416015626,0.2504473626613617,0.22479179501533508,-0.07146912813186646
1789322887887551700,12.6015517578125,-0.05008947476744652,0.21501824259757996,0.3243598937988281
1789322887906401800,12.62040185546875,-0.1435490995645523,0.26632940769195557,0.4422534108161926
1789322887925251800,12.639251953125,-0.16370706260204315,0.5662553906440735,0.6951441764831543
1789322887944102100,12.65810205078125,-0.14965757727622986,0.4874561131000519,1.216196894645691
1789322887962952200,12.6769521484375,-0.04581354558467865,0.5766398310661316,1.742823600769043
1789322887981802500,12.695802490234374,0.028098974376916885,0.3255815804004669,1.9767780303955078
1789322888000652500,12.714652587890624,-0.04031591862440109,0.38605546951293945,1.961506962776184
1789322888019502800,12.7335029296875,-0.3023693859577179,0.6688777208328247,1.9486790895462036
1789322888038353000,12.752352783203126,-0.3689517378807068,0.730573296546936,2.061685800552368
1789322888057203000,12.771202880859375,-0.08429691940546036,0.5515950918197632,2.1991264820098877
1789322888076053200,12.79005322265625,0.34573954343795776,0.679872989654541,2.200348138809204
1789322888094903300,12.8089033203125,0.5638120174407959,0.7379034757614136,2.346951484680176
1789322888113753600,12.827753662109375,0.46363306045532227,0.6407787799835205,2.544255256652832
1789322888132603600,12.846603759765625,0.33413344621658325,0.5234960913658142,2.7311744689941406
1789322888151454000,12.865453857421874,0.29381752014160156,0.5173876285552979,2.897324800491333
1789322888170304000,12.884303955078124,0.24433889985084534,0.5497625470161438,2.8081412315368652
1789322888189154000,12.903154052734376,0.13499724864959717,0.3017585575580597,2.7592735290527344
1789322888208004400,12.92200439453125,-0.1423274129629135,0.3054236173629761,2.451406478881836
1789322888226854400,12.9408544921875,-0.3939964771270752,0.34635040163993835,2.1410961151123047
1789322888245704700,12.95970458984375,-0.42331716418266296,0.39827242493629456,2.1728601455688477
1789322888264554800,12.9785546875,-0.2858765125274658,-0.01832541823387146,1.918136715888977
1789322888283405000,12.997405029296875,-0.17653486132621765,-0.2632751762866974,1.4007490873336792
1789322888302255000,13.016255126953125,-0.1569877415895462,-0.14904673397541046,0.6328377723693848
1789322888321105400,13.03510546875,0.061084724962711334,-0.11178504675626755,0.03298575058579445
1789322888339955500,13.05395556640625,0.30847787857055664,0.021379653364419937,-0.5864133834838867
1789322888358805500,13.072805419921876,0.3500154912471771,0.01710372418165207,-1.133732557296753
1789322888377655800,13.09165576171875,0.2993151545524597,0.015271181240677834,-1.5473524332046509
1789322888396505900,13.110505859375,0.1563768982887268,0.09956810623407364,-1.77642023563385
1789322888415356200,13.129356201171875,0.11972606182098389,0.18691925704479218,-2.043971300125122
1789322888434206200,13.148206298828125,0.0922379344701767,-0.18142163753509521,-2.535703420639038
1789322888453056500,13.167056396484375,0.05375456064939499,0.1325538605451584,-3.1239492893218994
1789322888471906600,13.185906494140625,-0.24006296694278717,0.1044548824429512,-3.288267135620117
1789322888490756900,13.2047568359375,-0.2895416021347046,-0.18875180184841156,-3.006666660308838
1789322888509607000,13.22360693359375,-0.265718549489975,-0.4947862923145294,-2.7372829914093018
1789322888528457000,13.24245703125,-0.42331716418266296,-0.7892146706581116,-2.9107635021209717
1789322888547307300,13.261307373046876,-0.33169007301330566,-1.7831394672393799,-2.838683605194092
1789322888566157300,13.2801572265625,-0.21501824259757996,-1.4410650730133057,-2.6963560581207275
1789322888585007600,13.299007568359375,0.2632751762866974,-1.7843612432479858,-2.7024645805358887
1789322888603857700,13.317857666015625,0.652384877204895,-2.1239922046661377,-2.4477412700653076
1789322888622708000,13.3367080078125,0.5149442553520203,-1.5528501272201538,-2.164919137954712
1789322888641558000,13.35555810546875,0.7708892226219177,-0.5558710098266602,-1.7831394672393799
1789322888660408300,13.374408203125,0.9223793745040894,-0.34451785683631897,-1.254069447517395
1789322888679258400,13.39325830078125,0.5308262705802917,-0.6145123243331909,-0.8991671800613403
1789322888698108400,13.4121083984375,0.14049486815929413,-0.1960819661617279,-0.7140804529190063
1789322888716958700,13.430958740234376,-0.05070032179355621,0.4715740978717804,-0.3573456406593323
1789322888735808800,13.449808837890625,-0.20768806338310242,0.7605048418045044,-0.006719320081174374
1789322888754659000,13.4686591796875,-0.2351761907339096,0.3805578351020813,0.33474430441856384
1789322888773509000,13.487509033203125,-0.314586341381073,0.3787252902984619,0.9284878373146057
1789322888792359400,13.506359375,-0.2095206081867218,0.5913001298904419,1.6744086742401123
1789322888811209500,13.52520947265625,-0.03420744836330414,0.6670452356338501,1.9877732992172241
1789322888830059800,13.544059814453124,0.046424392610788345,0.7488987445831299,1.8668255805969238
1789322888848909800,13.562909912109374,-0.08246438205242157,0.7330167293548584,1.618821620941162
1789322888867759900,13.581759765625,-0.08857285231351852,1.086086392402649,1.9419597387313843
1789322888886610200,13.600610107421875,0.08796200156211853,1.13800847530365,2.474618673324585
1789322888905460200,13.619460205078125,0.2351761907339096,1.222305417060852,2.529594898223877
1789322888924310500,13.638310546875,0.1178935244679451,1.2785032987594604,2.3200743198394775
1789322888943160600,13.65716064453125,-0.030542362481355667,0.6823163628578186,2.3945975303649902
1789322888962011000,13.676010986328125,-0.10750912129878998,0.1447708010673523,2.5448660850524902
1789322888980861000,13.69486083984375,-0.038483377546072006,0.237008735537529,2.4764511585235596
1789322888999711200,13.713711181640624,-0.011606098152697086,0.3005368411540985,2.5723540782928467
1789322889018561300,13.732561279296876,0.025655584409832954,0.12766708433628082,2.5222647190093994
1789322889037411600,13.75141162109375,-0.014049487188458443,0.2852656841278076,2.5540287494659424
1789322889056261600,13.77026171875,-0.15026842057704926,0.06658235192298889,2.804476022720337
1789322889075111700,13.789111572265625,-0.16553960740566254,0.25777754187583923,2.4379677772521973
1789322889093962000,13.8079619140625,-0.04031591862440109,0.4966188073158264,2.0861196517944336
1789322889112812300,13.826812255859375,0.07452336698770523,0.3915531039237976,1.5540717840194702
1789322889131662300,13.845662353515625,0.02504473738372326,0.27976804971694946,0.8356390595436096
1789322889150512600,13.8645126953125,-0.02626643143594265,0.1319430023431778,0.4453076422214508
1789322889169362700,13.88336279296875,0.11483928561210632,0.018936265259981155,-0.13560809195041656
1789322889188212700,13.902212646484376,0.047646086663007736,0.06047387793660164,-0.809983491897583
1789322889207063000,13.92106298828125,0.06413896381855011,-0.011606098152697086,-1.230857253074646
1789322889225913000,13.9399130859375,0.11972606182098389,0.020157959312200546,-1.5778948068618774
1789322889244763400,13.958763427734375,0.129499614238739,0.08490777015686035,-1.9865516424179077
1789322889263613700,13.97761376953125,0.2730487287044525,-0.1563768982887268,-2.2095108032226562
1789322889282463700,13.996463623046875,0.2473931461572647,-0.2583884000778198,-2.572964906692505
1789322889301313800,14.015313720703125,-0.03176405653357506,-0.6902574300765991,-3.04209566116333
1789322889320164000,14.0341640625,-0.28098973631858826,-0.4569137394428253,-3.3579037189483643
1789322889339014100,14.05301416015625,-0.5949652194976807,-0.3646758198738098,-3.4568610191345215
1789322889357864400,14.071864501953126,-0.8985562920570374,-0.6762079000473022,-3.2021377086639404
1789322889376714500,14.090714599609376,-0.7275190949440002,-1.142895221710205,-3.010331630706787
1789322889395564800,14.109564697265625,-0.30481278896331787,-1.362876534461975,-2.7372829914093018
1789322889414414800,14.128414794921875,-0.05070032179355621,-0.9376505613327026,-2.341453790664673
1789322889433265200,14.14726513671875,0.15210096538066864,-1.612713098526001,-2.0317542552948
1789322889452115200,14.166115234375,-0.028098974376916885,-1.875988245010376,-2.1472043991088867
1789322889470965500,14.184965576171875,-0.051922015845775604,-1.6114914417266846,-2.4410219192504883
1789322889489815600,14.203815673828124,0.5638120174407959,-0.4172086715698242,-2.4410219192504883
1789322889508665900,14.222665771484374,1.1587772369384766,-0.1441599577665329,-1.8784316778182983
1789322889527516000,14.241515869140626,0.8472451567649841,-0.4056025743484497,-0.6542174220085144
1789322889546366200,14.2603662109375,0.28160059452056885,-0.3646758198738098,0.4214846193790436
1789322889565216500,14.279216552734376,-0.07391251623630524,-0.21440738439559937,0.684759795665741
1789322889584066600,14.298066650390625,-0.20219044387340546,0.34635040163993835,0.03176405653357506
1789322889602916600,14.31691650390625,-0.24006296694278717,1.3512704372406006,-0.07207997888326645
1789322889621767000,14.335766845703125,-0.20585553348064423,1.2473500967025757,0.5442649126052856
1789322889640617000,14.354616943359375,-0.13316470384597778,0.7995990514755249,1.2840009927749634
1789322889659467300,14.37346728515625,-0.10873081535100937,0.6505523324012756,1.7434344291687012
1789322889678317300,14.3923173828125,-0.12583453953266144,0.5021164417266846,2.1001691818237305
1789322889697167600,14.411167724609374,-0.04153761267662048,0.28037887811660767,2.238220691680908
1789322889716018000,14.430017822265626,-0.15026842057704926,0.6322268843650818,2.023202419281006
1789322889734868000,14.448867919921875,-0.046424392610788345,0.892447829246521,2.0635182857513428
1789322889753718300,14.46771826171875,0.2089097648859024,1.022558331489563,2.365277051925659
1789322889772568300,14.486568359375,0.30969956517219543,0.9810206890106201,2.3463406562805176
1789322889791418600,14.505418701171875,0.14782503247261047,0.624285876750946,2.3347346782684326
1789322889810268700,14.5242685546875,-0.10995250940322876,0.5711421966552734,2.2791473865509033
1789322889829119000,14.543118896484375,-0.3817795515060425,0.4434750974178314,2.211954355239868
1789322889847969000,14.561968994140624,-0.07452336698770523,0.6560499668121338,2.5570828914642334
1789322889866819300,14.5808193359375,0.43919917941093445,0.03787253051996231,2.5741868019104004
1789322889885669400,14.59966943359375,0.36223241686820984,-0.0787992998957634,2.0280892848968506
1789322889904519700,14.618519775390626,-0.017714571207761765,-0.10201149433851242,1.9071414470672607
1789322889923370000,14.637369873046875,-0.20646637678146362,0.2602209448814392,1.7306066751480103
1789322889942220000,14.656219970703125,-0.036039989441633224,0.31031039357185364,1.806351661682129
1789322889961070300,14.6750703125,0.022601349279284477,0.0036650835536420345,1.825287938117981
1789322889979920400,14.69392041015625,-0.06902574002742767,0.0910162404179573,1.511312484741211
1789322889998770700,14.712770751953125,-0.2516690790653229,-0.12155860662460327,1.1257915496826172
1789322890017620700,14.731620849609374,-0.16248537600040436,0.2101314514875412,0.3781144618988037
1789322890036471000,14.750470947265624,-0.08063183724880219,0.12339114397764206,-0.5094466209411621
1789322890055321000,14.769321044921876,0.20768806338310242,0.3035911023616791,-0.9565867781639099
1789322890074171400,14.78817138671875,0.33596599102020264,0.24128466844558716,-1.4160202741622925
1789322890093021700,14.807021728515625,0.4575245976448059,0.17958909273147583,-1.7519862651824951
1789322890111871700,14.825871826171875,0.3158080279827118,-0.04459185153245926,-2.1936287879943848
1789322890130722000,14.84472216796875,0.10934165865182877,0.14843589067459106,-2.6933019161224365
1789322890149572000,14.863572021484375,-0.21562908589839935,-0.13927318155765533,-3.125781774520874
1789322890168422400,14.88242236328125,-0.4068242609500885,-0.20157960057258606,-3.333469867706299
1789322890187272400,14.9012724609375,-0.43858832120895386,-0.45202696323394775,-3.4018847942352295
1789322890206122800,14.920122802734374,-0.892447829246521,-1.12823486328125,-3.4360921382904053
1789322890224972800,14.938972900390626,-1.170383334159851,-1.789247989654541,-3.4275403022766113
1789322890243823000,14.957822998046876,-0.8747332692146301,-1.7568731307983398,-3.333469867706299
1789322890262673400,14.97667333984375,-0.3310792148113251,-1.789247989654541,-3.0078883171081543
1789322890290948600,15.004948486328125,0.05008947476744652,-1.7086161375045776,-2.194850444793701
1789322890309798700,15.023798583984375,0.21929416060447693,-1.7110595703125,-2.0024337768554688
1789322890328649000,15.04264892578125,0.5100574493408203,-1.2577345371246338,-1.8185685873031616
1789322890347499300,15.061499267578125,0.6908682584762573,-0.5418215394020081,-1.5174208879470825
1789322890366349300,15.080349365234374,0.7012526392936707,-0.20402298867702484,-1.0366077423095703
1789322890385199600,15.09919970703125,0.469741553068161,-0.0036650835536420345,-0.5051707029342651
1789322890404049700,15.118049560546876,0.288930743932724,0.3268032968044281,0.1313321590423584
1789322890422900000,15.13689990234375,0.29565006494522095,0.5051707029342651,0.5882459282875061
1789322890441750000,15.15575,0.30908870697021484,0.48073679208755493,0.7495095729827881
1789322890460600300,15.174600341796875,0.18142163753509521,0.8985562920570374,1.0683718919754028
1789322890479450600,15.19345068359375,0.13438639044761658,1.0622633695602417,1.5504066944122314
1789322890498300700,15.21230078125,0.06291726976633072,0.9327637553215027,2.054966449737549
1789322890517151000,15.23115087890625,-0.03787253051996231,0.7360709309577942,2.211954355239868
1789322890536001300,15.250001220703124,-0.12827792763710022,0.9132166504859924,2.006098747253418
1789322890554851300,15.268851318359374,-0.3164188861846924,1.1013575792312622,1.8503327369689941
1789322890573701600,15.28770166015625,-0.2718270421028137,1.0787562131881714,1.8784316778182983
1789322890592551200,15.30655126953125,-0.08246438205242157,0.948034942150116,1.9437923431396484
1789322890611401500,15.3254013671875,0.21196399629116058,0.7366818189620972,2.133765935897827
1789322890630251500,15.34425146484375,0.418430358171463,0.4960079789161682,2.5363142490386963
1789322890649101800,15.363101806640625,0.3512371778488159,0.3158080279827118,2.7653818130493164
1789322890667951900,15.381951904296875,0.10934165865182877,0.24433889985084534,2.787372350692749
1789322890686802200,15.40080224609375,-0.09712471067905426,0.30847787857055664,2.7446131706237793
1789322890705652500,15.419652587890624,-0.1459924876689911,0.04337015375494957,2.7800421714782715
1789322890733927700,15.447927734375,-0.33535513281822205,-0.12644538283348083,2.9284780025482178
1789322890752778000,15.466778076171876,-0.4190412163734436,0.20707722008228302,2.2931969165802
1789322890771628000,15.4856279296875,-0.25289076566696167,0.675597071647644,1.875988245010376
1789322890790478300,15.504478271484375,-0.09834641218185425,0.5717530250549316,1.2473500967025757
1789322890809328400,15.523328369140625,-0.17348061501979828,0.36101073026657104,0.7391251921653748
1789322890828178700,15.5421787109375,-0.21685077250003815,0.265718549489975,0.47646087408065796
1789322890847029000,15.561029052734375,0.0012216945178806782,-0.028098974376916885,0.17286977171897888
1789322890865879000,15.579879150390624,0.16248537600040436,-0.08246438205242157,-0.21318569779396057
1789322890884729300,15.598729248046874,0.10078980028629303,-0.09468132257461548,-0.4575245976448059
1789322890903579600,15.61757958984375,0.0397050715982914,-0.06963659077882767,-0.8545753359794617
1789322890922429700,15.6364296875,0.04581354558467865,-0.27121618390083313,-1.2846118211746216
1789322890941280000,15.655280029296875,0.02504473738372326,-0.3408527672290802,-1.9358513355255127
1789322890960130000,15.674130126953125,0.007941014133393764,-0.4062134325504303,-2.442854642868042
1789322890978980400,15.69298046875,-0.030542362481355667,-0.13377554714679718,-2.8521223068237305
1789322890997830700,15.71183056640625,-0.16553960740566254,-0.02870982140302658,-3.2888779640197754
1789322891016680700,15.7306806640625,-0.28221142292022705,-0.42453885078430176,-3.449530839920044
1789322891035531000,15.749531005859374,-0.8753440976142883,-0.7232431769371033,-3.356682062149048
1789322891054381300,15.76838134765625,-1.138619303703308,-1.2155860662460327,-3.0323221683502197
1789322891073231400,15.7872314453125,-0.7715001106262207,-1.774587631225586,-2.879610300064087
1789322891092081700,15.80608154296875,-0.130721315741539,-1.993270993232727,-2.8545656204223633
1789322891110931700,15.824931640625,0.33474430441856384,-1.8045191764831543,-2.8173038959503174
1789322891129782000,15.843781982421875,0.4593571424484253,-1.6988425254821777,-2.558915615081787
1789322891148632300,15.86263232421875,0.3292466700077057,-1.6585266590118408,-2.0451929569244385
1789322891167482600,15.881482666015625,0.4056025743484497,-1.1508362293243408,-1.618821620941162
1789322891186332700,15.900332763671875,0.5399889945983887,-0.4825693368911743,-1.2333005666732788
1789322891205183000,15.919182861328125,0.4569137394428253,-0.043981000781059265,-0.8087617754936218
1789322891224033000,15.938032958984374,0.25350162386894226,0.09773556143045425,-0.446529358625412
1789322891242883300,15.95688330078125,0.0397050715982914,0.2852656841278076,-0.12155860662460327
1789322891261733600,15.975733642578126,0.05070032179355621,0.499673068523407,0.390942245721817
1789322891280583700,15.994583740234376,-0.053143709897994995,0.36101073026657104,0.9400939345359802
1789322891299434000,16.01343408203125,-0.17409147322177887,0.32374903559684753,1.222305417060852
1789322891318284300,16.0322841796875,-0.2363978922367096,0.546097457408905,1.3163758516311646
1789322891337134300,16.05113427734375,-0.258999228477478,0.8228112459182739,1.5009280443191528
1789322891355984600,16.069984619140627,-0.16187451779842377,0.9492566585540771,1.7593164443969727
1789322891374835000,16.0888349609375,-0.05925218388438225,0.9553651213645935,1.993270993232727
1789322891393685000,16.10768505859375,0.07207997888326645,0.739736020565033,2.240664005279541
1789322891412535300,16.126535400390626,0.23090025782585144,0.7409577369689941,2.455071449279785
1789322891431385600,16.145385498046874,0.365286648273468,0.948034942150116,2.526540517807007
1789322891450235600,16.164235595703126,0.6071822047233582,0.7989882230758667,2.6499316692352295
1789322891469086000,16.1830859375,0.7146912813186646,0.911384105682373,2.680474042892456
1789322891487936300,16.201936279296874,0.5387672781944275,0.6884248852729797,2.7574408054351807
1789322891506786300,16.220786376953125,0.14843589067459106,0.4752391576766968,3.0115532875061035
1789322891525636600,16.23963671875,-0.12155860662460327,0.09773556143045425,3.0628645420074463
1789322891544487000,16.25848681640625,-0.182643324136734,0.3439069986343384,3.0494258403778076
1789322891563337200,16.277337158203125,-0.284654825925827,0.20096874237060547,2.8008110523223877
1789322891582187300,16.296187255859376,-0.3261924386024475,0.34818294644355774,2.0745136737823486
1789322891601037600,16.31503759765625,-0.21623992919921875,0.6316160559654236,1.5785056352615356
1789322891619887900,16.333887939453124,0.007941014133393764,0.2602209448814392,1.151447057723999
1789322891638738000,16.352738037109376,0.1948602795600891,-0.1447708010673523,0.81425940990448
1789322891657588200,16.371588134765624,0.18081079423427582,-0.16004198789596558,0.6218425035476685
1789322891676438500,16.3904384765625,0.13377554714679718,-0.1056765764951706,0.36223241686820984
1789322891695288800,16.409288818359375,0.062306419014930725,-0.2901524603366852,-0.04581354558467865
1789322891714139000,16.428138916015627,0.11911521852016449,-0.17836740612983704,-0.7739434838294983
1789322891732989200,16.4469892578125,0.01038440316915512,-0.05375456064939499,-1.4160202741622925
1789322891751839500,16.465839599609374,0.014049487188458443,-0.09590301662683487,-1.7525970935821533
1789322891770689500,16.484689453125,0.09590301662683487,-0.07085828483104706,-2.1979048252105713
1789322891789539800,16.503539794921874,0.23212195932865143,-0.0018325417768210173,-2.8154714107513428
1789322891808390100,16.52239013671875,0.265718549489975,0.09651386737823486,-3.1263926029205322
1789322891827240200,16.541240234375,0.017714571207761765,0.08796200156211853,-3.214965581893921
1789322891846090500,16.560090576171874,-0.3390202224254608,-0.28098973631858826,-3.0225486755371094
1789322891864940800,16.57894091796875,-0.6267293095588684,-0.7275190949440002,-3.083022356033325
1789322891883791000,16.597791015625,-0.684759795665741,-1.022558331489563,-3.1477723121643066
1789322891902641200,16.61664111328125,-0.4679090082645416,-1.6175998449325562,-3.2314584255218506
1789322891921491500,16.635491455078125,0.08796200156211853,-1.852776050567627,-3.232680082321167
1789322891940341800,16.654341796875,0.6438329815864563,-1.4587795734405518,-2.949246883392334
1789322891959192000,16.673192138671876,0.707361102104187,-1.7990214824676514,-2.446519613265991
1789322891978042000,16.6920419921875,0.3414636254310608,-1.8491109609603882,-2.0219807624816895
1789322891996892400,16.710892333984376,0.3775036036968231,-0.7470661997795105,-1.7018967866897583
1789322892015742700,16.72974267578125,0.7177455425262451,-0.008551862090826035,-1.4716074466705322
1789322892034592800,16.7485927734375,0.5381564497947693,0.022601349279284477,-1.119683027267456
1789322892053443000,16.767443115234375,0.13682979345321655,-0.1820324808359146,-0.46668729186058044
1789322892072293400,16.78629345703125,-0.046424392610788345,-0.07452336698770523,0.11911521852016449
1789322892091143700,16.805143798828126,-0.06841489672660828,0.1319430023431778,0.49295374751091003
1789322892109993700,16.82399365234375,-0.05375456064939499,0.45019441843032837,0.7391251921653748
1789322892128844000,16.842843994140626,-0.11483928561210632,0.42881476879119873,1.003622055053711
1789322892147694300,16.8616943359375,-0.1698155403137207,0.6438329815864563,1.4172420501708984
1789322892166544600,16.880544677734374,-0.1301104724407196,0.8069292306900024,1.877210021018982
1789322892185394700,16.899394775390626,0,0.9290986657142639,2.009152889251709
1789322892204245000,16.918244873046874,0.04092676565051079,0.7763868570327759,2.020759105682373
1789322892223095300,16.93709521484375,-0.04092676565051079,0.7782194018363953,2.051912307739258
1789322892241945600,16.955945556640625,-0.04459185153245926,0.873511552810669,2.145371913909912
1789322892260796000,16.9747958984375,0.21562908589839935,1.3531030416488647,2.2040133476257324
1789322892279646000,16.99364599609375,0.4856235682964325,1.2424633502960205,2.34206485748291
1789322892298496300,17.012496337890624,0.5015056133270264,0.8215895891189575,2.5289840698242188
1789322892317346600,17.0313466796875,0.1044548824429512,0.767224133014679,2.523486375808716
1789322892336196900,17.05019677734375,-0.12216944992542267,0.7000309824943542,2.6157243251800537
1789322892355047000,17.069046875,-0.08246438205242157,0.6420004963874817,2.6578726768493652
1789322892373897200,17.087897216796875,0.036039989441633224,0.33535513281822205,2.5827386379241943
1789322892392747500,17.10674755859375,-0.0647498071193695,0.19180603325366974,2.327404499053955
1789322892411597800,17.125597900390623,-0.2748812735080719,0.2626643180847168,2.078789472579956
1789322892430448000,17.1444482421875,-0.13560809195041656,0.33352261781692505,1.9407380819320679
1789322892449298200,17.163298095703126,0.1044548824429512,-0.08429691940546036,1.497262954711914
1789322892468148500,17.1821484375,0.08246438205242157,-0.3530697226524353,1.032942771911621
1789322892486998800,17.200998779296874,-0.10262233763933182,-0.469741553068161,0.7226322889328003
1789322892505849000,17.21984912109375,-0.1588202863931656,-0.129499614238739,0.1948602795600891
1789322892524699400,17.238699462890626,-0.37506023049354553,0.22601348161697388,-0.30481278896331787
1789322892543549400,17.257549560546874,-0.35917818546295166,0.4874561131000519,-0.41354358196258545
1789322892562399700,17.276399658203125,-0.1588202863931656,0.38544461131095886,-0.7440119385719299
1789322892581250000,17.29525,0.1447708010673523,0.22540263831615448,-1.4581687450408936
1789322892600100400,17.314100341796873,0.2754921019077301,-0.17775654792785645,-2.243718385696411
1789322892618950700,17.33295068359375,0.09895725548267365,-0.07452336698770523,-2.998114585876465
1789322892637801000,17.351801025390625,-0.27121618390083313,0.12522368133068085,-3.2864346504211426
1789322892656651000,17.370651123046876,-0.5876350402832031,0.0390942245721817,-3.131279468536377
1789322892675501300,17.389501220703124,-0.8130376935005188,-0.0647498071193695,-3.023770332336426
1789322892694351600,17.4083515625,-0.9694145917892456,-1.2082558870315552,-2.9736807346343994
1789322892713202000,17.427201904296876,-0.9914051294326782,-1.2039799690246582,-2.9804000854492188
1789322892732052200,17.44605224609375,-0.6193991303443909,-1.8002432584762573,-3.056756019592285
1789322892750902500,17.464902587890624,-0.07024743407964706,-2.26387619972229,-3.105012893676758
1789322892769752600,17.483752685546875,0.40071579813957214,-1.8417809009552002,-2.88510799407959
1789322892788603000,17.502602783203123,0.6572716236114502,-1.3017154932022095,-2.3322911262512207
1789322892807453200,17.521453125,0.5467082858085632,-1.202147364616394,-1.742823600769043
1789322892826303500,17.540303466796875,0.47585001587867737,-1.3469945192337036,-1.3934189081192017
1789322892845153800,17.55915380859375,0.19302773475646973,-0.8112051486968994,-1.2003148794174194
1789322892864004000,17.578004150390626,0.10934165865182877,0.3176405727863312,-0.8918370008468628
1789322892882854100,17.596854248046874,0.42453885078430176,1.0451596975326538,-0.555260181427002
1789322892901704400,17.615704345703126,0.3524588644504547,0.6401679515838623,-0.06047387793660164
1789322892920554800,17.6345546875,0.06719319522380829,0.4593571424484253,0.6053496599197388
1789322892939405000,17.653405029296874,-0.07452336698770523,0.2883199155330658,1.192984700202942
1789322892958255400,17.67225537109375,-0.19913621246814728,0.3280249834060669,1.4337348937988281
1789322892977105700,17.691105712890625,-0.21929416060447693,0.7922688722610474,1.568121314048767
1789322892995956000,17.7099560546875,-0.1716480851173401,0.892447829246521,1.6408120393753052
1789322893014806000,17.728805908203125,-0.0910162404179573,0.8423583507537842,1.640201210975647
1789322893033656300,17.74765625,-0.1301104724407196,0.6896465420722961,1.766035795211792
1789322893052506600,17.766506591796876,-0.16004198789596558,0.7507312893867493,2.103834390640259
1789322893071357000,17.78535693359375,-0.042759306728839874,0.7769976854324341,2.45995831489563
1789322893090207200,17.804207275390624,0.17531315982341766,0.5564818382263184,2.448352098464966
1789322893109057500,17.8230576171875,0.2736595869064331,0.5723638534545898,2.238220691680908
1789322893127907800,17.841907958984375,0.23028941452503204,0.892447829246521,2.4117014408111572
1789322893146758100,17.860758056640623,0.40193748474121094,0.6994200944900513,2.70857310295105
1789322893165608400,17.8796083984375,0.5613686442375183,0.5100574493408203,2.8906056880950928
1789322893184458500,17.89845849609375,0.23334364593029022,0.2638860046863556,2.8124170303344727
1789322893203308800,17.917308837890626,-0.2767138183116913,-0.1979145109653473,2.5631914138793945
1789322893222159000,17.9361591796875,-0.5821374654769897,0.237008735537529,2.7012429237365723
1789322893241009400,17.955009521484374,-0.28343313932418823,0.29565006494522095,2.373828887939453
1789322893259859700,17.973859619140626,0.0659715011715889,0.33169007301330566,1.6847931146621704
1789322893278710000,17.9927099609375,-0.04886778071522713,0.07513421028852463,1.2748382091522217
1789322893297560300,18.011560302734374,-0.16248537600040436,0.12522368133068085,1.0482138395309448
1789322893316410600,18.03041064453125,-0.0647498071193695,-0.054365407675504684,0.6688777208328247
1789322893335261000,18.049260986328125,0.14843589067459106,-0.26632940769195557,0.2351761907339096
1789322893354111200,18.068111328125,0.12522368133068085,-0.3432961702346802,-0.16065283119678497
1789322893372961500,18.08696142578125,-0.015271181240677834,-0.21562908589839935,-0.7922688722610474
1789322893391811800,18.105811767578125,-0.16553960740566254,-0.1960819661617279,-1.3023263216018677
1789322893410662100,18.124662109375,-0.130721315741539,-0.01832541823387146,-1.5351355075836182
1789322893429512400,18.143512451171876,0.0397050715982914,0.08857285231351852,-1.8808751106262207
1789322893448362800,18.16236279296875,0.2101314514875412,-0.11422843486070633,-2.3597793579101562
1789322893467212800,18.181212890625,0.26816195249557495,-0.10995250940322876,-2.773322820663452
1789322893486063400,18.2000634765625,0.007330167107284069,-0.2522799074649811,-2.9358081817626953
1789322893504913700,18.21891357421875,-0.30664533376693726,-0.08246438205242157,-2.9272563457489014
1789322893523763700,18.237763671875,-0.6340594291687012,-0.3830012381076813,-2.8258557319641113
1789322893542614000,18.256614013671875,-0.7434011101722717,-0.7421793937683105,-2.770268678665161
1789322893561464300,18.27546435546875,-0.5851916670799255,-1.4807701110839844,-2.778209686279297
1789322893580314600,18.294314697265627,-0.23212195932865143,-1.728163242340088,-3.046982526779175
1789322893599165000,18.3131650390625,0.2987042963504791,-1.793523907661438,-3.1361660957336426
1789322893618015200,18.33201513671875,0.656660795211792,-1.5198643207550049,-2.807530403137207
1789322893636865500,18.350865478515626,0.5974085927009583,-1.0628741979599,-2.2107326984405518
1789322893655715800,18.3697158203125,0.6859814524650574,-0.5528167486190796,-1.497262954711914
1789322893674566100,18.388566162109374,0.7379034757614136,-0.4300364851951599,-0.9571976661682129
1789322893693416400,18.40741650390625,0.44042086601257324,-0.420873761177063,-0.6927008032798767
1789322893712266800,18.426266845703125,0.12827792763710022,-0.129499614238739,-0.5216635465621948
1789322893731117000,18.445116943359373,-0.1459924876689911,0.14110571146011353,-0.24250635504722595
1789322893749967400,18.46396728515625,-0.2583884000778198,0.44042086601257324,0.16126367449760437
1789322893768817700,18.482817626953125,-0.17653486132621765,0.5192201733589172,0.6823163628578186
1789322893787668000,18.50166796875,-0.13499724864959717,0.367730051279068,1.1850436925888062
1789322893806518300,18.520518310546876,-0.12094775587320328,0.3646758198738098,1.515588402748108
1789322893825368800,18.539368896484376,-0.182643324136734,0.40071579813957214,1.6884582042694092
1789322893844219000,18.558218994140624,-0.22723518311977386,0.7324058413505554,1.751375436782837
1789322893863069400,18.5770693359375,-0.23028941452503204,0.7275190949440002,1.8741557598114014
1789322893881919700,18.595919677734376,-0.15332266688346863,0.6554391384124756,1.95967435836792
1789322893900770000,18.61477001953125,-0.0397050715982914,0.8240329623222351,1.9779998064041138
1789322893919620400,18.633620361328123,0.25716668367385864,0.9217684864997864,2.026867628097534
1789322893938470700,18.652470703125,0.48073679208755493,1.1068552732467651,2.171027421951294
1789322893957321000,18.671321044921875,0.4575245976448059,0.8857285380363464,2.549752712249756
1789322893976171300,18.690171142578127,0.1979145109653473,0.8075400590896606,2.804476022720337
1789322893995021600,18.709021484375,0.12705622613430023,0.5705313682556152,2.6786415576934814
1789322894013871900,18.727871826171874,-0.05803048983216286,0.6041279435157776,2.509436845779419
1789322894032722200,18.74672216796875,-0.3139754831790924,-0.2761029601097107,2.5112693309783936
1789322894051572500,18.765572509765626,-0.3689517378807068,-0.1441599577665329,2.277925729751587
1789322894070422800,18.7844228515625,-0.3573456406593323,0.08063183724880219,2.194850444793701
1789322894089273000,18.803273193359374,-0.24250635504722595,0.32191649079322815,2.2889211177825928
1789322894108123400,18.822123291015625,-0.25777754187583923,0.3683409094810486,2.0708484649658203
1789322894126973700,18.8409736328125,-0.2113531529903412,0.4190412163734436,2.035419464111328
1789322894145824000,18.859823974609377,-0.18936264514923096,0.17286977171897888,1.5461307764053345
1789322894164674600,18.878674560546877,-0.183865025639534,0.237008735537529,0.8643488883972168
1789322894183524900,18.89752490234375,-0.02504473738372326,0.2492256760597229,0.18814095854759216
1789322894202375200,18.916375244140625,0.2357870489358902,-0.03298575058579445,-0.6187883019447327
1789322894221225500,18.9352255859375,0.1948602795600891,0.19424942135810852,-1.4801592826843262
1789322894240075800,18.95407568359375,0.15087927877902985,0.02076880633831024,-1.833839774131775
1789322894258926000,18.972926025390624,0.011606098152697086,0.10323318839073181,-2.1985156536102295
1789322894277776400,18.9917763671875,0.0018325417768210173,-0.01954711228609085,-2.6578726768493652
1789322894296627000,19.010626953125,0.12094775587320328,-0.022601349279284477,-2.8979358673095703
1789322894315477200,19.029477294921875,0.05497625470161438,-0.02504473738372326,-3.2803261280059814
1789322894334327600,19.04832763671875,-0.12766708433628082,-0.7873821258544922,-3.296818971633911
1789322894353177900,19.067177734375,-0.41232189536094666,-1.3482162952423096,-3.070805549621582
1789322894372028200,19.086028076171875,-0.6908682584762573,-1.4221287965774536,-2.7372829914093018
1789322894390878500,19.10487841796875,-0.70797199010849,-1.6243191957473755,-2.6444342136383057
1789322894409728800,19.123728759765626,-0.3927747905254364,-1.742823600769043,-2.743391513824463
1789322894428579000,19.1425791015625,0.1844758689403534,-1.5589585304260254,-2.5662457942962646
1789322894447429600,19.1614296875,0.5045598149299622,-1.4923762083053589,-2.34206485748291
1789322894466280000,19.180280029296874,0.5289937257766724,-2.174081802368164,-2.260211229324341
1789322894485130200,19.199130126953126,0.5876350402832031,-1.5357463359832764,-2.1404850482940674
1789322894503980500,19.21798046875,0.8246437907218933,-0.3793361485004425,-1.8601062297821045
1789322894522830800,19.236830810546873,1.0115630626678467,0.02748812735080719,-1.3023263216018677
1789322894541681200,19.25568115234375,0.8075400590896606,0.18081079423427582,-0.6181774139404297
1789322894560531500,19.274531494140625,0.2754921019077301,-0.14782503247261047,-0.08674030750989914
1789322894579382000,19.293382080078125,0.1172826737165451,-0.024433890357613564,0.41537612676620483
1789322894598232300,19.312232421875,0.09895725548267365,0.18814095854759216,0.48928865790367126
1789322894617082600,19.33108251953125,0.05864133685827255,0.5809157490730286,0.5522059202194214
1789322894635933000,19.349932861328124,-0.03237490355968475,1.087918996810913,0.9260444641113281
1789322894654783200,19.368783203125,-0.1459924876689911,0.9352071285247803,1.4184637069702148
1789322894673633800,19.3876337890625,-0.1960819661617279,0.7684458494186401,1.7727551460266113
1789322894692484000,19.406484130859376,-0.23090025782585144,0.7495095729827881,1.8087950944900513
1789322894711334400,19.42533447265625,-0.31031039357185364,0.5680879354476929,1.654861569404602
1789322894730184700,19.444184814453124,-0.34757208824157715,0.7776085734367371,1.852776050567627
1789322894749035000,19.463034912109375,0.030542362481355667,1.0347752571105957,2.223560333251953
1789322894767885600,19.481885498046875,0.4691306948661804,1.040272831916809,2.3958191871643066
1789322894786735900,19.50073583984375,0.6273401379585266,0.8301414251327515,2.4880571365356445
1789322894805586200,19.519586181640626,0.38483378291130066,0.6450546979904175,2.605340003967285
1789322894824436500,19.5384365234375,0.1692046970129013,0.6615476012229919,2.6933019161224365
1789322894843286800,19.557286865234374,0.10140064358711243,0.35856732726097107,2.7953133583068848
1789322894862137300,19.576137451171874,0.08368607610464096,0.3506263196468353,2.8557872772216797
1789322894880987600,19.594987548828126,-0.1319430023431778,0.32191649079322815,3.053091049194336
1789322894899838000,19.613837890625,-0.37567105889320374,0.07207997888326645,2.9132068157196045
1789322894918688300,19.632688232421874,-0.2864873707294464,0.41354358196258545,2.0482470989227295
1789322894937538800,19.651538818359374,-0.06719319522380829,0.6786513328552246,1.783750295639038
1789322894956389000,19.67038916015625,0.18081079423427582,0.37506023049354553,1.192984700202942
1789322894975239400,19.689239501953125,0.17531315982341766,0.03176405653357506,0.9199360013008118
1789322894994089700,19.70808984375,-0.11545012891292572,0.13377554714679718,0.5497625470161438
1789322895012940300,19.726940185546876,-0.42331716418266296,0.2602209448814392,0.16370706260204315
1789322895031790600,19.74579052734375,-0.4227063059806824,0.22906772792339325,-0.4611896872520447
1789322895050641000,19.764640869140624,-0.13560809195041656,0.12888877093791962,-1.0011786222457886
1789322895069491200,19.7834912109375,0.19974705576896667,0.029320668429136276,-1.6078263521194458
1789322895088341800,19.802341796875,0.34757208824157715,-0.06169557198882103,-2.188742160797119
1789322895107192000,19.821192138671876,0.2473931461572647,0.0910162404179573,-2.6090049743652344
1789322895126042400,19.84004248046875,-0.08185353130102158,-0.21807247400283813,-2.775155544281006
1789322895144893000,19.858892822265624,-0.19974705576896667,-0.22601348161697388,-2.876556158065796
1789322895163743200,19.8777431640625,-0.4172086715698242,-0.5595360994338989,-2.9217588901519775
1789322895182593500,19.896593505859375,-0.6902574300765991,-0.28098973631858826,-2.9156503677368164
1789322895201443800,19.91544384765625,-0.897334635257721,-0.4178195297718048,-2.864949941635132
1789322895220294400,19.93429443359375,-0.8344173431396484,-1.0286667346954346,-2.775155544281006
1789322895239144700,19.953144775390626,-0.7733326554298401,-0.999346137046814,-2.6981887817382812
1789322895257995000,19.9719951171875,-0.418430358171463,-1.816736102104187,-2.712238073348999
1789322895276845600,19.990845458984374,0.005497625097632408,-2.035419464111328,-2.621832847595215
1789322895295696000,20.00969580078125,0.3280249834060669,-1.81246018409729,-2.442854642868042
1789322895314546200,20.028546142578126,0.41232189536094666,-1.6078263521194458,-2.1319332122802734
1789322895333396700,20.047396728515626,0.3414636254310608,-1.3023263216018677,-1.7037293910980225
1789322895352247000,20.0662470703125,0.4049917459487915,-0.8484668135643005,-1.428848147392273
1789322895371097300,20.085097412109373,0.42453885078430176,-0.30969956517219543,-1.035386085510254
1789322895389947600,20.10394775390625,0.3836120665073395,0.0916270911693573,-0.5063923597335815
1789322895408798200,20.122798095703125,0.3414636254310608,0.5607577562332153,-0.2773246467113495
1789322895427648500,20.1416484375,0.1985253542661667,0.6694886088371277,0.010995250195264816
1789322895446498800,20.160498779296876,-0.014660334214568138,0.3811686933040619,0.4990622103214264
1789322895465349400,20.179349365234376,-0.07391251623630524,0.5589252710342407,0.9773555994033813
1789322895484199700,20.19819970703125,-0.11972606182098389,0.5247178077697754,1.492987036705017
1789322895503050000,20.217050048828124,-0.15271180868148804,0.6554391384124756,1.8765991926193237
1789322895521900500,20.235900634765624,-0.10262233763933182,0.8722898960113525,1.9010330438613892
1789322895540750800,20.254750732421876,-0.015271181240677834,0.9407047629356384,1.852776050567627
1789322895559601200,20.27360107421875,0.05070032179355621,1.1038010120391846,1.8460568189620972
1789322895578451700,20.29245166015625,0.1692046970129013,1.2094775438308716,2.1551454067230225
1789322895597302000,20.311302001953123,0.2773246467113495,1.2650647163391113,2.4996633529663086
1789322895616152600,20.330152587890623,0.31947311758995056,0.8875610828399658,2.4336917400360107
1789322895635003000,20.3490029296875,0.12400199472904205,0.9718579649925232,2.177135944366455
1789322895653853200,20.367853271484375,-0.22662433981895447,0.8985562920570374,2.48622465133667
1789322895672703700,20.386703857421875,-0.08002099394798279,0.32374903559684753,2.8631174564361572
1789322895691554000,20.405553955078126,0.16370706260204315,0.21257483959197998,2.527151584625244
1789322895710404400,20.424404296875,-0.05925218388438225,0.20280128717422485,2.4672884941101074
1789322895729255000,20.4432548828125,-0.4324798583984375,-0.6016845703125,2.5827386379241943
1789322895748105200,20.462105224609374,-0.2473931461572647,-0.4563029110431671,2.1264357566833496
1789322895766955500,20.48095556640625,-0.06047387793660164,0.33413344621658325,1.5791164636611938
1789322895785806000,20.49980615234375,-0.07330167293548584,0.12827792763710022,1.4887111186981201
1789322895804656400,20.518656494140625,-0.1704263836145401,0.20524467527866364,1.309045672416687
1789322895823507000,20.5375068359375,-0.18753011524677277,0.05008947476744652,1.1013575792312622
1789322895851782400,20.565782470703127,-0.12522368133068085,-0.17409147322177887,0.2632751762866974
1789322895870633000,20.584633056640627,-0.13866232335567474,-0.07146912813186646,-0.2773246467113495
1789322895889483300,20.603483154296875,-0.13988402485847473,0.26632940769195557,-0.6041279435157776
1789322895908333800,20.622333740234374,-0.08551861345767975,0.13805148005485535,-0.8087617754936218
1789322895927184100,20.64118408203125,0.012216945178806782,0.1973036676645279,-1.349437952041626
1789322895946034400,20.660034423828126,0.08612946420907974,0.1044548824429512,-1.8185685873031616
1789322895964885000,20.678885009765626,0.08429691940546036,0.0018325417768210173,-2.3524491786956787
1789322895983735300,20.6977353515625,-0.024433890357613564,-0.2632751762866974,-2.998725652694702
1789322896002585900,20.7165859375,-0.00916270911693573,-0.2473931461572647,-3.232680082321167
1789322896021436200,20.735436279296874,-0.11300674080848694,-0.08979454636573792,-3.293154001235962
1789322896040286700,20.75428662109375,-0.5442649126052856,-0.833195686340332,-3.1044020652770996
1789322896059137000,20.773136962890625,-0.9040539264678955,-1.53452467918396,-2.896713972091675
1789322896077987600,20.791987548828125,-0.7959339618682861,-1.6243191957473755,-2.9296998977661133
1789322896096838000,20.810837890625,-0.3414636254310608,-1.502760648727417,-2.9070985317230225
1789322896115688200,20.829688232421876,0.11483928561210632,-1.9163042306900024,-2.796535015106201
1789322896134538800,20.848538818359376,0.35856732726097107,-2.1093318462371826,-2.6273303031921387
1789322896162814200,20.876814208984374,0.7403468489646912,-1.0573766231536865,-1.9352405071258545
1789322896181664800,20.895664794921874,0.837471604347229,-0.5241069197654724,-1.5442981719970703
1789322896200515000,20.91451513671875,0.6395570635795593,-0.420873761177063,-1.2290246486663818
1789322896219365600,20.93336572265625,0.19058434665203094,-0.2498365342617035,-0.6945333480834961
1789322896238216000,20.9522158203125,-0.0787992998957634,0.19241689145565033,0.015271181240677834
1789322896257066500,20.97106640625,-0.04092676565051079,0.5143333673477173,0.3506263196468353
1789322896275916800,20.989916748046873,0.16431790590286255,0.8631271719932556,0.5338805317878723
1789322896294767400,21.008767333984373,0.18081079423427582,0.5662553906440735,0.91566002368927
1789322896313617700,21.02761767578125,0.1301104724407196,0.5528167486190796,1.2027583122253418
1789322896332468200,21.04646826171875,0.055587101727724075,0.7592831254005432,1.627373456954956
1789322896351318500,21.065318603515625,-0.10140064358711243,0.8154810667037964,1.9358513355255127
1789322896370169000,21.084169189453124,-0.21440738439559937,0.5021164417266846,2.092839002609253
1789322896389019400,21.103019287109376,-0.2376195788383484,0.6658235192298889,2.070237636566162
1789322896407870000,21.121869873046876,-0.30481278896331787,0.971247136592865,1.9211909770965576
1789322896426720300,21.14072021484375,-0.05070032179355621,1.0488247871398926,2.017704963684082
1789322896445570800,21.15957080078125,0.3274141252040863,1.090362310409546,2.344508171081543
1789322896464421000,21.178421142578124,0.5809157490730286,1.0512681007385254,2.705518960952759
1789322896483271700,21.197271728515624,0.4868452548980713,0.7995990514755249,2.8612849712371826
1789322896502122000,21.2161220703125,0.22662433981895447,0.6688777208328247,2.937640905380249
1789322896520972500,21.23497265625,-0.021990500390529633,0.3811686933040619,2.929089069366455
1789322896539822800,21.25382275390625,-0.07330167293548584,-0.14965757727622986,2.7714903354644775
1789322896558673400,21.27267333984375,-0.16126367449760437,0.28221142292022705,2.477672815322876
1789322896577523700,21.291523681640626,-0.33596599102020264,0.24556060135364532,2.538757562637329
1789322896596374300,21.310374267578126,-0.23945212364196777,0.19058434665203094,2.3109116554260254
1789322896615224600,21.329224609375,-0.09529217332601547,0.043981000781059265,1.5736188888549805
1789322896634075100,21.3480751953125,-0.12827792763710022,0.23212195932865143,1.216196894645691
1789322896662350800,21.376350830078124,-0.07269082218408585,-0.29259583353996277,0.5051707029342651
1789322896681201200,21.395201171875,-0.15454435348510742,0.028098974376916885,0.02076880633831024
1789322896700051700,21.4140517578125,-0.15210096538066864,0.03176405653357506,-0.14171656966209412
1789322896718902000,21.432902099609375,-0.1441599577665329,0.20035789906978607,-0.5790832042694092
1789322896737752600,21.451752685546875,-0.03787253051996231,0.06780404597520828,-0.8429692387580872
1789322896756603000,21.470602783203127,0.08124268800020218,-0.08918370306491852,-1.1343433856964111
1789322896775453400,21.489453369140627,0.05925218388438225,-0.23945212364196777,-1.7813069820404053
1789322896794303700,21.5083037109375,0.0397050715982914,-0.09040539711713791,-2.475229501724243
1789322896813154300,21.527154296875,0.01710372418165207,0.18997350335121155,-2.8991575241088867
1789322896832004900,21.5460048828125,-0.09773556143045425,-0.2632751762866974,-3.065307855606079
1789322896850855200,21.564855224609374,-0.1966928243637085,-0.43614494800567627,-3.0958502292633057
1789322896869705700,21.583705810546874,-0.5705313682556152,-0.4318690001964569,-3.085465908050537
1789322896888556000,21.60255615234375,-0.9168817400932312,-0.9718579649925232,-2.836851119995117
1789322896907406600,21.621406494140626,-1.0811996459960938,-1.2192511558532715,-2.4880571365356445
1789322896926257000,21.6402568359375,-0.6890357136726379,-2.0690159797668457,-2.911985158920288
1789322896945107500,21.659107421875,-0.034818295389413834,-2.1979048252105713,-3.1996943950653076
1789322896963958000,21.6779580078125,0.5393781065940857,-1.839948296546936,-2.6847500801086426
1789322896982808300,21.696808349609373,0.6835380792617798,-1.7159463167190552,-2.0189266204833984
1789322897001659000,21.715658935546877,0.4703523814678192,-1.382423758506775,-1.5326920747756958
1789322897020509200,21.73450927734375,0.37322768568992615,-0.8765658140182495,-1.254069447517395
1789322897039359700,21.75335986328125,0.36039987206459045,-0.3793361485004425,-1.1764918565750122
1789322897058210000,21.7722099609375,0.24372805655002594,0.11422843486070633,-0.9052756428718567
1789322897077060600,21.791060546875,0.26632940769195557,0.48989951610565186,-0.2864873707294464
1789322897095911200,21.8099111328125,0.33169007301330566,0.6297835111618042,0.3023693859577179
1789322897114761500,21.828761474609376,0.4587462842464447,0.46485477685928345,0.7146912813186646
1789322897133612000,21.847612060546876,0.4563029110431671,0.4043808877468109,1.1984822750091553
1789322897161887700,21.8758876953125,0.39827242493629456,0.42576053738594055,1.7990214824676514
1789322897180738000,21.894738037109374,0.2516690790653229,0.6395570635795593,1.9163042306900024
1789322897199588600,21.913588623046873,-0.03665083646774292,1.0024003982543945,1.8387266397476196
1789322897218439000,21.93243896484375,-0.30481278896331787,0.8722898960113525,1.8937028646469116
1789322897237289500,21.95128955078125,-0.1447708010673523,0.8044858574867249,2.084287166595459
1789322897256140000,21.97014013671875,0.0922379344701767,1.249793529510498,1.9969360828399658
1789322897274990300,21.988990234375,0.33352261781692505,0.9462023973464966,2.0891740322113037
1789322897293841000,22.0078408203125,0.3542914092540741,0.9242119193077087,2.2541027069091797
1789322897312691200,22.026691162109376,0.2229592502117157,0.70797199010849,2.252270221710205
1789322897331541800,22.045541748046876,0.30847787857055664,0.5711421966552734,2.28342342376709
1789322897350392300,22.064392333984376,0.07635590434074402,0.3524588644504547,2.659705400466919
1789322897369242600,22.08324267578125,-0.09529217332601547,-0.49112120270729065,2.943138360977173
1789322897388093200,22.10209326171875,-0.16615045070648193,-0.786771297454834,3.0842442512512207
1789322897406943700,22.12094384765625,-0.25533416867256165,-0.24372805655002594,2.9016008377075195
1789322897425794000,22.1397939453125,-0.2736595869064331,0.23151111602783203,2.613891839981079
1789322897444644600,22.15864453125,-0.38544461131095886,0.6145123243331909,2.2479941844940186
1789322897463495200,22.1774951171875,-0.4282039403915405,0.6743753552436829,1.6475313901901245
1789322897482345500,22.196345458984375,-0.18019993603229523,0.6664343476295471,1.3127107620239258
1789322897501196000,22.215196044921875,0.19119518995285034,0.4850127100944519,0.6157340407371521
1789322897520046600,22.234046630859375,0.49112120270729065,0.34879377484321594,0.037261683493852615
1789322897538897000,22.25289697265625,0.42637139558792114,0.07269082218408585,-0.5277720093727112
1789322897557747500,22.27174755859375,0.08551861345767975,0.16798299551010132,-1.1129636764526367
1789322897576597800,22.29059765625,-0.1429382562637329,-0.17653486132621765,-1.4416759014129639
1789322897595448300,22.3094482421875,-0.2095206081867218,0.01832541823387146,-2.098947525024414
1789322897614299000,22.328298828125,-0.07269082218408585,-0.12644538283348083,-2.5198214054107666
1789322897633149200,22.347149169921874,0.24006296694278717,0.13744063675403595,-2.8032543659210205
1789322897661425000,22.3754248046875,0.35856732726097107,-0.6395570635795593,-3.050647497177124
1789322897680275500,22.394275390625,0.02626643143594265,-0.5344913601875305,-3.1795363426208496
1789322897699126000,22.4131259765625,-0.45263782143592834,-0.34573954343795776,-3.255281448364258
1789322897717976300,22.431976318359375,-0.9419264793395996,-0.7934905886650085,-3.1044020652770996
1789322897736827000,22.450826904296875,-1.2632321119308472,-1.0928057432174683,-2.9645180702209473
1789322897755677400,22.469677490234375,-1.0708152055740356,-1.8649930953979492,-2.9852869510650635
1789322897774527700,22.48852783203125,-0.5925218462944031,-1.8747665882110596,-3.007277488708496
1789322897793378300,22.50737841796875,0.1313321590423584,-1.4416759014129639,-2.975513458251953
1789322897812228900,22.526228759765626,0.6316160559654236,-1.7122812271118164,-2.951690196990967
1789322897831079200,22.5450791015625,0.7159129977226257,-1.376926064491272,-2.5686891078948975
1789322897849929700,22.5639296875,0.5595360994338989,-0.4434750974178314,-1.5656778812408447
1789322897868780300,22.5827802734375,0.3811686933040619,-0.22479179501533508,-0.7751652002334595
1789322897887630600,22.601630615234374,0.08124268800020218,-0.27915719151496887,-0.497229665517807
1789322897906481200,22.620481201171874,-0.05008947476744652,-0.3054236173629761,-0.1710372269153595
1789322897925331700,22.639331787109374,-0.08796200156211853,0.19241689145565033,0.14660334587097168
1789322897944182000,22.65818212890625,-0.0525328628718853,0.39643988013267517,0.5344913601875305
1789322897963032600,22.677032470703125,-0.07513421028852463,0.3506263196468353,1.0579874515533447
1789322897981883100,22.695883056640625,-0.043981000781059265,0.4587462842464447,1.4868786334991455
1789322898000733400,22.7147333984375,0.02748812735080719,0.7379034757614136,1.7116703987121582
1789322898019584000,22.733583984375,-0.1563768982887268,0.6890357136726379,1.5864466428756714
1789322898038434600,22.7524345703125,-0.30847787857055664,0.9034430980682373,1.789247989654541
1789322898057284900,22.771284912109376,-0.3836120665073395,1.23940908908844,2.2333338260650635
1789322898076135400,22.790135498046876,-0.2486148327589035,1.0592091083526611,2.601674795150757
1789322898094986000,22.808986083984376,-0.474017471075058,0.39766156673431396,2.8490679264068604
1789322898113836500,22.82783642578125,-3.9870765209198,0.1429382562637329,2.894270658493042
1789322898132686800,22.846686767578124,-2.01526141166687,0.7379034757614136,3.398219585418701
1789322898160962600,22.874962646484374,-1.5461307764053345,1.4441193342208862,2.608394145965576
1789322898179813000,22.893813232421873,-1.4636664390563965,0.2980934679508209,1.9254668951034546
1789322898198663700,22.91266357421875,-0.6633801460266113,-0.7495095729827881,0.8380824327468872
1789322898217514000,22.931513916015625,0.5876350402832031,-0.6181774139404297,0.4618005156517029
1789322898236364500,22.950364501953125,1.2039799690246582,-0.8722898960113525,0.42514967918395996
1789322898255215000,22.969215087890625,2.128268241882324,-0.32313820719718933,0.9743013978004456
1789322898274065400,22.9880654296875,1.5736188888549805,0.7782194018363953,1.6628025770187378
1789322898292916000,23.006916015625,0.9260444641113281,-0.1985253542661667,0.7116370797157288
1789322898311766500,23.0257666015625,-0.5375455617904663,1.9444031715393066,1.3402752876281738
1789322898330617000,23.0446171875,-0.028098974376916885,2.6028964519500732,1.612713098526001
1789322898349467400,23.06346728515625,0.4227063059806824,1.2833900451660156,1.9908275604248047
1789322898368318000,23.08231787109375,0.26694026589393616,0.5607577562332153,0.7873821258544922
1789322898387168500,23.10116845703125,0.031153209507465363,0.37078428268432617,-0.5112791657447815
1789322898406019000,23.12001904296875,0.15271180868148804,-0.09712471067905426,-1.296217918395996
1789322898424869400,23.138869384765623,0.4831801950931549,0.09712471067905426,-1.8136818408966064
1789322898443720000,23.157719970703123,0.8753440976142883,-0.4477510452270508,-2.4727859497070312
1789322898462570500,23.176570556640623,1.050046443939209,-0.06841489672660828,-2.497830867767334
1789322898481421000,23.195421142578127,1.129456639289856,0.9907942414283752,-2.937640905380249
1789322898500271400,23.214271240234375,1.497262954711914,2.0922281742095947,-4.176515579223633
1789322898519122000,23.233121826171875,2.312744140625,2.318241596221924,-5.575355529785156
1789322898537972500,23.251972412109374,2.781874656677246,1.858884572982788,-5.8911638259887695
1789322898556822800,23.27082275390625,2.96024227142334,2.5247080326080322,-5.183802604675293
1789322898575673300,23.28967333984375,2.5112693309783936,2.0195374488830566,-3.3212528228759766
1789322898594524000,23.30852392578125,2.8234124183654785,-0.2602209448814392,-2.382380723953247
1789322898613374500,23.32737451171875,3.270552635192871,0.182643324136734,-2.6810848712921143
1789322898632224800,23.346224853515626,3.3273613452911377,1.6163781881332397,-3.392111301422119
1789322898651075300,23.365075439453125,2.873501777648926,0.012827792204916477,-2.897324800491333
1789322898669926000,23.38392578125,2.223560333251953,-0.7293516397476196,-1.663413405418396
1789322898688776200,23.402776123046873,1.0824213027954102,0.5137225389480591,-0.8215895891189575
1789322898707626800,23.421626708984373,0.20707722008228302,-1.087918996810913,-0.15087927877902985
1789322898726477300,23.440477294921877,-0.38727715611457825,-3.06164288520813,0.26816195249557495
1789322898745327900,23.459327880859377,-0.33230090141296387,-3.296208143234253,-0.2877090573310852
1789322898764178400,23.478178466796876,-0.6407787799835205,-2.3054139614105225,0.04031591862440109
1789322898783028700,23.49702880859375,-0.42576053738594055,-0.2858765125274658,0.11911521852016449
1789322898801879300,23.51587939453125,0.8154810667037964,0.4227063059806824,0.7049177289009094
1789322898830155000,23.544155029296874,2.3921542167663574,0.17470231652259827,2.069626808166504
1789322898849005600,23.563005615234374,1.9462357759475708,0.6065713167190552,2.0855088233947754
1789322898877281300,23.59128125,1.8271205425262451,0.46607646346092224,1.4960412979125977
1789322898914982400,23.628982421875,2.8356292247772217,1.961506962776184,0.20768806338310242
1789322898933832700,23.647832763671875,1.109298586845398,3.7280771732330322,-1.1080769300460815
1789322898962108700,23.676108642578125,0.46302223205566406,4.05312442779541,-0.8228112459182739
1789322898980959000,23.694958984375,-0.16798299551010132,1.1477819681167603,0.38910970091819763
1789322898999809500,23.7138095703125,-0.37444937229156494,0.7959339618682861,0.6957550048828125
1789322899018660000,23.73266015625,-0.0647498071193695,1.715335488319397,0.6853706240653992
1789322899037510700,23.7515107421875,0.7537854909896851,0.7201889157295227,0.43858832120895386
1789322899056361000,23.77036083984375,1.5314704179763794,-0.8814526200294495,0.3830012381076813
1789322899075211500,23.78921142578125,1.4172420501708984,-1.3127107620239258,0.14782503247261047
1789322899094062000,23.80806201171875,1.6133239269256592,-1.7990214824676514,-0.7220214605331421
1789322899112912600,23.82691259765625,2.038473606109619,-2.455071449279785,-1.7104486227035522
1789322899131763200,23.84576318359375,1.8875943422317505,-1.0195040702819824,-2.9107635021209717
1789322899160039000,23.874038818359374,1.3316470384597778,0.5063923597335815,-4.365267276763916
1789322899178889200,23.89288916015625,0.27121618390083313,-2.1930179595947266,-3.1190624237060547
1789322899197739800,23.91173974609375,0.43858832120895386,-4.530196189880371,-2.4385786056518555
1789322899216590300,23.93059033203125,0.9284878373146057,-4.138031959533691,-1.964561104774475
1789322899235441000,23.94944091796875,0.17897824943065643,-2.8637282848358154,-1.663413405418396
1789322899254291200,23.968291259765625,-0.15332266688346863,-2.8545656204223633,-0.9431481957435608
1789322899273141800,23.987141845703125,-0.730573296546936,-3.177703857421875,-0.05375456064939499
1789322899291992300,24.005992431640625,-0.45263782143592834,-2.1661407947540283,0.2724378705024719
