time,seconds_elapsed,z,y,x
1790097013706094080,0.14409423828125,0.0,0.0,0.0
1790097013716094208,0.15409423828125002,0.09993296561348029,-0.015365851763816628,0.0073852121081162785
1790097013726094080,0.16409423828125003,0.5051427896125441,0.13770076511919438,-0.14545815825826727
1790097013736094208,0.17409423828125004,0.8340788273193147,0.360728174626341,-0.24580013849253202
1790097013746094080,0.18409423828125004,1.1054881298162822,0.3258066675895446,-0.031228718628177027
1790097013756094208,0.19409423828125005,1.0897246812196824,-0.010426637255975119,0.5593925407931718
1790097013766094080,0.20409423828125006,0.7987928008094458,-0.5166752442595992,1.0558877236854556
1790097013776094208,0.21409423828125007,0.43526196394572514,-0.7770247869168468,1.22260004211286
1790097013786094080,0.22409423828125008,-0.02396885511999214,-0.7095850795220232,0.9770273910913518
1790097013796094208,0.2340942382812501,-0.2948999426151603,-0.9509172030374216,0.9701247230077237
1790097013806094080,0.2440942382812501,-0.2215777862444064,-0.49919873470932274,0.507769337640394
1790097013816094208,0.2540942382812501,-0.08756286696984444,0.6572687888612468,-0.384000226619054
1790097013826094080,0.2640942382812501,0.32786812733129816,0.8690517440284629,-0.6332163466620693
1790097013836094208,0.2740942382812501,0.5610171083742573,0.001968819748274564,-0.20826960166119662
1790097013846094080,0.28409423828125013,0.008234064263916707,-0.5269443593926664,0.12936486436429562
1790097013856094208,0.29409423828125014,-0.6361373074791895,-0.880375809231632,0.2836179751224942
1790097013866094080,0.30409423828125015,-1.0218419602789122,-0.7691154777416951,0.25581775366821424
1790097013876094208,0.31409423828125016,-1.3276124102821312,-0.22705343550558468,0.282848826518966
1790097013886094080,0.32409423828125017,-1.0730495419284158,-0.13005041470878262,0.375495395197524
1790097013896094208,0.3340942382812502,-0.5872344600646385,-0.47887641862643804,0.6272267733980845
1790097013906094080,0.3440942382812502,-0.6878511268013942,-1.0006159080339343,0.9395231990195987
1790097013916094208,0.3540942382812502,-0.8855658931472481,-0.7459532346514364,0.6407085850495787
1790097013926094080,0.3640942382812502,-1.4529683052622675,-0.17756453670623146,0.05281554557843712
1790097013936094208,0.3740942382812502,-1.8743998368144992,-0.10733775617496384,0.010363356733634713
1790097013946094080,0.3840942382812502,-2.905614453019191,-0.5526420395387694,0.24313169820463162
1790097013956094208,0.39409423828125023,-2.9417091004404354,-0.408265627575524,0.2623500528597324
1790097013966094080,0.40409423828125024,-1.921731090790182,0.35985330802781185,-0.3083113584981616
1790097013976094208,0.41409423828125025,-1.123193653765268,0.96133620821432,-0.192385639131184
1790097013986094080,0.42409423828125026,-0.24829530585015103,0.4217010752707234,1.2164418312303549
1790097013996094208,0.43409423828125027,0.7530970036744439,-0.5863096127067525,1.890882185860759
1790097014006094080,0.4440942382812503,1.3145294099532912,-0.9718888515790651,1.4881256099192375
1790097014016094208,0.4540942382812503,1.1685652752735278,-0.9592783710836438,0.5303397616548061
1790097014026094080,0.4640942382812503,0.6730849799768811,-0.12613968109930662,-0.829521787585048
1790097014036094208,0.4740942382812503,0.7075847368817233,-0.161723666554869,-0.6760439624734987
1790097014046094080,0.4840942382812503,0.8692769282952153,-0.4996334535497632,-0.23159291218464312
1790097014056094208,0.4940942382812503,0.7245073273521264,-0.36513778482473097,0.002714674205860409
1790097014066094080,0.5040942382812503,0.6059531419959613,-0.3161526889507625,0.10704810305258645
1790097014076094208,0.5140942382812503,0.14708107896079928,-0.4999908138876511,0.23900863105409828
1790097014086094080,0.5240942382812503,-0.6069474231516384,-0.5443563018063213,0.08195410212221958
1790097014096094208,0.5340942382812504,-1.4535508947689906,-0.8537871563902646,0.06225154033993616
1790097014106094080,0.5440942382812504,-0.9951257569819382,-1.5665119380627635,0.797635332671311
1790097014116094208,0.5540942382812504,-0.3456353749439606,-1.98903071092611,1.5030990527865498
1790097014126094080,0.5640942382812504,-0.26487550687055716,-1.8559802756348718,1.6385256831944703
1790097014136094208,0.5740942382812504,0.1776959695491174,-2.0249613681218652,1.743947512704401
1790097014146094080,0.5840942382812504,0.8122893871560006,-2.171452062565854,1.9967598027345173
1790097014156094208,0.5940942382812504,0.5719694814445813,-1.5111289790651714,1.1805335677853717
1790097014166094080,0.6040942382812504,0.1629346596949351,0.24069980687450876,1.148724024742818
1790097014176094208,0.6140942382812504,-1.2905879725991711,0.08839242203395015,0.8793665157390953
1790097014186094080,0.6240942382812504,-4.689879871257908,-2.220618429080325,3.180624391686593
1790097014196094208,0.6340942382812504,-4.276187341929452,-2.5506252449966813,4.307930159357621
1790097014206094080,0.6440942382812505,-1.651340312749814,-0.38343518335678306,2.0676472192506963
1790097014216094208,0.6540942382812505,-2.473693640048942,0.6106526558023455,0.6391958111571686
1790097014226094080,0.6640942382812505,-1.6556455918257007,0.7312368602830536,0.6862125230721803
1790097014236094208,0.6740942382812505,-0.6138052106135267,0.6915134124165248,0.8371247854678776
1790097014246094080,0.6840942382812505,-0.7142814732450206,0.3047806171382068,1.110617416538969
1790097014256094208,0.6940942382812505,0.9530198998091266,0.02435083844011446,1.615680851278906
1790097014266094080,0.7040942382812505,3.367450055785926,-0.7147017180535833,2.1118674687389025
1790097014276094208,0.7140942382812505,5.763700362725817,-1.9114941989337106,2.2560047334007223
1790097014286094080,0.7240942382812505,8.282381841853775,-2.413714035554213,0.9738154401927512
1790097014296094208,0.7340942382812505,7.935881785439372,-1.634859739270317,-1.612470021137831
1790097014306094080,0.7440942382812505,7.753156445393547,-1.132511509747501,-3.091447982863224
1790097014316094208,0.7540942382812506,5.687002824912388,-1.2803172024864222,-3.397523373894214
1790097014326094080,0.7640942382812506,3.267532270322943,-1.679361238394412,-3.1499551701863577
1790097014336094208,0.7740942382812506,0.36151704836363097,-2.110883438622723,-2.975189613471477
1790097014346094080,0.7840942382812506,-1.756813009544058,-2.0761450575571696,-2.7239310559854504
1790097014356094208,0.7940942382812506,-2.690147055941322,-1.5082918765328,-2.410945412989477
1790097014366094080,0.8040942382812506,-2.8786429374677835,-0.6485184127679263,-1.8488393178591984
1790097014376094208,0.8140942382812506,-2.230106598848038,0.05200890649796756,-1.2097328781667525
1790097014386094080,0.8240942382812506,-1.3575600243034125,0.5813056357150023,-0.6858000374568841
1790097014396094208,0.8340942382812506,-0.44749279888784,0.5903579193044751,-0.4055812417895863
1790097014406094080,0.8440942382812506,0.38378066663832755,0.029504006976909927,-0.7196663939734694
1790097014416094208,0.8540942382812506,0.9894320345638957,-0.1329008253943718,-1.7361406253446472
1790097014426094080,0.8640942382812506,1.1123695331539396,-0.3033317844448853,-3.2311692953697384
1790097014436094208,0.8740942382812507,1.0109764175604603,-0.6217549818869937,-4.504353932884311
1790097014446094080,0.8840942382812507,0.5898667352406515,-0.4583854754588294,-4.879143858711817
1790097014456094208,0.8940942382812507,-0.09094929673519198,-0.46445886698157796,-4.149010678737015
1790097014466094080,0.9040942382812507,-0.908724060164881,-1.0249379054389676,-3.2931636668443027
1790097014476094208,0.9140942382812507,-2.020184786754293,-0.9199825037916525,-3.1671065727612464
1790097014486094080,0.9240942382812507,-3.109985930795279,-0.11470425944450424,-3.299709176924583
1790097014496094208,0.9340942382812507,-3.5609412788156143,0.19791762624716047,-3.3719321887151343
1790097014506094080,0.9440942382812507,-2.1412913551200807,0.07326890912454248,-3.674633526687836
1790097014516094208,0.9540942382812507,-0.4850914565131026,1.0324693233159936,-3.9945138155262487
1790097014526094080,0.9640942382812507,3.10957987948011,2.1386170104041673,-3.228798360062335
1790097014536094208,0.9740942382812507,2.9539038285079453,-0.5226457677641694,-1.277696221046286
1790097014546094080,0.9840942382812508,0.6785353711224027,-1.5787788273894947,-0.7081251809425345
1790097014556094208,0.9940942382812508,-0.9409903447872834,-0.3086100797857644,-2.1575435298881316
1790097014566094080,1.0040942382812508,-0.7123900391897169,1.4569761594857087,-3.965584501697128
1790097014576094208,1.0140942382812508,0.10627491657891017,0.7772814385553398,-4.718021162907854
1790097014586094080,1.0240942382812508,1.3172508566910488,-0.6897880156188311,-5.434353416240219
1790097014596094208,1.0340942382812508,2.786123484308341,0.13790089428690255,-6.078717577557438
1790097014606094080,1.0440942382812508,2.7064417413568895,1.7402744145985718,-4.983595732449798
1790097014616094208,1.0540942382812508,0.7393524272809562,1.5137107154398413,-2.993045243239709
1790097014626094080,1.0640942382812508,0.30567896869445227,0.6204308701915118,-1.976999727758111
1790097014636094208,1.0740942382812508,1.803853024659371,0.9799510583694324,-2.1473820694814107
1790097014646094080,1.0840942382812508,3.768398471274642,0.5309017696461352,-2.4545411531611405
1790097014656094208,1.0940942382812509,4.563632754966343,0.15342562602403712,-2.0103548607763635
1790097014666094080,1.1040942382812509,4.032998817249315,0.5222410431378981,-2.3581289911058176
1790097014676094208,1.1140942382812509,1.1291846149243927,-0.6521261820724993,-1.368954728663999
1790097014686094080,1.1240942382812509,-1.2558535744592638,-1.0441280805822442,-0.5904487143092181
1790097014696094208,1.1340942382812509,-1.8275932126147265,0.5379041157713575,-1.645736671893637
1790097014706094080,1.144094238281251,-0.5919354019376827,0.6399018916730094,-3.29986013617045
1790097014716094208,1.154094238281251,2.34840039830702,0.25470886401902637,-5.489774607095325
1790097014726094080,1.164094238281251,3.803655573944061,0.24367639707451558,-5.626490927992588
1790097014736094208,1.174094238281251,3.664982371187444,1.0391898289227783,-5.098258382930178
1790097014746094080,1.184094238281251,2.1674493847624374,1.0450132610403362,-3.209273679116892
1790097014756094208,1.194094238281251,0.8220864311855,1.6629387663011086,-1.9708307843147073
1790097014766094080,1.204094238281251,-0.39307552832053805,1.807464663515444,-0.378417228692548
1790097014776094208,1.214094238281251,-0.797353368397756,2.4204744961885774,0.841624402079752
1790097014786094080,1.224094238281251,0.2332514992004151,2.9013521212615343,1.3339593874360043
1790097014796094208,1.234094238281251,-0.01584585873130795,3.2399652956125564,1.699074548576347
1790097014806094080,1.244094238281251,0.30307537431386633,3.927089988936835,1.7969893054075239
1790097014816094208,1.254094238281251,1.1813491750417553,4.570365941654865,1.3356682580226877
1790097014826094080,1.264094238281251,1.9092275233494835,4.736713152168433,1.1609020315789211
1790097014836094208,1.274094238281251,3.547791508753254,5.749708273914479,0.7468302216929807
1790097014846094080,1.284094238281251,3.9327967698641313,5.188263677059172,-0.23436672746520937
1790097014856094208,1.294094238281251,3.618918421132341,5.333927846613234,-1.8869235198784347
1790097014866094080,1.304094238281251,4.557270517078599,5.344876958409415,-4.413359250208568
1790097014876094208,1.314094238281251,2.4946021781037104,3.9335025802567953,-6.442270400060864
1790097014886094080,1.324094238281251,-2.0546682723166447,1.8866180516860407,-8.489455123365575
1790097014896094208,1.334094238281251,3.8934625535694636,1.8626688783796697,-7.293804400468205
1790097014906094080,1.344094238281251,6.43142439062532,1.4580318414316424,-5.795401565523152
1790097014916094208,1.354094238281251,3.1055250883991814,0.376073410183379,-5.06036235365657
1790097014926094080,1.364094238281251,-0.1414528654239763,-0.3333485778234268,-5.186823329325228
1790097014936094208,1.374094238281251,0.3085065513800361,-1.1864458306807533,-4.451426770492102
1790097014946094080,1.384094238281251,0.6913364370318815,-0.8860320401521447,-2.4786361810068493
1790097014956094208,1.3940942382812511,0.08166861170979256,0.18442288170356191,-1.1130801397351742
1790097014966094080,1.4040942382812511,0.19563267327587464,0.2630484463599378,-0.802160548640074
1790097014976094208,1.4140942382812511,1.6932181255106609,-0.24271959402044366,0.08521903992107183
1790097014986094080,1.4240942382812511,1.708682801330942,-0.48751518191213755,0.9789907348479561
1790097014996094208,1.4340942382812512,1.0540314900319747,-0.21759381245826548,1.0724610224522064
1790097015006094080,1.4440942382812512,-0.6133028237752454,-0.4381707184847297,1.5581410484772107
1790097015016094208,1.4540942382812512,-2.252422420028598,-0.883036549952001,1.9445576787474035
1790097015026094080,1.4640942382812512,-1.6659749441758311,-0.33315783194209064,0.46805871105756236
1790097015036094208,1.4740942382812512,-0.27090034120305034,0.6411508159646602,-2.854630350640489
1790097015046094080,1.4840942382812512,-3.69919273807279,-1.6544969910985008,-2.9640581609979897
1790097015056094208,1.4940942382812512,-2.4543412544912853,-0.5698275989649944,-2.7549616518495736
1790097015066094080,1.5040942382812512,-1.3988855483587654,0.8708145426870768,-1.5207042375545066
1790097015076094208,1.5140942382812512,-1.6249689162819496,1.8893153680110377,2.288480543994956
1790097015086094080,1.5240942382812512,-1.183402237226906,3.922402231206921,0.9251766314753764
1790097015096094208,1.5340942382812512,-0.09271346168665262,4.533468532771634,-2.800978019036214
1790097015106094080,1.5440942382812513,0.8609208974825389,1.9317504379851185,-0.20370428470418833
1790097015116094208,1.5540942382812513,-0.5445848826963704,3.3537017566052234,1.5905302103855425
1790097015126094080,1.5640942382812513,-2.5979518199411133,6.135029768699579,1.2014879745936975
1790097015136094208,1.5740942382812513,-3.6578917914226508,3.6116297371126582,2.859819487748142
1790097015146094080,1.5840942382812513,-2.4834545176873872,2.0239078613779053,3.9808016290505903
1790097015156094208,1.5940942382812513,-1.2451701240579596,1.1880747035318933,4.350716873470777
1790097015166094080,1.6040942382812513,0.3391947903635446,2.372631101739888,4.072175300585053
1790097015176094208,1.6140942382812513,1.6121617214311748,1.8722927491661783,4.720287953305107
1790097015186094080,1.6240942382812513,2.5578697191244597,0.6882826200934724,4.794801524018415
1790097015196094208,1.6340942382812513,-1.6645398440597439,2.662160386774348,2.9686219502691094
1790097015206094080,1.6440942382812513,-3.7521413586850896,-1.45682062442247,1.0804088440406534
1790097015216094208,1.6540942382812514,-3.3398294120540926,-6.946212833872543,-1.3183093046529075
1790097015226094080,1.6640942382812514,-5.518225493939896,-9.36683922918677,-2.4640127127018014
1790097015236094208,1.6740942382812514,-3.740470749691277,-9.246270872350502,-1.9356314225117155
1790097015246094080,1.6840942382812514,-2.7532077932829955,-9.140396447238176,-0.9975868409259776
1790097015256094208,1.6940942382812514,0.35094930812838565,-9.327460011070544,-0.3360507176749038
1790097015266094080,1.7040942382812514,2.0138365522144577,-7.7573242303854535,-0.4280653843520805
1790097015276094208,1.7140942382812514,0.7379639004816431,-5.720547026897778,-0.5423857760121876
1790097015286094080,1.7240942382812514,0.5739918171761469,-3.664685517045958,-1.0036080846168964
1790097015296094208,1.7340942382812514,0.7423167731178483,-4.970768226797924,-1.6087810225764654
1790097015306094080,1.7440942382812514,1.4235260108034553,-5.262931401325722,-0.919580405606707
1790097015316094208,1.7540942382812514,1.926541710552137,-2.976822846010302,-0.03818791843465197
1790097015326094080,1.7640942382812514,2.0390877252118464,-2.3952994387501505,-0.5196183508051075
1790097015336094208,1.7740942382812515,1.6729800571074078,-2.6452274305834953,-1.4845279385150358
1790097015346094080,1.7840942382812515,1.7413890354375174,-1.8481129142758945,-2.3188249297830392
1790097015356094208,1.7940942382812515,1.7951955439920277,-0.8292053563643611,-2.76655498179409
1790097015366094080,1.8040942382812515,1.5473264283431245,1.0173684020731866,-0.9286848486919093
1790097015376094208,1.8140942382812515,0.3948714406837964,4.343171860013741,1.4876312029666359
1790097015386094080,1.8240942382812515,-3.792194403646424,2.493507255820407,-0.25591954446325726
1790097015396094208,1.8340942382812515,-5.881151097291238,1.7045474102204807,-1.0443891201776787
1790097015406094080,1.8440942382812515,-4.8566015120377255,0.7285746444090585,-0.14429924301226715
1790097015416094208,1.8540942382812515,-0.9490076522936108,0.38806622370184485,1.405583750869932
1790097015426094080,1.8640942382812515,2.277562438134323,-0.3422856439862631,2.7612285177939677
1790097015436094208,1.8740942382812515,9.025337389939093,-7.5124270911627535,0.14795048548745487
1790097015446094080,1.8840942382812516,8.527345803385096,-6.173713668605776,-2.411104093796194
1790097015456094208,1.8940942382812516,4.006757183488084,-2.5197677553204727,-2.9361859703393014
1790097015466094080,1.9040942382812516,0.9895957708900016,-0.866293906075599,-2.2499267145315387
1790097015476094208,1.9140942382812516,-0.867301869227862,0.06967417557342448,-0.8801774429332215
1790097015486094080,1.9240942382812516,-3.410316538754329,0.9338264416653534,0.07132085978134575
1790097015496094208,1.9340942382812516,-3.3079034727985333,0.8316959820350185,0.8774771133074715
1790097015506094080,1.9440942382812516,-0.29101164410662195,-0.5881293159539455,1.145530379603225
1790097015516094208,1.9540942382812516,3.47703584359029,-1.2585442782610834,0.7118583512905696
1790097015526094080,1.9640942382812516,4.712059435169676,-0.8295772156610569,-0.3468019282663175
1790097015536094208,1.9740942382812516,4.1239077169029255,-0.30959067194991624,-1.3962643472375422
1790097015546094080,1.9840942382812516,2.1852130263083356,-0.6468892700301808,-1.6698875333515972
1790097015556094208,1.9940942382812517,0.20986854986442216,-1.1630832423334976,-1.549543597939478
1790097015566094080,2.004094238281252,-1.0464609308529285,-1.3503907618682023,-1.6988831679728251
1790097015576094208,2.0140942382812517,-1.9825330955234388,-1.401479350750251,-1.5000797690099488
1790097015586094080,2.0240942382812515,-2.332445713447929,-0.36822562949335125,-1.8773865514981944
1790097015596094208,2.0340942382812517,-1.4578429998683722,0.11061368350421895,-1.8978259317856714
1790097015606094080,2.044094238281252,0.15657009425277874,-0.7185399749317529,-0.636030538357169
1790097015616094208,2.0540942382812517,0.4615401390459052,1.0399447412632168,0.6389634716760508
1790097015626094080,2.0640942382812515,0.559885609657912,9.17406084236163,2.2278233586917846
1790097015636094208,2.0740942382812517,-0.34449183255368654,4.321984978613377,2.6345330696688714
1790097015646094080,2.084094238281252,-2.2590189351274814,-2.2671227649073136,0.558622078425127
1790097015656094208,2.0940942382812517,-1.4540928611634905,-3.087038432636276,-1.8614692762102778
1790097015666094080,2.1040942382812515,1.3788331828115725,-2.1415077591634146,-2.5553803811370455
1790097015676094208,2.1140942382812518,2.7725134556705777,-2.1770555079570006,-1.868969978501479
1790097015686094080,2.124094238281252,1.9963891689058737,-2.182899621736993,-1.1694176361760695
1790097015696094208,2.1340942382812518,0.2616044658493064,-2.3353420044008146,-0.6451408441812506
1790097015706094080,2.1440942382812516,-1.9641673008332625,-2.4154910020920695,-0.20031401515919736
1790097015716094208,2.1540942382812514,-3.63788118255227,-1.5435100249542355,0.9078146777970151
1790097015726094080,2.164094238281252,-4.4655247933578295,-0.7726774474374185,2.2946103875742945
1790097015736094208,2.174094238281252,-4.324585717176609,-1.4916898973075687,3.0710670020672857
1790097015746094080,2.1840942382812516,-2.84974416473292,-2.1956997971091474,3.7585460340048438
1790097015756094208,2.1940942382812514,-1.491266039262729,-1.9233873578925405,4.000601240027
1790097015766094080,2.204094238281252,-0.9818967442559062,-1.3020009805491886,3.594526886581331
1790097015776094208,2.214094238281252,-1.4840480493417616,-1.1851573069479873,3.347338932890041
1790097015786094080,2.2240942382812516,-2.295425473349108,-0.7302609313278252,3.3150251205529906
1790097015796094208,2.2340942382812514,-1.7836082769276764,0.45182432979688414,3.2632288950451316
1790097015806094080,2.244094238281252,-0.30083380538279614,1.5934867317220704,2.6536325211051635
1790097015816094208,2.254094238281252,-1.1450167261347104,1.6060766773154125,1.5035342754198386
1790097015826094080,2.2640942382812517,-3.2433319736327766,1.2105732936685232,1.559687611660059
1790097015836094208,2.2740942382812515,-4.485264077962659,1.0138896561493769,2.024301636091254
1790097015846094080,2.284094238281252,-2.2614513706408323,1.8567995802381505,1.6011809975651272
1790097015856094208,2.294094238281252,-0.4090075760880809,2.990877491843671,0.9701555660091892
1790097015866094080,2.3040942382812517,1.2166356743464835,2.5891991324182047,1.6096476228381762
1790097015876094208,2.3140942382812515,1.9480689010278536,2.134832740342656,1.1090190434450138
1790097015886094080,2.324094238281252,0.05508415504496167,2.4049210053826213,-0.07649046501949361
1790097015896094208,2.334094238281252,-3.3978281310160643,2.245280471938425,-0.14962034800547275
1790097015906094080,2.3440942382812517,-4.500132003336961,1.7436265122091,0.7607219152387412
1790097015916094208,2.3540942382812515,-2.5317510898189406,1.1078141166216302,1.2303920946842564
1790097015926094080,2.364094238281252,0.21356262894223876,0.48784297124478376,1.8457370326846911
1790097015936094208,2.374094238281252,0.9190267425513958,0.22637992928857875,1.5625833319899374
1790097015946094080,2.3840942382812518,-0.8158107036239499,-0.055369817525754456,1.1191047803810172
1790097015956094208,2.3940942382812516,-2.413962334306653,-0.5130135815842085,0.8417483290840861
1790097015966094080,2.4040942382812522,-1.4568828357588148,-1.0353497313429219,0.3488556766768094
1790097015976094208,2.414094238281252,0.8292286594517737,-1.4130798944542966,0.41961248534981044
1790097015986094080,2.424094238281252,1.6713705384011237,-0.7868204867494173,0.4841912485376448
1790097015996094208,2.4340942382812516,0.6312309733758097,0.20280839593728273,-0.04455403042750561
1790097016006094080,2.4440942382812523,-2.0450830290999953,0.5469437274519183,-0.3344181372918476
1790097016016094208,2.454094238281252,-4.110309602163559,0.9707024362006722,-0.2814924381359777
1790097016026094080,2.464094238281252,-1.971310027055017,0.020200748064343306,0.6470686538772459
1790097016036094208,2.4740942382812516,0.1054515839488704,-0.34989982870424013,-0.46267161248911687
1790097016046094080,2.4840942382812523,0.32571807576473705,-0.6891446415030227,-1.1953827653056033
1790097016056094208,2.494094238281252,-0.36089913159851056,-0.9002711463817612,-0.7115475219696701
1790097016066094080,2.504094238281252,0.28163771722491077,-0.6283790491740422,0.0001346330188964212
1790097016076094208,2.5140942382812517,1.0494088395860057,-0.011579413593654386,0.07181123139526485
1790097016086094080,2.5240942382812523,0.782102879673778,-0.7901476492464755,0.1439812157997908
1790097016096094208,2.534094238281252,1.3981892205448547,-1.7949828737311397,-0.14675963926387098
1790097016106094080,2.544094238281252,3.2928858670561567,-1.323366510921944,-1.7474849370215244
1790097016116094208,2.5540942382812517,1.7105935203006233,-1.1812157836447663,-4.246836590160878
1790097016126094080,2.5640942382812524,0.05013417186006708,-3.252508096271943,-1.0312941537608569
1790097016136094208,2.574094238281252,1.1533127234835387,-2.3194849170526606,0.31276648120860945
1790097016146094080,2.584094238281252,1.9808734083405328,-1.5826352843254232,-1.3060847080957025
1790097016156094208,2.5940942382812517,-0.6286037668224873,-2.610156575233679,-2.0697524630954027
1790097016166094080,2.6040942382812524,-1.2011507274410915,-3.4395529837051826,-1.622330415552715
1790097016176094208,2.614094238281252,1.8931086777997104,-2.884301880328739,-0.3969713905347573
1790097016186094080,2.624094238281252,3.5363357470326555,-2.0775307889522776,0.20902979479897177
1790097016196094208,2.6340942382812518,2.3778111666747126,-2.018101445702774,2.2701712401525875
1790097016206094080,2.6440942382812525,2.4569916469353803,-1.452560477348838,1.4290725918171199
1790097016216094208,2.6540942382812522,1.5403652743772518,-1.5275753002218277,1.074902051243223
1790097016226094080,2.664094238281252,-0.2838360195190159,-1.3217226000928248,0.3108543934119035
1790097016236094208,2.674094238281252,0.5460597426051307,-1.0341127830253023,0.19375199019298062
1790097016246094080,2.6840942382812525,0.23509881126870374,-0.04944749115335498,0.9012800974243749
1790097016256094208,2.6940942382812523,1.1549604894112513,-0.07649643307712269,0.97347695522085
1790097016266094080,2.704094238281252,0.9546014192094537,-0.194174557185788,0.2591125451176229
1790097016276094208,2.714094238281252,1.30079289641278,-1.1116508819505557,0.22630434517242218
1790097016286094080,2.7240942382812525,1.442818001608714,0.08650372065633938,0.8202835053195678
1790097016296094208,2.7340942382812523,0.4730953882509369,-0.4456462062835645,1.3281489962566637
1790097016306094080,2.744094238281252,-0.38793046601983966,-0.7204444129059873,1.6825191634976888
1790097016316094208,2.754094238281252,-0.6669391222498198,-0.4463746220144769,2.132301333206294
1790097016326094080,2.7640942382812526,-1.0517196620397569,-0.7517519012693027,2.0858012970652267
1790097016336094208,2.7740942382812523,-0.6028002210386797,-0.8392868257774124,1.5611311509860497
1790097016346094080,2.784094238281252,0.8210386273173254,-2.066211942746599,0.9445071793803539
1790097016356094208,2.794094238281252,2.821802335124611,-3.9050367286629646,0.17448456542228905
1790097016366094080,2.8040942382812526,4.726767921430592,-4.112449438904202,-0.38209494669635813
1790097016376094208,2.8140942382812524,6.392997567843315,-4.462097500820837,-1.4651131861161713
1790097016386094080,2.824094238281252,6.29650961220888,-4.422969090709099,-2.2135914475904612
1790097016396094208,2.834094238281252,5.446781925296252,-4.744609022129494,-1.732559048621504
1790097016406094080,2.8440942382812526,4.162033132265869,-5.0408355980552635,-1.0340379641132438
1790097016416094208,2.8540942382812524,2.2578625888738273,-2.582907963607549,-1.8648966317564006
1790097016426094080,2.864094238281252,0.40908036685872595,0.3094135247005043,-1.552544451179654
1790097016436094208,2.874094238281252,-0.7992208307966471,1.3798460597998545,-0.6034015065144546
1790097016446094080,2.8840942382812527,-0.8725531224499256,0.1638715741247101,0.42322804149428395
1790097016456094208,2.8940942382812525,-0.9665882453355807,-0.8191497794954474,0.5247163359479916
1790097016466094080,2.9040942382812522,-1.3295602833047626,-0.8277510810987961,0.6970749064101495
1790097016476094208,2.914094238281252,-1.9561009286983202,-0.4763629476512688,1.3114102211917378
1790097016486094080,2.9240942382812527,-2.6939262856674815,-0.1424924078699722,2.1849113448152853
1790097016496094208,2.9340942382812525,-2.3424845103981253,0.6762507873650413,2.1392486804680853
1790097016506094080,2.9440942382812523,-1.5804710902631034,2.1839464400816855,1.0139801027117523
1790097016516094208,2.954094238281252,-1.3827663720282082,4.202541034201581,-0.039554346558700854
1790097016526094080,2.9640942382812527,-1.973617628764037,4.434831806398295,-0.3244238173205555
1790097016536094208,2.9740942382812525,-1.8427762793890823,2.380604471049624,0.242117569801307
1790097016546094080,2.9840942382812523,-1.433211777956957,1.008979817998317,0.8083349434475866
1790097016556094208,2.994094238281252,-0.4575469392383203,0.683048854243228,1.078266289849594
1790097016566094080,3.0040942382812528,0.4744315845655941,0.5229782688331207,0.4347976893728276
1790097016576094208,3.0140942382812526,1.508277553022328,0.08524873982294554,-1.0635811623790583
1790097016586094080,3.0240942382812523,2.829606556107928,-0.46091065838890977,-2.005075873906343
1790097016596094208,3.034094238281252,3.463423220184275,-1.0769537817363046,-2.1247065852129814
1790097016606094080,3.044094238281253,4.028070150183322,-2.0082058646681396,-1.8296499835528577
1790097016616094208,3.0540942382812526,4.524219249162928,-3.3655132868097697,-1.8026121808160191
1790097016626094080,3.0640942382812524,4.093820133537545,-4.169425240114039,-2.0095037206005926
1790097016636094208,3.074094238281252,2.4955313295572936,-4.7513848774608185,-1.982167270945951
1790097016646094080,3.084094238281253,0.8043915510988486,-4.414879942592276,-2.12011376624534
1790097016656094208,3.0940942382812526,0.037581475456242464,-3.2577482164960285,-2.1182518234433
1790097016666094080,3.1040942382812524,0.07007728932887418,-2.2586537294567095,-1.43352901820994
1790097016676094208,3.114094238281252,1.0042795808495641,-0.9287411205692544,-0.9606878433244024
1790097016686094080,3.124094238281253,2.113306923935625,-0.18183603618985278,0.4440409246253014
1790097016696094208,3.1340942382812527,3.112451308015434,-0.18629799073220701,0.4319863072669623
1790097016706094080,3.1440942382812525,3.27598953042016,-0.9288866085829375,-0.4169855035847164
1790097016716094208,3.1540942382812522,2.5910790429460744,-1.549426871991392,-1.4375244793598463
1790097016726094080,3.164094238281253,1.598557197868254,-1.9281609582495272,-1.8760516614460327
1790097016736094208,3.1740942382812527,1.1412877145213047,-2.2373576275656433,-1.2979188121365008
1790097016746094080,3.1840942382812525,0.4510355864244011,-2.258090147118111,-0.260754469035642
1790097016756094208,3.1940942382812523,-0.15784736747248712,-2.1644870384055905,0.33710515428888643
1790097016766094080,3.204094238281253,-0.8794396829432779,-2.10521909850053,0.48898588185725356
1790097016776094208,3.2140942382812527,-1.7334518583750298,-2.1620015161568964,0.5767492948994168
1790097016786094080,3.2240942382812525,-2.4758921685815425,-2.169673179136548,0.6052066343966572
1790097016796094208,3.2340942382812523,-3.406258623758134,-1.9175348345315675,0.4804459607295929
1790097016806094080,3.244094238281253,-4.1900767186753205,-2.283643188151046,0.43364013314303773
1790097016816094208,3.2540942382812528,-3.980469807566125,-1.994845719885394,0.4014930171731168
1790097016826094080,3.2640942382812526,-3.525414908009966,-0.7786174910869242,0.13588392242319547
1790097016836094208,3.2740942382812523,-2.921054887752824,-0.5444362636998042,0.9242036212837403
1790097016846094080,3.284094238281253,-1.8904518366937606,0.12060324578341168,1.6780904186497785
1790097016856094208,3.294094238281253,-1.1020557198075849,0.943980707396864,2.0964820739111634
1790097016866094080,3.3040942382812526,-1.5951227548182745,1.421223782096636,2.260039427005962
1790097016876094208,3.3140942382812524,-3.6304171011127178,1.7467314613299805,2.439313756401734
1790097016886094080,3.324094238281253,-5.623422874235775,2.7185385819097765,2.186833985409731
1790097016896094208,3.334094238281253,-6.4454028490123205,2.740694549950999,1.8735960225646806
1790097016906094080,3.3440942382812526,-5.730886849031608,2.101758968655715,1.8221461400135335
1790097016916094208,3.3540942382812524,-4.604975416580607,1.432325592499354,2.269291523376555
1790097016926094080,3.364094238281253,-3.2809876287159843,1.2524939990971091,2.6361184269329136
1790097016936094208,3.374094238281253,-1.9002958372196248,1.4447453625510909,2.3129381564330798
1790097016946094080,3.3840942382812527,-1.5576529132858934,1.491525943643561,1.7671294259005594
1790097016956094208,3.3940942382812525,-1.6616973472670995,1.430618057808997,1.2267187338993082
1790097016966094080,3.404094238281253,-1.139848335820415,1.2438246974176128,0.5922796893242986
1790097016976094208,3.414094238281253,-0.5209625123250076,1.0167884679048576,0.3383219372360017
1790097016986094080,3.4240942382812527,0.25632368686533846,0.7266193528710474,0.1360891147422075
1790097016996094208,3.4340942382812525,-0.22513433598066543,0.28182974143436323,0.14701941839267177
1790097017006094080,3.444094238281253,-1.3891235404177824,0.24382780681744007,0.5292361773066822
1790097017016094208,3.454094238281253,-2.781188068187902,0.4422736498520245,0.7116908910435804
1790097017026094080,3.4640942382812527,-3.8170020901198014,0.4360703958031905,0.7894943874742598
1790097017036094208,3.4740942382812525,-3.9066196192021474,0.2980614090741991,0.7949423416648395
1790097017046094080,3.484094238281253,-3.208846509031681,0.09506650953191438,0.9873404030726132
1790097017056094208,3.494094238281253,-2.1383770241232254,-0.06838320539786572,1.2563235533545358
1790097017066094080,3.5040942382812528,-1.5721865561230322,0.012149563151182041,1.5184710268344568
1790097017076094208,3.5140942382812526,-1.8323474344142032,0.48403800714992495,1.6105399542314074
1790097017086094080,3.5240942382812532,-2.519584985017274,1.140418751426995,1.373431587686034
1790097017096094208,3.534094238281253,-3.0312685976250595,1.4199843920446225,0.9957325706948865
1790097017106094080,3.544094238281253,-3.0351366762329572,1.2562187743640134,0.8084393302233931
1790097017116094208,3.5540942382812526,-2.5055800199290803,0.9595245461623083,0.9170932221175345
1790097017126094080,3.5640942382812533,-1.989990355742583,0.6977353627099417,1.11042713289548
1790097017136094208,3.574094238281253,-2.3124181132109887,0.6419624967311156,1.3115767514616081
1790097017146094080,3.584094238281253,-2.5018003966830102,0.5447429448732567,1.5297834280009963
1790097017156094208,3.5940942382812526,-2.781022039896892,0.3930335315578343,1.9116568816509893
1790097017166094080,3.6040942382812533,-2.727542962189149,0.11706106260385009,2.041342577052945
1790097017176094208,3.614094238281253,-2.3814220471451035,-0.14014426459558785,1.9455875836187901
1790097017186094080,3.624094238281253,-2.1612513148156016,-0.3777068000154446,1.7400512125188463
1790097017196094208,3.6340942382812527,-1.952634474150549,-0.4738450232109369,1.5206782469892914
1790097017206094080,3.6440942382812533,-1.2068991769639301,-0.4577028394779251,1.2692049468925406
1790097017216094208,3.654094238281253,-0.2707020354815547,-0.20561831800624872,0.8140287885267979
1790097017226094080,3.664094238281253,0.25679403304472376,0.09241637243858958,0.29574639900209154
1790097017236094208,3.6740942382812527,1.0156106230499842,0.14694347607865918,-0.16436167934966786
1790097017246094080,3.6840942382812534,2.470609333941571,0.038474016210535804,-0.558974536764478
1790097017256094208,3.694094238281253,3.2087781449176895,-0.1467001022270804,-0.9859637552387734
1790097017266094080,3.704094238281253,2.6029258542892486,-0.42876990310105745,-1.4105804248272935
1790097017276094208,3.7140942382812527,1.5071077644474276,-0.8298199377072315,-1.568176846824755
1790097017286094080,3.7240942382812534,0.7814732708286936,-1.5784161480539411,-1.3321695698298992
1790097017296094208,3.734094238281253,0.2596503428450318,-2.246320388681989,-0.7475670944575544
1790097017306094080,3.744094238281253,0.019658053149115506,-2.6193877854620222,-0.3113684962524921
1790097017316094208,3.7540942382812528,0.07213430698167098,-2.5527780947566705,0.13222607722905835
1790097017326094080,3.7640942382812534,0.7312633382195295,-2.0461477747679804,0.7208178229995942
1790097017336094208,3.7740942382812532,0.6448598186678809,-1.5723680261872124,1.0859393699221318
1790097017346094080,3.784094238281253,-0.1117894407543196,-1.161065979114454,1.3919197469587514
1790097017356094208,3.794094238281253,-0.17772850606373544,-0.7445866266390949,1.5498225845310891
1790097017366094080,3.8040942382812535,0.6949875195430125,-0.2875979013632174,1.572609789617798
1790097017376094208,3.8140942382812533,1.9991046470210583,0.09563896951614635,1.5357165270775606
1790097017386094080,3.824094238281253,3.26928107326708,0.24236428637586796,1.2745466846008318
1790097017396094208,3.834094238281253,3.8722093039237016,0.1624035775238171,0.7218507359274419
1790097017406094080,3.8440942382812535,3.7529074788746724,-0.26428078868947946,0.11946333542875248
1790097017416094208,3.8540942382812533,3.500035127448615,-1.218923864680216,-0.5357524755769102
1790097017426094080,3.864094238281253,3.448720028528503,-2.273702515485495,-0.8623678611114816
1790097017436094208,3.874094238281253,3.1305765069837403,-2.9276038675664267,-0.8527756526701297
1790097017446094080,3.8840942382812536,2.267965358112169,-3.0767289883965945,-0.4716872750170307
1790097017456094208,3.8940942382812533,1.2853554860997098,-2.2799560508259376,-0.34871759639230904
1790097017466094080,3.904094238281253,0.19964962429242994,-1.358152416860373,0.1408371916215514
1790097017476094208,3.914094238281253,-0.4562416549966744,-0.21597918849965536,0.74472672735645
1790097017486094080,3.9240942382812536,-0.43755554660063545,0.3845794088500454,1.0799685330494873
1790097017496094208,3.9340942382812534,-0.15729953178908526,0.5523596584757551,1.275609285240781
1790097017506094080,3.944094238281253,0.07118026524411918,0.2849542741436916,1.3831547608663628
1790097017516094208,3.954094238281253,0.16699781091761162,-0.1901135336071522,1.2564971261714941
1790097017526094080,3.9640942382812536,0.15599108105450335,-0.6672384476511103,1.1021879172513347
1790097017536094208,3.9740942382812534,0.2674196068634088,-0.6867471697539087,1.0347063909307175
1790097017546094080,3.984094238281253,0.6521519526660374,-0.3333031159090245,0.9524831432417148
1790097017556094208,3.994094238281253,1.0811473074426148,0.002811278925425764,0.7679963249964645
1790097017566094080,4.004094238281254,1.1607879064895676,0.07469670681884957,0.43078490153890314
1790097017576094208,4.0140942382812534,1.1018900568660293,0.005123731259638189,0.139500824791455
1790097017586094080,4.024094238281253,1.166642459280987,-0.0440824768793843,-0.030547691074006192
1790097017596094208,4.034094238281253,1.4483137409399907,0.07808275344328638,-0.00698611704426761
1790097017606094080,4.044094238281254,1.486363577890854,0.29028542007326863,0.04037529164965708
1790097017616094208,4.0540942382812535,1.3546646890856202,0.395309010536235,0.04864366265013281
1790097017626094080,4.064094238281253,1.028028168200786,0.36215668533643836,0.1020901473657805
1790097017636094208,4.074094238281253,0.949513355534754,0.3297216100931049,-0.12680921079032453
1790097017646094080,4.084094238281254,1.0141056481366872,0.21630243917247421,-0.3966373651175092
1790097017656094208,4.0940942382812535,1.220870305207135,0.2268684522828719,-0.7520504086550492
1790097017666094080,4.104094238281253,1.643064517231335,0.21405119908896542,-0.9163500068625696
1790097017676094208,4.114094238281253,1.7800273050655062,-0.04161597327126778,-0.6627915346934763
1790097017686094080,4.124094238281254,1.8851108974947293,-0.4210735876788233,-0.4145479591605963
1790097017696094208,4.1340942382812536,2.1758203658397157,-0.7306110912956434,-0.5279329732484298
1790097017706094080,4.144094238281253,2.5888347617087124,-0.9043635050415144,-0.8301979096315292
1790097017716094208,4.154094238281253,2.85586457708905,-1.0302787744818427,-0.9764705263816708
1790097017726094080,4.164094238281253,3.0063706774613568,-1.0246520800195706,-1.1368962288088775
1790097017736094208,4.174094238281254,2.7659043075041954,-1.1345068410709565,-1.2134471088782763
1790097017746094080,4.184094238281253,2.1018864288025862,-1.3899296765624218,-1.0457290460555766
1790097017756094208,4.194094238281253,1.5287394079710581,-1.3236394220513517,-0.9058820272624324
1790097017766094080,4.204094238281254,1.217345202924769,-1.0044692860629119,-0.9638668026212465
1790097017776094208,4.214094238281254,1.0482594065646575,-0.7393603162217537,-1.2922836180689337
1790097017786094080,4.224094238281253,0.7659968293649371,-0.661713562980077,-1.5389408546846666
1790097017796094208,4.234094238281253,0.23937158502317873,-1.1420353364558264,-1.5081634208129826
1790097017806094080,4.244094238281253,-0.09933389575515449,-1.3903429850782927,-1.454730014364985
1790097017816094208,4.254094238281254,-0.4598605235862105,-1.1848907975885665,-1.3748786637981072
1790097017826094080,4.2640942382812534,-0.951757476212953,-0.6929527560625716,-1.4097960234584275
1790097017836094208,4.274094238281253,-1.4295073230563353,-0.10145229831922373,-1.5095586767284432
1790097017846094080,4.284094238281254,-1.7232759300931866,0.2584364001977601,-1.4902726744110293
1790097017856094208,4.294094238281254,-1.6536455861323296,0.22996597409350344,-1.263777722596816
1790097017866094080,4.3040942382812535,-1.0187561532926235,-0.06491320071152694,-0.9141373883409459
1790097017876094208,4.314094238281253,0.10727480424107255,-0.35900752810280995,-0.7268517881118203
1790097017886094080,4.324094238281253,1.0877225140436546,-0.6738177062224673,-0.7768611290127869
1790097017896094208,4.334094238281254,1.2856850639770392,-1.0687663447501767,-1.2182735661248663
1790097017906094080,4.3440942382812535,0.6404238203719173,-1.6688780472783151,-1.6879804456387193
1790097017916094208,4.354094238281253,-0.031681752486083514,-2.0528649639982084,-1.9802292122030978
1790097017926094080,4.364094238281254,-0.36662962930444987,-1.9981225056283898,-1.64747625678126
1790097017936094208,4.374094238281254,-0.1905781331348023,-1.2753215287498456,-0.8253033094524566
1790097017946094080,4.3840942382812536,-0.5179428199154044,-0.12796110051997622,0.08214985146297904
1790097017956094208,4.394094238281253,-1.6788016135362267,0.7183431880616551,0.3761305178467664
1790097017966094080,4.404094238281253,-2.028596121325296,1.0846354738571748,-0.035491815643000135
1790097017976094208,4.414094238281254,-1.4026038201429805,0.6846699492116696,-0.8416958370341088
1790097017986094080,4.424094238281254,-1.1427782653326466,-0.09400931251092462,-1.3896688930915033
1790097017996094208,4.434094238281253,-1.120199997902687,-0.7729261983446604,-1.3952029596538587
1790097018006094080,4.444094238281254,-0.7397012571240624,-0.8413162785788459,-1.4517165961743974
1790097018016094208,4.454094238281254,0.14225977240692686,-0.6875168575429627,-1.1605494194427928
1790097018026094080,4.464094238281254,0.7991242202484298,-0.5258350721547972,-1.040375719902657
1790097018036094208,4.474094238281253,0.10885949915913273,-0.1764623091935158,-0.9017445875650989
1790097018046094080,4.484094238281253,-1.949164830000033,-0.12153633656979329,-0.6403875298424502
1790097018056094208,4.494094238281254,-3.599119154374571,-0.46187669862170255,-0.44084089850221087
1790097018066094080,4.504094238281254,-4.169139471490011,-1.0634681670955386,-0.28693046451610205
1790097018076094208,4.5140942382812534,-4.664628785119788,-1.3104256474619256,0.0042989309456942515
1790097018086094080,4.524094238281254,-4.555968632797695,-1.0446758637333042,0.82235175591694
1790097018096094208,4.534094238281254,-3.4729907645814677,-0.31742035810256775,1.7216315353003837
1790097018106094080,4.544094238281254,-2.6593607199879465,1.1678249126661442,2.1155129175282714
1790097018116094208,4.5540942382812535,-1.9161047100857618,2.666157865312347,1.9639534687466458
1790097018126094080,4.564094238281253,-3.790623283705608,3.2742427621230132,0.883410734772782
1790097018136094208,4.574094238281254,-5.460960650533843,2.8615211645965406,0.2629534617527386
1790097018146094080,4.584094238281254,-5.9700870056899715,2.2415060889238254,0.2459073801793645
1790097018156094208,4.5940942382812535,-5.03718563050538,1.6560266873042198,0.7572961971374528
1790097018166094080,4.604094238281254,-4.005893005470186,1.3096860661281755,1.3608057632606894
1790097018176094208,4.614094238281254,-3.725411691118116,1.3499727854642851,1.9485228263757286
1790097018186094080,4.624094238281254,-3.467158560498934,1.7778177626840779,2.404294559329098
1790097018196094208,4.6340942382812536,-2.6006308449248228,2.155776806085296,2.256723422952061
1790097018206094080,4.644094238281253,-0.7031204686381796,2.130898748397819,1.5128129961085577
1790097018216094208,4.654094238281254,0.30549428110103377,1.5154681999013069,0.600108642318494
1790097018226094080,4.664094238281254,-1.0572295494625545,0.8995213456911075,0.08828281148227514
1790097018236094208,4.674094238281254,-3.3343519505780765,0.6679854696563442,-0.16316153219437476
1790097018246094080,4.684094238281254,-4.356626208456275,0.43294939275393474,-0.3269814640192901
1790097018256094208,4.694094238281254,-4.247088652727866,0.19973566662592018,-0.3776694053041822
1790097018266094080,4.704094238281254,-3.3970601682195274,0.04071153175026798,-0.17238241254374437
1790097018276094208,4.714094238281254,-2.0637380411157524,0.1259944648548502,0.24066640916695778
1790097018286094080,4.724094238281253,-1.2184590468239005,0.3742869010106581,0.6882984684256663
1790097018296094208,4.734094238281254,-0.8566239551206181,0.7684787972163027,0.9013682091810697
1790097018306094080,4.744094238281254,0.4059533901443238,1.015311503190576,0.9042100029020681
1790097018316094208,4.754094238281254,1.2577518327017148,1.1511924809268819,0.34219423349504957
1790097018326094080,4.764094238281254,0.5477947460993988,0.6489150129119519,-0.19933709284537554
1790097018336094208,4.774094238281254,-1.0511218446355903,0.05372845383890423,-0.7460959985335294
1790097018346094080,4.784094238281254,-1.8397367426405282,-0.339825261273792,-1.2977251837932156
1790097018356094208,4.794094238281254,-1.6659223937317948,-0.41343556131637244,-1.7473861148762728
1790097018366094080,4.8040942382812535,-0.7292955859521173,-0.4267392885096569,-2.0469535802440335
1790097018376094208,4.814094238281254,-0.29331930223972447,-0.4474497505969445,-2.186795452816728
1790097018386094080,4.824094238281254,-0.515905498454823,-0.5913130328501899,-1.8434721216234686
1790097018396094208,4.834094238281254,-0.4159621234878332,-0.8427381416690376,-1.231320641297204
1790097018406094080,4.844094238281254,-0.46329292978694037,-1.0120885574915326,-0.6700032915076803
1790097018416094208,4.854094238281254,-1.3892331107793885,-1.0272626423153237,-0.32664684971405056
1790097018426094080,4.864094238281254,-2.092294514827922,-0.9187478390693999,-0.006855698054632098
1790097018436094208,4.874094238281254,-1.2743637203727314,-0.5690285265150808,0.12280936308591438
1790097018446094080,4.8840942382812536,0.7362853764167969,0.21485303523828359,-0.041046497504136886
1790097018456094208,4.894094238281254,2.032607033050334,1.1253391421352374,-0.6382871203330784
1790097018466094080,4.904094238281254,1.6648774050073665,1.67353473138241,-1.4290291528541124
1790097018476094208,4.914094238281254,1.8771608615796862,1.1981134882786357,-2.2034285853195983
1790097018486094080,4.9240942382812545,2.3494651677338685,0.15094596909435035,-2.5147482626581543
1790097018496094208,4.934094238281254,2.0712739460726417,-0.9397933422729496,-2.6015690900202153
1790097018506094080,4.944094238281254,1.4458186134574103,-1.8424503398974694,-2.490803692874508
1790097018516094208,4.954094238281254,0.9245988270201669,-2.4266856799057246,-2.0226947419574985
1790097018526094080,4.964094238281254,1.0072445294351855,-2.553546874675367,-1.60219501430622
1790097018536094208,4.974094238281254,1.0935997013081196,-2.3437336433390348,-1.2614988793412734
1790097018546094080,4.984094238281254,0.5607471149617995,-1.9164619283748605,-0.994493114647374
1790097018556094208,4.994094238281254,-0.16702743031668416,-1.4649692115825517,-0.6496363831928659
1790097018566094080,5.0040942382812545,-0.041881454409428864,-1.1204592571666385,-0.30116415557396115
1790097018576094208,5.014094238281254,0.7928764863456302,-1.04421838118007,-0.3180141269139415
1790097018586094080,5.024094238281254,1.2625115002985174,-1.2908914498302952,-0.6567746305971289
1790097018596094208,5.034094238281254,1.1626065187562589,-1.4230771226561614,-1.242660273012837
1790097018606094080,5.044094238281254,1.3826452284302149,-1.7655800243399395,-1.41523580859457
1790097018616094208,5.054094238281254,1.848518277114058,-1.8543202876797893,-1.4813374116771603
1790097018626094080,5.064094238281254,2.3645528390756247,-2.532865216356454,-1.983402310967995
1790097018636094208,5.074094238281254,1.8371895151184794,-2.9942580613980967,-1.5789312512640197
1790097018646094080,5.084094238281255,0.9456833550969292,-3.201109254734218,-1.2631383864152008
1790097018656094208,5.094094238281254,0.23123476520309028,-2.576434783472681,-0.7058686640403768
1790097018666094080,5.104094238281254,-0.6650253448910951,-1.7096564467750817,0.1970022650192151
1790097018676094208,5.114094238281254,-1.355875493479503,-0.9957688606507136,0.7038561293109075
1790097018686094080,5.124094238281254,-1.8260343298979151,-0.055443213108139766,0.938233671068416
1790097018696094208,5.134094238281254,-2.366620368382514,0.8236688620415256,1.2971728420694453
1790097018706094080,5.144094238281254,-2.3024909422380926,1.1551921485296166,1.6632891914416605
1790097018716094208,5.154094238281254,-1.687112184281391,1.357518307728277,1.762231220329461
1790097018726094080,5.164094238281255,-0.8534577627757709,1.4655471287648927,1.6956725022095491
1790097018736094208,5.1740942382812545,-0.1178087638381874,1.4515635450889766,1.413541088358049
1790097018746094080,5.184094238281254,0.6233736626284476,1.0476242936856237,0.919299306437787
1790097018756094208,5.194094238281254,1.604834606375606,0.6287733657917175,0.6013422794623803
1790097018766094080,5.204094238281254,2.5824807926025275,0.06555202710776561,0.03879422751547548
1790097018776094208,5.2140942382812545,3.599094296994155,-0.6780132383219977,-1.161311626556175
1790097018786094080,5.224094238281254,4.472968360203192,-0.8501835059015247,-2.663554059030075
1790097018796094208,5.234094238281254,3.8428629586624456,-0.56141740807844,-2.887413035486309
1790097018806094080,5.244094238281255,1.9834029600048804,-0.31791267904088144,-2.003835942468635
1790097018816094208,5.2540942382812545,1.5684362230918762,0.19454940631626952,-1.5890504068982143
1790097018826094080,5.264094238281254,3.406238256190753,0.6293618841467653,-2.940595850861036
1790097018836094208,5.274094238281254,5.2293506609623135,0.025842264369795753,-4.414816227370874
1790097018846094080,5.284094238281254,6.487351745841415,-1.8403679675745181,-4.891546472010781
1790097018856094208,5.294094238281255,6.527309500334673,-4.829628175411456,-3.83241828376481
1790097018866094080,5.304094238281254,5.657042901783054,-6.798057060936025,-2.692154565655976
1790097018876094208,5.314094238281254,4.362686457067941,-6.815063297936759,-2.323172782978298
1790097018886094080,5.324094238281255,2.431976767181125,-4.487974824168825,-2.309569009090763
1790097018896094208,5.334094238281255,0.4343499969340534,-2.314248278072907,-2.401265426750017
1790097018906094080,5.344094238281254,-0.28594715965089473,-1.2766369943256974,-1.6370290210608434
1790097018916094208,5.354094238281254,-0.8395663957199275,-0.5165273580677882,-0.6371929667057075
1790097018926094080,5.364094238281254,-0.4961665171714751,0.07745953392877533,0.49258082623163224
1790097018936094208,5.374094238281255,-0.12287826873260817,0.5831997995787357,1.4809770920441923
1790097018946094080,5.384094238281254,-0.23115781180916337,0.9402961833165085,1.3644164100207727
1790097018956094208,5.394094238281254,-1.002657322954505,0.9616931799469461,0.7445237962060078
1790097018966094080,5.404094238281255,-1.96858754694776,0.7382510272721954,0.4317271952364278
1790097018976094208,5.414094238281255,-2.336633288822007,0.6346922424399818,0.03403483650928321
1790097018986094080,5.4240942382812545,-1.565226864381857,0.5574690260770401,-0.7812668333765513
1790097018996094208,5.434094238281254,-1.3494265289837464,0.5524821658148484,-0.9369629342325028
1790097019006094080,5.444094238281254,-2.2808391546538616,0.00897460980948971,0.18211311993244167
1790097019016094208,5.454094238281255,-2.75093665455523,-0.08754949356823556,1.122771947282108
1790097019026094080,5.4640942382812545,-2.9290712188037262,0.16187758126331014,1.1015378935584446
1790097019036094208,5.474094238281254,-3.392950009616033,0.2883363579191142,0.8127763445140349
1790097019046094080,5.484094238281255,-4.233940289701295,0.21046901656294564,0.9558725819185169
1790097019056094208,5.494094238281255,-4.385340815791623,0.20725362260424085,1.3663755243788729
1790097019066094080,5.5040942382812545,-3.5584335077454243,0.30966348580781733,1.4880839701817519
1790097019076094208,5.514094238281254,-2.537954059443475,0.2464121034457392,1.675133575495337
1790097019086094080,5.524094238281254,-1.422924460924479,0.29870974301394665,1.410046147299787
1790097019096094208,5.534094238281255,-0.6354108909711049,0.29629051991782956,1.0857465991016133
1790097019106094080,5.544094238281255,0.18237486106302836,0.4407782753820107,0.4727699756619341
1790097019116094208,5.554094238281254,0.6396886796139085,0.2087085713700373,-0.451725667755191
1790097019126094080,5.564094238281255,-0.18497612933344504,-0.40861044990315554,-1.09180558007422
1790097019136094208,5.574094238281255,-1.301165439174285,-1.1164093407057203,-0.8517265839520262
1790097019146094080,5.584094238281255,-0.9446272219337971,-0.9240546208017858,-0.6223548092492966
1790097019156094208,5.594094238281254,0.06141146426358371,-0.7069411150738936,-0.827587764868443
1790097019166094080,5.604094238281254,0.5199847295482816,-0.9019631825972217,-1.071802038452656
1790097019176094208,5.614094238281255,-0.30343295200986664,-0.28677458157046476,-0.6844471168781376
1790097019186094080,5.624094238281255,-0.3176557825775923,0.9201323154567229,-0.40889547271040183
1790097019196094208,5.634094238281254,-0.040721357035754024,0.8531906888841289,-0.6783025581445836
1790097019206094080,5.644094238281255,-1.3036620629150333,-0.3849398656130756,-0.17184612913746067
1790097019216094208,5.654094238281255,-2.51028937718383,-0.1470186098340448,1.0314896214158344
1790097019226094080,5.664094238281255,-0.935448271086911,1.2557708605578028,1.2284914982821162
1790097019236094208,5.6740942382812545,2.285425445847601,1.5816373339174823,1.0995491222975424
1790097019246094080,5.684094238281254,4.48947225423912,1.2651655403161377,1.2061157419810316
1790097019256094208,5.694094238281255,3.579658989509598,1.0124118342698913,0.8223783953881756
1790097019266094080,5.704094238281255,0.48670184568889097,-0.05920372478608815,-0.6291976592953481
1790097019276094208,5.7140942382812545,-2.676266153471651,-1.0708516254880391,-1.1754424468735507
1790097019286094080,5.724094238281255,-5.65309788586362,-1.2222439897711979,0.36956098214473077
1790097019296094208,5.734094238281255,-5.16048846691551,-0.9621577399240643,2.0693941166022327
1790097019306094080,5.744094238281255,-2.721295632878892,-1.5895684426279333,3.0924868654334787
1790097019316094208,5.7540942382812545,-1.369774079425425,-2.31151118405976,3.7439936878143705
1790097019326094080,5.764094238281254,-1.416920366082997,-2.0382320615284883,4.803326124601862
1790097019336094208,5.774094238281255,-1.0866516086304028,-0.4510525204822792,4.009114842459133
1790097019346094080,5.784094238281255,-1.5453484431521542,0.9548794727161694,2.4076985489364047
1790097019356094208,5.794094238281255,-2.893191390242716,1.6163533788072129,1.7912042262133856
1790097019366094080,5.804094238281255,-3.737717371687459,2.2134626265468036,1.826735821596025
1790097019376094208,5.814094238281255,-3.321924061077409,2.3845645196479532,1.9935461849180018
1790097019386094080,5.824094238281255,-2.002031686181517,1.974986949098617,1.9961117760200133
1790097019396094208,5.834094238281255,-1.284823871922281,1.4652758928391412,1.691504754245174
1790097019406094080,5.844094238281254,-2.362096006445297,1.0524976424737662,1.6544622388816306
1790097019416094208,5.854094238281255,-4.306420436781597,0.7014863181029118,2.0065369624547733
1790097019426094080,5.864094238281255,-5.281250976763263,0.589900953631704,2.4513447049902046
1790097019436094208,5.874094238281255,-4.225474983053479,0.6988192151011602,2.383603803610422
1790097019446094080,5.884094238281255,-2.840504917740967,0.8510937524173057,1.4220893363948637
1790097019456094208,5.894094238281255,-1.3592621899613926,0.7592008663194862,1.8390580456353385
1790097019466094080,5.904094238281255,2.2864137436242675,1.0458072082637047,1.1820521249682359
1790097019476094208,5.914094238281255,6.1316517122188205,0.7954531695029065,-0.021205214659352864
1790097019486094080,5.9240942382812545,4.546104954559908,-0.43372114116201166,-0.9917416857865461
1790097019496094208,5.934094238281255,0.9872831451546781,-0.8571197419376064,-0.957312985485559
1790097019506094080,5.944094238281255,-0.19636761922397086,-0.340114498363426,-0.8297917234377948
1790097019516094208,5.954094238281255,0.026583263758823177,-0.4277690440624938,-1.2504936024359872
1790097019526094080,5.964094238281255,0.248879400564653,-0.9895277000776015,-1.342439889179049
1790097019536094208,5.974094238281255,0.19053838875800505,-1.2251456495690447,-1.2519259709741495
1790097019546094080,5.984094238281255,0.3876333340452432,-1.2381144838774443,-0.8900563266356247
1790097019556094208,5.994094238281255,1.7828859007595603,-1.2448542725775513,-0.0678992157166452
1790097019566094080,6.0040942382812545,3.9724108568076923,-1.324188143506008,0.5721890278809071
1790097019576094208,6.014094238281255,5.815493747483959,-1.668057513806633,0.8418560101999645
1790097019586094080,6.024094238281255,5.5353103901428105,-2.113122962952002,0.4523547770701369
1790097019596094208,6.034094238281255,2.3187624254690693,-2.4891185995181813,-0.5815598956853403
1790097019606094080,6.0440942382812555,-1.3621188675629847,-2.749847808104815,-1.025953243217662
1790097019616094208,6.054094238281255,-4.142432726686088,-2.8653789418547904,-0.5386432950194725
1790097019626094080,6.064094238281255,-6.033114765574735,-2.520095553538115,0.5388065078754913
1790097019636094208,6.074094238281255,-6.862341532990684,-1.384605096591714,1.5066762595845418
1790097019646094080,6.084094238281255,-6.876659098648456,-0.05655865753808066,2.808083564379558
1790097019656094208,6.094094238281255,-6.605701828854271,1.0379600645462754,4.202213891030632
1790097019666094080,6.104094238281255,-4.706669970659858,2.4456195639361265,4.832182059765427
1790097019676094208,6.114094238281255,-0.7464784065805716,3.87762605184263,4.914426328197054
1790097019686094080,6.1240942382812555,5.351950722129516,5.171505767727451,5.146814853856882
1790097019696094208,6.134094238281255,10.24652202116171,6.006599926056375,4.520927073308933
1790097019706094080,6.144094238281255,9.605525933722719,5.8218828093086525,2.304176029035283
1790097019716094208,6.154094238281255,4.653288932548469,3.6847395640967804,-0.5191719185746118
1790097019726094080,6.164094238281255,0.02198193401110969,-0.2529026729862751,-2.6699269702417445
1790097019736094208,6.174094238281255,-1.3360754173500902,-3.669847826317148,-6.209601839497936
1790097019746094080,6.184094238281255,-1.6944082587386629,-5.0363416904266805,-8.066001486845296
1790097019756094208,6.194094238281255,-2.183755644474804,-5.581036177654101,-4.844726317588151
1790097019766094080,6.204094238281256,-3.0977623052759427,-5.072149518687506,-0.7341732118280533
1790097019776094208,6.214094238281255,-1.3133736039385888,-3.5153154346418556,-0.34183273519941254
1790097019786094080,6.224094238281255,4.182370963485695,-1.2512686015604952,-2.3295581124886904
1790097019796094208,6.234094238281255,9.074238559766103,-1.093949592875071,0.4347866082400831
1790097019806094080,6.244094238281255,9.676559473817775,-5.068523747223054,3.979055349443023
1790097019816094208,6.254094238281255,8.900070533573988,-9.979652411472212,2.2466979296941973
1790097019826094080,6.264094238281255,7.3297714787479284,-10.416931871705325,-2.62812367239214
1790097019836094208,6.274094238281255,4.021610338515387,-7.397603840326267,-3.6234444963199075
1790097019846094080,6.284094238281256,0.8215429461080475,-3.3845060504814897,-1.827375010786642
1790097019856094208,6.2940942382812555,-1.1325950974950192,0.06091894167642553,-0.721476840353785
1790097019866094080,6.304094238281255,-1.9908318988972462,2.2458561915666904,0.04296934014886733
1790097019876094208,6.314094238281255,-2.6213210333417267,3.0938129075806966,1.1419263180641135
1790097019886094080,6.324094238281255,-3.4486284133086205,2.7588992364322524,2.450205671187276
1790097019896094208,6.3340942382812555,-3.834704473443444,2.093208503826537,2.9305610014558425
1790097019906094080,6.344094238281255,-2.9645887052476745,1.6756623778163142,2.2409622888390612
1790097019916094208,6.354094238281255,-1.604762609344427,1.7694883856078938,1.7510979339908825
1790097019926094080,6.364094238281256,-1.152220390936598,1.8963894092414932,1.497378187943712
1790097019936094208,6.3740942382812555,-1.4373099371831712,2.2934434493894154,1.5443331984140898
1790097019946094080,6.384094238281255,-1.8398511242257631,2.34564524740498,2.127449252459049
1790097019956094208,6.394094238281255,-1.7885409190905803,1.9800553024212668,2.3309626487348916
1790097019966094080,6.404094238281255,-1.8575280451267493,1.895572995591712,2.222041715328603
1790097019976094208,6.414094238281256,-2.285061802680368,2.1406643650772406,2.0683629983799716
1790097019986094080,6.424094238281255,-2.4044467099710647,2.338616623192034,1.7211239459825005
1790097019996094208,6.434094238281255,-2.1749277923017907,2.2551438574501534,1.4625259684197451
1790097020006094080,6.444094238281256,-1.8759662047876373,1.7906641977300704,1.2927496721932132
1790097020016094208,6.454094238281256,-0.998743570371092,0.7485009606508044,0.7489033042982116
1790097020026094080,6.464094238281255,1.0608874476917056,-0.5990921631197317,0.2514650720666578
1790097020036094208,6.474094238281255,3.3076914377808357,-2.0558468279926925,0.19147304262779047
1790097020046094080,6.484094238281255,4.580578101760986,-3.812899996342575,-0.10753913434019749
1790097020056094208,6.494094238281256,6.530839327003452,-4.653712678496235,-1.914534968229439
1790097020066094080,6.504094238281255,7.635337740211055,-4.17020358326304,-3.390340894878239
1790097020076094208,6.514094238281255,5.879881240069924,-3.653530517896632,-3.060974724458001
1790097020086094080,6.524094238281256,4.961248045053226,-4.078352622375473,-2.2813984273859207
1790097020096094208,6.534094238281256,4.879706060742778,-4.363226653967404,-1.6978165443470672
1790097020106094080,6.5440942382812555,3.5213477117153853,-3.9732629237216215,-1.3543550049510775
1790097020116094208,6.554094238281255,1.4621515989820248,-3.2593732231590127,-0.9142813156987076
1790097020126094080,6.564094238281255,0.018436791772672337,-2.4963572399558682,-0.22539572468235464
1790097020136094208,6.574094238281256,-0.6601145186647541,-1.3357042803102677,-0.3819790458357934
1790097020146094080,6.5840942382812555,-1.0454677733960898,-0.5689316081219694,-0.18027847900420477
1790097020156094208,6.594094238281255,-1.1026119266020598,-0.09215056860678494,0.4254683428982443
1790097020166094080,6.604094238281256,-0.8617811731667007,0.2219896165587636,0.8755325400490013
1790097020176094208,6.614094238281256,-0.48249756362561097,0.3024116607886237,1.3865060685230797
1790097020186094080,6.6240942382812555,-0.2679432124397162,0.23650250304559073,1.843236822057611
1790097020196094208,6.634094238281255,-0.2893556192307302,0.2482634043264909,1.9820411305834227
1790097020206094080,6.644094238281255,-0.26917777685836397,0.5502296356106606,1.738495035897595
1790097020216094208,6.654094238281256,-0.33577371846710385,0.8828248830920981,1.4843667694636902
1790097020226094080,6.664094238281256,-0.6845139670249555,1.0456135939769304,1.329947624120998
1790097020236094208,6.674094238281255,-1.114081700412556,0.9901622813717973,1.1670172315667573
1790097020246094080,6.684094238281256,-1.7407467597104034,0.8332351299107653,0.8744242075951032
1790097020256094208,6.694094238281256,-2.530777782771175,0.3945594874550917,1.064973415536209
1790097020266094080,6.704094238281256,-2.659621153246394,-0.05090641011338747,1.4049835192417328
1790097020276094208,6.714094238281255,-1.2292101432416074,0.23428999950626975,1.320216907915506
1790097020286094080,6.724094238281255,1.4902482366030427,0.7831974169730608,0.7786231275871328
1790097020296094208,6.734094238281256,3.9724595451748717,0.7978220758039477,-0.4905750714573901
1790097020306094080,6.744094238281256,5.011900427205206,-0.6278801594042092,-1.8497074274727183
1790097020316094208,6.754094238281255,4.636721431675684,-2.810046878922498,-2.5224087797783032
1790097020326094080,6.764094238281256,3.31381030043695,-4.12425287519942,-2.840757762532264
1790097020336094208,6.774094238281256,1.8533268349844052,-4.196835496477682,-3.3709403239978357
1790097020346094080,6.784094238281256,0.8445994475874161,-4.155819996665022,-3.360774152266925
1790097020356094208,6.7940942382812555,0.7065728449461682,-4.1827909221785955,-2.391987443790983
1790097020366094080,6.804094238281255,1.8080850034148397,-3.726346249154364,-1.4687588649784953
1790097020376094208,6.814094238281256,2.7686407154948167,-3.320755629242282,-0.8492828323312376
1790097020386094080,6.824094238281256,2.1654523959163714,-3.0666389426237384,-0.4099661861175782
1790097020396094208,6.8340942382812555,0.8410062523105266,-3.1843638230997025,-0.19476768551993637
1790097020406094080,6.844094238281256,-0.5265767220821997,-3.361661913227911,0.130536224424437
1790097020416094208,6.854094238281256,-1.5028605726076587,-2.625648266075932,0.9155011216964818
1790097020426094080,6.864094238281256,-2.126510132830567,-1.3438163478618292,1.2323090527086662
1790097020436094208,6.8740942382812555,-4.138124604322997,-1.1146178618051663,1.5738904678307215
1790097020446094080,6.884094238281255,-5.832842089170197,-1.3350265879696055,1.7550164312057959
1790097020456094208,6.894094238281256,-6.744095440801759,-1.2631766588502635,2.612440137861585
1790097020466094080,6.904094238281256,-7.766456869014264,-0.1952154742215091,4.6662375603127115
1790097020476094208,6.914094238281256,-5.778537573966224,3.194525712719098,5.513005877415307
1790097020486094080,6.924094238281256,-1.511360877151025,6.444925504143845,4.1906342004468415
1790097020496094208,6.934094238281256,1.407775151632722,5.647515248194813,1.4658794344205675
1790097020506094080,6.944094238281256,0.6877279248255455,0.8034352974847772,0.11162633257788014
1790097020516094208,6.954094238281256,-1.9616701522978408,-1.7406762023152085,1.0494140521686748
1790097020526094080,6.964094238281255,-4.886095401924411,-0.8283632339357926,1.4805423631024826
1790097020536094208,6.974094238281256,-5.228577944653954,0.5235557734183336,0.6043738592171178
1790097020546094080,6.984094238281256,-2.4340880839895287,1.144122097076552,0.7466173362150708
1790097020556094208,6.994094238281256,1.3583240033871755,1.5644027918854384,1.2112063628729217
1790097020566094080,7.004094238281256,6.440672448197028,2.360854792487377,1.4282537001864237
1790097020576094208,7.014094238281256,11.4449723821679,2.2861275151422635,-0.5300189881863104
1790097020586094080,7.024094238281256,6.437714531731592,0.4449934912523785,-1.360150234395309
1790097020596094208,7.034094238281256,-1.6090232953554808,0.37147960047316275,-3.733586806094559
1790097020606094080,7.0440942382812555,-2.954580968043567,1.1293467267033013,-4.356603800127225
1790097020616094208,7.054094238281256,-0.9227807173061314,0.29118568082252616,-3.0492286965592887
1790097020626094080,7.064094238281256,-0.008005369934092399,-1.0571675510341265,-1.8720904485058711
1790097020636094208,7.074094238281256,-1.4527648147317174,-1.9640453299397727,-0.5580437785440236
1790097020646094080,7.084094238281256,-4.7788585077352685,-2.0142835728357733,0.9233248333733666
1790097020656094208,7.094094238281256,-7.33442851149299,-0.7032206613790782,2.720792922596893
1790097020666094080,7.104094238281256,-6.982083478841381,1.2992632540234437,4.398209836770668
1790097020676094208,7.114094238281256,-3.8181297828714627,2.2445233151487365,5.115236413675311
1790097020686094080,7.1240942382812555,-0.8592322710862572,1.6604666518694804,4.729965843561268
1790097020696094208,7.134094238281256,-1.3714311042126142,1.0222444940989264,4.406777338541393
1790097020706094080,7.144094238281256,-4.953651197717798,1.1474506948145085,4.40052990610157
1790097020716094208,7.154094238281256,-6.643549817795508,1.6193637652314148,3.4347118485755246
1790097020726094080,7.1640942382812565,-6.204931324495242,1.3502088292088699,1.747129939876913
1790097020736094208,7.174094238281256,-5.75637360515849,0.653956751584568,1.4078711491238487
1790097020746094080,7.184094238281256,-5.6209562778163455,0.07197087691397397,2.546388990486771
1790097020756094208,7.194094238281256,-4.0595639805289645,-0.17102092471736902,3.2517049161840896
1790097020766094080,7.204094238281256,-0.9546733338400436,0.37885682422633593,2.8874620344857034
1790097020776094208,7.214094238281256,1.6286439435663274,1.0570761099980417,2.1919003203014547
1790097020786094080,7.224094238281256,1.0010828024696456,1.5902950527658501,1.0629140972503248
1790097020796094208,7.234094238281256,-1.130901100012177,2.0473650179724414,0.0861082235004358
1790097020806094080,7.2440942382812565,-1.3969828184406858,2.1513515990464995,-0.19366983648454078
1790097020816094208,7.254094238281256,1.2821794343163488,1.9637103947589487,-1.102395671768022
1790097020826094080,7.264094238281256,4.057341848422957,1.2741268737122124,-2.1785554918109913
1790097020836094208,7.274094238281256,3.420802490747363,-0.044938550442798486,-3.4063458599438485
1790097020846094080,7.284094238281256,0.7162056253073819,-1.1592328396629914,-3.8743925929352407
1790097020856094208,7.294094238281256,0.05204731513027783,-2.1116693323971805,-3.1594845846140296
1790097020866094080,7.304094238281256,1.129548910828778,-3.3282446369862764,-2.121874498310633
1790097020876094208,7.314094238281256,2.146784697554039,-4.430991855129583,-1.568100791427493
1790097020886094080,7.324094238281257,1.6047265978795289,-4.872617845976404,-1.1908311893152788
1790097020896094208,7.334094238281256,-1.0041902881764737,-4.61559077532523,-0.2548359742541555
1790097020906094080,7.344094238281256,-2.9799674098976796,-3.7426944808746345,0.7342329470553434
1790097020916094208,7.354094238281256,-3.1039337170431227,-2.7493167015227957,1.5277759229689432
1790097020926094080,7.364094238281256,-2.18242361244983,-1.7886797595800166,2.2989773623085457
1790097020936094208,7.374094238281256,0.2791794172200034,-0.7879538208002839,2.754038122481193
1790097020946094080,7.384094238281256,3.580481056636025,0.4984282293284296,2.590858679104322
1790097020956094208,7.394094238281256,3.8311363698326266,1.5905998198857085,1.6294261655253264
1790097020966094080,7.404094238281257,-0.32204492896869463,1.8333622583619416,0.11258605201147492
1790097020976094208,7.4140942382812565,-3.864139567754651,1.2186219078776688,-0.7224533006203319
1790097020986094080,7.424094238281256,-3.1073441525052434,0.4085123962939652,-0.6856760340239193
1790097020996094208,7.434094238281256,-0.4806242255416968,0.10139489766750519,-0.34014598990853334
1790097021006094080,7.444094238281256,1.0407421214090031,0.2237802380989908,0.2940321942191804
1790097021016094208,7.4540942382812565,0.8267920237034703,0.5938790990443906,0.4660366127024114
1790097021026094080,7.464094238281256,-0.5342296530934842,1.0066033758969544,-0.16854102560647533
1790097021036094208,7.474094238281256,-1.3260293399065677,0.9820059325344389,-0.7781667909512465
1790097021046094080,7.484094238281257,-0.3895075618184385,0.14307348568463019,-0.5749257542617436
1790097021056094208,7.4940942382812565,1.7912211954739221,-0.521602350471923,0.09005890864976929
1790097021066094080,7.504094238281256,3.48806727555755,-0.6281765427594762,0.468357444223486
1790097021076094208,7.514094238281256,3.2339480339014184,-0.8073998070446281,0.099409164276347
1790097021086094080,7.524094238281256,1.7243424301802728,-1.540145890525439,-0.7948310396337801
1790097021096094208,7.534094238281257,0.8713250976928123,-2.527225752443395,-1.3113309169798029
1790097021106094080,7.544094238281256,0.1712415306166896,-2.957061332142538,-0.7719569393480581
1790097021116094208,7.554094238281256,-0.6048272489061652,-2.436907886012939,-0.16769402409523973
1790097021126094080,7.564094238281257,-1.3730735407015646,-1.3841827608682935,0.24595162606914875
1790097021136094208,7.574094238281257,-1.514244174744546,-0.5706881548472682,0.5648148860214254
1790097021146094080,7.584094238281256,-0.7120625512007743,0.14912528317826224,0.5622674586080525
1790097021156094208,7.594094238281256,0.5277898105476257,0.8426513272188052,0.6742224635002065
1790097021166094080,7.604094238281256,1.182638604657722,1.1084316335876772,1.007146306858745
1790097021176094208,7.614094238281257,1.6960737911199324,0.7786726856487444,0.916657541780174
1790097021186094080,7.624094238281256,2.142419226999512,0.06938295527370775,0.20811492651586194
1790097021196094208,7.634094238281256,2.718154405932866,-0.6717968053765855,-0.7946334148050405
1790097021206094080,7.644094238281257,3.4156500621148966,-1.2088018856922411,-1.6747397830786808
1790097021216094208,7.654094238281257,3.4907583213570574,-1.6028732412062388,-2.282123907133292
1790097021226094080,7.6640942382812565,3.162710541329199,-1.7443035654337289,-2.408031834357815
1790097021236094208,7.674094238281256,3.113417351962906,-1.7927087065118432,-2.2151705240967754
1790097021246094080,7.684094238281256,3.3947116107612323,-1.6528919334276266,-1.0789051451853429
1790097021256094208,7.694094238281257,3.1460989320580355,-1.932252973839022,-0.4245898418672832
1790097021266094080,7.7040942382812565,2.110333231491509,-2.1428361165721697,0.09163878967706668
1790097021276094208,7.714094238281256,0.8507905221471895,-1.8623145616713548,0.3647180352450015
1790097021286094080,7.724094238281257,-0.054625472975416416,-0.917910311338342,0.38763811306373025
1790097021296094208,7.734094238281257,-0.6602737691920642,0.49371677915717255,0.4769281240825484
1790097021306094080,7.7440942382812565,-1.5230811649303593,1.6725624096395402,0.6158567496138062
1790097021316094208,7.754094238281256,-2.075800202402664,2.6168649508336657,0.7054133120954879
1790097021326094080,7.764094238281256,-2.5852817110079336,3.133997579364379,0.8731186032822397
1790097021336094208,7.774094238281257,-2.464798480411049,2.8900371482982035,0.8643998622449417
1790097021346094080,7.784094238281257,-0.996396308326343,2.040517978048083,0.2809548290044609
1790097021356094208,7.794094238281256,0.38927792359094515,0.5836336764868828,-0.20179188535619982
1790097021366094080,7.804094238281257,1.487409769386723,-0.9823044928997738,0.06128472972636962
1790097021376094208,7.814094238281257,1.952898715348067,-2.5371131808540293,0.8069272884223682
1790097021386094080,7.824094238281257,2.063364667546172,-3.487556391414546,0.9733383850328394
1790097021396094208,7.834094238281256,2.0256262540986607,-2.7435051637185928,0.8377238118873442
1790097021406094080,7.844094238281256,1.4266977093768218,-1.5648922349805254,0.7053209842764396
1790097021416094208,7.854094238281257,0.5739697153893039,-0.8769792894102254,0.723703051912833
1790097021426094080,7.864094238281257,-0.10390499623951419,-0.7901070572479663,0.7454183843272439
1790097021436094208,7.874094238281256,0.2613720492941538,-0.8748379975972992,0.20003939210516064
1790097021446094080,7.884094238281257,1.5972241878180737,-1.0871176201276285,-1.0063417553958087
1790097021456094208,7.894094238281257,3.1337645194534938,-1.5243626046219456,-1.967932832193651
1790097021466094080,7.904094238281257,4.593546723462094,-2.1300134298855076,-2.6246666948348114
1790097021476094208,7.9140942382812565,4.83433678848932,-2.80332765776649,-3.0083770519283974
1790097021486094080,7.924094238281256,3.3934221872180674,-3.0127843515166184,-3.0900787855586307
1790097021496094208,7.934094238281257,1.4271964319141626,-2.5368688449165533,-2.754833012087214
1790097021506094080,7.944094238281257,-0.8588662563332661,-1.984851519707314,-1.3702534952188883
1790097021516094208,7.9540942382812565,-2.866630744303432,-1.00907626325743,0.282115035524514
1790097021526094080,7.964094238281257,-3.736874922179458,0.4367791284052982,1.3210980661703902
1790097021536094208,7.974094238281257,-3.501982504566195,1.5530079564503882,1.9808573117608872
1790097021546094080,7.984094238281257,-1.522848557577491,1.5180149998506887,2.246805971061884
1790097021556094208,7.9940942382812565,2.1032200969348525,1.2026489555382223,2.100876255777989
1790097021566094080,8.004094238281256,5.440155254580931,0.619047461814175,1.1019767728610832
1790097021576094208,8.014094238281258,6.625734268934737,-0.5934303453416658,-0.9154720327658503
1790097021586094080,8.024094238281258,5.121914167838211,-2.4057994481133678,-3.0220900787697085
1790097021596094208,8.034094238281257,2.6444623873509507,-3.7713203669558624,-4.246816314581144
1790097021606094080,8.044094238281257,0.7275816816170833,-3.839301000535644,-3.849683893614305
1790097021616094208,8.054094238281257,-0.6381438814480742,-2.9331288559350184,-2.079378560112415
1790097021626094080,8.064094238281257,-2.0194870499570428,-1.5584557892379383,-0.24318858088368356
1790097021636094208,8.074094238281257,-3.448803764890558,-0.4791672528301376,1.1372970725639027
1790097021646094080,8.084094238281256,-4.0083169644895476,0.5002838405829995,1.9319134252679162
1790097021656094208,8.094094238281258,-3.940836690618621,1.3561742037940152,2.0231395710837834
1790097021666094080,8.104094238281258,-3.6337567754792897,1.684437583061336,1.6380044778468046
1790097021676094208,8.114094238281258,-2.793116492443734,1.6809507458646877,0.5374069188537887
1790097021686094080,8.124094238281257,-1.8260469401062416,1.303277611806057,-0.40611561196277246
1790097021696094208,8.134094238281257,-0.4046317430919384,0.5493102161824235,-0.7201949779764184
1790097021706094080,8.144094238281257,1.3977937737158035,-0.26921552799073173,-0.25726679085599125
1790097021716094208,8.154094238281257,2.408756477791749,-1.0555020718021364,0.6695887771643543
1790097021726094080,8.164094238281256,1.9715280752732993,-1.4797774608397856,1.0937434119990375
1790097021736094208,8.174094238281256,0.13182257055729107,-1.6808019917658703,0.9561960368756807
1790097021746094080,8.184094238281256,-1.3074360870293138,-1.5353452711045263,1.2397573227820122
1790097021756094208,8.194094238281258,-0.7176868191373066,0.03513272491250273,1.0561291258513692
1790097021766094080,8.204094238281257,2.027190936190845,1.5619008442779516,0.38259561104856366
1790097021776094208,8.214094238281257,5.345238262755038,1.3516774563701774,-1.512530992525158
1790097021786094080,8.224094238281257,4.9862159276282645,-0.6530685114098048,-2.452169636131562
1790097021796094208,8.234094238281257,0.99957581682199,-2.2761798963855773,-2.12204696704856
1790097021806094080,8.244094238281257,-1.9803876913169702,-2.2152272012562046,-2.3375014519885715
1790097021816094208,8.254094238281256,-3.195675073698276,-2.5421904643009365,-1.5057807622851689
1790097021826094080,8.264094238281258,-3.2950152848127865,-2.8330016482007787,0.029924540479238093
1790097021836094208,8.274094238281258,-3.2299422538907665,-2.730667057314821,1.2646880038867017
1790097021846094080,8.284094238281257,-3.5534716404688576,-2.4050984637688857,2.236981564096098
1790097021856094208,8.294094238281257,-4.6973699906915884,-1.979545645929031,3.0542877741055143
1790097021866094080,8.304094238281257,-5.504657871944713,-1.2363210608035335,4.051872472802934
1790097021876094208,8.314094238281257,-5.890632843222063,-0.21303466030267137,4.502339160733194
1790097021886094080,8.324094238281257,-6.865976702450127,0.6076287116299675,4.535679255788366
1790097021896094208,8.334094238281256,-8.50129155960868,1.3533530975964903,4.856681941108903
1790097021906094080,8.344094238281256,-9.702157583633722,2.074633919373266,5.858423592356027
1790097021916094208,8.354094238281258,-8.174320125392896,3.050137665902197,5.929420045922414
1790097021926094080,8.364094238281258,-3.731905595518887,3.1342251341077807,5.017564558515854
1790097021936094208,8.374094238281257,2.0172649608292854,3.39807218578188,3.83308419070993
1790097021946094080,8.384094238281257,5.12167069136542,3.021801716409748,2.820092933947032
1790097021956094208,8.394094238281257,4.456059220001986,3.2598146922791447,1.731922800368594
1790097021966094080,8.404094238281257,2.2371047294035042,4.158346818732464,-0.5855156219913372
1790097021976094208,8.414094238281256,1.484252677187828,4.525579706681638,-2.698571094231303
1790097021986094080,8.424094238281258,1.9867110438281557,3.6709046753514727,-3.7037270161451485
1790097021996094208,8.434094238281258,2.9514091955141017,2.2370015464741098,-3.784192611571943
1790097022006094080,8.444094238281258,3.7827818003901146,0.9524856509985329,-3.6489577865605294
1790097022016094208,8.454094238281257,4.317433607961039,-0.15039394279475865,-2.8662403599601887
1790097022026094080,8.464094238281257,4.419416375297545,-0.36891008910470985,-2.712195586305592
1790097022036094208,8.474094238281257,3.601824285923248,0.41857537864892713,-2.9858764693388142
1790097022046094080,8.484094238281257,0.9171123685281659,0.3666152482408217,-2.5275616443592703
1790097022056094208,8.494094238281257,-1.5216404312959568,-0.3251260930529077,-1.6035031134491107
1790097022066094080,8.504094238281256,-2.5479455581981703,-1.7779850143867366,-0.6184575235476715
1790097022076094208,8.514094238281258,-1.6815935133518969,-2.888370725015304,0.24818980175597236
1790097022086094080,8.524094238281258,-0.7652954131304253,-3.182332685390966,0.9336290809236902
1790097022096094208,8.534094238281257,-2.3199836504230356,-3.056260356036922,1.4986969741177865
1790097022106094080,8.544094238281257,-5.316700392412447,-3.0543362155986906,3.3241165956266343
1790097022116094208,8.554094238281257,-6.776351242704554,-2.6981693130796933,5.126757452148077
1790097022126094080,8.564094238281257,-5.5110210198328184,-1.9352164859207241,6.068567935705324
1790097022136094208,8.574094238281257,-2.804029435569837,-0.8978082559953018,6.553471045734627
1790097022146094080,8.584094238281258,-1.0094079277246273,0.4691983364676103,6.467171233967913
1790097022156094208,8.594094238281258,-1.2435650294647504,1.9925955348908169,5.234132702470408
1790097022166094080,8.604094238281258,-2.1889317308414094,3.2358061838573544,3.8189580852204137
1790097022176094208,8.614094238281258,-2.0928392734876997,4.030735326724709,3.0997634157027405
1790097022186094080,8.624094238281257,-1.0499009773305432,4.333489107421859,2.380843260787566
1790097022196094208,8.634094238281257,0.18946330134376843,4.21211782416792,1.2803189157442436
1790097022206094080,8.644094238281257,0.8520364749128164,3.4965033223688065,0.063037839890425
1790097022216094208,8.654094238281257,0.17223377441390042,2.276189335771958,-0.9835118681014896
1790097022226094080,8.664094238281256,-1.3241850319511212,0.8892082252379457,-1.3937103206117587
1790097022236094208,8.674094238281258,-1.1485848648306805,-0.4655576069408166,-1.9064238041947676
1790097022246094080,8.684094238281258,0.8318577396505529,-1.8796395338780745,-2.68270548062451
1790097022256094208,8.694094238281258,3.332929119250646,-3.4309179653319446,-3.185120886492053
1790097022266094080,8.704094238281257,4.434610865316929,-4.995774190460034,-3.5687232264590616
1790097022276094208,8.714094238281257,3.7733703225772697,-6.376765575869936,-3.694898036367584
1790097022286094080,8.724094238281257,2.7296678460879034,-6.9842277651446905,-3.7043145076592374
1790097022296094208,8.734094238281257,2.449320072757807,-6.32350985102532,-3.379811689493769
1790097022306094080,8.744094238281258,2.138931863576655,-4.915590327801168,-2.5140328586007654
1790097022316094208,8.754094238281258,2.6294633975434047,-3.263974122640223,-1.5799503254009668
1790097022326094080,8.764094238281258,3.4980700000513827,-1.662856627434882,-0.8601315185236238
1790097022336094208,8.774094238281258,1.5218184944887552,-0.7349813228352924,-0.5096735830276383
1790097022346094080,8.784094238281257,-1.2030071123310866,-0.16598044174145202,-0.06598635322410115
1790097022356094208,8.794094238281257,-1.1761022059461876,-0.01587720033067775,0.24438964385733133
1790097022366094080,8.804094238281257,0.6809527326638805,-0.054466121713183005,0.6802385692337451
1790097022376094208,8.814094238281257,0.6229043790636954,-0.04759320366046613,0.8485217996846591
1790097022386094080,8.824094238281257,-1.5457654320255738,0.06532099476115473,0.9341910789771178
1790097022396094208,8.834094238281258,-3.0005484415556434,0.6019804310580925,1.1246119420107001
1790097022406094080,8.844094238281258,-3.231182727438556,1.0687479821719188,1.6865113218673085
1790097022416094208,8.854094238281258,-2.0686852937292426,1.3532041005129074,1.5998301351395772
1790097022426094080,8.864094238281258,-0.10834210542307354,1.5324871739787733,1.3025658051047482
1790097022436094208,8.874094238281257,0.44020928124773034,1.55049956162168,1.1853234738987817
1790097022446094080,8.884094238281257,-0.310247202489564,1.3955630999364201,0.9189500005602891
1790097022456094208,8.894094238281257,-0.5695750500213502,1.2095375454784913,0.22609999911320977
1790097022466094080,8.904094238281258,0.2780476283831751,0.9964875403576363,-0.538193487023201
1790097022476094208,8.914094238281258,1.5969697473730748,0.7935348034004167,-1.3547774651869844
1790097022486094080,8.924094238281258,2.548027950997298,0.2982958457947633,-2.319590901206352
1790097022496094208,8.934094238281258,2.9314102914274187,-0.5773333000776399,-3.254054095836865
1790097022506094080,8.944094238281258,3.0324013356260227,-1.674859003416346,-3.94377892723142
1790097022516094208,8.954094238281257,3.076407860493961,-2.8061207201320806,-4.224836650223047
1790097022526094080,8.964094238281257,2.7795479737949744,-2.806941341113116,-3.173363391918774
1790097022536094208,8.974094238281257,2.2866780004666873,-1.9206373101077423,-1.5351453507048058
1790097022546094080,8.984094238281257,1.2121809089428803,-1.1672648076712768,-0.24330528532293294
1790097022556094208,8.994094238281258,-0.09886983428234802,-0.5765231871492112,0.7518819710538546
1790097022566094080,9.004094238281258,-0.20117484113602313,0.35493677377500576,1.244246322769452
1790097022576094208,9.014094238281258,0.27480867469997267,1.2448518415483831,1.5318883699599462
1790097022586094080,9.024094238281258,0.7310303760125552,1.467938473872419,1.4775882745747122
1790097022596094208,9.034094238281257,0.3341011618848373,0.8000227868281342,1.204314850612447
1790097022606094080,9.044094238281257,0.14815221562844993,-0.47099744515614655,0.8002805518501217
1790097022616094208,9.054094238281257,1.1515107757249572,-1.2051964042808625,0.28618143795150264
1790097022626094080,9.064094238281259,2.4692830131681336,-0.9599300167027284,-0.6077304672993528
1790097022636094208,9.074094238281258,2.584314469113708,-0.9935136348901739,-0.9486944777902716
1790097022646094080,9.084094238281258,2.1931723310202025,-0.9713799185490704,-0.8933805074148162
1790097022656094208,9.094094238281258,1.7659262410375018,-0.7073304272920234,-0.7926677794148219
1790097022666094080,9.104094238281258,1.089158005930491,-0.7052057035135764,-0.6994074897063113
1790097022676094208,9.114094238281258,-0.10979448646039802,-0.6460574074563812,-0.35975664944807945
1790097022686094080,9.124094238281257,-1.189277653755818,-0.3291777626709984,0.11903145936745133
1790097022696094208,9.134094238281257,-0.8005749895130783,0.2758886635455709,-0.020962286002088826
1790097022706094080,9.144094238281257,0.3756600406780854,0.6004509354809204,-0.712242320527904
1790097022716094208,9.154094238281258,1.171288281449501,-0.23970726121613964,-1.231785281239384
1790097022726094080,9.164094238281258,1.8135220831077894,-1.8202711445740258,-1.1234161299884213
1790097022736094208,9.174094238281258,2.4374336881014487,-3.0288982914026628,-1.127969367046216
1790097022746094080,9.184094238281258,2.6199583206072674,-3.3268171877745623,-1.7278698157220502
1790097022756094208,9.194094238281258,1.345329072222462,-2.4991649188789786,-1.682975832810123
1790097022766094080,9.204094238281257,-0.9473608994057894,-1.2969115376463372,-0.9081229907321116
1790097022776094208,9.214094238281257,-3.4705785923542445,-0.12158753231296027,0.41526216915831615
1790097022786094080,9.224094238281259,-4.6204714204222475,1.0212580111886587,1.3877224921214453
1790097022796094208,9.234094238281259,-3.5804051560178927,2.003479367250354,1.5797860491375328
1790097022806094080,9.244094238281258,-1.5271236350583348,2.1587261312713926,1.1547191359070588
1790097022816094208,9.254094238281258,0.7499856256808684,1.3791503453325507,0.8409127997328394
1790097022826094080,9.264094238281258,2.88432507157129,-0.003015555197262071,1.0302537518003667
1790097022836094208,9.274094238281258,3.80242055291201,-1.2632473264714625,0.011697022906419274
1790097022846094080,9.284094238281257,2.617788327848173,-1.9936175021958051,-2.3177726774251752
1790097022856094208,9.294094238281257,0.7216476662653206,-2.8350058795966193,-4.325663375545245
1790097022866094080,9.304094238281257,-0.9387207385834726,-3.6014803707579173,-4.151998902277208
1790097022876094208,9.314094238281259,-1.1164619098194928,-3.6322223622104763,-2.5226632323204785
1790097022886094080,9.324094238281258,-0.18424885043307432,-2.725064610572043,-0.9593560471607091
1790097022896094208,9.334094238281258,0.41117322879070817,-1.8452054398686233,-0.1914095625030237
1790097022906094080,9.344094238281258,0.8449878325460012,-1.1194213787280771,-0.07847227504312715
1790097022916094208,9.354094238281258,1.0721144422388826,-0.7500479507133847,-0.49016690573980304
1790097022926094080,9.364094238281258,1.2603055052756542,-0.48992190057113894,-1.4095996958136154
1790097022936094208,9.374094238281257,1.1579995568730932,-0.32390153522805126,-2.2464110346335353
1790097022946094080,9.384094238281259,0.807103234551113,-0.7012640410450136,-2.533728698113972
1790097022956094208,9.394094238281259,0.14246679037722243,-1.4371733612732978,-1.9182113598515285
1790097022966094080,9.404094238281258,-0.9187489771243809,-2.20138365125823,-0.7454860710649973
1790097022976094208,9.414094238281258,-2.4540321214499397,-2.5128035708966525,0.26648083979431814
1790097022986094080,9.424094238281258,-3.914007998362347,-2.2969443729859202,1.3398224311380023
1790097022996094208,9.434094238281258,-4.263977313261266,-1.2823176938288599,2.0558589603854482
1790097023006094080,9.444094238281258,-3.4555292801776964,0.09301688778264788,2.1501033264104126
1790097023016094208,9.454094238281257,-1.6573800190933579,1.408408336617713,1.9185186626016149
1790097023026094080,9.464094238281257,0.5733829067090953,2.488153912499746,1.465401653878317
1790097023036094208,9.474094238281259,2.1229567994935192,2.959011750380616,1.2175227314083903
1790097023046094080,9.484094238281259,2.087538471079766,3.043570480561161,0.6066525256345003
1790097023056094208,9.494094238281258,0.2064927830237122,1.9141988462387145,-0.22080397327444617
1790097023066094080,9.504094238281258,-1.3253173560589442,0.3188760219190998,-1.0711881383548698
1790097023076094208,9.514094238281258,-2.073124350399241,-0.8213666386006103,-1.3324753225068413
1790097023086094080,9.524094238281258,-2.6446724054224933,-1.6212808616073429,-0.8909086108128993
1790097023096094208,9.534094238281257,-2.7322787560663775,-2.698743480544439,-0.6238504047637314
1790097023106094080,9.544094238281259,-2.714541599692157,-3.4141686970395067,-0.17866767233062364
1790097023116094208,9.554094238281259,-4.251576523327296,-2.221250754169243,0.8520578029634293
1790097023126094080,9.564094238281259,-4.192446927458847,-0.2417114934376594,2.000791704637936
1790097023136094208,9.574094238281258,-2.7119887693502016,1.930100118353961,2.4669737346000753
1790097023146094080,9.584094238281258,-1.5646273190667765,3.004078100468595,2.6379037638550074
1790097023156094208,9.594094238281258,-1.2759957299460445,2.3139877866318037,2.069591823963408
1790097023166094080,9.604094238281258,-2.1205845687928844,0.6342386781918238,0.8984816842804901
1790097023176094208,9.614094238281258,-3.741948697595742,-0.32204652655731686,0.2240044902974035
1790097023186094080,9.624094238281257,-5.019383449132269,-0.8187414301662629,0.9315920131014377
1790097023196094208,9.634094238281259,-4.839644949479393,-1.0570229054609221,1.894840832418794
1790097023206094080,9.644094238281259,-3.7720747134818313,-1.0398933425990808,2.583486973475496
1790097023216094208,9.654094238281258,-3.5509808575799626,-0.7514029476493262,3.0349664379013155
1790097023226094080,9.664094238281258,-4.190797409482544,-0.2174384213314371,3.4121810700701296
1790097023236094208,9.674094238281258,-4.5017935027578035,0.4264315663557713,3.4341383736577824
1790097023246094080,9.684094238281258,-0.7884057790396892,1.4025779115922705,2.87831286356839
1790097023256094208,9.694094238281258,2.915932173670032,2.2948212826911254,1.668678673787719
1790097023266094080,9.70409423828126,3.128313760246803,2.663864451241728,0.09137409427079612
1790097023276094208,9.714094238281259,-0.12113950295194309,2.7926055830511958,-1.4412711028143017
1790097023286094080,9.724094238281259,-3.745436663903664,2.583338841908761,-1.3342501190838445
1790097023296094208,9.734094238281259,-2.2340606213136605,1.8504949385173501,-0.6046191301361584
1790097023306094080,9.744094238281258,1.7546076605506318,0.705333021688136,-0.8319159679560799
1790097023316094208,9.754094238281258,1.8127896375448789,0.015167949043817398,-0.544765369089984
1790097023326094080,9.764094238281258,-0.7491877492177694,-0.1866351266583889,-0.25385944266311455
1790097023336094208,9.774094238281258,-1.851086327625911,-0.2563343032162938,0.2745970393843179
1790097023346094080,9.784094238281257,0.3786502219090965,-0.4796858636662892,0.1708390804939909
1790097023356094208,9.794094238281259,2.589022262933052,-0.7607694905683275,-0.3461256869343839
1790097023366094080,9.804094238281259,1.3149159427101305,-0.8673660816328507,-0.7135353531928813
1790097023376094208,9.814094238281259,-1.9541885275410318,-0.7421810236246436,-0.5336037242630394
1790097023386094080,9.824094238281258,-3.56615018875529,-0.5924473597276327,-0.06079168378948244
1790097023396094208,9.834094238281258,-3.2770076184151584,-0.4140038881667243,0.5433690051953523
1790097023406094080,9.844094238281258,-2.1057400989601924,-0.1448809798315147,1.1634279772429579
1790097023416094208,9.854094238281258,-0.5325297650473861,0.21402874788398768,1.506399719086292
1790097023426094080,9.86409423828126,0.42588628023683534,0.595501897743306,1.512704060612123
1790097023436094208,9.874094238281259,-0.9588448852924403,0.830582760121939,1.8318737849197544
1790097023446094080,9.884094238281259,-2.2680647995258423,0.7847996627761162,2.3501767843654893
1790097023456094208,9.894094238281259,-0.4227876658494836,0.5626966619911814,2.3997028825295845
1790097023466094080,9.904094238281258,3.194205824530336,0.03642550600491794,1.9042262507279248
1790097023476094208,9.914094238281258,3.100501340804404,0.14770628107530648,0.26980714225967795
1790097023486094080,9.924094238281258,-1.4577067927787837,0.5061970289699346,-1.23463373966793
1790097023496094208,9.934094238281258,-3.4892724822990617,0.5329319714745817,-0.8120389956731735
1790097023506094080,9.944094238281258,-0.014803714964741976,0.26440684205639714,-0.5407411138843703
1790097023516094208,9.95409423828126,3.21701458002923,-0.5641339039407021,-0.305287102038
1790097023526094080,9.964094238281259,3.6017115588941637,-1.2242875091031444,-1.07404786564043
1790097023536094208,9.974094238281259,1.2299708288670141,-1.3897651497464507,-2.54258981086479
1790097023546094080,9.984094238281259,-1.0984923232386061,-1.7239257502436134,-2.664857618562081
1790097023556094208,9.994094238281258,-0.5491646656715932,-2.1141618732222063,-1.7725554136325352
1790097023566094080,10.004094238281258,1.0228821318166852,-2.338604947220591,-0.5805743410435139
1790097023576094208,10.014094238281258,2.3938557769465527,-2.1668293274707713,0.05742411805555084
1790097023586094080,10.02409423828126,2.3976857151811104,-1.6689755139895859,-0.27159634850480985
1790097023596094208,10.03409423828126,-0.3497275578567516,-1.0786030507171689,-0.9149760027318541
1790097023606094080,10.044094238281259,-3.2847008074612822,-0.5601207209437585,-1.0709862956079874
1790097023616094208,10.054094238281259,-3.675736855208248,-0.21542894166442134,-0.40376333300257816
1790097023626094080,10.064094238281259,-1.6446157295178692,-0.09695194674458606,0.3044750469497837
1790097023636094208,10.074094238281258,2.878394688516166,0.452011504256438,0.6566003502098763
1790097023646094080,10.084094238281258,5.189913406850795,1.1058191952219716,0.2770682565525967
1790097023656094208,10.094094238281258,2.864076325108093,1.223693271958295,-1.209965497678039
1790097023666094080,10.104094238281258,0.15137782347350837,0.4960010040600979,-2.616978354361103
1790097023676094208,10.11409423828126,0.4624877924389016,-0.7607581901708879,-3.0132293689683785
1790097023686094080,10.124094238281259,1.5103046481345854,-1.6978654659876216,-2.687614209224219
1790097023696094208,10.134094238281259,1.6825771473586313,-2.1388696453731537,-1.9820771950061569
1790097023706094080,10.144094238281259,1.45812194759774,-2.1632153111552905,-1.413917419966014
1790097023716094208,10.154094238281258,1.4180754696145836,-1.9084692335083007,-0.8927011055824752
1790097023726094080,10.164094238281258,1.4184754465391705,-1.6897911552627582,-0.08285701212109742
1790097023736094208,10.174094238281258,1.4396695313283234,-1.2171315281115307,0.4064921510142653
1790097023746094080,10.18409423828126,0.5086737385704276,-0.5124212713250503,0.2485487990418774
1790097023756094208,10.19409423828126,-0.695759969543578,0.12045354178201229,0.5354817674948184
1790097023766094080,10.20409423828126,-0.4281456258220382,0.945369617310772,0.4736843292860675
1790097023776094208,10.214094238281259,0.9708802798375398,1.892777214815591,0.15516202741132407
1790097023786094080,10.224094238281259,1.1532747430909023,2.1932780424830587,0.5104271156620908
1790097023796094208,10.234094238281259,0.2880252002585323,1.4476558768741286,0.9957648238594982
1790097023806094080,10.244094238281258,-0.04058387041360598,0.5065413384739327,0.5452253474820659
1790097023816094208,10.254094238281258,0.9620081527319815,-0.23003460294315198,-0.09027702248444155
1790097023826094080,10.264094238281258,1.7630520984195674,-0.17363828108197132,0.05786140831689976
1790097023836094208,10.27409423828126,1.1176663295170206,-0.14434952386656602,0.8376571041745551
1790097023846094080,10.28409423828126,-0.13101325278365117,-0.12139387321594597,1.267193056930767
1790097023856094208,10.294094238281259,-0.6051827903106002,-0.10168297157100514,1.216154574233593
1790097023866094080,10.304094238281259,-0.43447094310431733,-0.08334622442222828,0.7860328248239166
1790097023876094208,10.314094238281259,-0.478855568914074,-0.1518461728473773,0.0731205316340009
1790097023886094080,10.324094238281258,-0.24052184318804498,-0.11317363452833862,-0.4948901366241184
1790097023896094208,10.334094238281258,-0.03042360167804542,-0.5254677273020079,-0.47789355808525047
1790097023906094080,10.34409423828126,0.9263700977798722,-1.4201030028150765,-0.6228557350590038
1790097023916094208,10.35409423828126,2.450339203732905,-2.6050985595754734,-0.9261973193393905
1790097023926094080,10.36409423828126,3.7479563877642894,-3.1592084304001196,-1.5472052374363994
1790097023936094208,10.374094238281259,3.7119906622869734,-2.5550459229113427,-1.7712653121931263
1790097023946094080,10.384094238281259,1.9792737025725986,-1.1298503336531098,-1.4505652534750917
1790097023956094208,10.394094238281259,0.18375221496499528,0.42137506240709466,-0.8916943123683598
1790097023966094080,10.404094238281258,-1.0385460736748986,1.5223765394790445,-0.07536776700422532
1790097023976094208,10.414094238281258,-1.5605856367905702,1.9287450733798155,0.41578363389763834
1790097023986094080,10.424094238281258,-1.9596352108601982,1.7972821763574405,0.6752747615184218
1790097023996094208,10.43409423828126,-1.8370227888586372,1.3312603340102607,0.5948340438666284
1790097024006094080,10.44409423828126,-1.386989399155316,0.5173735252066982,0.5835366777876037
1790097024016094208,10.45409423828126,-0.337231639703134,-0.20331444707175175,0.6690294249132226
1790097024026094080,10.464094238281259,1.5474042876963727,-0.5742691949539264,-0.12039981494867943
1790097024036094208,10.474094238281259,2.2769224285502996,-0.9675845078271013,-0.5252456113802155
1790097024046094080,10.484094238281259,2.546941907235658,-1.1614837870990578,-0.8963427404144264
1790097024056094208,10.494094238281258,2.3050126730300544,-1.213818238281623,-1.1960999630224476
1790097024066094080,10.50409423828126,1.5328463642239918,-1.445544565158339,-1.0299791214916827
1790097024076094208,10.51409423828126,1.1791419661275286,-1.5149969473351956,-0.9733270385896139
1790097024086094080,10.52409423828126,1.4663493989786036,-1.2870278325517954,-1.1841889983609137
1790097024096094208,10.53409423828126,1.5107534977294312,-1.176663110577003,-1.3015942586140974
1790097024106094080,10.544094238281259,1.3301638990172762,-1.4538848831328617,-1.1922196258625477
1790097024116094208,10.554094238281259,1.2868605887203846,-1.6113295878737601,-0.8374983855887626
1790097024126094080,10.564094238281259,0.7303968966731005,-1.5396715553631288,-0.38306107477185103
1790097024136094208,10.574094238281258,-0.4837347418865834,-1.2512775006987185,-0.04749958682802183
1790097024146094080,10.584094238281258,-1.3544239836794392,-0.6626115712812239,0.22247835331391821
1790097024156094208,10.59409423828126,-1.37349306937413,0.10360634308464439,0.2906129283250956
1790097024166094080,10.60409423828126,-1.3497436122071311,0.4519188783291071,0.4412191811529473
1790097024176094208,10.61409423828126,-1.0820055537941509,0.33191925893535057,0.5873859718634193
1790097024186094080,10.624094238281259,0.05308986786726966,0.08279106908761422,0.3170510746838371
1790097024196094208,10.634094238281259,1.6486445575697999,-0.31982405948353115,-0.2064510323378263
1790097024206094080,10.644094238281259,2.7432181933871362,-0.6545347726354802,-0.809502933863771
1790097024216094208,10.654094238281258,3.0362249439879423,-0.9789073387211047,-1.4501185091910118
1790097024226094080,10.66409423828126,2.9140187824995376,-1.1060170302881813,-2.0122896221202136
1790097024236094208,10.67409423828126,2.5075903632490295,-1.1719883919150862,-2.4514461786273403
1790097024246094080,10.68409423828126,1.811771689545933,-1.1601482814140116,-2.4714160954351856
1790097024256094208,10.69409423828126,0.9251993436815688,-1.2338801477799943,-1.9869513018540474
1790097024266094080,10.70409423828126,-0.33048037498585825,-1.3646631346195413,-1.2789532252960214
1790097024276094208,10.714094238281259,-2.0311346603392706,-1.2637523713265546,-0.33045575302339875
1790097024286094080,10.724094238281259,-3.085980652891219,-0.6152353484126105,0.6241029135250389
1790097024296094208,10.734094238281259,-2.8769492883106014,0.12253069076013723,0.9805004121521486
1790097024306094080,10.744094238281258,-2.014361887333998,0.47639844589577324,1.1487830065098277
1790097024316094208,10.75409423828126,-1.5105956937281033,-0.15310557710502049,1.1195458643229195
1790097024326094080,10.76409423828126,-1.8016787687255542,-1.057697428961,1.4746319170254634
1790097024336094208,10.77409423828126,-2.6378291327039607,-0.8994220933788457,2.168160313430803
1790097024346094080,10.78409423828126,-3.17017845243397,-0.06066844156022805,2.580003386747546
1790097024356094208,10.794094238281259,-3.175560082527959,0.33058900039309236,2.8289339781772957
1790097024366094080,10.804094238281259,-3.000311300765891,-0.025898924694192638,3.126541239415335
1790097024376094208,10.814094238281259,-3.186368591612147,-0.382612614784801,2.9905063730729298
1790097024386094080,10.82409423828126,-2.99636165092201,0.08887874400450219,2.596804227282369
1790097024396094208,10.83409423828126,-2.7663869330383073,0.617566398781497,2.1148203331362554
1790097024406094080,10.84409423828126,-2.168699758779183,1.5286360569111186,2.4261215227085966
1790097024416094208,10.85409423828126,-0.6427967549583928,2.4212987046761656,2.2935050945388906
1790097024426094080,10.86409423828126,1.0635469669777107,2.242250725391156,1.1862403301962772
1790097024436094208,10.874094238281259,1.48132343601544,0.7865611034031097,0.26289949338732943
1790097024446094080,10.884094238281259,-1.2306188818340718,-0.442453862415927,0.2754284828784944
1790097024456094208,10.894094238281259,-4.652952198456295,-0.4602404244051319,0.4315453597955162
1790097024466094080,10.904094238281258,-5.862340899662294,-0.21686382243958216,0.8371727983732673
1790097024476094208,10.91409423828126,-5.114909191527296,-0.07212761385567966,1.4382506149568992
1790097024486094080,10.92409423828126,-2.796286281163288,0.36585024820456014,1.9051770220124722
1790097024496094208,10.93409423828126,-0.6988033397834739,0.36198061392428366,1.976135234613436
1790097024506094080,10.94409423828126,-0.7222069687930874,-0.021793065651010024,2.161467281971303
1790097024516094208,10.95409423828126,-2.088122086440417,0.09973950683450038,2.6170007663700847
1790097024526094080,10.964094238281259,-3.671531364180227,0.8858260366720834,3.0242652570685866
1790097024536094208,10.974094238281259,-2.1911050620224026,2.030592169760763,2.392102754975112
1790097024546094080,10.98409423828126,1.631830381181854,2.1681748248147317,0.9683026996564169
1790097024556094208,10.99409423828126,3.610390775721032,0.9185104057431257,-0.1888357727081204
1790097024566094080,11.00409423828126,2.2048400732241857,-0.27234295770618483,-0.40559040051194867
1790097024576094208,11.01409423828126,-0.49988029217368046,-0.6280363776311125,0.04522125705893665
1790097024586094080,11.02409423828126,-1.9653069106468903,-0.3785050559992038,0.14541320736552152
1790097024596094208,11.03409423828126,-2.2541311964843422,-0.1576673342251944,0.16842773837411137
1790097024606094080,11.044094238281259,-2.059152992168112,0.09915099797762492,0.22147781987371076
1790097024616094208,11.054094238281259,-1.562848438960943,0.4796998834675837,0.4694609287539309
1790097024626094080,11.064094238281259,-0.8279754944244145,0.5655164839549405,0.8963070304726082
1790097024636094208,11.07409423828126,-0.005863575820998952,0.3998836800848578,0.8933361490432888
1790097024646094080,11.08409423828126,0.2002874318167432,0.26079209432712397,0.9593509676812965
1790097024656094208,11.09409423828126,0.28002230929109667,0.10083975564404862,0.8338606266415475
1790097024666094080,11.10409423828126,0.2018201592331011,0.11697603891658255,0.7409717581182381
1790097024676094208,11.11409423828126,-0.19607927607534098,0.17467799487470942,0.7412412266336141
1790097024686094080,11.124094238281259,-0.7866556095767061,0.24116859911848118,0.6634704561727954
1790097024696094208,11.134094238281259,-1.0849029792936205,0.37630428071294786,0.4522702027581082
1790097024706094080,11.14409423828126,-1.4170374549152758,0.405758614985212,0.4469866405781171
1790097024716094208,11.15409423828126,-2.032710569952873,0.22737854608900462,0.7703623730665419
1790097024726094080,11.16409423828126,-2.2053412310558285,-0.07979082642515684,1.1954085237192447
1790097024736094208,11.17409423828126,-0.9201403408480793,-0.3145641995565256,1.3834613213467948
1790097024746094080,11.18409423828126,1.898037455525869,-0.23794533256804318,1.2146817326315196
1790097024756094208,11.19409423828126,3.8195063538276943,-0.0460646705850474,1.0731697938490838
1790097024766094080,11.20409423828126,2.7306003305978264,-0.29067094473149396,0.41717773520537893
1790097024776094208,11.214094238281259,0.648438396212416,-0.804136738853023,-0.8608199666796968
1790097024786094080,11.224094238281259,0.41497118831457525,-1.067932042422016,-1.8611335732659504
1790097024796094208,11.23409423828126,1.3152629387012762,-1.1549552333245858,-2.159701005764916
1790097024806094080,11.24409423828126,1.6430216353581875,-1.2073872255512685,-2.089251928142055
1790097024816094208,11.25409423828126,0.810229895830043,-1.3531962292097468,-1.8650858248342084
1790097024826094080,11.26409423828126,-0.6215369124218235,-1.7039350143700258,-1.4663785671755278
1790097024836094208,11.27409423828126,-1.5268900267217118,-1.8750684945869815,-1.0508059961731353
1790097024846094080,11.28409423828126,-1.638897221886928,-1.7353810989327219,-0.47124848545061343
1790097024856094208,11.294094238281259,-0.9510474717834174,-1.5446986305287749,0.1744313306753872
1790097024866094080,11.30409423828126,0.6205666125761995,-1.2378173866806708,0.5746927939481401
1790097024876094208,11.31409423828126,2.151503815884729,-0.837507715819177,0.7215310692299833
1790097024886094080,11.32409423828126,2.447938062479682,-0.9219522464835506,0.6571756917173447
1790097024896094208,11.33409423828126,1.6074030053208959,-1.404481740038393,0.07940346282281152
1790097024906094080,11.34409423828126,0.5186505581009222,-1.8573488771428404,-0.7944208136602829
1790097024916094208,11.35409423828126,0.5142712944371858,-1.8497481484719103,-1.9824476165000262
1790097024926094080,11.36409423828126,0.9690627779160719,-1.4192495222300685,-2.3662587763780794
1790097024936094208,11.374094238281259,1.2977848616212908,-0.7941990824436276,-1.967248728941243
1790097024946094080,11.384094238281259,0.9977684646466057,-0.3164848032832191,-1.2105101004026622
1790097024956094208,11.39409423828126,0.6465220177271866,-0.09997769821288313,-0.4679763702539644
1790097024966094080,11.40409423828126,0.704326011436262,0.013066074715411415,-0.14155439613447698
1790097024976094208,11.41409423828126,0.5571516107636467,-0.3242645965746676,0.28101102754660734
1790097024986094080,11.42409423828126,0.2683593330162318,-0.7756687419126458,0.630091574858983
1790097024996094208,11.43409423828126,-0.13672546630728954,-1.098703352804672,0.8016165383694666
1790097025006094080,11.44409423828126,-0.4423308063706075,-1.0110626457852354,0.635926396110506
1790097025016094208,11.45409423828126,-0.4400306023798121,-0.549060397449492,0.3273439626218592
1790097025026094080,11.46409423828126,-0.5159086595608581,0.10758714346924592,0.1950601948911318
1790097025036094208,11.47409423828126,-0.545445560652336,0.6581376934562355,0.10039201370087872
1790097025046094080,11.48409423828126,-0.3645807805878891,0.7605199594475791,-0.03217851728727568
1790097025056094208,11.49409423828126,0.433885105187481,0.4926504668227497,-0.2893813896083485
1790097025066094080,11.50409423828126,1.5797307417882864,-0.09789095808136877,-0.5253960060281733
1790097025076094208,11.51409423828126,2.3533705511367238,-0.9396504374599135,-0.7423347832936026
1790097025086094080,11.52409423828126,2.2987407653568788,-2.1043154558155077,-1.3481817671005925
1790097025096094208,11.53409423828126,2.2582657797597845,-2.5747981012805363,-1.4188080715895552
1790097025106094080,11.544094238281259,1.9722417665414358,-1.5800366064455833,-1.164188209059499
1790097025116094208,11.55409423828126,1.9078220004371904,-0.09597827713455642,-0.7463467574435723
1790097025126094080,11.56409423828126,0.9793059678466938,0.6653969594382149,-0.06303820432737339
1790097025136094208,11.57409423828126,-0.06208403599358769,0.849218248545882,0.36122386790555444
1790097025146094080,11.58409423828126,-0.23272338146303545,0.6412633736776956,0.06110941001596462
1790097025156094208,11.59409423828126,0.08441383339359924,0.014249996162008172,-0.48484286681490263
1790097025166094080,11.60409423828126,0.4188155643241997,-0.3916459112216082,-0.9385481134698229
1790097025176094208,11.61409423828126,0.9893273776998368,-0.5493908410307069,-1.2402477276387667
1790097025186094080,11.62409423828126,1.5739576393580261,-0.7200655008226456,-1.4969599444793689
1790097025196094208,11.63409423828126,1.8949837816425485,-0.940784620229152,-1.695884117266935
1790097025206094080,11.64409423828126,1.594920659420358,-0.8493016729598055,-1.518176896622839
1790097025216094208,11.65409423828126,0.7453482320606646,-0.40884092899836866,-0.8044271350534785
1790097025226094080,11.66409423828126,-0.07183321284788335,0.05770745087848367,0.07086620732323468
1790097025236094208,11.67409423828126,-0.6386520428607882,0.1784663171228764,0.8323136613006281
1790097025246094080,11.68409423828126,-0.6618717929022754,0.2524928691026359,1.00744257063441
1790097025256094208,11.69409423828126,-0.7413702524432405,0.1698539218635851,0.8057971415922437
1790097025266094080,11.70409423828126,-0.711822241560228,-0.1940146441041062,0.44503963631235843
1790097025276094208,11.71409423828126,0.14623842517400315,-0.26694613955596797,-0.0476674270361767
1790097025286094080,11.72409423828126,0.9950310535773436,-0.16299067172287807,-0.34341881752882936
1790097025296094208,11.73409423828126,0.8029665369156218,-0.17870879779706245,-0.37728397523727675
1790097025306094080,11.74409423828126,0.2276962749881251,0.11889047984635798,-0.42338352774036214
1790097025316094208,11.75409423828126,-0.10635755389707308,0.5347171197741823,-0.637701048108685
1790097025326094080,11.76409423828126,-0.46756219993628884,0.6074215238748912,-0.806969265502257
1790097025336094208,11.77409423828126,-0.770595652404251,0.27954397599469066,-0.566507745833524
1790097025346094080,11.784094238281261,-0.6973395146506963,-0.15825919000787025,-0.06923661416598087
1790097025356094208,11.79409423828126,-0.5419931338249732,-0.59375084527628,0.39245143638943736
1790097025366094080,11.80409423828126,-0.569103099289291,-1.0404802790681313,0.7343826060371154
1790097025376094208,11.81409423828126,-0.3281826985308414,-1.1965653852978475,0.3991557273908388
1790097025386094080,11.82409423828126,0.3990184038426494,-1.0091654151449816,-0.7686252304354179
1790097025396094208,11.83409423828126,0.7211520807282393,-0.8949304311914936,-1.8218401369856019
1790097025406094080,11.84409423828126,0.175922098592608,-1.2818048529055022,-2.1627199931493353
1790097025416094208,11.85409423828126,0.5614906938382829,-1.8853556124358786,-2.1743650722589978
1790097025426094080,11.86409423828126,2.7050664864574063,-2.2742710386748066,-2.2441439156519962
1790097025436094208,11.87409423828126,5.17283319724277,-2.517900481358005,-2.3460637527709487
1790097025446094080,11.88409423828126,6.006086368222793,-2.8526836645765288,-2.77332988508563
1790097025456094208,11.89409423828126,3.858198876630455,-3.6970250040160204,-2.950982844880078
1790097025466094080,11.90409423828126,0.36201825924091924,-4.311119990749287,-2.5929999112616433
1790097025476094208,11.91409423828126,-2.140103033124637,-3.92336291224925,-2.0974551766317537
1790097025486094080,11.92409423828126,-3.583497480538467,-3.195811368871666,-0.9755658942563681
1790097025496094208,11.93409423828126,-3.8267671469341864,-1.922342920283349,0.0760165054465202
1790097025506094080,11.944094238281261,-3.228179409040988,-0.610413188551072,0.520161729109368
1790097025516094208,11.954094238281261,-2.669538644680901,0.08335474712160212,0.6862711490621786
1790097025526094080,11.96409423828126,-1.9467013585085857,-0.1689786048797439,0.9318016556556227
1790097025536094208,11.97409423828126,-1.6409605235302047,-0.6262012064721184,1.7452325594230376
1790097025546094080,11.98409423828126,-0.7755401925013671,0.017552899763431495,1.7170165441154412
1790097025556094208,11.99409423828126,-0.09608678389486984,1.2706010916447503,1.0516012533307848
1790097025566094080,12.00409423828126,-0.14860215803017576,1.3436843275898316,0.19911113599745361
1790097025576094208,12.01409423828126,-1.4344117490332517,0.019906593555636898,-0.18708109424540442
1790097025586094080,12.02409423828126,-2.9355617096064845,-1.1749159542715006,0.23787875540783573
1790097025596094208,12.034094238281261,-2.944562593497672,-0.6369504566247679,0.8354225069081602
1790097025606094080,12.04409423828126,-1.7166159556708704,1.0891586517989713,0.8742291257178049
1790097025616094208,12.05409423828126,0.3947376504004354,2.2997292634421758,0.570884029380901
1790097025626094080,12.06409423828126,1.4795823446045073,1.8652892470162241,0.04864215501316271
1790097025636094208,12.07409423828126,1.1153903908921596,1.4048421151113737,0.4830344824729596
1790097025646094080,12.08409423828126,2.3645640119679907,2.877717665249738,0.11853342561992553
1790097025656094208,12.09409423828126,3.01344170450193,2.587627608581493,-1.504413234762916
1790097025666094080,12.104094238281261,1.1072371983575895,0.21889934594221894,-1.5914543563878292
1790097025676094208,12.114094238281261,-2.6408529102538756,-0.5797274084505993,-1.006858897374109
1790097025686094080,12.12409423828126,-4.292422795848337,-0.3415086422736719,-0.25935796871070305
1790097025696094208,12.13409423828126,-3.2686965703722435,0.04349353175157694,0.5321245852756855
1790097025706094080,12.14409423828126,-1.3611044448305107,0.1378064201272761,0.9255379014854398
1790097025716094208,12.15409423828126,-1.2113331124739373,-0.5068925872947878,1.8904915412048864
1790097025726094080,12.16409423828126,-2.435967589837663,-0.2121239946612902,2.142338463989699
1790097025736094208,12.17409423828126,-3.2722586359453945,0.3401123541573977,1.8428719036467525
1790097025746094080,12.18409423828126,-3.4448165049251456,1.1292648332753739,2.1715146813726247
1790097025756094208,12.194094238281261,-2.7347456253132014,1.3420427092164016,1.8588827669988208
1790097025766094080,12.204094238281261,-2.811282230291616,0.6821523312619744,1.3518096609532582
1790097025776094208,12.21409423828126,-4.003293543122924,0.06134603291477424,1.951417033070123
1790097025786094080,12.22409423828126,-4.982658131633698,-0.08998115776706506,2.5627437955919588
1790097025796094208,12.23409423828126,-4.735597029297121,0.10654990126982546,2.957458511449472
1790097025806094080,12.24409423828126,-2.6456371144689688,0.6635449141516808,2.8802061525117786
1790097025816094208,12.25409423828126,-1.2413008787674786,0.9737849755446777,2.158494449234282
1790097025826094080,12.264094238281261,-1.833341985863913,1.1868881966366327,1.549953842080619
1790097025836094208,12.274094238281261,-3.200832456575235,1.474049775600788,1.3276272789308663
1790097025846094080,12.284094238281261,-2.976080646936402,1.697137569467458,1.0851642395883783
1790097025856094208,12.29409423828126,-0.16983959798300718,1.8089095300360203,0.8716192426962004
1790097025866094080,12.30409423828126,2.854334414040254,1.5945680252138088,0.03404173045152459
1790097025876094208,12.31409423828126,1.3750242699049595,0.8683221943878029,-0.7104811631628242
1790097025886094080,12.32409423828126,-3.49834632874075,0.3549631469349741,-0.7885606147941978
1790097025896094208,12.33409423828126,-5.923235519641712,0.09648097241440032,-0.34156414568746046
1790097025906094080,12.34409423828126,-4.235295865917196,-0.12042149049272186,0.4934636585544123
1790097025916094208,12.354094238281261,-0.3670880842710962,-0.41514249198772024,1.2055449568225056
1790097025926094080,12.364094238281261,2.6953311781812572,-0.5945685273828135,0.9817603135473588
1790097025936094208,12.37409423828126,1.2414572505056904,-0.8452039490443398,0.768669294865133
1790097025946094080,12.38409423828126,-1.7507229570813354,-0.8928655239447253,0.7710302293861809
1790097025956094208,12.39409423828126,-1.9638707226150625,-0.7858666223406318,0.5360202692959946
1790097025966094080,12.40409423828126,-0.05454115798844117,-0.892135886512544,0.14012632251377452
1790097025976094208,12.41409423828126,1.9116728973743853,-1.1213874723950568,-0.42443697861151863
1790097025986094080,12.424094238281262,1.865126706141127,-1.3491283452914842,-1.1083256271122308
1790097025996094208,12.434094238281261,-0.12432666069090459,-1.331002130639079,-1.4865485051649194
1790097026006094080,12.444094238281261,-1.7842501964191415,-0.995370890651861,-1.3034049048811285
1790097026016094208,12.454094238281261,-1.9466731059115852,-0.8201421070741277,-0.6518050838536679
1790097026026094080,12.46409423828126,-1.1973338316852966,-0.6502204477913709,-0.07015458048543699
1790097026036094208,12.47409423828126,-0.6041127090368659,-0.1964908286715807,0.44324009125692654
1790097026046094080,12.48409423828126,-0.47725191529876315,0.21744855327751605,0.8470021887603031
1790097026056094208,12.49409423828126,-0.03526870936170523,0.8765549867239715,0.9227134298180232
1790097026066094080,12.50409423828126,1.1570210935625664,1.204179194761614,0.8870020345533871
1790097026076094208,12.514094238281261,2.57259017546523,1.6019600138368073,0.6290589975359617
1790097026086094080,12.524094238281261,2.949662392946213,1.7890018977693298,-0.34727101026715607
1790097026096094208,12.534094238281261,1.4839512785673457,1.5960152486877437,-1.4793112601227167
1790097026106094080,12.54409423828126,0.7468763026248458,0.7496822348716676,-2.0639073659744134
1790097026116094208,12.55409423828126,1.9475242926026972,-0.3576917675748194,-2.507871840047027
1790097026126094080,12.56409423828126,3.484133989949427,-1.5230528026036434,-2.7945430673232905
