time,seconds_elapsed,z,y,x
1789213792030146800,0.056146728515625,0.3599347472190857,0.0657033771276474,-0.6468506455421448
1789213792040179000,0.066178955078125,0.19949473440647125,0.29479435086250305,-0.33201920986175537
1789213792050211000,0.076211181640625,0.07698266208171844,0.37276026606559753,-0.00865980051457882
1789213792060242000,0.086241943359375,0.040056873112916946,0.3653092682361603,0.21483640372753143
1789213792070273800,0.096273681640625,0.06888612359762192,0.28400561213493347,0.3192269802093506
1789213792080306000,0.106305908203125,0.13345739245414734,0.14767999947071075,0.3332461416721344
1789213792090338000,0.116338134765625,0.18258525431156158,0.00592526700347662,0.3298351764678955
1789213792100370000,0.126369873046875,0.15639999508857727,0.01895078830420971,0.362231969833374
1789213792110401000,0.136401123046875,0.07587265968322754,0.24296364188194275,0.3935489058494568
1789213792120433000,0.146432861328125,-0.02087838388979435,0.601030170917511,0.33237501978874207
1789213792130465000,0.156465087890625,-0.11759613454341888,0.75951087474823,0.1428479701280594
1789213792140497000,0.166496826171875,-0.1948366016149521,0.7606112957000732,-0.11272574961185455
1789213792150529000,0.176529052734375,-0.24399934709072113,0.6770200133323669,-0.3560766279697418
1789213792160561000,0.186560791015625,-0.277798056602478,0.511296808719635,-0.5608571767807007
1789213792170591700,0.196591796875,-0.28459152579307556,0.3954938054084778,-0.6717283129692078
1789213792180624100,0.2066240234375,-0.2805568277835846,0.4185253381729126,-0.697560727596283
1789213792190656000,0.216656005859375,-0.31528419256210327,0.2654745578765869,-0.6533842086791992
1789213792200687900,0.22668798828125,-0.3434329926967621,0.15701918303966522,-0.5510037541389465
1789213792210719700,0.2367197265625,-0.3217870891094208,0.45824506878852844,-0.40804368257522583
1789213792220750800,0.246750732421875,-0.2742997407913208,0.9010810852050781,-0.2691372036933899
1789213792230783000,0.256782958984375,-0.26115649938583374,1.1552225351333618,-0.15475575625896454
1789213792240814800,0.26681494140625,-0.26698243618011475,1.1333258152008057,-0.07161692529916763
1789213792250847000,0.276846923828125,-0.2715814411640167,0.8634508848190308,0.03912263363599777
1789213792260878800,0.28687890625,-0.25300082564353943,0.6617832779884338,0.23525512218475342
1789213792270910000,0.296909912109375,-0.20409907400608063,0.6353574991226196,0.41938716173171997
1789213792280942000,0.306942138671875,-0.15451952815055847,0.4936451315879822,0.47284290194511414
1789213792290974000,0.316973876953125,-0.14703738689422607,0.26673048734664917,0.35213780403137207
1789213792301005800,0.327005859375,-0.19104425609111786,0.11023090034723282,0.1326856017112732
1789213792311038000,0.337037841796875,-0.2764526307582855,0.19065943360328674,-0.16443900763988495
1789213792321069000,0.347069091796875,-0.37484896183013916,0.234613835811615,-0.5015498995780945
1789213792331101000,0.357100830078125,-0.4857552647590637,0.09632600098848343,-0.7724525332450867
1789213792341132800,0.3671328125,-0.5824418663978577,-0.04542234167456627,-0.9810193181037903
1789213792351165000,0.3771650390625,-0.6839269399642944,-0.11284852027893066,-1.1591885089874268
1789213792361197000,0.387197021484375,-0.7588781118392944,0.13206934928894043,-1.1883999109268188
1789213792371228000,0.397227783203125,-0.7841778993606567,0.21348725259304047,-1.020870566368103
1789213792381260000,0.407260009765625,-0.7860021591186523,-0.019577695056796074,-0.7166995406150818
1789213792391292000,0.4172919921875,-0.7122573852539062,-0.2504681646823883,-0.35560762882232666
1789213792401324000,0.427323974609375,-0.6024038195610046,-0.35959386825561523,-0.04691983759403229
1789213792411356000,0.43735595703125,-0.6088204383850098,-0.4472414255142212,0.1307809203863144
1789213792421388000,0.447387939453125,-0.6524475812911987,-0.4079028069972992,0.21007972955703735
1789213792431419000,0.4574189453125,-0.5267732739448547,-0.6762633919715881,0.1431582272052765
1789213792441450800,0.46745068359375,-0.2997736632823944,-0.9601436257362366,0.009806823916733265
1789213792451483100,0.477483154296875,-0.14502057433128357,-0.7473335862159729,-0.11984517425298691
1789213792461515000,0.487514892578125,-0.04200737178325653,-0.41116729378700256,-0.2817389965057373
1789213792471547000,0.497546875,0.03766428679227829,-0.3345167338848114,-0.4347535967826843
1789213792481578000,0.507577880859375,-0.010686732828617096,-0.36174941062927246,-0.3973960876464844
1789213792491609900,0.51760986328125,-0.1566937416791916,-0.3469025492668152,-0.26340821385383606
1789213792501642000,0.52764208984375,-0.21672272682189941,-0.4154832065105438,-0.11702142655849457
1789213792511673900,0.537673828125,-0.19002239406108856,-0.5183722972869873,-0.028149345889687538
1789213792521706000,0.5477060546875,-0.11034461855888367,-0.5272132158279419,0.02322116680443287
1789213792531736800,0.55773681640625,0.03167324140667915,-0.39015495777130127,0.04277276247739792
1789213792541769000,0.56776904296875,0.17860010266304016,-0.2539670169353485,0.06549112498760223
1789213792551801000,0.577801025390625,0.33707335591316223,-0.1302695870399475,0.16793733835220337
1789213792561833000,0.5878330078125,0.3759632408618927,0.130660280585289,0.2563231289386749
1789213792571864800,0.59786474609375,0.34805944561958313,0.3480226993560791,0.29968684911727905
1789213792581896000,0.60789599609375,0.3459339737892151,0.2478090077638626,0.2259950488805771
1789213792591928000,0.617927978515625,0.3731996715068817,-0.09848369657993317,0.1310078203678131
1789213792601960000,0.6279599609375,0.37260738015174866,-0.38020166754722595,0.11873197555541992
1789213792611991800,0.63799169921875,0.32521429657936096,-0.5576661825180054,0.1262921541929245
1789213792622024000,0.64802392578125,0.23354537785053253,-0.7200862765312195,0.12871989607810974
1789213792632054800,0.6580546875,0.07237645983695984,-0.8886718153953552,0.11908084899187088
1789213792642087000,0.6680869140625,-0.10468220710754395,-0.9553586840629578,0.12163268774747849
1789213792652119000,0.678119140625,-0.2814740240573883,-0.947198212146759,0.13995444774627686
1789213792662151000,0.68815087890625,-0.46302810311317444,-0.7461367845535278,0.1855916976928711
1789213792672183000,0.69818310546875,-0.6727919578552246,-0.3650892972946167,0.19391967356204987
1789213792682215000,0.70821484375,-0.905428946018219,-0.048100151121616364,0.09346150606870651
1789213792692246000,0.71824609375,-1.1178008317947388,-0.11505148559808731,-0.08143067359924316
1789213792702278000,0.72827783203125,-1.3184373378753662,-0.47106045484542847,-0.28216245770454407
1789213792712309800,0.738309814453125,-1.4833487272262573,-0.8468583226203918,-0.43517249822616577
1789213792722342000,0.748341796875,-1.606951355934143,-1.1112306118011475,-0.5154350996017456
1789213792732374000,0.7583740234375,-1.6667617559432983,-1.2673288583755493,-0.48574113845825195
1789213792742404900,0.76840478515625,-1.5564796924591064,-1.1863572597503662,-0.31958943605422974
1789213792752436000,0.77843603515625,-0.859255313873291,-0.8486021757125854,0.04668068513274193
1789213792762467800,0.7884677734375,0.08075716346502304,-0.2264389991760254,0.47334200143814087
1789213792772500000,0.7985,0.8301938772201538,0.2927330732345581,0.7411603927612305
1789213792782532000,0.808531982421875,0.7476321458816528,0.45346149802207947,0.7006627917289734
1789213792792563000,0.81856298828125,0.3309022784233093,0.5016239881515503,0.3799947202205658
1789213792802594800,0.8285947265625,0.14069533348083496,0.43699517846107483,0.3192717432975769
1789213792812627200,0.838627197265625,0.10823539644479752,0.40207552909851074,0.3150157332420349
1789213792822659000,0.8486591796875,0.07194263488054276,0.25913676619529724,0.2873705327510834
1789213792832691000,0.85869091796875,0.07458129525184631,0.0016029566759243608,0.2192348837852478
1789213792842722000,0.86872216796875,0.14504720270633698,-0.1833871304988861,0.20604345202445984
1789213792852754000,0.87875390625,0.27647367119789124,-0.07559382915496826,0.22892506420612335
1789213792862786000,0.8887861328125,0.3268585503101349,0.11546693742275238,0.18427103757858276
1789213792872818000,0.89881787109375,0.30486243963241577,0.28021568059921265,0.09908849745988846
1789213792882850000,0.90885009765625,0.2114374190568924,0.32467982172966003,0.007703992538154125
1789213792892881000,0.918880859375,0.1090705618262291,0.22541341185569763,-0.04683834686875343
1789213792902912800,0.928912841796875,0.05457909032702446,-0.023324497044086456,-0.04246809706091881
1789213792912945200,0.938945068359375,0.05320116877555847,-0.2539159059524536,0.030541930347681046
1789213792922977000,0.94897705078125,0.09629590809345245,-0.2717047333717346,0.1592857986688614
1789213792933009000,0.9590087890625,0.12784957885742188,-0.2107822746038437,0.27353328466415405
1789213792943040000,0.9690400390625,0.07926206290721893,-0.08722145110368729,0.34613531827926636
1789213792953072000,0.979072021484375,-0.02857598476111889,-0.09762322902679443,0.35049888491630554
1789213792963104000,0.98910400390625,-0.2033962607383728,-0.11406159400939941,0.29165422916412354
1789213792973136000,0.999135986328125,-0.338207870721817,-0.10154154151678085,0.18742795288562775
1789213792983168000,1.00916796875,-0.3295725882053375,-0.07998937368392944,0.04886554181575775
1789213792993198800,1.01919873046875,-0.2688029706478119,0.05679696798324585,-0.058280881494283676
1789213793003231000,1.02923095703125,-0.32557782530784607,0.2960343360900879,-0.1378505378961563
1789213793013263000,1.03926318359375,-0.34429559111595154,0.2611221373081207,-0.15237648785114288
1789213793023295000,1.049294921875,-0.2336215376853943,-0.05612984672188759,-0.1364459991455078
1789213793033326800,1.059326904296875,-0.11708427965641022,-0.2698157727718353,-0.0531148836016655
1789213793043358000,1.06935791015625,-0.013642575591802597,-0.33395907282829285,0.08602969348430634
1789213793053390000,1.07939013671875,0.05937943607568741,-0.2175360471010208,0.2280411571264267
1789213793063422000,1.089421875,0.13803456723690033,0.02279878966510296,0.3666996955871582
1789213793073453800,1.099453857421875,0.15087978541851044,0.041370075196027756,0.4023421108722687
1789213793083486000,1.10948583984375,0.13049861788749695,0.10427926480770111,0.47458168864250183
1789213793093517000,1.11951708984375,0.13457751274108887,0.1521783471107483,0.5984786152839661
1789213793103549000,1.129548828125,0.14160320162773132,0.20186254382133484,0.7319104075431824
1789213793113581000,1.1395810546875,0.15947142243385315,0.24509817361831665,0.8227285146713257
1789213793123613000,1.149613037109375,0.16438362002372742,0.24534770846366882,0.8890079259872437
1789213793133645000,1.15964501953125,0.11232787370681763,0.22124716639518738,0.9016541838645935
1789213793143676200,1.16967626953125,0.006244580261409283,0.16591493785381317,0.855728805065155
1789213793153708000,1.1797080078125,-0.09807410091161728,0.07668199390172958,0.7629716992378235
1789213793163740000,1.189739990234375,-0.17844510078430176,-0.033362749963998795,0.6261882781982422
1789213793173771800,1.199771728515625,-0.25262266397476196,-0.11054728180170059,0.482861191034317
1789213793183804200,1.20980419921875,-0.30998343229293823,-0.1726711094379425,0.31267428398132324
1789213793193835000,1.2198349609375,-0.28436434268951416,-0.20451025664806366,0.1299998164176941
1789213793203867000,1.229866943359375,-0.18860960006713867,-0.13787265121936798,0.013161075301468372
1789213793213899000,1.23989892578125,-0.12073387205600739,-0.06624746322631836,0.01756328158080578
1789213793223931100,1.24993115234375,-0.09596594423055649,-0.053942326456308365,0.15098153054714203
1789213793233963000,1.259962890625,-0.116932213306427,-0.18082916736602783,0.2725987732410431
1789213793243995000,1.269994873046875,-0.15469875931739807,-0.29280364513397217,0.2602614164352417
1789213793254026000,1.28002587890625,-0.212796151638031,-0.36567410826683044,0.07809160649776459
1789213793264057900,1.290057861328125,-0.3134785592556,-0.3371841609477997,-0.23690761625766754
1789213793274090000,1.300090087890625,-0.4116338789463043,-0.2329389750957489,-0.5950862765312195
1789213793284122000,1.3101220703125,-0.4689536392688751,-0.06210784614086151,-0.8382176756858826
1789213793294154000,1.320154052734375,-0.476245641708374,0.08713330328464508,-0.9226548075675964
1789213793304184800,1.330184814453125,-0.41118860244750977,0.17737558484077454,-0.8771882653236389
1789213793314217000,1.340217041015625,-0.30880576372146606,0.17698995769023895,-0.7044582962989807
1789213793324249000,1.3502490234375,-0.1911822110414505,0.1445571780204773,-0.4197509288787842
1789213793334281000,1.360281005859375,-0.041725873947143555,0.10514692217111588,-0.128736674785614
1789213793344312800,1.370312744140625,0.02527020312845707,0.09070327132940292,0.08552342653274536
1789213793354344000,1.380343994140625,0.058101654052734375,0.03592551127076149,0.24689607322216034
1789213793364376000,1.3903759765625,0.03210946545004845,-0.07002382725477219,0.34418240189552307
1789213793374408000,1.400407958984375,-0.018615495413541794,-0.2310159057378769,0.41428640484809875
1789213793384440000,1.410440185546875,-0.06149664893746376,-0.34676888585090637,0.4990103244781494
1789213793394472000,1.420471923828125,-0.0859852135181427,-0.40812888741493225,0.5813392996788025
1789213793404502800,1.430502685546875,-0.13488058745861053,-0.4034087061882019,0.6419307589530945
1789213793414535200,1.44053515625,-0.2050418257713318,-0.2579423189163208,0.634424090385437
1789213793424567000,1.450567138671875,-0.25278031826019287,-0.029640449211001396,0.5114915370941162
1789213793434599000,1.460598876953125,-0.20090007781982422,0.009423329494893551,0.3093850016593933
1789213793444630800,1.470630859375,-0.18430618941783905,0.06851860880851746,0.22586534917354584
1789213793454662000,1.480661865234375,-0.24937334656715393,0.02497112937271595,0.11788136512041092
1789213793464694000,1.490694091796875,-0.2229611724615097,-0.17256298661231995,0.011235344223678112
1789213793474726000,1.500725830078125,-0.17553719878196716,-0.36158695816993713,-0.048290565609931946
1789213793484758000,1.510758056640625,-0.11216888576745987,-0.5754600763320923,-0.08798924088478088
1789213793494790100,1.5207900390625,-0.12778405845165253,-0.5111367702484131,-0.11856047064065933
1789213793504821000,1.530821044921875,-0.07789187133312225,-0.47297582030296326,-0.2639501690864563
1789213793514853000,1.54085302734375,-0.0029819414485245943,-0.3898300528526306,-0.39304396510124207
1789213793524885000,1.550885009765625,0.01823439821600914,-0.3022906184196472,-0.4613566994667053
1789213793534916900,1.560916748046875,0.011530422605574131,-0.26043665409088135,-0.468106210231781
1789213793544949000,1.570948974609375,-0.03369191661477089,-0.2535339891910553,-0.4229869544506073
1789213793554980000,1.58097998046875,-0.10501562803983688,-0.27774932980537415,-0.3531828224658966
1789213793565012000,1.591011962890625,-0.15984052419662476,-0.2569577693939209,-0.24354980885982513
1789213793575043800,1.6010439453125,-0.17110410332679749,-0.18262121081352234,-0.10320867598056793
1789213793585076000,1.611075927734375,-0.12469053268432617,-0.06102926656603813,0.039744749665260315
1789213793595108000,1.621108154296875,-0.03794658184051514,-0.05143522843718529,0.15497280657291412
1789213793605139000,1.631138916015625,0.04538186267018318,0.0014106763992458582,0.22913864254951477
1789213793615171000,1.641171142578125,0.04355200380086899,0.061231933534145355,0.19619160890579224
1789213793625203000,1.651202880859375,0.09953618049621582,-0.0427786223590374,0.1352052241563797
1789213793635235000,1.661235107421875,0.09391158074140549,-0.17625971138477325,0.1116519644856453
1789213793645267000,1.671266845703125,0.08447334170341492,-0.37283721566200256,0.13380439579486847
1789213793655298000,1.681298095703125,0.14460724592208862,-0.6517290472984314,0.310072124004364
1789213793665330000,1.691329833984375,0.317696750164032,-1.2674169540405273,0.6577725410461426
1789213793675361800,1.70136181640625,0.37725725769996643,-1.8726730346679688,1.148606777191162
1789213793685394200,1.711394287109375,0.48859843611717224,-2.179637908935547,1.4745755195617676
1789213793695426000,1.721426025390625,0.6729512214660645,-1.9795055389404297,1.5167690515518188
1789213793705458000,1.7314580078125,0.70271235704422,-1.5650700330734253,1.398336410522461
1789213793715489000,1.741489013671875,0.5644332766532898,-1.1949350833892822,1.1436822414398193
1789213793725521000,1.75152099609375,0.316203236579895,-1.0652436017990112,0.8348727822303772
1789213793735553000,1.761552978515625,0.29727694392204285,-1.0731310844421387,0.5892536640167236
1789213793745585000,1.7715849609375,0.39562082290649414,-0.8598891496658325,0.4239691197872162
1789213793755617500,1.781617431640625,0.5223295092582703,-0.5581623315811157,0.3671204745769501
1789213793765648600,1.791648681640625,0.6762812733650208,-0.5062400102615356,0.40194156765937805
1789213793775680500,1.801680419921875,0.7988409996032715,-0.6958025097846985,0.44103172421455383
1789213793785712400,1.81171240234375,0.8285496234893799,-0.7163171172142029,0.43762820959091187
1789213793795744800,1.821744873046875,0.8104744553565979,-0.4355410933494568,0.2785075306892395
1789213793805776600,1.831776611328125,0.756209671497345,0.0915597453713417,0.08083652704954147
1789213793815807500,1.841807373046875,0.6702079176902771,0.42905041575431824,-0.04470834881067276
1789213793825839600,1.851839599609375,0.5712214112281799,0.5656655430793762,-0.03275102376937866
1789213793835871500,1.86187158203125,0.5396602749824524,0.5325326323509216,-0.014831144362688065
1789213793845903600,1.871903564453125,0.5241319537162781,0.5040562152862549,-0.17656011879444122
1789213793855935500,1.881935546875,0.4478568732738495,0.5287243127822876,-0.4656822085380554
1789213793865967600,1.891967529296875,0.320130854845047,0.6133755445480347,-0.6904751062393188
1789213793875998500,1.90199853515625,0.21126723289489746,0.8264797925949097,-0.8610665798187256
1789213793886030300,1.9120302734375,0.21092288196086884,0.9829940795898438,-0.9697133898735046
1789213793896062700,1.922062744140625,0.28949251770973206,0.8915458917617798,-1.0207749605178833
1789213793906094600,1.932094482421875,0.4731614291667938,0.42422929406166077,-0.9923766255378723
1789213793916126500,1.94212646484375,0.6956115365028381,0.03702246770262718,-1.0298962593078613
1789213793926157600,1.952157470703125,0.8595536351203918,-0.23824186623096466,-1.1625800132751465
1789213793936189700,1.962189697265625,0.9696286916732788,-0.41703104972839355,-1.2869672775268555
1789213793946221600,1.9722216796875,1.0326135158538818,-0.5392909049987793,-1.4788898229599
1789213793956253400,1.98225341796875,1.079872965812683,-0.6454312205314636,-1.5649030208587646
1789213793966285600,1.99228564453125,1.0543385744094849,-0.7775352001190186,-1.5696107149124146
1789213793976316400,2.00231640625,1.0029653310775757,-0.9455686807632446,-1.6292694807052612
1789213793986348500,2.0123486328125,1.2537959814071655,-1.5265284776687622,-1.8705079555511475
1789213793996380700,2.022380615234375,1.5956833362579346,-2.375897169113159,-2.1698460578918457
1789213794006412500,2.03241259765625,2.042426586151123,-2.617992639541626,-2.389707326889038
1789213794016444400,2.0424443359375,2.3217482566833496,-2.5318949222564697,-2.6335654258728027
1789213794026475500,2.0524755859375,2.408975124359131,-2.3286945819854736,-2.8175806999206543
1789213794036507600,2.062507568359375,2.26385498046875,-2.3089816570281982,-2.9878926277160645
1789213794046539500,2.07253955078125,1.9445946216583252,-2.528024435043335,-3.1179730892181396
1789213794056571400,2.0825712890625,1.6461526155471802,-2.9379217624664307,-3.1768417358398438
1789213794066603800,2.092603759765625,1.5667057037353516,-4.009312152862549,-3.2800354957580566
1789213794076634600,2.102634521484375,1.537541151046753,-5.486965179443359,-3.4370532035827637
1789213794086666500,2.11266650390625,1.329542636871338,-6.302093505859375,-3.3604841232299805
1789213794096698600,2.12269873046875,0.9050686359405518,-6.222949028015137,-3.0562899112701416
1789213794106730500,2.13273046875,0.6823740601539612,-5.992130279541016,-2.664205312728882
1789213794116762600,2.1427626953125,0.9431576728820801,-6.374705791473389,-2.137742042541504
1789213794126793700,2.152793701171875,1.484271764755249,-6.943841457366943,-1.507209062576294
1789213794136825600,2.16282568359375,2.0799806118011475,-7.317430019378662,-0.8600547909736633
1789213794146857500,2.172857421875,2.5915048122406006,-7.231534957885742,-0.1833122968673706
1789213794156889300,2.182889404296875,3.0394530296325684,-6.505291938781738,0.4699248969554901
1789213794166921700,2.192921630859375,3.485424518585205,-5.396112442016602,0.998672366142273
1789213794176952600,2.20295263671875,3.9242846965789795,-4.210485935211182,1.3835420608520508
1789213794186984400,2.212984375,4.291755199432373,-3.1897923946380615,1.5132057666778564
1789213794197016600,2.2230166015625,4.507462978363037,-2.66100811958313,1.2984063625335693
1789213794207048700,2.233048583984375,4.373419761657715,-2.569850444793701,0.9125068187713623
1789213794217080600,2.24308056640625,3.914757490158081,-2.952760934829712,0.6048148274421692
1789213794227112400,2.253112548828125,3.3368546962738037,-3.4077649116516113,0.5747021436691284
1789213794237143600,2.2631435546875,2.78981351852417,-3.6499218940734863,0.8347832560539246
1789213794247175400,2.273175537109375,2.3488337993621826,-3.7546751499176025,1.281322717666626
1789213794257207600,2.28320751953125,2.144620895385742,-3.6977572441101074,1.781996488571167
1789213794267239700,2.29323974609375,2.157604694366455,-3.406587600708008,2.2617263793945312
1789213794277271600,2.303271484375,2.367279052734375,-2.947206974029541,2.579075336456299
1789213794287302400,2.313302490234375,2.8164656162261963,-2.303751230239868,2.6540935039520264
1789213794297334500,2.32333447265625,3.344177484512329,-1.533957600593567,2.4677226543426514
1789213794307366700,2.33336669921875,3.559156656265259,-0.6163713335990906,2.0942165851593018
1789213794317398500,2.3433984375,3.562631368637085,0.15916328132152557,1.6589187383651733
1789213794327429600,2.3534296875,3.2316031455993652,0.8441983461380005,1.2799285650253296
1789213794337461500,2.36346142578125,2.630518674850464,1.6453608274459839,1.0078057050704956
1789213794347493600,2.37349365234375,1.9559999704360962,2.252777576446533,0.8271703720092773
1789213794357525500,2.383525390625,1.6018650531768799,2.7327120304107666,0.5682080388069153
1789213794367557600,2.3935576171875,1.5864160060882568,3.178510904312134,0.10823725908994675
1789213794377589500,2.403589599609375,1.8048479557037354,3.4837214946746826,-0.567257285118103
1789213794387620400,2.413620361328125,2.092830181121826,3.3114609718322754,-1.385462999343872
1789213794397652700,2.42365283203125,2.293654203414917,3.175657272338867,-2.1246416568756104
1789213794407684600,2.4336845703125,2.289294958114624,2.920691728591919,-2.546112537384033
1789213794417716500,2.443716552734375,2.008856773376465,2.469874620437622,-2.3563058376312256
1789213794427748400,2.453748291015625,1.4611036777496338,2.0257925987243652,-1.3207883834838867
1789213794437779500,2.463779541015625,0.8978837132453918,1.513467788696289,-0.23455604910850525
1789213794447811600,2.4738115234375,0.5872978568077087,1.1624364852905273,0.47087112069129944
1789213794457843500,2.483843505859375,0.5244784355163574,1.3785911798477173,0.6373820900917053
1789213794467875600,2.49387548828125,0.7515872120857239,1.6427745819091797,0.46171408891677856
1789213794477907700,2.50390771484375,0.9488589763641357,2.145369529724121,0.30664488673210144
1789213794487938600,2.5139384765625,0.9019016027450562,2.399146318435669,0.49349892139434814
1789213794497970700,2.523970703125,0.8922252655029297,2.0421788692474365,0.9871981143951416
1789213794508002600,2.53400244140625,1.1924066543579102,2.0092594623565674,1.4605891704559326
1789213794518034400,2.544034423828125,1.4969534873962402,2.316044807434082,1.714542269706726
1789213794528066600,2.554066650390625,1.788382649421692,2.1427767276763916,1.8071355819702148
1789213794538097700,2.56409765625,1.7151460647583008,1.779251217842102,1.9100606441497803
1789213794548129500,2.574129638671875,1.5384734869003296,1.2616565227508545,1.7117984294891357
1789213794558161400,2.584161376953125,1.2855552434921265,1.024462103843689,0.9632842540740967
1789213794568193500,2.594193603515625,1.131212830543518,1.1672770977020264,0.421970933675766
1789213794578225700,2.6042255859375,1.1825615167617798,1.0545837879180908,0.39554813504219055
1789213794588256500,2.614256591796875,1.3477363586425781,0.6856217384338379,0.6420164704322815
1789213794598288600,2.62428857421875,1.5013964176177979,0.12356454879045486,0.7630310654640198
1789213794608320500,2.634320556640625,1.4498430490493774,0.32526063919067383,0.6639271378517151
1789213794618352600,2.6443525390625,1.1823548078536987,-0.7445117235183716,0.33756792545318604
1789213794628384500,2.654384521484375,0.8810506463050842,-2.7587099075317383,0.31975802779197693
1789213794638415600,2.66441552734375,1.4163854122161865,-1.3599985837936401,0.9439963102340698
1789213794648447500,2.674447509765625,1.257109522819519,-2.4265687465667725,0.9389456510543823
1789213794658479400,2.684479248046875,1.3215047121047974,-3.325302839279175,0.09154163300991058
1789213794668511700,2.69451171875,1.1071867942810059,-2.8406434059143066,-0.22777830064296722
1789213794678542600,2.70454248046875,0.436504602432251,-1.506299376487732,0.1370910108089447
1789213794688574500,2.714574462890625,-0.2872408330440521,-1.2759218215942383,0.43303823471069336
1789213794698606600,2.724606689453125,-0.7605207562446594,-1.5779330730438232,1.0146965980529785
1789213794708638500,2.734638427734375,-0.9202848672866821,-1.7613025903701782,1.231880784034729
1789213794718670600,2.744670654296875,-0.7933258414268494,-1.6719346046447754,1.2857011556625366
1789213794728702500,2.754702392578125,-0.5417647361755371,-1.5429151058197021,1.8182783126831055
1789213794738733600,2.764733642578125,-0.44156569242477417,-1.1807963848114014,1.6936657428741455
1789213794748765400,2.774765380859375,-0.3515750765800476,-0.857306182384491,1.32713782787323
1789213794758796800,2.784796875,0.035646144300699234,-0.4492180049419403,0.6528566479682922
1789213794768829000,2.794828857421875,0.38949769735336304,-0.2368471622467041,0.43492695689201355
1789213794778859800,2.80485986328125,0.6466287970542908,0.1328621804714203,0.536476194858551
1789213794788892000,2.814891845703125,0.7920203804969788,-0.02497752197086811,0.7987387180328369
1789213794798923800,2.824923828125,0.6826518177986145,-0.46743616461753845,0.9923585057258606
1789213794808956000,2.834955810546875,0.5529260635375977,-1.03298020362854,1.3349493741989136
1789213794818987800,2.84498779296875,0.4682662785053253,-0.8397104144096375,1.7993671894073486
1789213794829019000,2.855018798828125,0.3761768341064453,-0.5876004099845886,1.916292428970337
1789213794839050800,2.86505078125,0.04740266874432564,-0.38102617859840393,1.3064022064208984
1789213794849082600,2.87508251953125,-1.0504322052001953,-0.22707682847976685,3.366938829421997
1789213794859115000,2.885114990234375,-0.7838116884231567,-1.5497277975082397,2.3919196128845215
1789213794869147000,2.89514697265625,0.17807546257972717,-0.5106430053710938,0.6231011152267456
1789213794879177700,2.905177734375,0.34928396344184875,0.4638696610927582,-0.16508802771568298
1789213794889209900,2.9152099609375,-0.09490840137004852,-0.42894816398620605,-0.025917351245880127
1789213794899241700,2.92524169921875,-0.48627138137817383,-1.2278176546096802,0.5354301333427429
1789213794909273900,2.93527392578125,-0.3368579149246216,-1.526488184928894,0.8121501207351685
1789213794919305700,2.9453056640625,-0.029439914971590042,-1.2126728296279907,0.5816287994384766
1789213794929336800,2.9553369140625,0.3141033351421356,-0.6880382895469666,0.17065748572349548
1789213794939368700,2.96536865234375,0.6732628345489502,-0.2742603123188019,-0.33538946509361267
1789213794949400800,2.97540087890625,0.6494821310043335,-0.013767477124929428,-0.5343672633171082
1789213794959433000,2.985432861328125,0.4824603796005249,0.025044100359082222,-0.611116886138916
1789213794969464800,2.99546484375,0.36714550852775574,0.05579588934779167,-0.851249635219574
1789213794979495700,3.00549560546875,0.38296017050743103,0.22067777812480927,-1.0411159992218018
1789213794989527800,3.01552783203125,0.3009878098964691,0.001734783174470067,-1.4787659645080566
1789213794999560000,3.025559814453125,0.28237149119377136,-0.29689478874206543,-1.8354884386062622
1789213795009591800,3.035591796875,0.3816608190536499,-0.5869641900062561,-2.0744850635528564
1789213795019623700,3.045623779296875,0.39592230319976807,-0.7220985293388367,-2.419184923171997
1789213795029654800,3.05565478515625,0.33454787731170654,-0.8559077382087708,-2.3964340686798096
1789213795039686700,3.065686767578125,0.1788054257631302,-1.0992615222930908,-2.2502899169921875
1789213795049718800,3.07571875,0.0067226174287498,-1.4199671745300293,-2.2462236881256104
1789213795059751000,3.0857509765625,-0.10790702700614929,-1.6146529912948608,-2.2062437534332275
1789213795069782800,3.09578271484375,-0.4998095631599426,-1.4641731977462769,-1.6357409954071045
1789213795079813600,3.105813720703125,-0.48631078004837036,-1.235101342201233,-1.5513237714767456
1789213795089846000,3.115845947265625,-0.3284631073474884,-0.42160743474960327,-1.915228247642517
1789213795099878000,3.1258779296875,-0.10283583402633667,0.5438915491104126,-1.9584428071975708
1789213795109909800,3.13590966796875,0.07351789623498917,0.9332760572433472,-1.775296688079834
1789213795119941600,3.145941650390625,0.37468305230140686,1.01966392993927,-1.4922839403152466
1789213795129972700,3.15597265625,0.6009739637374878,1.0152117013931274,-1.2525911331176758
1789213795140004900,3.1660048828125,0.768237829208374,1.0166915655136108,-1.1690222024917603
1789213795150036700,3.17603662109375,0.8378874659538269,1.0724447965621948,-1.2817312479019165
1789213795160068900,3.18606884765625,1.6595067977905273,1.4311555624008179,-1.345281958580017
1789213795170100700,3.196100830078125,2.7537620067596436,1.6415472030639648,-1.2142387628555298
1789213795180131800,3.2061318359375,3.2495572566986084,1.5963916778564453,-1.1147691011428833
1789213795190164000,3.2161640625,3.2326810359954834,1.4942471981048584,-1.0718402862548828
1789213795200195800,3.22619580078125,2.942978620529175,1.870843529701233,-0.8538075685501099
1789213795210227700,3.236227783203125,2.6811506748199463,2.5591797828674316,-0.6501942873001099
1789213795220259800,3.246259765625,2.4873769283294678,2.718590021133423,-0.6160405278205872
1789213795230291000,3.256291015625,1.7929966449737549,2.4352540969848633,-0.48345401883125305
1789213795240322800,3.26632275390625,1.1996883153915405,1.7222332954406738,-0.4943111836910248
1789213795250354700,3.276354736328125,0.916257381439209,1.451080560684204,-0.6504179835319519
1789213795260386800,3.28638671875,0.32979893684387207,0.5872507095336914,-0.8447975516319275
1789213795270419000,3.2964189453125,-0.3794671595096588,0.1727033257484436,-1.0441460609436035
1789213795280449800,3.30644970703125,-0.4034835398197174,0.3031603991985321,-1.2621867656707764
1789213795290482000,3.31648193359375,-0.2581367492675781,0.2842053472995758,-1.3014644384384155
1789213795300513800,3.326513671875,-0.31161168217658997,0.0036906085442751646,-1.3053840398788452
1789213795310545700,3.336545654296875,-0.33598387241363525,-0.2765524983406067,-1.2857880592346191
1789213795320577800,3.346577880859375,-0.23491743206977844,-0.7381624579429626,-1.2450512647628784
1789213795330609000,3.35660888671875,-0.495265930891037,-1.4655202627182007,-1.2194486856460571
1789213795340640800,3.366640869140625,-1.0729674100875854,-2.361459732055664,-1.2910594940185547
1789213795350672600,3.376672607421875,-1.7935199737548828,-2.946979284286499,-1.2877057790756226
1789213795360705000,3.386705078125,-2.1121532917022705,-2.7856359481811523,-1.38621187210083
1789213795370737000,3.39673681640625,-2.18271541595459,-1.9711894989013672,-1.6260148286819458
1789213795380767700,3.406767822265625,-1.7293918132781982,-1.0799142122268677,-1.7343738079071045
1789213795390800000,3.4167998046875,-1.0815699100494385,-0.03015364147722721,-1.8962782621383667
1789213795400831700,3.426831787109375,-0.5811627507209778,0.1768064647912979,-2.05987811088562
1789213795410863900,3.43686376953125,-0.257140189409256,0.07000119239091873,-2.0020031929016113
1789213795420895700,3.446895751953125,-0.5408406257629395,-0.47513508796691895,-1.7543461322784424
1789213795430926800,3.4569267578125,-0.9096655249595642,-1.0757393836975098,-1.4053021669387817
1789213795440958700,3.466958740234375,-0.8120015263557434,-1.071434497833252,-1.1205612421035767
1789213795450990600,3.476990478515625,-0.09336323291063309,-0.38496020436286926,-1.009566068649292
1789213795461023000,3.48702294921875,0.6122026443481445,0.05301181972026825,-0.9544779658317566
1789213795471054800,3.497054931640625,0.6580889225006104,0.1709112972021103,-0.7779887318611145
1789213795481085700,3.507085693359375,0.6757526397705078,-0.21710515022277832,-0.5597567558288574
1789213795491117800,3.517117919921875,0.623141884803772,-0.899513304233551,-0.2037999927997589
1789213795501150000,3.52714990234375,0.3516368567943573,-1.5857182741165161,0.047022901475429535
1789213795511181800,3.537181884765625,0.034805651754140854,-1.7366939783096313,0.6034440398216248
1789213795521213700,3.547213623046875,0.3097362816333771,-1.6803460121154785,1.292617678642273
1789213795531244800,3.557244873046875,0.6383290886878967,-0.6408766508102417,1.359933614730835
1789213795541276700,3.567276611328125,0.7722488045692444,0.244454488158226,1.4371298551559448
1789213795551308800,3.577308837890625,0.7061174511909485,0.631430447101593,1.6908446550369263
1789213795561341000,3.5873408203125,0.609999418258667,0.9822659492492676,1.762795090675354
1789213795571372800,3.597372802734375,0.8361929059028625,1.4332411289215088,1.590796947479248
1789213795581403600,3.607403564453125,0.8701505661010742,1.4991722106933594,1.3153821229934692
1789213795591436000,3.61743603515625,0.9550076723098755,1.4372960329055786,1.0392255783081055
1789213795601468000,3.627468017578125,1.0209920406341553,1.0895005464553833,0.7775002717971802
1789213795611499800,3.637499755859375,1.0891926288604736,0.7585161924362183,0.494439035654068
1789213795621531600,3.64753173828125,1.0623059272766113,0.4564210772514343,0.2706059217453003
1789213795631563800,3.657563720703125,0.7907087802886963,0.16788966953754425,0.028248948976397514
1789213795641595000,3.667594970703125,0.34845519065856934,-0.23945893347263336,-0.18212692439556122
1789213795651626800,3.677626708984375,0.2546551823616028,-0.11666695773601532,-0.4714854955673218
1789213795661659000,3.687658935546875,0.24886947870254517,-0.10931877046823502,-0.7963810563087463
1789213795671690800,3.697690673828125,0.004826979245990515,-0.41079792380332947,-1.2375177145004272
1789213795681723000,3.707722900390625,-0.07401110976934433,-0.4245763123035431,-1.4196749925613403
1789213795691754000,3.71775390625,-0.40115728974342346,-0.42084071040153503,-1.5058047771453857
1789213795701785900,3.727785888671875,-0.8831401467323303,-0.34352007508277893,-1.7880176305770874
1789213795711817700,3.737817626953125,-1.1002753973007202,0.2933535873889923,-1.9893202781677246
1789213795721849600,3.747849609375,-1.263327956199646,0.7838245034217834,-2.07593035697937
1789213795731882000,3.757882080078125,-1.410871148109436,0.9951146245002747,-1.8854410648345947
1789213795741912800,3.767912841796875,-1.4044997692108154,0.7502431273460388,-1.6643787622451782
1789213795751944700,3.77794482421875,-1.8232698440551758,0.29650622606277466,-0.9664587378501892
1789213795761978600,3.787978515625,-2.1100308895111084,-0.019340408965945244,-0.5921895503997803
1789213795772010500,3.798010498046875,-2.1556453704833984,-0.060802362859249115,-0.46981358528137207
1789213795782042600,3.808042724609375,-2.4788734912872314,0.13787664473056793,-0.43071678280830383
1789213795792073500,3.818073486328125,-2.775428533554077,0.3309355676174164,-0.374930202960968
1789213795802105600,3.828105712890625,-2.115318775177002,-0.03477955237030983,-0.23162177205085754
1789213795812137700,3.8381376953125,-1.1723355054855347,-0.2663600444793701,-0.043588489294052124
1789213795822169600,3.848169677734375,-0.34490785002708435,-0.30032333731651306,-0.06675612926483154
1789213795832200400,3.858200439453125,0.30170074105262756,0.6610045433044434,-0.2998804450035095
1789213795842232600,3.868232666015625,0.42926669120788574,1.1894716024398804,-0.6490080952644348
1789213795852264700,3.8782646484375,0.15585032105445862,1.234940528869629,-0.7993014454841614
1789213795862296600,3.888296630859375,-0.08552182465791702,1.2184574604034424,-0.6819769740104675
1789213795872328400,3.898328369140625,-0.12323351949453354,1.1342061758041382,-0.585787832736969
1789213795882359600,3.908359619140625,-0.039993755519390106,1.062201738357544,-0.5811355710029602
1789213795892391700,3.9183916015625,0.016499081626534462,1.0949560403823853,-0.6069687604904175
1789213795902423600,3.928423583984375,-0.008584965951740742,0.8772897124290466,-0.5497928261756897
1789213795912455700,3.93845556640625,-0.0004916195175610483,0.3505130112171173,-0.3496339023113251
1789213795922486500,3.948486572265625,-0.03210999816656113,-0.05810484662652016,-0.026282470673322678
1789213795932518400,3.958518310546875,-0.03554521128535271,-0.33850666880607605,0.15831054747104645
1789213795942550800,3.96855078125,0.08275426924228668,-0.42628926038742065,0.053884003311395645
1789213795952582700,3.978582763671875,0.4465583264827728,0.1718607097864151,-0.2984636425971985
1789213795962614500,3.988614501953125,0.5151591897010803,1.350455403327942,-0.6177500486373901
1789213795972645600,3.998645751953125,0.29597893357276917,2.56131911277771,-0.7834867835044861
1789213795982677800,4.008677734375,-0.01763651706278324,2.7764289379119873,-1.106723666191101
1789213795992709600,4.018709716796875,-0.3558920621871948,2.64756178855896,-1.2004752159118652
1789213796002741500,4.028741455078125,-0.6116580367088318,2.4582090377807617,-0.8863143920898438
1789213796012772600,4.038772705078125,-0.8114862442016602,1.5174779891967773,-0.4062252640724182
1789213796022804500,4.048804443359375,-0.7309095859527588,0.9640741348266602,-0.3979590833187103
1789213796032836600,4.058836669921875,-0.5208189487457275,0.9127364158630371,-0.4407137334346771
1789213796042868700,4.06886865234375,-0.2517416775226593,0.5342687368392944,-0.27610668540000916
1789213796052900600,4.078900634765625,0.014248977415263653,0.2881963849067688,-0.31862378120422363
1789213796062931500,4.088931396484375,-0.14135126769542694,0.1463199257850647,-0.2823651134967804
1789213796072963600,4.098963623046875,-0.1505085527896881,0.12439864873886108,-0.3291235566139221
1789213796082995700,4.10899560546875,0.27019181847572327,0.19729575514793396,-0.37053120136260986
1789213796093027600,4.119027587890625,0.6274703145027161,0.3171238899230957,-0.28273236751556396
1789213796103059500,4.1290595703125,0.7317247986793518,0.34300529956817627,-0.017167801037430763
1789213796113090600,4.139090576171875,0.9218150973320007,0.3367263674736023,0.15598107874393463
1789213796123122700,4.149122802734375,1.0100160837173462,0.3759706914424896,0.1558404564857483
1789213796133154600,4.159154541015625,0.8894481062889099,0.47651514410972595,-0.08853572607040405
1789213796143186700,4.169186767578125,0.640623152256012,0.5650215744972229,-0.31840619444847107
1789213796153217500,4.179217529296875,0.26789963245391846,0.4596027433872223,-0.26950737833976746
1789213796163249400,4.18924951171875,-0.08676418662071228,0.2550986111164093,-0.034698858857154846
1789213796173281800,4.19928173828125,-0.18868602812290192,0.15601356327533722,-0.020794760435819626
1789213796183313700,4.209313720703125,-0.1573193222284317,0.13821113109588623,-0.13246430456638336
1789213796193345500,4.219345458984375,0.02491387166082859,0.329618901014328,-0.3159334659576416
1789213796203376600,4.229376708984375,-0.1512763351202011,0.0649704784154892,-0.4063531160354614
1789213796213408500,4.239408447265625,-0.24305152893066406,0.1626690775156021,-0.4031059145927429
1789213796223440600,4.249440673828125,-0.11592500656843185,0.3916862905025482,-0.3255477249622345
1789213796233472500,4.259472412109375,0.09740857779979706,0.5701897144317627,-0.24401985108852386
1789213796243503600,4.269503662109375,0.2714027464389801,0.5508237481117249,-0.146763876080513
1789213796253535500,4.279535400390625,0.47883370518684387,0.3843524754047394,-0.10317538678646088
1789213796263567600,4.289567626953125,0.7710144519805908,0.3106188476085663,-0.2746158540248871
1789213796273599700,4.299599853515625,1.1753435134887695,0.29401350021362305,-0.6160243153572083
1789213796283631600,4.309631591796875,1.3196284770965576,0.2771969735622406,-0.48056262731552124
1789213796293662500,4.319662353515625,1.1803148984909058,0.21339216828346252,-0.5302289724349976
1789213796303694600,4.329694580078125,0.9801966547966003,0.02726064994931221,-0.8345806002616882
1789213796313726700,4.339726806640625,0.5753306746482849,0.15022625029087067,-0.6475399136543274
1789213796323758600,4.349758544921875,0.09085533767938614,0.172467902302742,-0.6036099791526794
1789213796333789700,4.359789794921875,-0.22853784263134003,0.20915454626083374,-0.6158125996589661
1789213796343821600,4.369821533203125,-0.16416576504707336,0.25320136547088623,-0.5561093091964722
1789213796353853700,4.379853759765625,0.1885557919740677,0.27518177032470703,-0.39110544323921204
1789213796363885600,4.389885498046875,0.6293883323669434,0.2545928657054901,-0.2294989675283432
1789213796373916700,4.399916748046875,0.9635889530181885,0.2420395314693451,-0.013374128378927708
1789213796383948500,4.409948486328125,0.9293257594108582,0.23254962265491486,-0.10859811305999756
1789213796393980400,4.41998046875,1.0840601921081543,-0.004791825544089079,-0.7012880444526672
1789213796404012800,4.4300126953125,1.4523066282272339,0.34073227643966675,-0.49712935090065
1789213796414044700,4.440044677734375,1.9703048467636108,0.6030243635177612,-0.47047722339630127
1789213796424075500,4.450075439453125,2.0883936882019043,1.214914083480835,-0.4253057539463043
1789213796434107600,4.460107666015625,1.345302700996399,1.2631365060806274,0.08857247978448868
1789213796444139500,4.470139404296875,0.20849542319774628,-0.006954045966267586,-0.17535531520843506
1789213796454171600,4.480171630859375,0.4449572265148163,0.5956061482429504,-1.2593889236450195
1789213796464202800,4.49020263671875,1.1898998022079468,1.5178529024124146,-0.9710322022438049
1789213796474234600,4.500234619140625,1.0277985334396362,1.1440320014953613,-0.4100266695022583
1789213796484266500,4.5102666015625,0.7605586051940918,0.21372506022453308,-0.1619233936071396
1789213796494298600,4.520298583984375,0.8003193140029907,-0.48379942774772644,-0.07607532292604446
1789213796504330800,4.530330810546875,0.5016263723373413,-0.16150766611099243,-0.23142576217651367
1789213796514361600,4.540361572265625,0.2002745121717453,0.4562218487262726,-0.3831537663936615
1789213796524393500,4.5503935546875,-0.044390901923179626,0.2342340648174286,-0.23012082278728485
1789213796534425600,4.560425537109375,-0.16363686323165894,0.09053975343704224,-0.19461661577224731
1789213796544457700,4.570457763671875,-0.18269310891628265,-0.028129106387495995,-0.21900531649589539
1789213796554488600,4.580488525390625,-0.1456003487110138,0.09785012900829315,-0.37338078022003174
1789213796564520700,4.590520751953125,-0.18644817173480988,0.1037445068359375,-0.5268795490264893
1789213796574552600,4.600552490234375,-0.30021095275878906,-0.05614689365029335,-0.6491263508796692
1789213796584584400,4.61058447265625,-0.3182344436645508,-0.2577636241912842,-0.7648393511772156
1789213796594616600,4.620616455078125,-0.15646657347679138,-0.3800104558467865,-0.9084417819976807
1789213796604647700,4.630647705078125,0.19309169054031372,-0.549691915512085,-0.8997787833213806
1789213796614679600,4.640679443359375,0.9139814376831055,-0.09392782300710678,-0.844151496887207
1789213796624711400,4.65071142578125,0.9759401679039001,0.34771668910980225,-0.5875164866447449
1789213796634743800,4.660743896484375,0.673203706741333,0.33283308148384094,-0.29811450839042664
1789213796644774700,4.670774658203125,0.3613555431365967,0.475465327501297,-0.4755585491657257
1789213796654806500,4.680806640625,0.13006718456745148,0.4094546139240265,-0.9242838621139526
1789213796664838700,4.690838623046875,0.058220431208610535,0.4583262801170349,-0.9810632467269897
1789213796674870500,4.70087060546875,0.1255888193845749,0.6931793093681335,-0.8632791042327881
1789213796684902700,4.710902587890625,0.22785739600658417,0.848267674446106,-0.7486556172370911
1789213796694933800,4.720933837890625,0.26565778255462646,0.7052513957023621,-0.710112452507019
1789213796704965600,4.730965576171875,0.24856960773468018,0.4244415760040283,-0.7431811690330505
1789213796714997500,4.74099755859375,0.2369731366634369,0.18446864187717438,-0.8516365885734558
1789213796725029400,4.751029296875,0.18310163915157318,0.016629843041300774,-1.0017461776733398
1789213796735060700,4.761060791015625,0.06980384886264801,-0.04025128111243248,-1.130543828010559
1789213796745092600,4.771092529296875,-0.13086719810962677,0.014900119975209236,-1.1854100227355957
1789213796755123200,4.781123291015625,-0.34294483065605164,0.12228942662477493,-1.1769992113113403
1789213796765155000,4.791155029296875,-0.5202727317810059,0.2516612708568573,-1.1136391162872314
1789213796775186200,4.801186279296875,-0.584368109703064,0.43324384093284607,-1.0511853694915771
1789213796785218000,4.811218017578125,-0.5172351598739624,0.5665593147277832,-1.0407174825668335
1789213796795250200,4.821250244140625,-0.3191761374473572,0.5506381392478943,-1.0534509420394897
1789213796805282000,4.831281982421875,-0.02526381053030491,0.3151688575744629,-1.073785424232483
1789213796815314200,4.841314208984375,0.26912441849708557,-0.22299446165561676,-1.0677111148834229
1789213796825345000,4.851344970703125,0.4927535057067871,-0.6992238759994507,-1.130324125289917
1789213796835377000,4.861376953125,0.6078143119812012,-0.9425781965255737,-1.1968443393707275
1789213796845409300,4.8714091796875,0.5551561713218689,-0.8241687417030334,-1.0472973585128784
1789213796855441200,4.881441162109375,0.37248969078063965,-0.18310217559337616,-0.7396231889724731
1789213796865472000,4.891471923828125,0.09114162623882294,0.7039626836776733,-0.6731200814247131
1789213796875504000,4.901504150390625,-0.16102297604084015,1.4688239097595215,-0.9031647443771362
1789213796885536300,4.911536376953125,-0.31562238931655884,1.7707395553588867,-1.0620648860931396
1789213796895568100,4.921568115234375,-0.28417980670928955,1.3870142698287964,-1.0438014268875122
1789213796905600000,4.93160009765625,-0.16870486736297607,0.7864596843719482,-1.0227388143539429
1789213796915631000,4.941631103515625,-0.18282653391361237,0.7224287986755371,-1.1670867204666138
1789213796925663000,4.9516630859375,-0.301151305437088,1.0387276411056519,-1.3554147481918335
1789213796935695000,4.961695068359375,-0.4091036319732666,1.0644025802612305,-1.4262495040893555
1789213796945727200,4.971727294921875,-0.41482675075531006,0.6228209733963013,-1.3576382398605347
1789213796955758000,4.981758056640625,-0.50822514295578,0.2448723316192627,-1.2547816038131714
1789213796965790000,4.9917900390625,-0.7005013823509216,0.026374882087111473,-1.2726939916610718
1789213796975822000,5.001822021484375,-0.8825092315673828,-0.07978671044111252,-1.4586706161499023
1789213796985854200,5.011854248046875,-1.06659734249115,-0.19594420492649078,-1.7619279623031616
1789213796995886000,5.021885986328125,-1.2345458269119263,-0.35146403312683105,-2.038627862930298
1789213797005917200,5.031917236328125,-1.27922785282135,-0.3883538544178009,-2.168917179107666
1789213797015949000,5.041948974609375,-1.286993145942688,-0.29169151186943054,-2.0800435543060303
1789213797025981200,5.051981201171875,-1.3190492391586304,-0.09893030673265457,-1.9790586233139038
1789213797036013000,5.062012939453125,-1.369364619255066,-0.010397779755294323,-1.949620008468628
1789213797046044200,5.072044189453125,-1.3985329866409302,-0.1917790174484253,-2.0169622898101807
1789213797056076000,5.082075927734375,-1.407301425933838,-0.5609616041183472,-2.0976381301879883
1789213797066108000,5.09210791015625,-1.5139516592025757,-0.9082079529762268,-2.1293752193450928
1789213797076140300,5.102140380859375,-1.6843135356903076,-0.9280176162719727,-2.158196210861206
1789213797086171100,5.112171142578125,-1.7185966968536377,-0.8191822171211243,-2.1686744689941406
1789213797096203000,5.122203125,-1.5221787691116333,-0.713773787021637,-2.136446952819824
1789213797106235100,5.132235107421875,-1.2842588424682617,-0.6142900586128235,-1.9403985738754272
1789213797116267000,5.14226708984375,-0.9742975234985352,-0.5298063158988953,-1.5006297826766968
1789213797126299100,5.152299072265625,-0.5028207898139954,-0.2394924759864807,-0.965789258480072
1789213797136330200,5.162330322265625,0.07309311628341675,0.2224719524383545,-0.6490592360496521
1789213797146362000,5.172362060546875,0.3784141540527344,0.4117462635040283,-0.6313422918319702
1789213797156394000,5.18239404296875,0.36115366220474243,0.2750534117221832,-0.5155932903289795
1789213797166426000,5.192426025390625,0.4856575131416321,0.2516831159591675,-0.0824754387140274
1789213797176457200,5.202457275390625,0.88629549741745,0.5083127617835999,0.3905546963214874
1789213797186489000,5.212489013671875,1.2631181478500366,0.6810954809188843,0.5729045271873474
1789213797196521000,5.22252099609375,1.502353549003601,0.6639569401741028,0.7389185428619385
1789213797206553000,5.232552978515625,1.6921632289886475,0.651227593421936,1.036342740058899
1789213797216584000,5.242583984375,1.8797799348831177,0.9466885328292847,1.2971512079238892
1789213797226616000,5.252615966796875,1.989740014076233,1.4241554737091064,1.4335370063781738
1789213797236648200,5.262648193359375,2.0483248233795166,1.787968635559082,1.2915657758712769
1789213797246680000,5.27268017578125,2.0337607860565186,1.5450091361999512,1.1386401653289795
1789213797256712200,5.282712158203125,2.053086996078491,0.9517639875411987,1.113579273223877
1789213797266743300,5.292743408203125,2.1486074924468994,0.4322475492954254,1.0925573110580444
1789213797276775200,5.302775146484375,2.266378402709961,0.2508804202079773,1.031860113143921
1789213797286807000,5.31280712890625,2.2920589447021484,0.312919020652771,1.0069392919540405
1789213797296839000,5.3228388671875,2.116142749786377,0.29175621271133423,1.1957484483718872
1789213797306870000,5.3328701171875,1.7946029901504517,0.25884461402893066,1.5594764947891235
1789213797316902100,5.342902099609375,1.471943736076355,0.14367593824863434,1.7346187829971313
1789213797326934000,5.35293408203125,1.257491946220398,-0.059667859226465225,1.62747323513031
1789213797336966100,5.362966064453125,1.0602561235427856,-0.31379812955856323,1.4429206848144531
1789213797346997000,5.3729970703125,0.8956689834594727,-0.6974235773086548,1.338350534439087
1789213797357029000,5.383029052734375,0.8423439860343933,-0.9887598156929016,1.3107281923294067
1789213797367061200,5.393061279296875,0.9046683311462402,-1.051068663597107,1.2814375162124634
1789213797377093000,5.403093017578125,0.9664409160614014,-0.9363522529602051,1.26235830783844
1789213797387125000,5.413125,0.9748951196670532,-0.6689591407775879,1.3018168210983276
1789213797397156000,5.423156005859375,0.8251338601112366,-0.39319708943367004,1.3416558504104614
1789213797407188200,5.433188232421875,0.5302771925926208,-0.10637650638818741,1.3337901830673218
1789213797417220000,5.44322021484375,0.3063521981239319,0.023668577894568443,1.297622799873352
1789213797427252000,5.453251953125,0.21552670001983643,-0.08647576719522476,1.2200353145599365
1789213797437283000,5.463282958984375,0.20480188727378845,-0.2547462582588196,1.1281906366348267
1789213797447315000,5.47331494140625,0.22838203608989716,-0.4338443875312805,1.0048234462738037
1789213797457347000,5.48334716796875,0.27461132407188416,-0.4000115990638733,0.8366901278495789
1789213797467379200,5.493379150390625,0.20551960170269012,-0.19369809329509735,0.6036691069602966
1789213797477410000,5.50341015625,-0.004522047471255064,0.07338899374008179,0.3664456307888031
1789213797487442000,5.51344189453125,-0.19270101189613342,0.2695113718509674,0.08302964270114899
1789213797497474300,5.523474365234375,-0.247014582157135,0.2580307424068451,-0.23298025131225586
1789213797507506200,5.533506103515625,-0.23560106754302979,0.15753529965877533,-0.522209107875824
1789213797517537000,5.543537109375,-0.21789424121379852,0.11542006582021713,-0.6695713996887207
1789213797527569200,5.553569091796875,-0.19915278255939484,0.22363601624965668,-0.7175807356834412
1789213797537601000,5.56360107421875,-0.21809478104114532,0.34135332703590393,-0.7837523221969604
1789213797547633200,5.573633056640625,-0.2633317708969116,0.32363027334213257,-0.8630055785179138
1789213797557665000,5.5836650390625,-0.2979115843772888,0.27490904927253723,-0.8961023092269897
1789213797567696100,5.593696044921875,-0.372463583946228,0.39716386795043945,-0.9304695725440979
1789213797577728000,5.60372802734375,-0.4873182475566864,0.5656018853187561,-1.0699985027313232
1789213797587759900,5.613759765625,-0.5533992648124695,0.6229820847511292,-1.2495272159576416
1789213797597792300,5.623792236328125,-0.530645489692688,0.5601844787597656,-1.3813190460205078
1789213797607823000,5.633822998046875,-0.4635378420352936,0.45355871319770813,-1.4218361377716064
1789213797617855000,5.64385498046875,-0.4678095281124115,0.5126768946647644,-1.337523102760315
1789213797627887000,5.65388720703125,-0.5226078033447266,0.7210085391998291,-1.2282027006149292
1789213797637919200,5.663919189453125,-0.5808649659156799,0.891446053981781,-1.2297230958938599
1789213797647950000,5.6739501953125,-0.6063900589942932,0.8209359049797058,-1.3694754838943481
1789213797657982200,5.683982177734375,-0.5508045554161072,0.3144668638706207,-1.6811460256576538
1789213797668014000,5.69401416015625,-0.5060818195343018,-0.2792777121067047,-2.082731246948242
1789213797678046000,5.7040458984375,-0.4326632618904114,-0.5834975242614746,-2.385552167892456
1789213797688077000,5.7140771484375,-0.35693681240081787,-0.725796639919281,-2.3878378868103027
1789213797698109200,5.724109130859375,-0.478524774312973,-0.8594849109649658,-2.1820414066314697
1789213797708141000,5.73414111328125,-0.7079244256019592,-1.039713740348816,-1.9273970127105713
1789213797718173000,5.7441728515625,-0.8586319088935852,-0.9703922271728516,-1.752956509590149
1789213797728204000,5.7542041015625,-0.9237983822822571,-0.37590092420578003,-1.7038952112197876
1789213797738236200,5.764236083984375,-1.0386298894882202,0.37894970178604126,-1.6851282119750977
1789213797748268000,5.77426806640625,-1.222159504890442,0.6323001980781555,-1.594922423362732
1789213797758304000,5.784303955078125,-1.3305855989456177,0.30575644969940186,-1.3813589811325073
1789213797768336000,5.7943359375,-1.299723505973816,0.11414734274148941,-1.2366340160369873
1789213797778366700,5.80436669921875,-1.204959750175476,-0.04240817576646805,-1.2463929653167725
1789213797788399000,5.814399169921875,-1.2169383764266968,-0.18012022972106934,-1.3370275497436523
1789213797798431000,5.824430908203125,-1.4370172023773193,-0.171384796500206,-1.298809289932251
1789213797808462800,5.834462890625,-1.7738146781921387,0.19990326464176178,-1.298507809638977
1789213797818494000,5.844493896484375,-1.8219305276870728,-0.0954628735780716,-1.4650102853775024
1789213797828526000,5.854526123046875,-1.4311374425888062,-1.1434191465377808,-1.4461840391159058
1789213797838558000,5.864557861328125,-0.9581267833709717,-1.432116985321045,-1.0709561109542847
1789213797848589800,5.87458984375,-0.5064946413040161,-1.2080320119857788,-0.7767040133476257
1789213797858621000,5.884620849609375,-0.23836064338684082,-0.8670538663864136,-0.634954035282135
1789213797868652800,5.89465283203125,-0.18286941945552826,-0.5573015809059143,-0.23554061353206635
1789213797878685000,5.904684814453125,-0.054003048688173294,0.030973628163337708,0.29194849729537964
1789213797888717000,5.914717041015625,0.23720642924308777,0.7064045667648315,0.5863351225852966
1789213797898748000,5.924747802734375,0.6181929111480713,0.9095755219459534,0.7025046348571777
1789213797908779800,5.93477978515625,1.0036793947219849,0.8779901266098022,0.8930620551109314
1789213797918812200,5.944812255859375,1.2790696620941162,1.0090965032577515,1.18254816532135
1789213797928844000,5.954843994140625,1.3643368482589722,1.2445982694625854,1.4516589641571045
1789213797938875000,5.964875,1.4036643505096436,1.5386165380477905,1.6045454740524292
1789213797948907000,5.974906982421875,1.5407079458236694,1.7123584747314453,1.6862051486968994
1789213797958939000,5.98493896484375,1.7011804580688477,1.6591328382492065,1.666573405265808
1789213797968971000,5.994970947265625,1.7811453342437744,1.4276272058486938,1.5167878866195679
1789213797979002000,6.005002197265625,1.7814427614212036,0.904003918170929,1.5572690963745117
1789213797989034000,6.015033935546875,1.7705835103988647,0.7767101526260376,1.5914456844329834
1789213797999065900,6.02506591796875,1.8108233213424683,0.8478865623474121,1.5899782180786133
1789213798009097700,6.03509765625,1.96433424949646,0.9130905866622925,1.5516985654830933
1789213798019128800,6.04512890625,2.2040786743164062,0.6365429162979126,1.3908731937408447
1789213798029161000,6.055160888671875,2.2729673385620117,0.03852875158190727,1.4583024978637695
1789213798039192800,6.06519287109375,2.1451056003570557,-0.2117316871881485,1.5658633708953857
1789213798049225000,6.075224853515625,2.004444122314453,-0.4305418133735657,1.4317049980163574
1789213798059257000,6.085257080078125,1.7246114015579224,-0.7513552308082581,1.4185476303100586
1789213798069288000,6.095287841796875,1.5259233713150024,-0.7301759123802185,1.5795176029205322
1789213798079320000,6.105320068359375,1.5063962936401367,-0.49117371439933777,1.6601437330245972
1789213798089352000,6.11535205078125,1.4267646074295044,-0.355245977640152,1.7906935214996338
1789213798099383800,6.1253837890625,1.2796337604522705,-0.39903420209884644,1.8788654804229736
1789213798109415000,6.135414794921875,1.2205439805984497,-0.4021439850330353,1.887351632118225
1789213798119447000,6.145447021484375,1.1845802068710327,-0.2531909942626953,1.8488726615905762
1789213798129479000,6.15547900390625,1.2136621475219727,-0.30049750208854675,1.8262898921966553
1789213798139510800,6.1655107421875,1.2373347282409668,-0.6406819820404053,1.7776960134506226
1789213798149542000,6.1755419921875,1.1386592388153076,-0.8103847503662109,1.7137415409088135
1789213798159574000,6.185573974609375,1.0136291980743408,-0.7285364866256714,1.5741127729415894
1789213798169606000,6.19560595703125,0.8453791737556458,-0.7136001586914062,1.3491376638412476
1789213798179638000,6.205637939453125,0.5361928343772888,-0.794988751411438,1.0895721912384033
1789213798189668900,6.2156689453125,0.22306424379348755,-0.5620185732841492,0.7650747895240784
1789213798199700700,6.22570068359375,0.08268662542104721,-0.3439137041568756,0.43453946709632874
1789213798209733000,6.235733154296875,0.013961088843643665,-0.17394889891147614,0.17096881568431854
1789213798219765000,6.245764892578125,-0.11966142058372498,0.08110763877630234,-0.15764714777469635
1789213798229795800,6.2557958984375,-0.3533362150192261,0.29271388053894043,-0.5788851976394653
1789213798239828000,6.265827880859375,-0.6654091477394104,0.3941742181777954,-1.0555473566055298
1789213798249859800,6.27585986328125,-0.98387211561203,0.460969477891922,-1.4762413501739502
1789213798259892000,6.28589208984375,-1.165878415107727,0.4788733720779419,-1.7608938217163086
1789213798269923000,6.295923095703125,-1.1822906732559204,0.4920925199985504,-1.8377251625061035
1789213798279955000,6.305954833984375,-1.101258635520935,0.4667075276374817,-1.772973895072937
1789213798289986800,6.31598681640625,-1.0353426933288574,0.3986794650554657,-1.6952834129333496
1789213798300019000,6.32601904296875,-0.9896993637084961,0.4556516706943512,-1.6421210765838623
1789213798310050000,6.336050048828125,-0.9752498269081116,0.8496551513671875,-1.5685023069381714
1789213798320082000,6.34608203125,-1.0082725286483765,1.2775365114212036,-1.476047396659851
1789213798330113800,6.35611376953125,-1.114923119544983,1.5758600234985352,-1.3415855169296265
1789213798340146000,6.36614599609375,-1.22640061378479,1.7627325057983398,-1.212274432182312
1789213798350176800,6.3761767578125,-1.2944406270980835,1.8853238821029663,-1.1659427881240845
1789213798360209000,6.386208984375,-1.2457623481750488,1.6032637357711792,-1.3710906505584717
1789213798370241000,6.396240966796875,-1.085854411125183,0.8749309778213501,-1.659045696258545
1789213798380273000,6.40627294921875,-0.8972610235214233,0.019687417894601822,-1.7403472661972046
1789213798390303700,6.4163037109375,-0.7688530087471008,-0.597739577293396,-1.5257856845855713
1789213798400336100,6.426336181640625,-0.6944032907485962,-0.9210518598556519,-1.1370246410369873
1789213798410368000,6.436367919921875,-0.7308659553527832,-1.0702663660049438,-0.9341292977333069
1789213798420399900,6.44639990234375,-0.7605236768722534,-1.0235228538513184,-1.007188081741333
1789213798430431000,6.456430908203125,-0.7933918833732605,-0.7290941476821899,-1.152145504951477
1789213798440462800,6.466462890625,-0.9415984153747559,-0.3998906910419464,-1.3975698947906494
1789213798450495000,6.476494873046875,-1.0418778657913208,-0.15225903689861298,-1.7330222129821777
1789213798460526800,6.48652685546875,-1.1222268342971802,0.05675222724676132,-2.051666736602783
1789213798470558000,6.496557861328125,-1.1592843532562256,-0.017058346420526505,-2.347602367401123
1789213798480589800,6.50658984375,-1.1469597816467285,-0.29110294580459595,-2.551819086074829
1789213798490621700,6.51662158203125,-1.0573047399520874,-0.648914098739624,-2.516720771789551
1789213798500654000,6.526654052734375,-0.9987168312072754,-0.9989200234413147,-2.2812869548797607
1789213798510685000,6.536684814453125,-1.1182727813720703,-0.7805735468864441,-2.1860973834991455
1789213798520716800,6.546716796875,-1.3193336725234985,0.21671047806739807,-2.423334836959839
1789213798530749000,6.5567490234375,-1.4088751077651978,0.781470000743866,-2.482541561126709
1789213798540781000,6.566781005859375,-1.1977550983428955,0.05212445557117462,-2.0655860900878906
1789213798550812000,6.57681201171875,-0.9916014075279236,-0.8219071626663208,-1.4131693840026855
1789213798560844000,6.586843994140625,-0.9885494112968445,-0.9671620726585388,-1.1388553380966187
1789213798570876000,6.5968759765625,-1.0538280010223389,-0.532362699508667,-1.0467655658721924
1789213798580907800,6.60690771484375,-1.0849685668945312,-0.03471323847770691,-0.971928060054779
1789213798590939000,6.61693896484375,-0.9632773399353027,-0.002552906284108758,-0.904376745223999
1789213798600971000,6.626970947265625,-0.765851616859436,-0.30791735649108887,-0.5962769985198975
1789213798611003000,6.6370029296875,-0.4863840341567993,-0.20845121145248413,-0.2678375840187073
1789213798621034800,6.64703466796875,-0.1856079399585724,-0.15641570091247559,-0.03874952718615532
1789213798631065900,6.65706591796875,0.21331787109375,-0.20201168954372406,0.23947064578533173
1789213798641098000,6.667097900390625,0.5887860059738159,-0.12403938919305801,0.6134381294250488
1789213798651129900,6.6771298828125,0.969009280204773,0.3294774889945984,0.9243653416633606
1789213798661162000,6.687161865234375,1.2799324989318848,0.7610771059989929,1.0654010772705078
1789213798671192800,6.69719287109375,1.529690146446228,0.9513019323348999,1.2013964653015137
1789213798681224700,6.707224609375,1.7444051504135132,1.029678225517273,1.31889808177948
1789213798691257000,6.717257080078125,1.8755013942718506,0.9571443200111389,1.4011143445968628
1789213798701288000,6.727287841796875,1.9378374814987183,0.8161472678184509,1.434783935546875
1789213798711319800,6.73731982421875,1.995937705039978,0.6783074140548706,1.4458112716674805
1789213798721352000,6.74735205078125,2.060307741165161,0.3984198272228241,1.5258357524871826
1789213798731383800,6.7573837890625,2.112215995788574,0.0902947410941124,1.689677119255066
1789213798741415000,6.767414794921875,2.2082598209381104,0.11409035325050354,1.7068215608596802
1789213798751447000,6.777447021484375,2.30159068107605,0.10845670104026794,1.6527972221374512
1789213798761475300,6.787475341796875,2.295074224472046,0.02346031926572323,1.5956732034683228
1789213798771507200,6.797507080078125,2.1852800846099854,-0.057252105325460434,1.5250163078308105
1789213798781538300,6.807538330078125,1.9917012453079224,-0.22895275056362152,1.5117542743682861
1789213798791570200,6.817570068359375,1.8238983154296875,-0.4366265833377838,1.5095244646072388
1789213798801602300,6.827602294921875,1.691153645515442,-0.7020694613456726,1.4506629705429077
1789213798811634200,6.83763427734375,1.5299389362335205,-0.9834031462669373,1.4486608505249023
1789213798821665300,6.847665283203125,1.3200738430023193,-1.1482075452804565,1.5128754377365112
1789213798831697200,6.857697265625,1.0765045881271362,-1.1592388153076172,1.5530074834823608
1789213798841729300,6.867729248046875,0.8580454587936401,-1.0219260454177856,1.533731460571289
1789213798851761400,6.877761474609375,0.6220840811729431,-0.8188540935516357,1.4837136268615723
1789213798861792300,6.887792236328125,0.397050678730011,-0.6922964453697205,1.4300898313522339
1789213798871824400,6.897824462890625,0.270108699798584,-0.7594667077064514,1.3965011835098267
1789213798881856300,6.907856201171875,0.2463860809803009,-0.7804459929466248,1.421356439590454
1789213798891888400,6.917888427734375,0.29873955249786377,-0.5984389185905457,1.4472242593765259
1789213798901919500,6.92791943359375,0.32867828011512756,-0.3544408977031708,1.3922483921051025
1789213798911951400,6.937951416015625,0.24822072684764862,-0.18545880913734436,1.1759568452835083
1789213798921983200,6.947983154296875,0.14497317373752594,-0.10347099602222443,0.8638684749603271
1789213798932014300,6.958014404296875,0.04035594314336777,-0.07314079254865646,0.6217884421348572
1789213798942046500,6.96804638671875,-0.060213007032871246,-0.03530632704496384,0.44162747263908386
1789213798952078300,6.978078369140625,-0.12037914246320724,0.021748438477516174,0.35938212275505066
1789213798962110200,6.988110107421875,-0.15302470326423645,-0.05817009508609772,0.32595041394233704
1789213798972141300,6.998141357421875,-0.19395455718040466,-0.1134735643863678,0.3528483211994171
1789213798982173200,7.008173095703125,-0.2561068832874298,-0.1393059641122818,0.3629094958305359
1789213798992205300,7.018205322265625,-0.32615014910697937,-0.05297000706195831,0.30607709288597107
1789213799002237400,7.028237548828125,-0.3521181046962738,0.08021467924118042,0.14866164326667786
1789213799012268300,7.038268310546875,-0.39635294675827026,0.148350328207016,-0.14489354193210602
1789213799022300200,7.048300048828125,-0.43693578243255615,0.11258380115032196,-0.5296103358268738
1789213799032332300,7.058332275390625,-0.45810073614120483,0.17098426818847656,-0.8091031908988953
1789213799042364400,7.068364501953125,-0.5108273029327393,0.4655005931854248,-0.8707247972488403
1789213799052395300,7.078395263671875,-0.5731261372566223,0.8285570740699768,-0.8260635733604431
1789213799062427400,7.088427490234375,-0.6160123348236084,0.9250586032867432,-0.8037846088409424
1789213799072459300,7.098459228515625,-0.6682054996490479,0.7613106369972229,-0.8244126439094543
1789213799082490000,7.108489990234375,-0.6412526965141296,0.5857135653495789,-0.8228544592857361
1789213799092522500,7.1185224609375,-0.5140422582626343,0.4104247987270355,-0.8474665880203247
1789213799102554400,7.128554443359375,-0.4581688940525055,0.27637460827827454,-1.046643614768982
1789213799112586200,7.138586181640625,-0.4327106773853302,0.2857081890106201,-1.2707728147506714
1789213799122617300,7.148617431640625,-0.44041627645492554,0.30179262161254883,-1.2728387117385864
1789213799132649200,7.158649169921875,-0.5259631276130676,0.4594477415084839,-0.9478182196617126
1789213799142681300,7.168681396484375,-0.6007505655288696,0.4764821231365204,-0.5111759305000305
1789213799152713200,7.178713134765625,-0.6438455581665039,0.31560882925987244,-0.2511028051376343
1789213799162744300,7.188744384765625,-0.5949432849884033,0.19884918630123138,-0.2633024752140045
1789213799172776200,7.198776123046875,-0.47529569268226624,0.07753048092126846,-0.5079109072685242
1789213799182808300,7.208808349609375,-0.36414653062820435,0.06131289154291153,-0.9650627374649048
1789213799192840400,7.21884033203125,-0.39711618423461914,0.2794513404369354,-1.5472917556762695
1789213799202871300,7.228871337890625,-0.49589043855667114,0.506654679775238,-1.8624950647354126
1789213799212903200,7.238903076171875,-0.5340061187744141,0.4361022114753723,-1.7818268537521362
1789213799222935300,7.248935302734375,-0.5986312031745911,0.18760451674461365,-1.5330593585968018
1789213799232967400,7.258967529296875,-0.7183621525764465,0.09016824513673782,-1.279540777206421
1789213799242998300,7.268998291015625,-0.9086974263191223,0.0822187066078186,-1.155208706855774
1789213799253030400,7.279030517578125,-1.0895631313323975,0.11780572682619095,-1.1785310506820679
1789213799263062300,7.289062255859375,-1.1935933828353882,0.027051324024796486,-1.2221089601516724
1789213799273093000,7.299093017578125,-1.2034790515899658,-0.24624119699001312,-1.2698068618774414
1789213799283125500,7.30912548828125,-1.1792194843292236,-0.6982212066650391,-1.33420991897583
1789213799293157400,7.319157470703125,-1.1402641534805298,-1.0276345014572144,-1.3119468688964844
1789213799303189200,7.329189208984375,-1.0924036502838135,-0.8523684144020081,-1.1872425079345703
1789213799313220400,7.339220458984375,-1.0502564907073975,-0.31103217601776123,-1.0870355367660522
1789213799323252200,7.349252197265625,-1.028938889503479,0.1829378604888916,-1.1027531623840332
1789213799333284400,7.359284423828125,-0.9798965454101562,0.32355383038520813,-1.1458138227462769
1789213799343316200,7.369316162109375,-0.919478178024292,0.1881699115037918,-1.1907778978347778
1789213799353347300,7.379347412109375,-0.928735077381134,0.01552276685833931,-1.2437303066253662
1789213799363379200,7.389379150390625,-0.9913899302482605,0.06190091744065285,-1.2636957168579102
1789213799373411000,7.3994111328125,-0.9587840437889099,-0.0781741663813591,-1.3167169094085693
1789213799383443500,7.409443359375,-1.014441967010498,-0.11706563830375671,-1.4789484739303589
1789213799393474300,7.419474365234375,-1.1795464754104614,-0.14847123622894287,-1.6652450561523438
1789213799403506200,7.429506103515625,-1.3822695016860962,-0.4034113883972168,-1.3847609758377075
1789213799413538300,7.439538330078125,-1.386820912361145,-0.2227872759103775,-0.8888971209526062
1789213799423569200,7.449569091796875,-1.1757102012634277,-0.25079068541526794,-0.5792258381843567
1789213799433601300,7.459601318359375,-0.8655153512954712,-0.2984687089920044,-0.6053399443626404
1789213799443633400,7.46963330078125,-0.5702245831489563,-0.6697442531585693,-0.3776080012321472
1789213799453665300,7.479665283203125,-0.28179600834846497,-0.9306392669677734,0.0005190501105971634
1789213799463696100,7.489696044921875,0.016204535961151123,-0.6317859888076782,0.5211668014526367
1789213799473728300,7.499728271484375,0.22571754455566406,0.013035641051828861,1.0459206104278564
1789213799483760400,7.509760498046875,0.4837837219238281,0.5842341780662537,1.296346664428711
1789213799493792300,7.519792236328125,0.8384659290313721,0.7152177095413208,1.3131871223449707
1789213799503823400,7.5298232421875,1.1671053171157837,0.5958447456359863,1.4304485321044922
1789213799513855200,7.539855224609375,1.4693500995635986,0.7366958856582642,1.5942699909210205
1789213799523887400,7.549887451171875,1.6691274642944336,0.9550201892852783,1.748978614807129
1789213799533919200,7.559919189453125,1.7109593152999878,0.9871099591255188,1.8887578248977661
1789213799543950300,7.569950439453125,1.6843897104263306,1.1091210842132568,1.903268814086914
1789213799553982200,7.579982177734375,1.6420300006866455,1.35029137134552,1.769826889038086
1789213799564014000,7.59001416015625,1.5393941402435303,1.5197643041610718,1.4656131267547607
1789213799574045200,7.600045166015625,1.3928489685058594,1.3252062797546387,1.2714273929595947
1789213799584077300,7.610077392578125,1.3489882946014404,0.8144846558570862,1.3172543048858643
1789213799594109200,7.620109130859375,1.531262755393982,0.3480386734008789,1.411417841911316
1789213799604141300,7.630141357421875,1.8495028018951416,0.06284581124782562,1.4005950689315796
1789213799614172200,7.640172119140625,2.1241822242736816,-0.0641195997595787,1.2604392766952515
1789213799624204300,7.650204345703125,2.219505548477173,-0.1720047891139984,1.1851439476013184
1789213799634236400,7.660236328125,2.1254591941833496,-0.1945742815732956,1.1786983013153076
1789213799644267300,7.670267333984375,1.9094483852386475,-0.36119040846824646,1.1446412801742554
1789213799654299100,7.680299072265625,1.7210055589675903,-0.5397255420684814,1.028102993965149
1789213799664331300,7.690331298828125,1.6399333477020264,-0.5818133354187012,0.9414639472961426
1789213799674363400,7.70036328125,1.6843303442001343,-0.5572177171707153,0.9433843493461609
1789213799684394200,7.710394287109375,1.6835665702819824,-0.5778819918632507,0.8846434950828552
1789213799694426400,7.72042626953125,1.4349380731582642,-0.7629775404930115,0.8348109722137451
1789213799704458200,7.730458251953125,1.0926164388656616,-0.8904630541801453,0.8646056056022644
1789213799714490000,7.740489990234375,0.793506920337677,-0.8870859146118164,0.9670968651771545
1789213799724521500,7.750521484375,0.5722129344940186,-0.815837025642395,1.0615488290786743
1789213799734553300,7.76055322265625,0.44783157110214233,-0.5825371742248535,1.2250964641571045
1789213799744585200,7.770585205078125,0.3771970868110657,-0.2937365472316742,1.3887593746185303
1789213799754616300,7.7806162109375,0.28855323791503906,-0.1834545135498047,1.4106100797653198
1789213799764648400,7.7906484375,0.17216776311397552,-0.18775445222854614,1.254792332649231
1789213799774680600,7.8006806640625,0.05974668636918068,-0.1121092289686203,1.0854346752166748
1789213799784712400,7.81071240234375,-0.054291732609272,-0.031066305935382843,0.9405126571655273
1789213799794743600,7.82074365234375,-0.11312974989414215,-0.10702924430370331,0.7865060567855835
1789213799804775400,7.830775390625,-0.1757984608411789,-0.4145641624927521,0.6051940321922302
1789213799814807600,7.8408076171875,-0.23906877636909485,-0.6290572881698608,0.4482395648956299
1789213799824839700,7.850839599609375,-0.237789124250412,-0.590499222278595,0.2893873453140259
1789213799834870500,7.86087060546875,-0.22552579641342163,-0.37382766604423523,0.0648365169763565
1789213799844902400,7.87090234375,-0.32842767238616943,-0.014063887298107147,-0.2364487498998642
1789213799854934500,7.8809345703125,-0.486705482006073,0.304477334022522,-0.6138309240341187
1789213799864965400,7.89096533203125,-0.6343237161636353,0.393307089805603,-0.920748770236969
1789213799874997500,7.90099755859375,-0.7081158757209778,0.4558948278427124,-1.0719209909439087
1789213799885029600,7.911029541015625,-0.676643967628479,0.43631526827812195,-1.1427083015441895
1789213799895060500,7.921060546875,-0.5424733757972717,0.31526660919189453,-1.1757382154464722
1789213799905092400,7.93109228515625,-0.4152001142501831,0.16485713422298431,-1.2763439416885376
1789213799915124700,7.941124755859375,-0.4126235246658325,0.1551099568605423,-1.4614602327346802
1789213799925156600,7.951156494140625,-0.5511763095855713,0.3683258295059204,-1.641103744506836
1789213799935187500,7.9611875,-0.724016010761261,0.6219349503517151,-1.721285104751587
1789213799945219600,7.971219482421875,-0.8368033170700073,0.7763606905937195,-1.5969696044921875
1789213799955251500,7.98125146484375,-0.903854250907898,0.9026520848274231,-1.2732312679290771
1789213799965283600,7.99128369140625,-0.9342113137245178,0.8675217628479004,-0.9490880370140076
1789213799975314700,8.001314697265625,-0.9618853330612183,0.7309032082557678,-0.7337687611579895
1789213799985346600,8.0113466796875,-0.8998016715049744,0.5763487815856934,-0.6174429655075073
1789213799995378400,8.02137841796875,-0.7425268292427063,0.29083529114723206,-0.5960655212402344
1789213800005409500,8.031409423828125,-0.5726363658905029,0.01635926589369774,-0.5593101382255554
1789213800015441700,8.041441650390626,-0.48136237263679504,-0.08714954555034637,-0.5027627348899841
1789213800025473500,8.0514736328125,-0.4935247600078583,-0.2674791216850281,-0.5077494978904724
1789213800035505400,8.06150537109375,-0.539837121963501,-0.43548381328582764,-0.6436980366706848
1789213800045536500,8.07153662109375,-0.6305137872695923,-0.4954603314399719,-0.7920805811882019
1789213800055568400,8.081568359375,-0.7288818955421448,-0.32816004753112793,-0.8246414065361023
1789213800065600500,8.0916005859375,-0.8917280435562134,0.022839535027742386,-0.8022295832633972
1789213800075632600,8.101632568359374,-1.1158947944641113,0.3034219443798065,-0.8698392510414124
1789213800085663500,8.11166357421875,-1.3209856748580933,0.39410683512687683,-1.1209803819656372
1789213800095695600,8.121695556640624,-1.3889919519424438,0.2558179199695587,-1.4998492002487183
1789213800105727500,8.1317275390625,-1.318542718887329,-0.051714327186346054,-1.8332489728927612
1789213800115758600,8.141758544921874,-1.2390652894973755,-0.32616692781448364,-1.9542793035507202
1789213800125790700,8.151790771484375,-1.164237380027771,-0.49375566840171814,-1.9343888759613037
1789213800135822600,8.161822509765624,-1.1990363597869873,-0.6112199425697327,-1.9327372312545776
1789213800145854500,8.1718544921875,-1.4072273969650269,-0.569487452507019,-2.0478405952453613
1789213800155885600,8.181885498046874,-1.5987043380737305,-0.8457246422767639,-2.177384614944458
1789213800165917700,8.191917724609375,-1.805978775024414,-1.1971186399459839,-2.0309414863586426
1789213800175949600,8.201949462890624,-1.8000441789627075,-0.9343663454055786,-1.7064710855484009
1789213800185980700,8.211980712890625,-1.54147469997406,-0.5189299583435059,-1.3836519718170166
1789213800196012500,8.222012451171874,-1.282669186592102,-0.7737987637519836,-1.0607894659042358
1789213800206044400,8.23204443359375,-1.0418219566345215,-0.7873832583427429,-0.8902388215065002
1789213800216076500,8.24207666015625,-0.8800942897796631,-0.8592116832733154,-0.6070398688316345
1789213800226107600,8.252107666015625,-0.6788701415061951,-0.3550869822502136,-0.4784640371799469
1789213800236139500,8.262139404296875,-0.5095508694648743,-0.07085126638412476,-0.4491881728172302
1789213800246171400,8.27217138671875,-0.43761834502220154,-0.044741906225681305,-0.1066015437245369
1789213800256202500,8.282202392578125,-0.3542233109474182,0.17767785489559174,0.4592943489551544
1789213800266234600,8.292234619140626,-0.2373611479997635,0.5142867565155029,1.0697054862976074
1789213800276266500,8.3022666015625,0.024155935272574425,0.832715630531311,1.2737596035003662
1789213800286298600,8.312298583984376,0.3456745743751526,0.7784334421157837,1.2063075304031372
1789213800296329500,8.32232958984375,0.7562711834907532,0.4971913993358612,1.1789870262145996
1789213800306361300,8.332361328125,1.115687608718872,0.26823145151138306,1.2913596630096436
1789213800316393700,8.342393798828125,1.2900035381317139,0.2715097963809967,1.4627718925476074
1789213800326424600,8.352424560546876,1.3511509895324707,0.5068938136100769,1.50913667678833
1789213800336456400,8.36245654296875,1.3901338577270508,0.7943525314331055,1.4347689151763916
1789213800346488600,8.372488525390626,1.483059287071228,0.9698880910873413,1.4101994037628174
1789213800356520700,8.382520751953125,1.6246728897094727,0.8778085112571716,1.3887213468551636
1789213800366551600,8.392551513671876,1.7239339351654053,0.6158144474029541,1.3555974960327148
1789213800376583700,8.402583740234375,1.792781949043274,0.3085668981075287,1.4574077129364014
1789213800386615600,8.412615478515624,1.8708919286727905,0.08763691037893295,1.6620628833770752
1789213800396646400,8.422646484375,1.9607632160186768,-0.029048696160316467,1.761985421180725
1789213800406678500,8.432678466796874,2.057731866836548,-0.024269919842481613,1.6228134632110596
1789213800416710700,8.442710693359375,2.0513854026794434,-0.06964725255966187,1.3787016868591309
1789213800426742500,8.452742431640624,1.8904491662979126,-0.23023639619350433,1.2718911170959473
1789213800436773600,8.462773681640625,1.6831777095794678,-0.3774527609348297,1.3791669607162476
1789213800446805500,8.472805419921874,1.5365222692489624,-0.38065627217292786,1.4895336627960205
1789213800456837600,8.482837646484375,1.4940171241760254,-0.44919219613075256,1.505247950553894
1789213800466868700,8.49286865234375,1.4628053903579712,-0.7311197519302368,1.4314488172531128
1789213800476900600,8.502900634765625,1.2499868869781494,-1.003250002861023,1.3876816034317017
1789213800486932500,8.512932373046874,0.8704736232757568,-1.0669925212860107,1.3967691659927368
1789213800496964400,8.52296435546875,0.5168324708938599,-0.8848896026611328,1.440023422241211
1789213800506995500,8.532995361328124,0.37212082743644714,-0.6350352764129639,1.4914116859436035
1789213800517027600,8.543027587890625,0.38275057077407837,-0.4822460114955902,1.5232913494110107
1789213800527059500,8.5530595703125,0.37983042001724243,-0.45035117864608765,1.4862321615219116
1789213800537090600,8.563090576171875,0.34224337339401245,-0.3053226172924042,1.4551461935043335
1789213800547122400,8.573122314453125,0.30026209354400635,-0.07770571112632751,1.343997836112976
1789213800557154600,8.583154541015626,0.1957271546125412,0.10820503532886505,1.1996339559555054
1789213800567186700,8.593186767578125,0.20721790194511414,0.19286292791366577,1.0854597091674805
1789213800577217500,8.603217529296876,0.24026666581630707,0.1902650147676468,0.9870021343231201
1789213800587249400,8.61324951171875,0.22349220514297485,0.16279157996177673,0.8796452879905701
1789213800597281500,8.623281494140626,0.12341061979532242,0.06270332634449005,0.6904199719429016
1789213800607312400,8.6333125,0.01085770782083273,0.07394745945930481,0.4934003949165344
1789213800617344500,8.643344482421876,-0.1331295520067215,0.22927260398864746,0.3866680860519409
1789213800627376600,8.653376708984375,-0.28862035274505615,0.38416552543640137,0.32370510697364807
1789213800637407500,8.663407470703126,-0.34361809492111206,0.32416075468063354,0.1762131154537201
1789213800647439400,8.673439453125,-0.349454402923584,0.011723767966032028,-0.055561795830726624
1789213800657471700,8.6834716796875,-0.38325735926628113,-0.1992124319076538,-0.36050891876220703
1789213800667503600,8.693503662109375,-0.460854709148407,-0.1736607402563095,-0.625619649887085
1789213800677534500,8.703534423828126,-0.503896176815033,0.11585842818021774,-0.8443512320518494
1789213800687566600,8.713566650390625,-0.56650710105896,0.4949261248111725,-0.9989173412322998
1789213800697598500,8.723598388671874,-0.6517317295074463,0.7720621228218079,-1.069858431816101
1789213800707629600,8.733629638671875,-0.6634030342102051,0.9141068458557129,-1.0107673406600952
1789213800717661700,8.74366162109375,-0.5708491206169128,0.8079261183738708,-0.8737046122550964
1789213800727693600,8.753693603515625,-0.4458374083042145,0.5215015411376953,-0.7438240647315979
1789213800737725400,8.763725341796874,-0.38345658779144287,0.4141034483909607,-0.7206394076347351
1789213800747756500,8.773756591796875,-0.4274378716945648,0.5579231977462769,-0.8081372976303101
1789213800757788000,8.783787841796874,-0.5617280602455139,0.8159353137016296,-0.9667402505874634
1789213800767819800,8.79381982421875,-0.6625332236289978,0.873296320438385,-1.138835072517395
1789213800777851000,8.803850830078124,-0.6533767580986023,0.7232626080513,-1.26556396484375
1789213800787883000,8.813883056640625,-0.5847614407539368,0.6411703824996948,-1.2798856496810913
1789213800797915000,8.823914794921874,-0.5136944651603699,0.6534273624420166,-1.226847767829895
1789213800807946000,8.833946044921875,-0.5182676315307617,0.5937405824661255,-1.1551884412765503
1789213800817977900,8.843977783203124,-0.5466180443763733,0.30808699131011963,-1.0582818984985352
1789213800828009700,8.854009765625,-0.5638343691825867,-0.028540831059217453,-1.0089396238327026
1789213800838042000,8.8640419921875,-0.6375572681427002,-0.08492287993431091,-1.0436131954193115
1789213800848073000,8.874072998046875,-0.7338393330574036,-0.03399099037051201,-1.1597219705581665
1789213800858104800,8.884104736328124,-0.8570190668106079,-0.04663807526230812,-1.232385516166687
1789213800868137000,8.894136962890625,-1.007506012916565,-0.08734262734651566,-1.2023136615753174
1789213800878167800,8.904167724609374,-1.0844160318374634,-0.25120294094085693,-1.199570894241333
1789213800888200000,8.914199951171875,-1.0551135540008545,-0.32221025228500366,-1.280583381652832
1789213800898232000,8.924232177734375,-0.9726284742355347,-0.239656001329422,-1.3455746173858643
1789213800908264000,8.934263916015626,-0.8801323771476746,-0.12632811069488525,-1.304779291152954
1789213800918294800,8.944294677734375,-0.8188368082046509,-0.18259617686271667,-1.2145897150039673
1789213800928327000,8.954326904296876,-0.8074416518211365,-0.26781466603279114,-1.233496069908142
1789213800938359000,8.964359130859375,-0.8248432874679565,-0.3248918056488037,-1.4752788543701172
1789213800948390000,8.974389892578126,-0.8770415186882019,-0.47188258171081543,-1.7040971517562866
1789213800958422000,8.984422119140625,-0.9635793566703796,-0.4910983443260193,-1.6581019163131714
1789213800968454000,8.994453857421876,-1.0077580213546753,-0.31679099798202515,-1.3906712532043457
1789213800978485000,9.004485107421875,-0.9775375127792358,-0.29002490639686584,-1.0348412990570068
1789213800988517000,9.01451708984375,-0.95713210105896,-0.3543793857097626,-0.7244471907615662
1789213800998549000,9.024549072265625,-1.0040913820266724,-0.23716168105602264,-0.76973956823349
1789213801008580900,9.034580810546874,-1.1187819242477417,-0.08004370331764221,-0.9792680144309998
1789213801018612000,9.044612060546875,-1.166478157043457,-0.4488257169723511,-0.9954009056091309
1789213801028643800,9.054643798828126,-1.0225428342819214,-0.7028907537460327,-0.815238893032074
1789213801038676000,9.064676025390625,-0.8411517143249512,-0.49434182047843933,-0.7399364113807678
1789213801048707000,9.07470703125,-0.8324804306030273,-0.5280925631523132,-0.5739612579345703
1789213801058739000,9.084739013671875,-0.734103262424469,-0.44696685671806335,-0.26534566283226013
1789213801068770800,9.094770751953124,-0.5083599090576172,-0.4219256639480591,0.03825737535953522
1789213801078802000,9.104802001953125,-0.23957477509975433,-0.2188553810119629,-0.07449287921190262
1789213801088834000,9.114833984375,-0.07589183747768402,-0.16701561212539673,-0.10834458470344543
1789213801098866000,9.124865966796875,-0.04543565958738327,-0.12862321734428406,0.30603528022766113
1789213801108898000,9.13489794921875,-0.0402454249560833,-0.02642521634697914,0.7039573788642883
1789213801118929000,9.144928955078125,0.13121448457241058,0.21942129731178284,0.7487679719924927
1789213801128960800,9.154960693359374,0.4156762957572937,0.24069570004940033,0.6142189502716064
1789213801138993200,9.1649931640625,0.7075158953666687,0.06849011033773422,0.6550034284591675
1789213801149024000,9.17502392578125,1.0005826950073242,-0.06652230024337769,0.8078030943870544
1789213801159056000,9.185055908203125,1.2166485786437988,-0.005016596522182226,1.1337851285934448
1789213801169088000,9.195087890625,1.4085285663604736,0.5322324633598328,1.416947603225708
1789213801179118800,9.205118896484375,1.5350679159164429,1.2287894487380981,1.3262717723846436
1789213801189151000,9.21515087890625,1.4774458408355713,1.1818618774414062,1.1172269582748413
1789213801199183000,9.22518310546875,1.3464564085006714,0.8633978962898254,1.2026475667953491
1789213801209215000,9.235215087890625,1.3186149597167969,0.9242822527885437,1.3831806182861328
1789213801219245800,9.245245849609375,1.3741775751113892,1.012933611869812,1.45318603515625
1789213801229278000,9.25527783203125,1.3990812301635742,0.8773983716964722,1.3593239784240723
1789213801239310000,9.26531005859375,1.4007034301757812,0.5069921016693115,1.2028495073318481
1789213801249341000,9.2753408203125,1.3975744247436523,0.09044201672077179,1.2114218473434448
1789213801259373000,9.285373046875,1.4849509000778198,-0.03731195256114006,1.2461838722229004
1789213801269405000,9.295405029296875,1.6252979040145874,-0.1391802579164505,1.2044140100479126
1789213801279435800,9.305435791015626,1.705267310142517,-0.5332700610160828,1.227892279624939
1789213801289468200,9.31546826171875,1.6431573629379272,-0.8253085613250732,1.2611572742462158
1789213801299500000,9.3255,1.502290964126587,-0.8300729393959045,1.2953332662582397
1789213801309532000,9.335531982421875,1.387056827545166,-0.6637476086616516,1.2227624654769897
1789213801319563000,9.34556298828125,1.2564260959625244,-0.6054675579071045,1.0947229862213135
1789213801329595000,9.355594970703125,1.0418204069137573,-0.7707369327545166,1.1024632453918457
1789213801339627000,9.365626953125,0.8510826230049133,-0.9490829706192017,1.1342767477035522
1789213801349658000,9.375658203125,0.7578698396682739,-1.037744402885437,1.1742202043533325
1789213801359690000,9.38568994140625,0.7216934561729431,-1.1125909090042114,1.1859732866287231
1789213801369721900,9.395721923828125,0.6694068312644958,-1.097381591796875,1.2025411128997803
1789213801379753000,9.4057529296875,0.5210498571395874,-0.9238428473472595,1.2635204792022705
1789213801389785000,9.41578515625,0.3060627281665802,-0.59691321849823,1.3238682746887207
1789213801399817000,9.42581689453125,0.12110432237386703,-0.17029502987861633,1.362853765487671
1789213801409848000,9.43584814453125,0.12339171022176743,0.018451444804668427,1.3537888526916504
1789213801419880000,9.4458798828125,0.2091074138879776,-0.042987946420907974,1.2402812242507935
1789213801429911800,9.455911865234375,0.29310858249664307,-0.18082091212272644,1.0955173969268799
1789213801439944000,9.46594384765625,0.35445767641067505,-0.2459237426519394,0.9088194370269775
1789213801449975000,9.47597509765625,0.2593143880367279,-0.07320363819599152,0.7457572817802429
1789213801460007000,9.4860068359375,0.12101643532514572,0.08222509920597076,0.6528672575950623
1789213801470038800,9.496038818359375,-0.013449762016534805,0.17762325704097748,0.47368288040161133
1789213801480070000,9.50606982421875,-0.16600733995437622,0.14444506168365479,0.20470866560935974
1789213801490102000,9.51610205078125,-0.37300312519073486,-0.04987062141299248,-0.09927012771368027
1789213801500134000,9.5261337890625,-0.5778422951698303,-0.14429326355457306,-0.4117436110973358
1789213801510165000,9.5361650390625,-0.7915761470794678,-0.11726430803537369,-0.7066373229026794
1789213801520196900,9.54619677734375,-0.9656621813774109,-0.05038008466362953,-0.9931479096412659
1789213801530228700,9.556228759765625,-1.0767205953598022,0.0811891257762909,-1.1876965761184692
1789213801540260000,9.566260009765625,-1.1248071193695068,0.38774773478507996,-1.2561475038528442
1789213801550292000,9.5762919921875,-1.048675298690796,0.6994531750679016,-1.214455246925354
1789213801560323800,9.58632373046875,-0.9428120255470276,0.8185177445411682,-1.0900291204452515
1789213801570356000,9.59635595703125,-0.8559061288833618,0.8622649908065796,-0.9930392503738403
1789213801580386800,9.60638671875,-0.7486265897750854,0.7364559173583984,-0.9614075422286987
1789213801590419000,9.6164189453125,-0.6497582793235779,0.5512687563896179,-1.004202961921692
1789213801600451000,9.626451171875,-0.6233780980110168,0.6088936924934387,-1.0610207319259644
1789213801610482000,9.63648193359375,-0.6019250154495239,0.8034285306930542,-1.1548984050750732
1789213801620513800,9.646513671875,-0.5235758423805237,0.7158864736557007,-1.1946825981140137
1789213801630546000,9.6565458984375,-0.4364851713180542,0.36785686016082764,-1.104181170463562
1789213801640577000,9.666576904296875,-0.43554800748825073,0.022524217143654823,-0.9898676872253418
1789213801650609000,9.67660888671875,-0.4600253999233246,-0.1777779906988144,-0.981939435005188
1789213801660641000,9.68664111328125,-0.43765032291412354,-0.2841710150241852,-0.8861234188079834
1789213801670672000,9.696671875,-0.402202308177948,-0.3934599459171295,-0.6720098257064819
1789213801680704000,9.7067041015625,-0.4571382701396942,-0.22128231823444366,-0.42814895510673523
1789213801690736000,9.716736083984374,-0.6292370557785034,0.2674974799156189,-0.2821637690067291
1789213801700768000,9.72676806640625,-0.8936852216720581,0.8096563816070557,-0.27999570965766907
1789213801710799000,9.736799072265624,-1.1886566877365112,1.0340309143066406,-0.4208793044090271
1789213801720831000,9.7468310546875,-1.440688133239746,0.858722984790802,-0.6720484495162964
1789213801730862800,9.75686279296875,-1.4893128871917725,0.1860220730304718,-1.0872530937194824
1789213801740894000,9.76689404296875,-1.3894156217575073,-0.4493761956691742,-1.310766339302063
1789213801750926000,9.776926025390624,-1.2730591297149658,-0.9635087847709656,-1.2991142272949219
1789213801760959000,9.786958984375,-1.1970198154449463,-1.2279257774353027,-1.2565853595733643
1789213801770989800,9.79698974609375,-1.138314127922058,-1.1298562288284302,-1.2400093078613281
1789213801781022000,9.80702197265625,-1.0692607164382935,-0.761748194694519,-1.236788034439087
1789213801791053800,9.8170537109375,-0.9750311970710754,-0.48440849781036377,-1.317782998085022
1789213801801084700,9.827084716796875,-0.9125385284423828,-0.4248380959033966,-1.51295804977417
1789213801811117000,9.837116943359375,-0.8585546612739563,-0.6684845685958862,-1.8151285648345947
1789213801821149000,9.84714892578125,-0.8235958814620972,-0.9352228045463562,-2.0964009761810303
1789213801831179800,9.8571796875,-0.8346264362335205,-0.9723496437072754,-2.141129732131958
1789213801841212000,9.8672119140625,-0.9491961598396301,-0.7738350033760071,-1.9075599908828735
1789213801851243800,9.877243896484375,-1.1996337175369263,-0.03460271656513214,-1.5384397506713867
1789213801861276000,9.88727587890625,-1.5143096446990967,1.0560868978500366,-1.2029900550842285
1789213801871307000,9.89730712890625,-1.7014278173446655,1.1143651008605957,-0.8122132420539856
1789213801881339000,9.9073388671875,-1.5383979082107544,0.45688045024871826,-0.5466931462287903
1789213801891370800,9.917370849609375,-1.3499834537506104,-0.23981551826000214,-0.16794000566005707
1789213801901401900,9.92740185546875,-1.3865047693252563,-0.17897240817546844,0.27521371841430664
1789213801911434000,9.93743408203125,-1.2835749387741089,0.2780848741531372,0.43998029828071594
1789213801921465900,9.9474658203125,-0.9897171854972839,0.3224203884601593,0.4753444194793701
1789213801931497000,9.9574970703125,-0.6139345169067383,0.03045324608683586,0.5760947465896606
1789213801941528800,9.96752880859375,-0.3150237202644348,0.09242527186870575,0.621504008769989
1789213801951560700,9.977560791015625,-0.1531413495540619,0.1452796906232834,0.8720667362213135
1789213801961591800,9.987591796875,0.016154201701283455,0.3658331036567688,1.0945158004760742
1789213801971624000,9.9976240234375,0.1918804943561554,0.4387776255607605,1.1357170343399048
1789213801981655800,10.00765576171875,0.41310635209083557,0.3986717462539673,1.1245980262756348
1789213801991687000,10.01768701171875,0.6887094378471375,0.3968280553817749,1.1615840196609497
1789213802001718800,10.02771875,0.9958578944206238,0.47443148493766785,1.209813117980957
1789213802011751000,10.0377509765625,1.2554287910461426,0.5011554956436157,1.1938351392745972
1789213802021782000,10.047781982421874,1.4822629690170288,0.5445621013641357,1.1645550727844238
1789213802031814000,10.05781396484375,1.6982238292694092,0.739176869392395,1.1062792539596558
1789213802041845800,10.067845703125,1.8739873170852661,0.8580582737922668,1.0448284149169922
1789213802051876900,10.077876953125,1.9915318489074707,0.8724526166915894,0.9855554699897766
1789213802061908700,10.08790869140625,2.0183565616607666,0.9469993114471436,0.9643543362617493
1789213802071940900,10.09794091796875,1.9794179201126099,1.078418254852295,0.9839788675308228
1789213802081972700,10.10797265625,1.8929498195648193,1.0757969617843628,1.036848545074463
1789213802092003800,10.11800390625,1.808142066001892,0.8874110579490662,1.0857521295547485
1789213802102035700,10.12803564453125,1.8077294826507568,0.6376558542251587,1.0846980810165405
1789213802112067800,10.13806787109375,1.8411554098129272,0.2920108139514923,1.0562165975570679
1789213802122099000,10.148098876953124,1.8596819639205933,-0.024747690185904503,1.089590311050415
1789213802132130800,10.158130859375,1.8474249839782715,-0.13423477113246918,1.1395103931427002
1789213802142162700,10.16816259765625,1.787090539932251,-0.2395859658718109,1.1025007963180542
1789213802152193800,10.17819384765625,1.6639310121536255,-0.4882490336894989,1.1116199493408203
1789213802162225700,10.1882255859375,1.4867570400238037,-0.6994011998176575,1.2170491218566895
1789213802172257800,10.1982578125,1.2626196146011353,-0.8354802131652832,1.2783024311065674
1789213802182289000,10.208288818359375,1.0120967626571655,-0.9472398161888123,1.2782204151153564
1789213802192320800,10.21832080078125,0.8810847401618958,-0.9020134806632996,1.2475160360336304
1789213802202352600,10.2283525390625,0.8951653838157654,-0.7998300790786743,1.1813745498657227
1789213802212383700,10.2383837890625,0.918572723865509,-0.6948986053466797,1.0977014303207397
1789213802222416000,10.248415771484375,0.868133008480072,-0.6075253486633301,1.0230666399002075
1789213802232447700,10.25844775390625,0.7927173376083374,-0.5093127489089966,0.9541530609130859
1789213802242478800,10.268478759765625,0.736568033695221,-0.47823047637939453,0.9273670315742493
1789213802252510700,10.2785107421875,0.6776005625724792,-0.27708005905151367,1.0449186563491821
1789213802262542800,10.28854296875,0.571069598197937,-0.05261394381523132,1.1826353073120117
1789213802272574000,10.298573974609376,0.3103349506855011,-0.03965233638882637,0.9823048114776611
1789213802282605800,10.308605712890625,-0.006997988559305668,0.028481975197792053,0.6099547147750854
1789213802292638000,10.318637939453126,-0.2495642900466919,0.21584707498550415,0.4247845709323883
1789213802302668800,10.328668701171875,-0.4159497916698456,0.3284399211406708,0.4036734402179718
1789213802312700700,10.33870068359375,-0.42940276861190796,0.12920884788036346,0.39110252261161804
1789213802322732800,10.34873291015625,-0.3607717752456665,-0.13263288140296936,0.2939639687538147
1789213802332764000,10.358763916015626,-0.22746911644935608,-0.25397875905036926,0.11853863298892975
1789213802342795800,10.368795654296875,-0.08732584863901138,-0.19609680771827698,-0.08406241238117218
1789213802352828000,10.378827880859374,-0.022464828565716743,-0.1678297519683838,-0.3096933960914612
1789213802362858800,10.388858642578125,-0.11390313506126404,-0.11294412612915039,-0.5569186210632324
1789213802372891000,10.398890869140626,-0.2543068528175354,0.03127057105302811,-0.7992479205131531
1789213802382923000,10.408923095703125,-0.3727376163005829,0.27885958552360535,-0.9596844911575317
1789213802392953900,10.418953857421876,-0.43970972299575806,0.5082153081893921,-0.9716809391975403
1789213802402985700,10.42898583984375,-0.49286216497421265,0.6905704736709595,-0.8898875713348389
1789213802413017900,10.439017822265624,-0.5617892742156982,0.7709789872169495,-0.9191647171974182
1789213802423050000,10.449050048828125,-0.62373948097229,0.5900675654411316,-1.0790292024612427
1789213802433080800,10.459080810546874,-0.630306601524353,0.3639654219150543,-1.1237006187438965
1789213802443113000,10.469113037109375,-0.5667033791542053,0.27725476026535034,-1.0319628715515137
1789213802453144800,10.479144775390624,-0.5266352891921997,0.1624823808670044,-0.9616440534591675
1789213802463175700,10.48917578125,-0.5492138266563416,0.09066438674926758,-0.9800203442573547
1789213802473208000,10.4992080078125,-0.6113951802253723,0.0007976167253218591,-0.9779937267303467
1789213802483240000,10.509239990234375,-0.7016249895095825,-0.045336056500673294,-0.9117217659950256
1789213802493270800,10.519270751953124,-0.7129839062690735,0.10944979637861252,-0.7945929765701294
1789213802503303000,10.529302978515625,-0.6466327905654907,0.2416485846042633,-0.6868122220039368
1789213802513334800,10.539334716796875,-0.6922621130943298,0.44483816623687744,-0.49466538429260254
1789213802523365600,10.54936572265625,-0.9208981990814209,0.8417338728904724,-0.3379990756511688
1789213802533398000,10.55939794921875,-1.3077484369277954,1.0896685123443604,-0.43472057580947876
1789213802543430000,10.569429931640625,-1.6279948949813843,1.0945416688919067,-0.7800436019897461
1789213802553460700,10.579460693359374,-1.696150541305542,0.697628915309906,-0.9541109800338745
1789213802563492900,10.589492919921875,-1.5993072986602783,-0.09820859134197235,-1.0133883953094482
1789213802573525000,10.59952490234375,-1.451760172843933,-0.6903563141822815,-1.1474751234054565
1789213802583555800,10.609555908203125,-1.2562980651855469,-0.935906708240509,-1.2836260795593262
1789213802593588000,10.619587890625,-1.0977206230163574,-0.8984948992729187,-1.3757215738296509
1789213802603619800,10.629619873046876,-1.0032894611358643,-0.579282820224762,-1.4406639337539673
1789213802613650700,10.639650634765625,-1.0005892515182495,-0.2150193601846695,-1.495240330696106
1789213802623682800,10.649682861328126,-1.036325454711914,-0.07362202554941177,-1.555479884147644
1789213802633715000,10.65971484375,-1.0955780744552612,-0.20711296796798706,-1.6318711042404175
1789213802643745800,10.669745849609376,-1.1466375589370728,-0.46395090222358704,-1.6665380001068115
1789213802653778000,10.67977783203125,-1.1529828310012817,-0.6808256506919861,-1.6255804300308228
1789213802663809800,10.689809814453126,-1.0933187007904053,-0.969757616519928,-1.6103490591049194
1789213802673840600,10.699840576171875,-1.073464274406433,-1.142496943473816,-1.6680920124053955
1789213802683873000,10.709873046875,-0.944877028465271,-1.2531206607818604,-1.755724310874939
1789213802693905000,10.71990478515625,-0.8985005021095276,-1.2073073387145996,-1.7007687091827393
1789213802703935700,10.729935791015626,-0.9508649110794067,-1.0037771463394165,-1.4599931240081787
1789213802713967900,10.7399677734375,-1.0752097368240356,-0.4722604751586914,-1.1613997220993042
1789213802723999700,10.749999755859376,-1.114793062210083,-0.046730220317840576,-0.8154098391532898
1789213802734030800,10.76003076171875,-0.9661107063293457,0.07903223484754562,-0.5674437284469604
1789213802744063000,10.77006298828125,-0.7243345379829407,0.1547086238861084,-0.34044918417930603
1789213802754094800,10.7800947265625,-0.5806282162666321,0.3594633638858795,-0.04842985048890114
1789213802764125700,10.790125732421876,-0.5561681389808655,0.47738415002822876,0.36325356364250183
1789213802774157600,10.800157470703125,-0.5188724398612976,0.5929448008537292,0.7250839471817017
1789213802784189400,10.810189453125,-0.30178409814834595,0.8206456303596497,0.9321556687355042
1789213802794220500,10.820220458984375,-0.03664189949631691,0.8522520065307617,1.0863715410232544
1789213802804252700,10.830252685546874,0.1433587521314621,0.7871755361557007,1.1838693618774414
1789213802814284500,10.840284423828125,0.2692687511444092,0.639208972454071,1.2331961393356323
1789213802824315600,10.850315673828124,0.4162651300430298,0.5958013534545898,1.1346964836120605
1789213802834347500,10.860347412109375,0.5882914662361145,0.4860684275627136,1.0948455333709717
1789213802844379400,10.87037939453125,0.7658420205116272,0.349977970123291,1.1619031429290771
1789213802854410800,10.88041064453125,0.9633116722106934,0.3520949184894562,1.2000629901885986
1789213802864442600,10.890442626953124,1.1563950777053833,0.33326292037963867,1.2211573123931885
1789213802874474500,10.900474609375,1.3340319395065308,0.3078792691230774,1.248688817024231
1789213802884505600,10.910505615234374,1.508763313293457,0.3277722895145416,1.27841055393219
1789213802894537500,10.920537353515625,1.632269024848938,0.3890385627746582,1.3252317905426025
1789213802904569600,10.930569580078124,1.6995127201080322,0.479352205991745,1.3734595775604248
1789213802914600700,10.9406005859375,1.7446693181991577,0.6926082968711853,1.3573077917099
1789213802924632600,10.950632568359374,1.8138641119003296,0.7514364719390869,1.2566924095153809
1789213802934664400,10.96066455078125,1.9324959516525269,0.4677554666996002,1.1154993772506714
1789213802944695600,10.970695556640624,2.0144236087799072,0.1335436850786209,1.1340339183807373
1789213802954727700,10.980727783203125,1.9853862524032593,-0.1443297415971756,1.3699678182601929
1789213802964759600,10.990759521484375,1.943324327468872,-0.21535545587539673,1.4657495021820068
1789213802974790700,11.000790771484375,1.9370781183242798,-0.2357957512140274,1.3144787549972534
1789213802984822500,11.010822509765624,1.848968505859375,-0.3180283010005951,1.0965629816055298
1789213802994854400,11.0208544921875,1.468348741531372,-0.560752272605896,1.1743775606155396
1789213803004885500,11.030885498046874,0.987686038017273,-0.7053749561309814,1.427636981010437
1789213803014917600,11.040917724609375,0.6923608779907227,-0.5321691036224365,1.5499775409698486
1789213803024949500,11.050949462890625,0.6258779764175415,-0.24579405784606934,1.602234959602356
1789213803034980600,11.060980712890625,0.5637531280517578,-0.22751730680465698,1.6265455484390259
1789213803045012500,11.071012451171875,0.5270249247550964,-0.45224523544311523,1.6126878261566162
1789213803055044600,11.081044677734376,0.6148160099983215,-0.6706950068473816,1.5683938264846802
1789213803065075700,11.09107568359375,0.773546040058136,-0.7720026969909668,1.4510494470596313
1789213803075107600,11.101107666015626,0.8233047723770142,-0.7087845802307129,1.2986947298049927
1789213803085139500,11.111139404296875,0.7313495874404907,-0.42963552474975586,1.236713171005249
1789213803095170600,11.121170654296876,0.6371162533760071,0.04608573764562607,1.256223201751709
1789213803105202400,11.131202392578125,0.5546677708625793,0.1893978863954544,1.1424363851547241
1789213803115234600,11.141234619140626,0.4737403988838196,0.24819862842559814,1.0209779739379883
1789213803125265700,11.151265625,0.3350333869457245,0.2643943727016449,0.81202232837677
1789213803135297500,11.161297607421876,0.17179013788700104,0.19327251613140106,0.4980177879333496
1789213803145329400,11.171329345703125,0.03206818923354149,0.11815992742776871,0.21430404484272003
1789213803155360500,11.181360595703126,-0.13584785163402557,0.15217941999435425,0.00021065604232717305
1789213803165392600,11.191392578125,-0.27616235613822937,0.17447060346603394,-0.16108129918575287
1789213803175424500,11.201424560546876,-0.39552628993988037,0.20995908975601196,-0.27223923802375793
1789213803185455600,11.21145556640625,-0.4821956753730774,0.20580215752124786,-0.427237868309021
1789213803195487500,11.221487548828126,-0.5627552270889282,0.11420433968305588,-0.6666944026947021
1789213803205519400,11.231519287109375,-0.6596740484237671,0.061710234731435776,-0.9365072250366211
1789213803215550700,11.24155078125,-0.7564259171485901,0.23586872220039368,-1.108125925064087
1789213803225582600,11.25158251953125,-0.7962654232978821,0.5917953848838806,-1.1396368741989136
1789213803235614500,11.261614501953124,-0.7658444046974182,0.9802800416946411,-1.0891191959381104
1789213803245645600,11.2716455078125,-0.7279332876205444,1.2258962392807007,-1.0912089347839355
1789213803255677400,11.281677490234374,-0.6819380521774292,1.1517881155014038,-1.25682532787323
1789213803265708500,11.29170849609375,-0.5967161059379578,0.7684058547019958,-1.4645001888275146
1789213803275740700,11.30174072265625,-0.4568309187889099,0.34483516216278076,-1.5005863904953003
1789213803285772500,11.3117724609375,-0.38995975255966187,0.10382387042045593,-1.359930396080017
1789213803295803600,11.3218037109375,-0.49879515171051025,0.06970850378274918,-1.28245210647583
1789213803305835500,11.33183544921875,-0.6708529591560364,0.13575489819049835,-1.2818670272827148
1789213803315867400,11.341867431640624,-0.7754022479057312,0.1342022716999054,-1.2525233030319214
1789213803325898800,11.351898681640625,-0.7312014698982239,0.18194130063056946,-1.0124009847640991
1789213803335930600,11.3619306640625,-0.6906405091285706,0.1594940572977066,-0.6253248453140259
1789213803345962500,11.37196240234375,-0.7309224009513855,0.0921858549118042,-0.3275379240512848
1789213803355993600,11.38199365234375,-0.8346911668777466,0.20005398988723755,-0.21732273697853088
1789213803366025500,11.392025390625,-1.0110563039779663,0.5191582441329956,-0.2936649024486542
1789213803376057600,11.4020576171875,-1.1288188695907593,0.7268000841140747,-0.5438494682312012
1789213803386088700,11.412088623046875,-1.2321043014526367,0.5179081559181213,-0.7802523970603943
1789213803396120600,11.42212060546875,-1.2946763038635254,-0.13469550013542175,-1.0053699016571045
1789213803406152400,11.43215234375,-1.2759215831756592,-0.6019476652145386,-1.2563555240631104
1789213803416183600,11.44218359375,-1.1799726486206055,-0.68546462059021,-1.443782925605774
1789213803426215700,11.452215576171875,-1.078036904335022,-0.5211883187294006,-1.5561857223510742
1789213803436247600,11.46224755859375,-0.9774706363677979,-0.4036180377006531,-1.6270326375961304
1789213803446278700,11.472278564453125,-0.9068230986595154,-0.49318334460258484,-1.6841596364974976
1789213803456310500,11.482310546875,-0.8434502482414246,-0.6803976893424988,-1.7349700927734375
1789213803466342400,11.49234228515625,-0.8040445446968079,-0.6928900480270386,-1.768867015838623
1789213803476373500,11.50237353515625,-0.7718333601951599,-0.7692080140113831,-1.808613657951355
1789213803486405600,11.512405517578125,-0.802609384059906,-0.8617962598800659,-1.8152889013290405
1789213803496437500,11.5224375,-0.8146838545799255,-0.8559767007827759,-1.7823541164398193
1789213803506468600,11.532468505859375,-0.8400489091873169,-0.7331362962722778,-1.718945860862732
1789213803516500500,11.54250048828125,-0.9916293621063232,-0.26841628551483154,-1.528649926185608
1789213803526532600,11.55253271484375,-1.1520859003067017,0.08403418213129044,-1.32974112033844
1789213803536563700,11.562563720703125,-1.2198646068572998,0.07924634963274002,-1.1756646633148193
1789213803546595600,11.572595703125,-1.180372953414917,-0.13403530418872833,-0.8219862580299377
1789213803556627500,11.58262744140625,-1.0546040534973145,-0.10585479438304901,-0.39633774757385254
1789213803566658600,11.592658447265626,-0.8029353618621826,0.03112010285258293,-0.24142247438430786
1789213803576690400,11.6026904296875,-0.5831385254859924,-0.1981295943260193,-0.019063172861933708
1789213803586722600,11.61272265625,-0.4689294099807739,-0.12862135469913483,0.24102327227592468
1789213803596753700,11.622753662109375,-0.3445350229740143,0.05146186053752899,0.4329277276992798
1789213803606785500,11.63278564453125,-0.22852425277233124,0.09554330259561539,0.4006560742855072
1789213803616817400,11.6428173828125,-0.09512065351009369,0.10834059119224548,0.3678147792816162
1789213803626848500,11.6528486328125,0.010632936842739582,0.026975691318511963,0.5570963025093079
1789213803636880600,11.662880615234375,0.18023927509784698,0.024653680622577667,0.9063208699226379
1789213803646912500,11.67291259765625,0.526685357093811,0.340750128030777,1.0816375017166138
1789213803656943600,11.682943603515625,0.9163942337036133,0.5775232315063477,1.1007529497146606
1789213803666975500,11.6929755859375,1.1491880416870117,0.5873188972473145,1.206467866897583
1789213803677006600,11.703006591796875,1.2561395168304443,0.7063579559326172,1.3355633020401
1789213803687038700,11.713038818359376,1.3411144018173218,1.00809645652771,1.3541748523712158
1789213803697070600,11.723070556640625,1.4336140155792236,1.1677900552749634,1.2500814199447632
1789213803707101700,11.733101806640626,1.5174624919891357,0.9647519588470459,1.1810989379882812
1789213803717133600,11.743133544921875,1.5841193199157715,0.6917824745178223,1.2209285497665405
1789213803727165400,11.75316552734375,1.6254092454910278,0.572403073310852,1.2906041145324707
1789213803737196500,11.763196533203125,1.6788418292999268,0.6106455326080322,1.2890552282333374
1789213803747228700,11.773228759765624,1.7249385118484497,0.5725905299186707,1.2267444133758545
1789213803757260500,11.783260498046875,1.7267725467681885,0.4159729778766632,1.1711833477020264
1789213803767291600,11.793291748046874,1.6927558183670044,0.20002444088459015,1.2544125318527222
1789213803777323500,11.803323486328125,1.685542106628418,0.11264824867248535,1.3668104410171509
1789213803787355400,11.81335546875,1.6798429489135742,-0.03329137712717056,1.3926622867584229
1789213803797386500,11.823386474609375,1.6140002012252808,-0.3915325999259949,1.4666517972946167
1789213803807418400,11.83341845703125,1.555918574333191,-0.6820419430732727,1.5102874040603638
1789213803817450500,11.843450439453125,1.506675124168396,-0.9472157955169678,1.5429860353469849
1789213803827481600,11.853481689453124,1.4837415218353271,-1.1510297060012817,1.5350524187088013
1789213803837513500,11.863513427734375,1.4651079177856445,-1.145867109298706,1.4891525506973267
1789213803847545300,11.87354541015625,1.3557918071746826,-1.0383894443511963,1.4404881000518799
1789213803857576400,11.883576416015625,1.1329734325408936,-0.9534106254577637,1.4248266220092773
1789213803867608600,11.893608642578124,0.8945675492286682,-0.7680844068527222,1.3761482238769531
1789213803877640400,11.903640380859375,0.7397571802139282,-0.4594869017601013,1.2841954231262207
1789213803887671600,11.913671630859374,0.6453779339790344,-0.2695113718509674,1.165900707244873
1789213803897703400,11.923703369140625,0.5432249307632446,-0.3949151039123535,1.04035484790802
1789213803907734300,11.933734375,0.44626402854919434,-0.5473174452781677,0.9219397306442261
1789213803917766700,11.9437666015625,0.3284423351287842,-0.43744924664497375,0.8269003033638
1789213803927798500,11.953798583984375,0.1962488740682602,-0.24762657284736633,0.6864899396896362
1789213803937829400,11.963829345703125,0.0830802395939827,-0.08522514998912811,0.5475693345069885
1789213803947861500,11.973861572265625,-0.007229417096823454,0.020291956141591072,0.5137410759925842
1789213803957893400,11.983893310546875,-0.13478364050388336,0.1530689150094986,0.5981653928756714
1789213803967924500,11.993924560546875,-0.23625221848487854,0.36783501505851746,0.5352751612663269
1789213803977956600,12.00395654296875,-0.25264158844947815,0.45507189631462097,0.3226875066757202
1789213803987988500,12.013988525390625,-0.09653133153915405,0.34316134452819824,0.06719981133937836
1789213803998019600,12.02401953125,-0.0014658038271591067,0.1474272757768631,-0.083021380007267
1789213804008051500,12.034051513671875,-0.06033098325133324,0.16226081550121307,-0.21830517053604126
1789213804018083600,12.04408349609375,-0.13146108388900757,0.36700624227523804,-0.4308840036392212
1789213804028114400,12.054114501953125,-0.13781405985355377,0.45151790976524353,-0.7237215042114258
1789213804038146600,12.064146484375,-0.14199309051036835,0.3503361642360687,-0.9443292021751404
1789213804048178400,12.074178466796875,-0.26246464252471924,0.16101178526878357,-1.0167056322097778
1789213804058209500,12.08420947265625,-0.5046144127845764,0.1143723800778389,-1.1792796850204468
1789213804068241400,12.094241455078125,-0.646162748336792,0.18047043681144714,-1.4556076526641846
1789213804078272300,12.104272216796875,-0.6653436422348022,0.3674893379211426,-1.4760633707046509
1789213804088304600,12.1143046875,-0.6665064096450806,0.4498119056224823,-1.22378408908844
1789213804098336500,12.12433642578125,-0.7144368886947632,0.3957228362560272,-0.9102903008460999
1789213804108367400,12.134367431640625,-0.7025362849235535,0.2994482219219208,-0.7049483060836792
1789213804118399500,12.1443994140625,-0.6453230977058411,0.17765069007873535,-0.5895556807518005
1789213804128431600,12.154431640625,-0.584509015083313,0.1929902285337448,-0.5234163403511047
1789213804138462500,12.16446240234375,-0.5111900568008423,0.28180211782455444,-0.4706447422504425
1789213804148494600,12.17449462890625,-0.46953606605529785,0.558519721031189,-0.4688316583633423
1789213804158526500,12.1845263671875,-0.4166925549507141,0.6924538612365723,-0.5495864152908325
1789213804168557300,12.194557373046875,-0.35587793588638306,0.4227350056171417,-0.7023459076881409
1789213804178589400,12.20458935546875,-0.38442569971084595,0.07037962228059769,-0.9162565469741821
1789213804188621600,12.21462158203125,-0.5075974464416504,-0.03893142193555832,-1.1964898109436035
1789213804198652400,12.22465234375,-0.6809215545654297,-0.0249056164175272,-1.5214593410491943
1789213804208684500,12.2346845703125,-0.7513960003852844,0.07986127585172653,-1.6945151090621948
1789213804218716400,12.24471630859375,-0.7956798076629639,0.07101026177406311,-1.675148844718933
1789213804228747300,12.254747314453125,-0.9167119860649109,-0.09230756014585495,-1.5548911094665527
1789213804238779600,12.264779541015624,-1.071964979171753,-0.23374724388122559,-1.4874297380447388
1789213804248810500,12.274810546875,-1.2379968166351318,-0.023086942732334137,-1.4723304510116577
1789213804258842400,12.28484228515625,-1.3856616020202637,0.3084616959095001,-1.471034049987793
1789213804268874500,12.29487451171875,-1.5289812088012695,0.18198737502098083,-1.478421688079834
1789213804278905300,12.3049052734375,-1.5593314170837402,-0.3816000819206238,-1.5085649490356445
1789213804288937500,12.3149375,-1.518407940864563,-0.9831535816192627,-1.6114246845245361
1789213804298969600,12.324969482421874,-1.4569171667099,-1.1243226528167725,-1.7340481281280518
1789213804309000400,12.33500048828125,-1.4478384256362915,-0.7533214688301086,-1.856211543083191
1789213804319032300,12.3450322265625,-1.4409762620925903,-0.23215414583683014,-1.9505274295806885
1789213804329064400,12.355064453125,-1.4598671197891235,-0.18795818090438843,-1.8199260234832764
1789213804339095300,12.36509521484375,-1.4029508829116821,-0.5738781690597534,-1.364173412322998
1789213804349127400,12.37512744140625,-1.2890160083770752,-0.7181299328804016,-0.8161035776138306
1789213804359159600,12.38515966796875,-1.1615313291549683,-0.5028505921363831,-0.5101383328437805
1789213804369190400,12.3951904296875,-1.1319166421890259,-0.2531092166900635,-0.4090500771999359
1789213804379222300,12.40522216796875,-1.0427309274673462,-0.11019974201917648,-0.23494620621204376
1789213804389254700,12.415254638671875,-0.8645012378692627,0.22984836995601654,-0.1078026294708252
1789213804399285500,12.425285400390624,-0.6085019707679749,0.33960577845573425,0.08125251531600952
1789213804409317400,12.4353173828125,-0.3476298749446869,0.3913658857345581,0.27324217557907104
1789213804419348500,12.445348388671874,-0.13643480837345123,0.373778373003006,0.38089701533317566
1789213804429380400,12.45538037109375,-0.006655772216618061,0.2910560667514801,0.640244722366333
1789213804439412500,12.46541259765625,0.09384872764348984,0.4379746913909912,1.0199323892593384
1789213804449443600,12.475443603515625,0.2697196304798126,0.8627065420150757,1.2604643106460571
1789213804459475500,12.485475341796874,0.4275428056716919,1.1320538520812988,1.2176334857940674
1789213804469507300,12.49550732421875,0.5471981167793274,0.9838308095932007,1.1600886583328247
1789213804479538400,12.505538330078124,0.7195741534233093,0.8160365223884583,1.2230095863342285
1789213804489570300,12.5155703125,0.9178318381309509,0.803143322467804,1.2445734739303589
1789213804499602400,12.5256025390625,1.1240928173065186,0.7029099464416504,1.2537459135055542
1789213804509633500,12.535633544921875,1.286777138710022,0.4901614487171173,1.3048056364059448
1789213804519665400,12.54566552734375,1.440405249595642,0.31135842204093933,1.3571325540542603
