time,seconds_elapsed,z,y,x
1789324087350710000,0.1757099609375,0.14110571146011353,-1.0726478099822998,-0.2993151545524597
1789324087369559800,0.194559814453125,-0.08185353130102158,-0.18081079423427582,-0.8362498879432678
1789324087388409900,0.213409912109375,-0.3023693859577179,-0.14904673397541046,-1.142895221710205
1789324087407259600,0.232259765625,-0.24250635504722595,-0.5632011890411377,-1.1209046840667725
1789324087426109700,0.251109619140625,0.10995250940322876,-0.6212316751480103,-0.767224133014679
1789324087444959500,0.26995947265625,0.5796940326690674,0.2883199155330658,-0.17531315982341766
1789324087463809500,0.2888095703125,0.6988092660903931,1.1184613704681396,0.49295374751091003
1789324087482659300,0.307659423828125,0.43981003761291504,0.8655705451965332,1.1031901836395264
1789324087501509400,0.32650927734375,0.14904673397541046,0.22967857122421265,1.2736165523529053
1789324087520359200,0.345359130859375,-0.004886778071522713,-0.3243598937988281,0.9914051294326782
1789324087539209200,0.364209228515625,-0.10201149433851242,-0.5326588153839111,0.7024743556976318
1789324087558059000,0.38305908203125,-0.23334364593029022,-0.41293275356292725,0.3115321099758148
1789324087576909000,0.401908935546875,-0.21318569779396057,-0.1435490995645523,-0.01832541823387146
1789324087595759000,0.420759033203125,-0.05070032179355621,0.19974705576896667,-0.21746163070201874
1789324087614609000,0.43960888671875,0.007330167107284069,0.01588202826678753,-0.34451785683631897
1789324087633459000,0.458458984375,-0.026877280324697495,-0.809983491897583,-0.11361759155988693
1789324087652308700,0.477308837890625,-0.06902574002742767,-0.9486457705497742,0.27854636311531067
1789324087671158800,0.49615869140625,-0.07635590434074402,-0.550373375415802,0.284654825925827
1789324087690008600,0.515008544921875,-0.08490777015686035,-0.20280128717422485,0.05497625470161438
1789324087708858600,0.533858642578125,-0.12278030067682266,0.45508119463920593,-0.17286977171897888
1789324087727708400,0.55270849609375,-0.10628741979598999,0.9920159578323364,-0.4679090082645416
1789324087746558500,0.571558349609375,-0.08551861345767975,1.0256125926971436,-0.7116370797157288
1789324087765408300,0.590408203125,0.004886778071522713,0.5754181146621704,-0.5125008225440979
1789324087784258300,0.60925830078125,0.182643324136734,0.4953971207141876,-0.056808795779943466
1789324087803108000,0.628108154296875,0.19119518995285034,0.40071579813957214,0.1301104724407196
1789324087821958100,0.646958251953125,0.09956810623407364,-0.3946073353290558,0.12766708433628082
1789324087840808000,0.665807861328125,0.051922015845775604,-0.786771297454834,0.1954711228609085
1789324087859658000,0.684657958984375,-0.08674030750989914,-0.6120689511299133,-0.0030542362947016954
1789324087878508000,0.703508056640625,-0.261442631483078,-0.4037700295448303,-0.34696123003959656
1789324087897357800,0.72235791015625,-0.35856732726097107,0.08368607610464096,-0.3573456406593323
1789324087916207900,0.741207763671875,-0.30786702036857605,0.6157340407371521,-0.13560809195041656
1789324087935057700,0.7600576171875,-0.01588202826678753,0.5522059202194214,0.29503923654556274
1789324087953907700,0.77890771484375,0.4056025743484497,0.0012216945178806782,0.9840749502182007
1789324087972757500,0.797757568359375,0.5112791657447815,-0.3640649616718292,1.2424633502960205
1789324087991607600,0.816607666015625,0.5118899941444397,-0.24067382514476776,0.9834640622138977
1789324088010457300,0.835457275390625,0.6792621612548828,0.19058434665203094,0.6731536984443665
1789324088029307400,0.854307373046875,1.0219475030899048,1.3273711204528809,0.43736663460731506
1789324088048157400,0.873157470703125,1.1819894313812256,1.404414176940918,0.10140064358711243
1789324088067007200,0.89200732421875,1.0952491760253906,0.4446968138217926,-0.5619794726371765
1789324088085857300,0.910857177734375,0.6633801460266113,2.1441502571105957,-1.1862653493881226
1789324088104707000,0.92970703125,0.4446968138217926,4.489880084991455,-1.7635923624038696
1789324088123557000,0.94855712890625,0.4489727318286896,5.088510513305664,-2.4300267696380615
1789324088142407000,0.967406982421875,0.27854636311531067,4.932133674621582,-2.7488889694213867
1789324088161257000,0.986257080078125,0.288930743932724,3.505117893218994,-2.5509746074676514
1789324088180106800,1.005106689453125,0.054365407675504684,0.5876350402832031,-1.3267602920532227
1789324088198956800,1.023956787109375,-0.21196399629116058,-0.3573456406593323,-0.031153209507465363
1789324088217806600,1.042806640625,-0.033596597611904144,0.1832541823387146,-0.40254834294319153
1789324088236656600,1.06165673828125,0.3640649616718292,-1.3163758516311646,-1.2326897382736206
1789324088255506400,1.08050634765625,0.8032641410827637,-1.0421054363250732,-2.2388315200805664
1789324088274356500,1.0993564453125,0.7721109390258789,0.9736905097961426,-3.767782211303711
1789324088293206500,1.11820654296875,0.41537612676620483,1.6805171966552734,-4.937631130218506
1789324088312056300,1.137056396484375,-0.3280249834060669,0.9517000317573547,-4.665803909301758
1789324088330906400,1.15590625,-1.1630531549453735,0.008551862090826035,-3.287656307220459
1789324088349756200,1.174756103515625,-1.6347036361694336,-0.07513421028852463,-2.446519613265991
1789324088368606200,1.193606201171875,-1.7165571451187134,0.46607646346092224,-2.714681625366211
1789324088387456000,1.2124560546875,-1.5143667459487915,1.0537115335464478,-4.029301166534424
1789324088406306000,1.23130615234375,-1.9505116939544678,1.38731050491333,-5.032312393188477
1789324088425155800,1.25015576171875,-1.936462163925171,1.572397232055664,-4.885709285736084
1789324088444006000,1.269005859375,-1.3964731693267822,1.9028655290603638,-4.700011730194092
1789324088462856000,1.28785595703125,-1.2797249555587769,2.199737310409546,-4.4623918533325195
1789324088491130600,1.316130615234375,-1.1648857593536377,2.86556077003479,-4.219885349273682
1789324088509980700,1.334980712890625,-1.0934165716171265,4.920527458190918,-3.131890296936035
1789324088538255600,1.363255615234375,-1.1508362293243408,4.977947235107422,-1.3860887289047241
1789324088557105400,1.38210546875,-0.4330907166004181,3.5301625728607178,-1.3879213333129883
1789324088575955500,1.40095556640625,1.1624423265457153,0.48806697130203247,-2.2846450805664062
1789324088594805200,1.41980517578125,2.275482416152954,-0.5467082858085632,-1.7642031908035278
1789324088632505300,1.45750537109375,1.014006495475769,2.7073514461517334,-0.18936264514923096
1789324088651355100,1.476355224609375,2.0213699340820312,1.2424633502960205,0.7568397521972656
1789324088670205200,1.495205078125,2.700632095336914,0.47890424728393555,1.156944751739502
1789324088689055000,1.514054931640625,2.590068817138672,0.8087617754936218,0.9535325765609741
1789324088707905000,1.532905029296875,2.6652028560638428,0.1423274129629135,1.4691640138626099
1789324088726754800,1.5517548828125,2.549752712249756,-0.6994200944900513,1.7819178104400635
1789324088745604900,1.57060498046875,2.63649320602417,-1.0824213027954102,1.5357463359832764
1789324088773879800,1.5988798828125,1.395862340927124,-2.4556822776794434,1.2705622911453247
1789324088792729900,1.617729736328125,1.1624423265457153,-2.88510799407959,0.9407047629356384
1789324088811579600,1.63657958984375,0.6872031688690186,-3.244286060333252,0.5515950918197632
1789324088830429700,1.6554296875,1.060430884361267,-3.900946855545044,0.37322768568992615
1789324088849279500,1.674279541015625,1.2504043579101562,-5.2430548667907715,0.28037887811660767
1789324088868129500,1.693129638671875,0.8997780084609985,-5.703633785247803,0.6927008032798767
1789324088886979600,1.7119794921875,-0.5131117105484009,-3.9913523197174072,1.6805171966552734
1789324088905829400,1.730829345703125,-1.3340904712677002,-1.0524898767471313,2.1404850482940674
1789324088924679400,1.749679443359375,-1.0408837795257568,0.4428642690181732,2.2443292140960693
1789324088952954400,1.777954345703125,-0.12094775587320328,0.2730487287044525,1.6017178297042847
1789324088971804200,1.79680419921875,-0.05497625470161438,-0.9846857786178589,1.007897973060608
1789324088990654200,1.815654296875,-0.15943112969398499,-1.3372210264205933,0.6584933400154114
1789324089009504000,1.83450390625,-0.08368607610464096,-0.5522059202194214,0.40987852215766907
1789324089028354000,1.85335400390625,0.1973036676645279,-0.2901524603366852,0.3665083646774292
1789324089047203800,1.872203857421875,0.5051707029342651,0.1844758689403534,0.20646637678146362
1789324089066054000,1.891053955078125,0.9449806809425354,0.5167768001556396,-0.2376195788383484
1789324089084904000,1.909904052734375,1.0537115335464478,-0.15026842057704926,-0.4159869849681854
1789324089103753700,1.928753662109375,0.7928797602653503,-0.8625163435935974,-0.26999449729919434
1789324089122603800,1.947603759765625,0.5002838969230652,-1.1630531549453735,0.1325538605451584
1789324089141453600,1.96645361328125,0.16309621930122375,-0.9071081876754761,0.312142938375473
1789324089160303600,1.9853037109375,-0.033596597611904144,-0.29565006494522095,0.02626643143594265
1789324089188578600,2.01357861328125,-0.1459924876689911,0.6432221531867981,-0.129499614238739
1789324089207428400,2.032428466796875,-0.2919849753379822,0.5558710098266602,-0.17775654792785645
1789324089226278400,2.0512783203125,-0.5070032477378845,0.45324867963790894,-0.38483378291130066
1789324089245128400,2.07012841796875,-0.7098045349121094,0.393385648727417,-0.5265503525733948
1789324089263978200,2.088978271484375,-0.8832851648330688,0.4367557764053345,-0.7409577369689941
1789324089282828300,2.107828369140625,-0.813648521900177,0.34573954343795776,-0.9290986657142639
1789324089301678000,2.126677978515625,-0.9523108601570129,-0.5632011890411377,-1.0653176307678223
1789324089320528100,2.145528076171875,-1.1942063570022583,0.08185353130102158,-1.203369140625
1789324089339378200,2.164378173828125,-1.395862340927124,1.1080769300460815,-1.1447277069091797
1789324089358228000,2.18322802734375,-1.3848670721054077,0.7495095729827881,-1.184432864189148
1789324089377078000,2.202078125,-1.1899304389953613,0.832584798336029,-1.3659307956695557
1789324089395927800,2.220927734375,-1.2852226495742798,0.8942803740501404,-1.5033714771270752
1789324089414777900,2.23977783203125,-1.4911545515060425,1.1209046840667725,-1.6133239269256592
1789324089433628000,2.2586279296875,-2.081233024597168,0.7024743556976318,-1.414798617362976
1789324089452477700,2.277477783203125,-2.538146734237671,-0.15271180868148804,-1.4935978651046753
1789324089471327700,2.29632763671875,-1.1141854524612427,0.25289076566696167,-2.067183494567871
1789324089490177500,2.315177490234375,-0.6016845703125,0.5308262705802917,-2.3194634914398193
1789324089509027600,2.334027587890625,-0.9052756428718567,0.312142938375473,-1.7226656675338745
1789324089527877600,2.352877685546875,-0.7275190949440002,-0.37689274549484253,-0.6835380792617798
1789324089546727400,2.3717275390625,0.3518480062484741,-0.08796200156211853,-1.225359559059143
1789324089565577500,2.390577392578125,1.1465603113174438,-1.544909119606018,-2.0885632038116455
1789324089584427300,2.40942724609375,1.2840009927749634,-3.4538068771362305,-2.4703426361083984
1789324089603277300,2.42827734375,0.9675820469856262,-2.486835479736328,-2.445908784866333
1789324089622127400,2.44712744140625,-0.41048935055732727,0.15943112969398499,-1.95967435836792
1789324089640977400,2.465977294921875,-1.6053829193115234,1.6432554721832275,-0.8741224408149719
1789324089659827200,2.4848271484375,-1.3017154932022095,1.6683002710342407,0.8747332692146301
1789324089678677200,2.50367724609375,-0.21685077250003815,1.3182083368301392,1.295607089996338
1789324089697527000,2.522527099609375,0.2089097648859024,0.9174925684928894,1.2345223426818848
1789324089716377000,2.541377197265625,0.4074351191520691,1.547963261604309,1.547963261604309
1789324089735227100,2.56022705078125,0.6456655263900757,1.2424633502960205,1.6487531661987305
1789324089754077000,2.579076904296875,0.5149442553520203,0.37506023049354553,1.0219475030899048
1789324089772927000,2.597927001953125,0.5412106513977051,-0.004275931045413017,1.1215155124664307
1789324089791777000,2.616777099609375,0.5937435626983643,0.2480039894580841,1.456336259841919
1789324089820052000,2.645052001953125,0.337798535823822,-0.4227063059806824,1.2607887983322144
1789324089838901800,2.66390185546875,-0.0781884491443634,-1.0091196298599243,1.0280559062957764
1789324089857751800,2.682751708984375,-0.4282039403915405,-1.4819917678833008,0.869846522808075
1789324089876601600,2.7016015625,-0.610236406326294,-1.2320789098739624,0.9443698525428772
1789324089895451600,2.72045166015625,-0.5741963982582092,-1.294385313987732,1.1545013189315796
1789324089914301700,2.7393017578125,-0.7085828185081482,-1.8735449314117432,1.1697725057601929
1789324089933151500,2.7581513671875,-0.9223793745040894,-1.852776050567627,1.3059914112091064
1789324089952001500,2.77700146484375,-0.3261924386024475,-1.2785032987594604,1.604161262512207
1789324089970851600,2.7958515625,-0.0787992998957634,-0.8502993583679199,1.6542507410049438
1789324089989701400,2.814701416015625,-0.02748812735080719,-0.5485408306121826,1.4819917678833008
1789324090008551400,2.833551513671875,-0.2602209448814392,-0.03176405653357506,1.2888877391815186
1789324090027405800,2.85240576171875,-0.81425940990448,0.29626092314720154,1.2534586191177368
1789324090046255600,2.871255615234375,-0.8961129188537598,0.7201889157295227,1.3818128108978271
1789324090065105700,2.890105712890625,-0.3310792148113251,0.5870242118835449,1.8558303117752075
1789324090083955700,2.908955810546875,-0.18814095854759216,-0.11056335270404816,2.168584108352661
1789324090102805500,2.927805419921875,0.05497625470161438,-2.848457098007202,1.8002432584762573
1789324090121655600,2.946655517578125,0.182643324136734,-2.8869404792785645,0.9052756428718567
1789324090140505300,2.96550537109375,0.4691306948661804,-1.1538904905319214,1.0720369815826416
1789324090159355400,2.98435546875,0.2620534598827362,-0.291374146938324,1.7684792280197144
1789324090178205400,3.003205322265625,0.7843278646469116,0.18569757044315338,1.4868786334991455
1789324090197055200,3.02205517578125,0.9248227477073669,0.6493306159973145,1.3139324188232422
1789324090215905300,3.0409052734375,0.4037700295448303,-0.004886778071522713,0.9950701594352722
1789324090234755300,3.05975537109375,0.2883199155330658,0.10078980028629303,0.8783983588218689
1789324090253605000,3.078605224609375,0.3133646547794342,0.14904673397541046,0.5002838969230652
1789324090272455200,3.097455078125,0.33169007301330566,0.10201149433851242,0.183865025639534
1789324090291305200,3.11630517578125,0.05925218388438225,0.29381752014160156,-0.05864133685827255
1789324090310155000,3.135155029296875,-0.020157959312200546,0.4721849262714386,-0.2638860046863556
1789324090329005000,3.154005126953125,-0.028098974376916885,0.9150491952896118,-0.3567348122596741
1789324090347855000,3.172855224609375,-0.19058434665203094,1.1477819681167603,-0.3518480062484741
1789324090366705000,3.191704833984375,-0.6914790868759155,0.8704573512077332,-0.3665083646774292
1789324090385555000,3.210554931640625,-1.1850436925888062,0.9547542929649353,-0.6462764143943787
1789324090404405000,3.229405029296875,-1.4636664390563965,0.9272661209106445,-0.8790091872215271
1789324090423254800,3.2482548828125,-1.6121022701263428,0.6426113247871399,-1.1422843933105469
1789324090442104800,3.267104736328125,-2.0366411209106445,0.24433889985084534,-1.7244981527328491
1789324090460955000,3.285954833984375,-2.191185474395752,-0.12400199472904205,-2.173470973968506
1789324090479804700,3.3048046875,-2.0879523754119873,-0.19302773475646973,-2.3945975303649902
1789324090498654700,3.32365478515625,-1.821012020111084,-0.291374146938324,-2.5045502185821533
1789324090517504800,3.3425048828125,-1.4502277374267578,-0.5283828973770142,-2.6261086463928223
1789324090536354600,3.3613544921875,-1.0427162647247314,-0.578472375869751,-2.929089069366455
1789324090555204600,3.38020458984375,-0.633448600769043,-0.3830012381076813,-2.8704476356506348
1789324090574054700,3.3990546875,-0.25594499707221985,-0.5112791657447815,-2.6004531383514404
1789324090592904400,3.417904541015625,0.14171656966209412,-0.5381564497947693,-2.500274181365967
1789324090611754500,3.43675439453125,0.20585553348064423,-0.11972606182098389,-2.500274181365967
1789324090630604500,3.4556044921875,0.2510582208633423,0.5858024954795837,-2.4184205532073975
1789324090649454300,3.474454345703125,0.258999228477478,0.9602518677711487,-2.16552996635437
1789324090668304400,3.493304443359375,0.42637139558792114,0.7440119385719299,-1.6841822862625122
1789324090687154400,3.512154541015625,0.4611896872520447,0.7464553713798523,-1.3206517696380615
1789324090706004200,3.531004150390625,0.6187883019447327,1.1459494829177856,-1.2314680814743042
1789324090724854300,3.549854248046875,1.6408120393753052,0.01954711228609085,-1.4764941930770874
1789324090743704300,3.568704345703125,2.240664005279541,0.10811996459960938,-0.5008947253227234
1789324090762554000,3.58755419921875,1.8619388341903687,0.10811996459960938,0.43614494800567627
1789324090781404200,3.606404052734375,1.6090480089187622,0.2211267054080963,0.9223793745040894
1789324090800254200,3.625254150390625,1.3017154932022095,0.5815265774726868,0.7922688722610474
1789324090819104300,3.644104248046875,0.9743013978004456,0.577861487865448,0.6810947060585022
1789324090837954000,3.6629541015625,0.5167768001556396,0.26999449729919434,0.9535325765609741
1789324090856804000,3.68180419921875,0.01954711228609085,-0.1948602795600891,1.1349542140960693
1789324090875654100,3.700654052734375,0,-0.3689517378807068,1.0384403467178345
1789324090894504000,3.71950390625,0.03665083646774292,-0.23334364593029022,0.8796200752258301
1789324090913354000,3.73835400390625,0.01710372418165207,-0.16553960740566254,0.9003888368606567
1789324090932204000,3.7572041015625,0.04092676565051079,-0.2742704153060913,1.09219491481781
1789324090951053800,3.7760537109375,0.24372805655002594,-0.41537612676620483,1.2925528287887573
1789324090969903900,3.79490380859375,0.38544461131095886,-0.32008397579193115,1.4111335277557373
1789324090988754000,3.81375390625,0.4984513521194458,-0.27060532569885254,1.4166311025619507
1789324091007603700,3.832603759765625,0.527161180973053,-0.30481278896331787,1.3714284896850586
1789324091026453800,3.851453857421875,0.5094466209411621,-0.4831801950931549,1.3976948261260986
1789324091045303800,3.8703037109375,0.5815265774726868,-0.6737645268440247,1.5540717840194702
1789324091064153600,3.889153564453125,0.7947123050689697,-1.077534556388855,1.6664676666259766
1789324091083003600,3.908003662109375,0.9199360013008118,-1.063485026359558,1.6744086742401123
1789324091101853700,3.926853759765625,0.8240329623222351,-1.0469921827316284,1.625540852546692
1789324091120703500,3.945703369140625,0.5754181146621704,-1.1435060501098633,1.6487531661987305
1789324091139553500,3.964553466796875,0.3781144618988037,-1.1483927965164185,1.6609700918197632
1789324091158403600,3.983403564453125,0.34573954343795776,-1.1850436925888062,1.6524181365966797
1789324091177253400,4.00225341796875,0.29320669174194336,-1.170383334159851,1.6915124654769897
1789324091196103400,4.021103515625,0.14721418917179108,-1.789247989654541,1.5614019632339478
1789324091214953500,4.039953369140625,0.12216944992542267,-2.0830655097961426,1.2333005666732788
1789324091233803500,4.058803466796875,0.2638860046863556,-1.381201982498169,1.2681188583374023
1789324091252653300,4.0776533203125,0.45263782143592834,-0.8759549856185913,1.4245721101760864
1789324091271503400,4.09650341796875,0.4599680006504059,-0.5277720093727112,1.1624423265457153
1789324091290353400,4.115353515625,0.3573456406593323,-0.25777754187583923,0.8771766424179077
1789324091309203200,4.134203125,0.2761029601097107,-0.1441599577665329,0.5900784730911255
1789324091328053200,4.15305322265625,0.2870981991291046,0.1973036676645279,0.34879377484321594
1789324091346903300,4.1719033203125,0.17653486132621765,0.32374903559684753,0.10873081535100937
1789324091365753000,4.190753173828125,0.09040539711713791,0.3683409094810486,-0.054365407675504684
1789324091384603100,4.20960302734375,0.0794101431965828,0.47951510548591614,-0.2095206081867218
1789324091403453200,4.228453125,0.08063183724880219,0.49356457591056824,-0.42453885078430176
1789324091422303000,4.247302978515625,0.04947862774133682,0.6181774139404297,-0.6951441764831543
1789324091441153000,4.266153076171875,-0.09895725548267365,0.8246437907218933,-0.9119949340820312
1789324091460003000,4.285003173828125,-0.2363978922367096,1.0512681007385254,-1.0909732580184937
1789324091478852900,4.303852783203125,-0.33718767762184143,1.3243168592453003,-1.3035480976104736
1789324091497703000,4.322702880859375,-0.3823903799057007,1.598052740097046,-1.4453409910202026
1789324091516553000,4.341552978515625,-0.43614494800567627,1.8613280057907104,-1.479548454284668
1789324091535403000,4.360403076171875,-0.5296045541763306,1.7916914224624634,-1.5400222539901733
1789324091554252800,4.379252685546875,-0.6029062271118164,1.3928080797195435,-1.6310385465621948
1789324091573102800,4.398102783203125,-0.6652126908302307,0.9517000317573547,-1.757483959197998
1789324091591953000,4.416952880859375,-0.7488987445831299,0.70308518409729,-1.9883841276168823
1789324091610802700,4.435802734375,-0.8808417320251465,0.5283828973770142,-2.1924071311950684
1789324091629652700,4.45465283203125,-0.9498674869537354,0.3646758198738098,-2.3280153274536133
1789324091648502800,4.473502685546875,-0.8942803740501404,0.38910970091819763,-2.356114149093628
1789324091667352600,4.4923525390625,-0.7513421177864075,0.444085955619812,-2.2687630653381348
1789324091686202600,4.51120263671875,-0.5919110178947449,0.39766156673431396,-2.1288790702819824
1789324091705052700,4.530052734375,-0.4599680006504059,0.3280249834060669,-2.0079312324523926
1789324091723902500,4.54890234375,-0.31092125177383423,0.4282039403915405,-1.9297428131103516
1789324091742752500,4.56775244140625,-0.10995250940322876,0.4330907166004181,-1.826509714126587
1789324091761602600,4.5866025390625,0.04581354558467865,0.36162158846855164,-1.580949068069458
1789324091780452400,4.605452392578125,0.13499724864959717,0.2626643180847168,-1.3023263216018677
1789324091799302400,4.624302490234375,0.24311721324920654,0.3817795515060425,-1.0891406536102295
1789324091818152400,4.64315234375,0.27854636311531067,0.08735115826129913,-0.7000309824943542
1789324091837002500,4.66200244140625,0.22784602642059326,-0.03787253051996231,-0.1423274129629135
1789324091865277400,4.69027734375,0.130721315741539,-0.11300674080848694,0.6206207871437073
1789324091884127200,4.709127197265625,0.21257483959197998,-0.08857285231351852,0.9236010313034058
1789324091902977300,4.727977294921875,0.15454435348510742,-0.1973036676645279,1.142895221710205
1789324091921827300,4.746827392578125,0.13682979345321655,-0.1563768982887268,1.3488271236419678
1789324091950102300,4.775102294921875,0.19974705576896667,-0.10873081535100937,1.2442958354949951
1789324091968952300,4.793952392578125,0.17409147322177887,-0.12400199472904205,1.068982720375061
1789324091987802000,4.812802001953125,0.053143709897994995,-0.20341213047504425,1.012784719467163
1789324092006652200,4.831652099609375,-0.012216945178806782,-0.4477510452270508,1.1361758708953857
1789324092025502200,4.850502197265625,0.0390942245721817,-0.6664343476295471,1.382423758506775
1789324092044352000,4.86935205078125,0.2504473626613617,-0.864959716796875,1.5455199480056763
1789324092063202000,4.8882021484375,0.42453885078430176,-0.6212316751480103,1.6029396057128906
1789324092082052000,4.907052001953125,0.4953971207141876,-0.517998456954956,1.5614019632339478
1789324092100902000,4.92590185546875,0.5497625470161438,-0.5906893014907837,1.5455199480056763
1789324092119752000,4.944751953125,0.5882459282875061,-0.6670452356338501,1.562012791633606
1789324092138602000,4.96360205078125,0.6933116316795349,-0.8832851648330688,1.5797274112701416
1789324092157451800,4.98245166015625,0.7220214605331421,-0.9553651213645935,1.6438663005828857
1789324092176301800,5.0013017578125,0.6267293095588684,-0.9730796813964844,1.6957883834838867
1789324092195152000,5.02015185546875,0.5937435626983643,-1.1080769300460815,1.6805171966552734
1789324092214002000,5.039001953125,0.5106683373451233,-1.3488271236419678,1.6285951137542725
1789324092232851700,5.057851806640625,0.20157960057258606,-1.9560092687606812,1.5986636877059937
1789324092251701800,5.07670166015625,-0.015271181240677834,-1.9437923431396484,1.3879213333129883
1789324092270551800,5.0955517578125,0.1178935244679451,-1.285833477973938,1.2589561939239502
1789324092289401900,5.11440185546875,0.3268032968044281,-0.7049177289009094,1.3604332208633423
1789324092308251600,5.133251708984375,0.3811686933040619,-0.6615476012229919,1.3775368928909302
1789324092327101700,5.152101806640625,0.36101073026657104,-0.3939964771270752,1.2192511558532715
1789324092345951700,5.17095166015625,0.33291175961494446,-0.20280128717422485,0.8674030900001526
1789324092364801500,5.189801513671875,0.34696123003959656,0.08002099394798279,0.5210527181625366
1789324092383651600,5.208651611328125,0.2644968628883362,0.09651386737823486,0.34696123003959656
1789324092402501600,5.227501708984375,0.24433889985084534,0.06719319522380829,0.2101314514875412
1789324092421351400,5.246351318359375,0.20035789906978607,0.20707722008228302,-0.05619794875383377
1789324092440201500,5.265201416015625,0.10628741979598999,0.6584933400154114,-0.3695625960826874
1789324092459051500,5.284051513671875,-0.05070032179355621,1.0854755640029907,-0.5986303091049194
1789324092477901300,5.3029013671875,-0.17531315982341766,1.0897514820098877,-0.860683798789978
1789324092496751400,5.32175146484375,-0.23212195932865143,1.248571753501892,-1.1483927965164185
1789324092515601400,5.340601318359375,-0.33535513281822205,1.5485742092132568,-1.3078240156173706
1789324092534451500,5.359451416015625,-0.4746283292770386,1.4789376258850098,-1.4196853637695312
1789324092553301200,5.37830126953125,-0.5595360994338989,1.336610198020935,-1.5803382396697998
1789324092572151300,5.3971513671875,-0.6829272508621216,1.2113101482391357,-1.6829605102539062
1789324092591001300,5.41600146484375,-0.9571976661682129,1.2045907974243164,-1.6713544130325317
1789324092609851400,5.434851318359375,-1.0683718919754028,1.0427162647247314,-1.8387266397476196
1789324092628701200,5.453701171875,-1.0970816612243652,0.7739434838294983,-2.1001691818237305
1789324092647551200,5.47255126953125,-1.2168077230453491,0.8191461563110352,-2.1465935707092285
1789324092666401300,5.4914013671875,-1.202147364616394,0.9425373077392578,-2.067183494567871
1789324092685251000,5.5102509765625,-1.0213366746902466,0.707361102104187,-2.1691949367523193
1789324092704101000,5.52910107421875,-0.7715001106262207,0.23273280262947083,-2.295029401779175
1789324092722951200,5.547951171875,-0.4159869849681854,0.04214845970273018,-2.3988735675811768
1789324092741801000,5.566801025390625,-0.11239589750766754,0.2492256760597229,-2.501495838165283
1789324092760651000,5.585651123046875,0.11300674080848694,0.2999260127544403,-2.278536558151245
1789324092779501000,5.6045009765625,0.06780404597520828,0.25350162386894226,-1.7318283319473267
1789324092798350800,5.623350830078125,-0.05497625470161438,0.2980934679508209,-1.2894985675811768
1789324092817201000,5.642200927734375,0.017714571207761765,0.3133646547794342,-1.003622055053711
1789324092836051000,5.661051025390625,0.2626643180847168,0.21501824259757996,-0.6310052275657654
1789324092854901000,5.67990087890625,0.4837910234928131,0.1459924876689911,-0.2504473626613617
1789324092873750800,5.698750732421875,0.4721849262714386,-0.02870982140302658,0.005497625097632408
1789324092892600800,5.717600830078125,0.38544461131095886,-0.182643324136734,0.2498365342617035
1789324092911451000,5.736450927734375,0.3255815804004669,-0.39766156673431396,0.5326588153839111
1789324092930300700,5.75530078125,0.2877090573310852,-0.41232189536094666,0.7708892226219177
1789324092949150700,5.774150634765625,0.21623992919921875,-0.4556920528411865,0.9119949340820312
1789324092968000800,5.793000732421875,0.21685077250003815,-0.4471401870250702,0.9700254201889038
1789324092986850800,5.811850830078125,0.24311721324920654,-0.3683409094810486,1.0250016450881958
1789324093005700600,5.83070068359375,0.20585553348064423,-0.32191649079322815,1.1312891244888306
1789324093024550700,5.849550537109375,0.16126367449760437,-0.2901524603366852,1.3078240156173706
1789324093043400700,5.868400634765625,0.15454435348510742,-0.4727957844734192,1.4642772674560547
1789324093062250500,5.88725048828125,0.26816195249557495,-0.6591041684150696,1.6145457029342651
1789324093081100500,5.9061005859375,0.569309651851654,-0.5589252710342407,1.673187017440796
1789324093099950600,5.92495068359375,0.6853706240653992,-0.41232189536094666,1.6536399126052856
1789324093118800400,5.94380029296875,0.6096255779266357,-0.5662553906440735,1.6799063682556152
1789324093137650400,5.962650390625,0.5326588153839111,-0.7782194018363953,1.77642023563385
1789324093156500500,5.98150048828125,0.5577035546302795,-0.9181034564971924,1.7855829000473022
1789324093203625200,6.028625244140625,0.43858832120895386,-0.9339854717254639,1.7177788019180298
1789324093222475300,6.047475341796875,0.5589252710342407,-1.156944751739502,1.6683002710342407
1789324093241325300,6.0663251953125,0.5155550837516785,-1.4264047145843506,1.5473524332046509
1789324093260175000,6.085175048828125,0.23151111602783203,-1.6102697849273682,1.3378318548202515
1789324093279025200,6.104025146484375,0.033596597611904144,-1.5607911348342896,1.1691616773605347
1789324093297875200,6.122875244140625,0.12705622613430023,-1.113574504852295,1.2155860662460327
1789324093316725200,6.141725341796875,0.3530697226524353,-0.9602518677711487,1.2284138202667236
1789324093335575000,6.160574951171875,0.4715740978717804,-0.8759549856185913,0.8130376935005188
1789324093354425000,6.179425048828125,0.41232189536094666,-0.5210527181625366,0.5357130169868469
1789324093373275100,6.198275146484375,0.27976804971694946,-0.16798299551010132,0.569309651851654
1789324093392125000,6.217125,0.12461283802986145,-0.10995250940322876,0.42637139558792114
1789324093410975000,6.23597509765625,0.11911521852016449,0.08857285231351852,0.2730487287044525
1789324093429825000,6.254824951171875,0.13744063675403595,0.28343313932418823,0.17714570462703705
1789324093448674800,6.2736748046875,0.06963659077882767,0.6084038615226746,0.0012216945178806782
1789324093467524900,6.29252490234375,-0.0024433890357613564,0.9352071285247803,-0.2767138183116913
1789324093486375000,6.311375,-0.0910162404179573,1.0848647356033325,-0.5540384650230408
1789324093505224700,6.330224609375,-0.22051586210727692,1.345162034034729,-0.8234221339225769
1789324093524074800,6.34907470703125,-0.3042019307613373,1.585224986076355,-1.0592091083526611
1789324093542924800,6.3679248046875,-0.41354358196258545,1.660359263420105,-1.2565127611160278
1789324093561774600,6.386774658203125,-0.503948986530304,1.4300698041915894,-1.566288709640503
1789324093580624600,6.405624755859375,-0.6047387719154358,1.156944751739502,-1.7318283319473267
1789324093599474700,6.424474609375,-0.873511552810669,0.9462023973464966,-1.8283421993255615
1789324093618324500,6.443324462890625,-0.9565867781639099,1.1056334972381592,-2.058631658554077
1789324093637174500,6.462174560546875,-0.9126058220863342,1.110520362854004,-2.1264357566833496
1789324093656024600,6.481024658203125,-0.9150491952896118,1.1764918565750122,-2.1465935707092285
1789324093674874400,6.499874267578125,-0.8802309036254883,0.8985562920570374,-2.2253928184509277
1789324093693724400,6.518724365234375,-0.8344173431396484,0.6768187880516052,-2.2822017669677734
1789324093712574500,6.537574462890625,-0.781884491443634,0.5558710098266602,-2.3048031330108643
1789324093731424300,6.55642431640625,-0.5986303091049194,0.6236750483512878,-2.4019277095794678
1789324093750274300,6.5752744140625,-0.43614494800567627,0.633448600769043,-2.304192304611206
1789324093769124400,6.594124267578125,-0.33413344621658325,0.5283828973770142,-2.058631658554077
1789324093787974100,6.61297412109375,-0.19913621246814728,0.5051707029342651,-1.8582737445831299
1789324093806824200,6.63182421875,-0.1178935244679451,0.5149442553520203,-1.5962202548980713
1789324093825674200,6.65067431640625,0.11606097966432571,0.5021164417266846,-1.252847671508789
1789324093844524000,6.66952392578125,0.45141613483428955,0.29626092314720154,-0.7684458494186401
1789324093863374000,6.6883740234375,0.5076140761375427,0.12461283802986145,-0.16798299551010132
1789324093882224000,6.70722412109375,0.36223241686820984,0.13927318155765533,0.22967857122421265
1789324093901074000,6.726073974609375,0.2864873707294464,0.06169557198882103,0.4080459773540497
1789324093919924000,6.744924072265625,0.22845686972141266,-0.24433889985084534,0.6230642199516296
1789324093938774000,6.76377392578125,0.21746163070201874,-0.2864873707294464,0.9345963001251221
1789324093957623800,6.782623779296875,0.2510582208633423,-0.2883199155330658,1.1691616773605347
1789324093976473900,6.801473876953125,0.2870981991291046,-0.21501824259757996,1.1862653493881226
1789324093995324000,6.820323974609375,0.2089097648859024,-0.17409147322177887,1.0769237279891968
1789324094014173700,6.839173583984375,0.036039989441633224,-0.3414636254310608,1.1019684076309204
1789324094033023700,6.858023681640625,-0.043981000781059265,-0.6303943991661072,1.2522368431091309
1789324094051873800,6.876873779296875,0.05864133685827255,-0.4886777997016907,1.3879213333129883
1789324094070723600,6.8957236328125,0.16859383881092072,-0.31886225938796997,1.3738718032836914
1789324094089573600,6.91457373046875,0.24494975805282593,-0.37200596928596497,1.43312406539917
1789324094108423700,6.933423583984375,0.3384093940258026,-0.4318690001964569,1.7868045568466187
1789324094127273500,6.9522734375,0.4691306948661804,-0.8032641410827637,1.9896059036254883
1789324094146123500,6.97112353515625,0.5803049206733704,-0.7562289237976074,1.896146297454834
1789324094164973300,6.989973388671875,0.5473191738128662,-0.6340594291687012,1.7525970935821533
1789324094183823400,7.0088232421875,0.4337015450000763,-0.9510892033576965,1.7232764959335327
1789324094202673400,7.02767333984375,0.3903313875198364,-1.068982720375061,1.7770310640335083
1789324094221523200,7.046523193359375,0.5192201733589172,-1.298661231994629,1.7593164443969727
1789324094240373200,7.065373291015625,0.5473191738128662,-1.6994534730911255,1.7165571451187134
1789324094259223300,7.084223388671875,0.2736595869064331,-2.0134289264678955,1.5821707248687744
1789324094278073000,7.103072998046875,0.07696675509214401,-2.1520912647247314,1.3909755945205688
1789324094296923100,7.121923095703125,0.13805148005485535,-1.6670784950256348,1.2106993198394775
1789324094315773200,7.140773193359375,0.18814095854759216,-1.0946383476257324,1.1441168785095215
1789324094334623000,7.159623046875,0.1960819661617279,-0.8857285380363464,1.0958600044250488
1789324094353473000,7.17847314453125,0.1557660549879074,-0.6890357136726379,0.8582404255867004
1789324094372322800,7.19732275390625,0.16065283119678497,-0.446529358625412,0.6450546979904175
1789324094391172900,7.2161728515625,0.13499724864959717,-0.2730487287044525,0.39766156673431396
1789324094410023000,7.23502294921875,0.11239589750766754,-0.04092676565051079,0.21257483959197998
1789324094428872700,7.253872802734375,0.02748812735080719,0.0787992998957634,-0.024433890357613564
1789324094447722800,7.27272265625,-0.08551861345767975,0.3927747905254364,-0.17897824943065643
1789324094466572800,7.29157275390625,-0.07452336698770523,0.4459185004234314,-0.49417543411254883
1789324094485422600,7.310422607421875,-0.07024743407964706,0.7879929542541504,-0.7372926473617554
1789324094504272600,7.329272705078125,-0.19424942135810852,1.0708152055740356,-0.943759024143219
1789324094523122700,7.348122802734375,-0.3689517378807068,1.3781477212905884,-1.0677610635757446
1789324094541972500,7.366972412109375,-0.5479300022125244,1.4905437231063843,-1.1074661016464233
1789324094560822500,7.385822509765625,-0.5943543910980225,1.0659284591674805,-1.3647091388702393
1789324094579672300,7.40467236328125,-0.5375455617904663,1.2613996267318726,-1.5064257383346558
1789324094598522400,7.4235224609375,-0.6560499668121338,1.1722159385681152,-1.6695219278335571
1789324094617372400,7.442372314453125,-0.8918370008468628,1.4557254314422607,-1.8576629161834717
1789324094636222200,7.46122216796875,-0.9743013978004456,1.2852226495742798,-2.1349875926971436
1789324094655072300,7.480072265625,-1.0866972208023071,1.0891406536102295,-2.2449400424957275
1789324094673922000,7.498922119140625,-1.0188932418823242,0.8893936276435852,-2.4697318077087402
1789324094692772000,7.517772216796875,-0.8319739699363708,0.8234221339225769,-2.598620653152466
1789324094711622100,7.5366220703125,-0.5864133834838867,0.8081509470939636,-2.601674795150757
1789324094730472000,7.555471923828125,-0.3506263196468353,0.7617265582084656,-2.621832847595215
1789324094749322000,7.574322021484375,-0.1820324808359146,0.4416425824165344,-2.5222647190093994
1789324094768171800,7.593171875,0.056808795779943466,0.38849884271621704,-2.235166549682617
1789324094787021800,7.612021728515625,0.22784602642059326,0.3384093940258026,-1.7348825931549072
1789324094805871900,7.630871826171875,0.3286358118057251,0.3817795515060425,-1.2827792167663574
1789324094824721700,7.6497216796875,0.37139514088630676,0.3561239540576935,-0.9767447710037231
1789324094843571700,7.66857177734375,0.29565006494522095,0.08551861345767975,-0.6126797795295715
1789324094862421800,7.687421875,0.28343313932418823,-0.04153761267662048,-0.16248537600040436
1789324094881271600,7.706271484375,0.3830012381076813,0.03298575058579445,0.2583884000778198
1789324094900121600,7.72512158203125,0.43919917941093445,-0.05070032179355621,0.5845808386802673
1789324094918971400,7.743971435546875,0.4031592011451721,-0.32191649079322815,0.791047215461731
1789324094937821400,7.762821533203125,0.4062134325504303,-0.46607646346092224,0.911384105682373
1789324094956671500,7.78167138671875,0.3542914092540741,-0.6218425035476685,1.0805888175964355
1789324094975521300,7.800521240234375,0.2638860046863556,-0.624285876750946,1.2522368431091309
1789324094994371300,7.819371337890625,0.1985253542661667,-0.7391251921653748,1.3787586688995361
1789324095013221000,7.83822119140625,0.18753011524677277,-0.7207997441291809,1.42335045337677
1789324095032071200,7.8570712890625,0.16859383881092072,-0.6016845703125,1.3671525716781616
1789324095050921200,7.875921142578125,0.21807247400283813,-0.43981003761291504,1.427626371383667
1789324095069771000,7.89477099609375,0.39827242493629456,-0.288930743932724,1.5235294103622437
1789324095088621000,7.91362109375,0.7128587365150452,-0.4294256269931793,1.5675103664398193
1789324095107470800,7.932470947265625,0.8771766424179077,-0.6389462351799011,1.7080053091049194
1789324095126321000,7.95132080078125,0.8258655071258545,-0.9828532338142395,1.8191795349121094
1789324095145170700,7.970170654296875,0.6884248852729797,-1.138619303703308,1.8234554529190063
1789324095164020700,7.989020751953125,0.6462764143943787,-0.9590302109718323,1.8747665882110596
1789324095182870800,8.007870849609375,0.5418215394020081,-1.105022668838501,1.9431815147399902
1789324095201720600,8.026720458984375,0.4886777997016907,-1.2546802759170532,1.877210021018982
1789324095220570600,8.045570556640625,0.550373375415802,-1.2882769107818604,1.7819178104400635
1789324095239420400,8.06442041015625,0.4330907166004181,-1.6713544130325317,1.7361042499542236
1789324095258270500,8.0832705078125,0.39949411153793335,-1.8045191764831543,1.5864466428756714
1789324095277120300,8.102120361328126,0.5216635465621948,-1.4844352006912231,1.4074684381484985
1789324095295970300,8.12097021484375,0.6261184215545654,-1.1001359224319458,1.115407109260559
1789324095314820400,8.1398203125,0.5632011890411377,-0.6786513328552246,0.7049177289009094
1789324095333670100,8.158670166015625,0.2870981991291046,-0.3946073353290558,0.5870242118835449
1789324095352520200,8.177520263671875,0.13560809195041656,-0.31825143098831177,0.5173876285552979
1789324095371370000,8.196369873046875,0.05864133685827255,-0.07024743407964706,0.4978405237197876
1789324095399645000,8.22464501953125,0.14049486815929413,0.22906772792339325,0.2516690790653229
1789324095418495000,8.243494873046876,0.11300674080848694,0.48928865790367126,-0.07207997888326645
1789324095437344800,8.2623447265625,-0.00916270911693573,0.6340594291687012,-0.34451785683631897
1789324095456194800,8.28119482421875,-0.16676130890846252,0.8215895891189575,-0.5289937257766724
1789324095475044600,8.300044677734375,-0.2767138183116913,1.0579874515533447,-0.6975875496864319
1789324095493894700,8.318894775390625,-0.3396310806274414,1.3970839977264404,-0.8704573512077332
1789324095512744700,8.33774462890625,-0.3939964771270752,1.3689850568771362,-1.0610417127609253
1789324095531594500,8.356594482421874,-0.47951510548591614,1.5210859775543213,-1.2345223426818848
1789324095550444500,8.375444580078126,-0.610236406326294,1.6518073081970215,-1.3860887289047241
1789324095569294300,8.39429443359375,-0.8393041491508484,1.6145457029342651,-1.4435083866119385
1789324095588144400,8.413144287109375,-1.1184613704681396,1.3818128108978271,-1.5241402387619019
1789324095606994200,8.431994140625,-1.178935170173645,1.2785032987594604,-1.7941347360610962
1789324095625844200,8.45084423828125,-1.1972606182098389,1.2778924703598022,-2.0097639560699463
1789324095644694000,8.469694091796875,-1.155722975730896,1.0830321311950684,-2.136820077896118
1789324095663544000,8.4885439453125,-1.0769237279891968,0.9578084945678711,-2.2962512969970703
1789324095682393900,8.507393798828126,-0.9260444641113281,0.9339854717254639,-2.397041082382202
1789324095701244000,8.526243896484376,-0.7892146706581116,0.9009997248649597,-2.4727859497070312
1789324095720093700,8.54509375,-0.6957550048828125,0.9107732772827148,-2.478283643722534
1789324095738943700,8.56394384765625,-0.5192201733589172,0.7782194018363953,-2.353060007095337
1789324095757793800,8.582793701171875,-0.38605546951293945,0.5992411375045776,-2.047025442123413
1789324095776643600,8.6016435546875,-0.33230090141296387,0.5118899941444397,-1.5559042692184448
1789324095795493600,8.62049365234375,-0.18814095854759216,0.48989951610565186,-1.0799779891967773
1789324095814343400,8.639343505859374,-0.13866232335567474,0.4092676639556885,-0.7690566778182983
1789324095833193500,8.658193359375,-0.0794101431965828,0.18081079423427582,-0.5686988234519958
1789324095852043300,8.677043212890625,0.04459185153245926,-0.2235700935125351,-0.3268032968044281
1789324095870893300,8.695893310546875,0.20707722008228302,-0.1850867122411728,-0.0012216945178806782
1789324095889743000,8.7147431640625,0.4312581717967987,0.051922015845775604,0.2644968628883362
1789324095908593200,8.73359326171875,0.36284327507019043,-0.20524467527866364,0.4330907166004181
1789324095927443000,8.75244287109375,0.1716480851173401,-0.3695625960826874,0.7177455425262451
1789324095946293000,8.77129296875,0.10811996459960938,-0.4062134325504303,1.0207257270812988
1789324095965142800,8.790142822265626,0.1985253542661667,-0.44042086601257324,1.0787562131881714
1789324095983992800,8.808992919921875,0.288930743932724,-0.284654825925827,1.0231691598892212
1789324096002842600,8.827842529296875,0.312142938375473,-0.2767138183116913,1.073258638381958
1789324096021692700,8.846692626953125,0.3298575282096863,-0.3518480062484741,1.22963547706604
1789324096040542500,8.86554248046875,0.2999260127544403,-0.2883199155330658,1.3750935792922974
1789324096059392500,8.884392578125,0.2736595869064331,-0.6218425035476685,1.4392324686050415
1789324096078242300,8.9032421875,0.393385648727417,-0.8863393664360046,1.5504066944122314
1789324096097092400,8.92209228515625,0.5204418897628784,-0.7782194018363953,1.7000643014907837
1789324096115942100,8.940942138671875,0.46363306045532227,-0.9785773158073425,1.7354934215545654
1789324096134792200,8.959792236328125,0.3830012381076813,-1.0091196298599243,1.7556513547897339
1789324096153642000,8.97864208984375,0.33230090141296387,-0.7922688722610474,1.7361042499542236
1789324096172492000,8.997491943359375,0.37200596928596497,-0.6835380792617798,1.7324391603469849
1789324096191341800,9.016341796875,0.5491516590118408,-0.9034430980682373,1.8503327369689941
1789324096210192000,9.03519189453125,0.7605048418045044,-1.0989142656326294,1.909584879875183
1789324096229041700,9.054041748046876,0.7592831254005432,-1.4221287965774536,1.6609700918197632
1789324096247891700,9.0728916015625,0.46851983666419983,-2.0940606594085693,1.4013599157333374
1789324096266741500,9.091741455078125,0.1563768982887268,-2.2241711616516113,1.2601778507232666
1789324096285591600,9.110591552734375,0.208298921585083,-1.6683002710342407,1.1538904905319214
1789324096304441300,9.12944140625,0.4367557764053345,-1.2870551347732544,1.2430741786956787
1789324096323291400,9.14829150390625,0.5570927262306213,-1.3610440492630005,1.0030112266540527
1789324096342141200,9.16714111328125,0.578472375869751,-1.1459494829177856,0.6737645268440247
1789324096360991200,9.1859912109375,0.44103172421455383,-0.47646087408065796,0.4556920528411865
1789324096379841000,9.204841064453126,0.2877090573310852,0.06963659077882767,0.4086568057537079
1789324096398691000,9.223691162109375,0.1178935244679451,0.05803048983216286,0.3775036036968231
1789324096417540900,9.242540771484375,0.05986303091049194,0.14965757727622986,0.21623992919921875
1789324096436391000,9.261390869140625,0.016492875292897224,0.7715001106262207,0.03298575058579445
1789324096455240700,9.28024072265625,-0.026877280324697495,1.2974395751953125,-0.1313321590423584
1789324096474090800,9.2990908203125,-0.16859383881092072,1.2894985675811768,-0.3017585575580597
1789324096492940500,9.3179404296875,-0.20585553348064423,1.294385313987732,-0.5479300022125244
1789324096511790300,9.336790283203126,-0.1698155403137207,1.5485742092132568,-0.892447829246521
1789324096530640400,9.355640380859375,-0.2907632887363434,1.6004961729049683,-1.161220669746399
1789324096549490200,9.374490234375,-0.499673068523407,1.544909119606018,-1.3402752876281738
1789324096568340200,9.39334033203125,-0.7715001106262207,1.4257938861846924,-1.409911870956421
1789324096587190000,9.41218994140625,-1.0390511751174927,1.136786699295044,-1.4966521263122559
1789324096606040000,9.4310400390625,-1.1025793552398682,1.105022668838501,-1.7220547199249268
1789324096624889900,9.449889892578126,-1.138619303703308,1.0598199367523193,-1.970058798789978
1789324096643740000,9.468739990234376,-1.2864443063735962,1.012784719467163,-2.0341978073120117
1789324096662589700,9.487589599609375,-1.2369656562805176,0.9773555994033813,-2.0977258682250977
1789324096681439500,9.506439453125,-1.0274450778961182,0.7831062078475952,-2.101390838623047
1789324096700289500,9.52528955078125,-0.8527427911758423,0.8276980519294739,-2.0635182857513428
1789324096719139300,9.544139404296875,-0.767224133014679,0.7036960124969482,-2.081843852996826
1789324096737989400,9.5629892578125,-0.6578825116157532,0.5234960913658142,-2.217451810836792
1789324096756839200,9.581839111328126,-0.4581354558467865,0.5748072862625122,-2.3347346782684326
1789324096775689200,9.600689208984376,-0.27915719151496887,0.6041279435157776,-2.13620924949646
1789324096794539000,9.6195390625,-0.1979145109653473,0.4037700295448303,-1.6292059421539307
1789324096813389000,9.63838916015625,-0.12705622613430023,0.4282039403915405,-1.1532796621322632
1789324096832238800,9.65723876953125,-0.09834641218185425,0.517998456954956,-0.8105943202972412
1789324096851089000,9.6760888671875,-0.018936265259981155,0.3292466700077057,-0.497229665517807
1789324096869938700,9.694938720703124,0.14110571146011353,0.22051586210727692,-0.130721315741539
1789324096888788500,9.71378857421875,0.2999260127544403,0.08490777015686035,0.17775654792785645
1789324096907638500,9.732638427734376,0.34818294644355774,-0.011606098152697086,0.41354358196258545
1789324096926488300,9.75148828125,0.25716668367385864,-0.3958290219306946,0.6505523324012756
1789324096945338400,9.77033837890625,0.17592400312423706,-0.5796940326690674,0.9119949340820312
1789324096964188200,9.789188232421875,0.18081079423427582,-0.555260181427002,1.0573766231536865
1789324096983038000,9.808037841796875,0.19424942135810852,-0.499673068523407,1.0005677938461304
1789324097001888000,9.826887939453124,0.13560809195041656,-0.5833591222763062,0.9077190160751343
1789324097020737800,9.84573779296875,0.0922379344701767,-0.6957550048828125,0.9773555994033813
1789324097039587800,9.864587890625,0.1575985997915268,-0.7482879161834717,1.1783243417739868
1789324097058437600,9.883437744140625,0.3396310806274414,-0.7183563709259033,1.3292036056518555
1789324097077287400,9.902287353515625,0.5351021885871887,-0.6578825116157532,1.4453409910202026
1789324097096137500,9.921137451171875,0.7165238261222839,-0.7446228265762329,1.5693429708480835
1789324097114987300,9.9399873046875,0.7293516397476196,-0.8411366939544678,1.637147068977356
1789324097133837300,9.95883740234375,0.6517740488052368,-0.9474241137504578,1.5314704179763794
1789324097152687000,9.97768701171875,0.6420004963874817,-0.8686248064041138,1.4844352006912231
1789324097171537000,9.996536865234376,0.6890357136726379,-0.8160919547080994,1.572397232055664
1789324097190387000,10.015386962890625,0.7250757217407227,-0.9840749502182007,1.6854039430618286
1789324097209236700,10.03423681640625,0.7446228265762329,-1.3414969444274902,1.6994534730911255
1789324097228086500,10.05308642578125,0.6303943991661072,-1.74709951877594,1.618821620941162
1789324097246936600,10.0719365234375,0.5430431962013245,-1.9737238883972168,1.4270155429840088
1789324097265786400,10.090786376953124,0.40071579813957214,-1.8216228485107422,1.2045907974243164
1789324097284636400,10.109636474609376,0.367730051279068,-1.3775368928909302,1.0622633695602417
1789324097303486200,10.128486328125,0.4556920528411865,-1.0396620035171509,1.1178505420684814
1789324097322336000,10.1473359375,0.5192201733589172,-0.962695300579071,1.207645058631897
1789324097341186000,10.16618603515625,0.6456655263900757,-0.8551861643791199,0.9907942414283752
1789324097360035800,10.185035888671875,0.6865923404693604,-0.46729815006256104,0.7360709309577942
1789324097378885600,10.2038857421875,0.4850127100944519,-0.1575985997915268,0.5833591222763062
1789324097397735700,10.222735595703124,0.2767138183116913,0.1319430023431778,0.5265503525733948
1789324097416585500,10.24158544921875,0.11178504675626755,0.30969956517219543,0.5198310017585754
1789324097435435300,10.260435302734376,0.11667182296514511,0.47646087408065796,0.2345653474330902
1789324097454285300,10.279285400390625,0.15271180868148804,0.6884248852729797,-0.15515519678592682
1789324097473135000,10.298135009765625,0.1844758689403534,0.7537854909896851,-0.5699204802513123
1789324097491985200,10.316985107421875,0.06902574002742767,0.7580614686012268,-0.8160919547080994
1789324097510835000,10.3358349609375,-0.17470231652259827,0.8857285380363464,-0.888171911239624
1789324097529684700,10.354684814453124,-0.4214846193790436,1.1752700805664062,-0.9400939345359802
1789324097548534800,10.37353466796875,-0.5821374654769897,1.3708176612854004,-0.975523054599762
1789324097567384600,10.392384521484376,-0.5967977643013,1.482602596282959,-1.0983033180236816
1789324097586234400,10.411234375,-0.6077930331230164,1.4887111186981201,-1.3224843740463257
1789324097605084400,10.43008447265625,-0.8050966858863831,1.5149775743484497,-1.4636664390563965
1789324097623934200,10.448934326171875,-0.9504783153533936,1.4716074466705322,-1.6554723978042603
1789324097642784000,10.467783935546874,-1.0873081684112549,1.296217918395996,-1.9205801486968994
1789324097661634000,10.486634033203124,-1.1984822750091553,1.2143644094467163,-2.047025442123413
1789324097680483800,10.50548388671875,-1.1508362293243408,1.2516260147094727,-2.185687780380249
1789324097699333600,10.524333740234376,-0.9804098606109619,1.037218689918518,-2.2705955505371094
1789324097718183700,10.54318359375,-0.8105943202972412,0.883895993232727,-2.2589895725250244
1789324097737033500,10.562033447265625,-0.6420004963874817,0.8625163435935974,-2.2938077449798584
1789324097755883300,10.58088330078125,-0.5289937257766724,0.9504783153533936,-2.231501340866089
1789324097774733300,10.5997333984375,-0.4306473135948181,0.8380824327468872,-2.032365083694458
1789324097793583000,10.6185830078125,-0.35795649886131287,0.6181774139404297,-1.733049988746643
1789324097812433000,10.637432861328126,-0.20646637678146362,0.5247178077697754,-1.359822392463684
1789324097831283000,10.656282958984375,0.033596597611904144,0.5497625470161438,-0.998735249042511
1789324097850132700,10.6751328125,0.16737215220928192,0.4031592011451721,-0.6853706240653992
1789324097868982500,10.693982421875,0.1704263836145401,0.21990501880645752,-0.3439069986343384
1789324097887832300,10.712832275390625,0.16187451779842377,0.1453816443681717,0
1789324097906682400,10.731682373046874,0.07269082218408585,0.07452336698770523,0.3439069986343384
1789324097925532200,10.7505322265625,0.009773556143045425,-0.11056335270404816,0.6181774139404297
1789324097944382000,10.7693818359375,-0.004275931045413017,-0.32374903559684753,0.7941014170646667
1789324097963232000,10.78823193359375,0.056808795779943466,-0.4343124032020569,0.9119949340820312
1789324097982081800,10.807081787109375,0.130721315741539,-0.4190412163734436,0.9926267862319946
1789324098000931600,10.825931640625,0.13438639044761658,-0.4049917459487915,1.0091196298599243
1789324098019781400,10.844781494140625,0.07330167293548584,-0.4178195297718048,1.0152281522750854
1789324098038631400,10.86363134765625,-0.007941014133393764,-0.5015056133270264,1.0573766231536865
1789324098057481200,10.882481201171874,0.01588202826678753,-0.7134696245193481,1.0769237279891968
1789324098076331000,10.9013310546875,0.1453816443681717,-0.7886037826538086,1.1190721988677979
1789324098095181000,10.92018115234375,0.3426853120326996,-0.6493306159973145,1.2461284399032593
1789324098114030800,10.93903076171875,0.5974085927009583,-0.8411366939544678,1.3775368928909302
1789324098132880600,10.957880615234375,0.6676560640335083,-0.9883508682250977,1.5742297172546387
1789324098151730400,10.97673046875,0.6358919739723206,-0.7849387526512146,1.7580947875976562
1789324098170580500,10.99558056640625,0.6914790868759155,-0.7244648337364197,1.8057408332824707
1789324098189430300,11.01443017578125,0.8796200752258301,-0.9535325765609741,1.7868045568466187
1789324098208280000,11.033280029296876,0.9009997248649597,-1.0494356155395508,1.7941347360610962
1789324098227129900,11.0521298828125,0.7366818189620972,-1.3163758516311646,1.7495429515838623
1789324098245980000,11.07097998046875,0.4953971207141876,-1.780696153640747,1.6841822862625122
1789324098264829700,11.08982958984375,0.3158080279827118,-2.0097639560699463,1.5693429708480835
1789324098283679500,11.108679443359375,0.2870981991291046,-2.1435394287109375,1.3592115640640259
1789324098302529300,11.127529296875,0.3671191930770874,-1.7886371612548828,1.3017154932022095
1789324098321379300,11.14637939453125,0.4428642690181732,-1.2412415742874146,1.2100883722305298
1789324098340229000,11.16522900390625,0.4300364851951599,-0.7116370797157288,1.100746750831604
1789324098359079000,11.184078857421875,0.4422534108161926,-0.5143333673477173,1.0726478099822998
1789324098377928700,11.2029287109375,0.4428642690181732,-0.41232189536094666,0.9981244206428528
1789324098396778800,11.22177880859375,0.49173203110694885,-0.08246438205242157,0.577861487865448
1789324098415628500,11.240628662109375,0.3506263196468353,0.3390202224254608,0.2345653474330902
1789324098434478300,11.259478271484374,0.18936264514923096,0.25594499707221985,0.09834641218185425
1789324098453328100,11.278328125,0.10262233763933182,0.14965757727622986,-0.24006296694278717
1789324098472178000,11.297177978515625,0.062306419014930725,0.3268032968044281,-0.5363239049911499
1789324098491028000,11.316028076171875,0.06169557198882103,0.4691306948661804,-0.6914790868759155
1789324098509877800,11.334877685546875,0.04337015375494957,0.47829338908195496,-0.8234221339225769
1789324098528727600,11.3537275390625,-0.09651386737823486,0.8582404255867004,-0.9083298444747925
1789324098547577300,11.372577392578124,-0.2858765125274658,1.1209046840667725,-1.0017894506454468
1789324098566427400,11.391427490234374,-0.4220954477787018,1.4874894618988037,-1.0653176307678223
1789324098585277200,11.410277099609376,-0.5357130169868469,1.7324391603469849,-1.159998893737793
1789324098604127000,11.429126953125,-0.6621584296226501,1.7959673404693604,-1.276059865951538
1789324098622976800,11.447976806640625,-0.9003888368606567,1.6811280250549316,-1.3604332208633423
1789324098641826600,11.46682666015625,-0.9834640622138977,1.4172420501708984,-1.686625599861145
1789324098660676600,11.485676513671875,-1.123958945274353,1.1911520957946777,-2.0739028453826904
1789324098679526400,11.5045263671875,-1.2003148794174194,0.9315420985221863,-2.303581476211548
1789324098698376200,11.523376220703126,-1.0708152055740356,0.8454126119613647,-2.4727859497070312
1789324098717226000,11.54222607421875,-0.8576295375823975,0.8661814332008362,-2.4208641052246094
1789324098736075800,11.56107568359375,-0.6261184215545654,1.090362310409546,-2.4306375980377197
1789324098754925600,11.579925537109375,-0.5149442553520203,1.178935170173645,-2.402538537979126
1789324098773775600,11.598775634765625,-0.4563029110431671,0.9584193229675293,-2.3029704093933105
1789324098792625400,11.61762548828125,-0.34512871503829956,0.6273401379585266,-2.0317542552948
1789324098811475200,11.63647509765625,-0.26694026589393616,0.4227063059806824,-1.5772839784622192
1789324098830325000,11.655324951171876,-0.045202698558568954,0.3646758198738098,-1.1331216096878052
1789324098849175000,11.674175048828126,0.28221142292022705,0.4868452548980713,-0.7482879161834717
1789324098868024800,11.69302490234375,0.32191649079322815,0.3836120665073395,-0.43614494800567627
1789324098886874600,11.71187451171875,0.17348061501979828,0.24617144465446472,-0.2632751762866974
1789324098905724400,11.730724365234375,-0.06047387793660164,-0.025655584409832954,-0.00916270911693573
1789324098924574200,11.74957421875,-0.02870982140302658,-0.15026842057704926,0.3830012381076813
1789324098943424000,11.768424072265624,0.14965757727622986,-0.18081079423427582,0.656660795211792
1789324098962273800,11.787273681640626,0.2602209448814392,-0.24433889985084534,0.7824953198432922
1789324098981123800,11.806123779296875,0.2510582208633423,-0.28221142292022705,0.8283088803291321
1789324098999973600,11.8249736328125,0.22540263831615448,-0.25411245226860046,0.8588512539863586
1789324099018823400,11.843823486328125,0.16492876410484314,-0.25289076566696167,0.9645278453826904
1789324099047098000,11.87209814453125,0.1044548824429512,-0.601073682308197,1.1697725057601929
1789324099065948000,11.890947998046874,0.17592400312423706,-0.6432221531867981,1.262621283531189
1789324099084797700,11.909797607421876,0.29565006494522095,-0.6041279435157776,1.273005723953247
1789324099103647700,11.928647705078125,0.3286358118057251,-0.4074351191520691,1.30476975440979
1789324099122497500,11.94749755859375,0.39827242493629456,-0.45019441843032837,1.3433294296264648
1789324099141347300,11.966347412109375,0.41110020875930786,-0.46302223205566406,1.4893219470977783
1789324099160197000,11.985197021484375,0.5216635465621948,-0.9620844125747681,1.5943876504898071
1789324099179047000,12.004046875,0.7116370797157288,-1.2180293798446655,1.7031185626983643
1789324099197896700,12.022896728515626,0.7727217674255371,-1.2137534618377686,1.6524181365966797
1789324099216746500,12.04174658203125,0.6621584296226501,-1.0897514820098877,1.460612177848816
1789324099235596300,12.06059619140625,0.5992411375045776,-1.281557559967041,1.488100290298462
1789324099254446300,12.0794462890625,0.5436540842056274,-1.5033714771270752,1.760538101196289
1789324099273296100,12.098296142578125,0.5265503525733948,-1.7593164443969727,1.7269415855407715
1789324099292146000,12.11714599609375,0.5094466209411621,-1.728774070739746,1.5278053283691406
1789324099310995700,12.13599560546875,0.4422534108161926,-1.5119233131408691,1.4575579166412354
1789324099329845500,12.154845458984376,0.503948986530304,-1.273005723953247,1.383034586906433
1789324099348695300,12.1736953125,0.5033381581306458,-0.7177455425262451,1.404414176940918
1789324099367545000,12.192545166015625,0.4752391576766968,-0.45019441843032837,1.2571237087249756
1789324099386395000,12.211394775390625,0.3811686933040619,-0.33596599102020264,0.9767447710037231
1789324099405244700,12.23024462890625,0.4062134325504303,-0.17592400312423706,0.5809157490730286
1789324099424094500,12.249094482421874,0.36162158846855164,0.04153761267662048,0.4043808877468109
1789324099442944500,12.267944580078124,0.29503923654556274,-0.08735115826129913,0.26816195249557495
1789324099461794300,12.286794189453126,0.23273280262947083,-0.16431790590286255,0.005497625097632408
1789324099480644000,12.30564404296875,0.16676130890846252,-0.010995250195264816,-0.30786702036857605
1789324099499494000,12.324493896484375,0.04153761267662048,0.30664533376693726,-0.5173876285552979
1789324099518343700,12.34334375,-0.11056335270404816,0.6560499668121338,-0.6096255779266357
1789324099537193500,12.362193359375,-0.21685077250003815,1.1068552732467651,-0.6823163628578186
1789324099556043300,12.381043212890624,-0.33169007301330566,1.464888095855713,-0.8386932611465454
1789324099574893000,12.39989306640625,-0.45447036623954773,1.8112385272979736,-0.9608627557754517
1789324099593742800,12.418742919921876,-0.6029062271118164,1.8112385272979736,-1.0011786222457886
1789324099612592600,12.437592529296875,-0.8295305967330933,1.5870575904846191,-1.1587772369384766
1789324099631442400,12.4564423828125,-1.129456639289856,1.520475149154663,-1.4074684381484985
1789324099650292200,12.475292236328125,-1.2577345371246338,1.5223077535629272,-1.8142926692962646
1789324099669142000,12.49414208984375,-1.3011046648025513,1.3995274305343628,-2.0745136737823486
1789324099687992000,12.512991943359374,-1.3610440492630005,0.9064973592758179,-1.9779998064041138
1789324099706841900,12.531841796875,-1.2259705066680908,0.9645278453826904,-1.9547876119613647
1789324099725691600,12.550691650390625,-0.999346137046814,1.0640959739685059,-2.0042662620544434
1789324099744541400,12.56954150390625,-0.8942803740501404,0.9193251132965088,-1.9999902248382568
1789324099763391200,12.58839111328125,-0.8203678727149963,0.6493306159973145,-2.023202419281006
1789324099782241000,12.607240966796875,-0.6407787799835205,0.4703523814678192,-2.1985156536102295
1789324099801090800,12.6260908203125,-0.4416425824165344,0.6328377723693848,-2.1753034591674805
1789324099819940600,12.644940673828126,-0.2095206081867218,0.5656445622444153,-1.8894269466400146
1789324099838790400,12.663790283203125,-0.05070032179355621,0.3286358118057251,-1.4661097526550293
1789324099857640200,12.68264013671875,0.014049487188458443,0.3921639323234558,-1.0757020711898804
1789324099876490000,12.701489990234375,0.010995250195264816,0.4068242609500885,-0.832584798336029
1789324099895339800,12.72033984375,-0.05803048983216286,0.12461283802986145,-0.5858024954795837
1789324099914189600,12.739189453125,-0.029320668429136276,0.004275931045413017,-0.26632940769195557
1789324099933039400,12.758039306640624,0.21868331730365753,0.10323318839073181,0.08246438205242157
1789324099951889200,12.77688916015625,0.4599680006504059,0.2357870489358902,0.36223241686820984
1789324099970739000,12.795739013671875,0.3524588644504547,-0.02504473738372326,0.5473191738128662
1789324099989588700,12.814588623046875,0.1704263836145401,-0.24067382514476776,0.7647807598114014
1789324100008438500,12.8334384765625,0.04153761267662048,-0.38605546951293945,0.9828532338142395
1789324100027288300,12.852288330078125,-0.038483377546072006,-0.5326588153839111,1.0671501159667969
1789324100046138000,12.87113818359375,0.008551862090826035,-0.6621584296226501,1.064706802368164
1789324100064988000,12.88998779296875,0.1447708010673523,-0.554649293422699,1.1001359224319458
1789324100083837700,12.908837646484375,0.19363857805728912,-0.32252734899520874,1.1373976469039917
1789324100102687500,12.9276875,0.16248537600040436,-0.3542914092540741,1.1441168785095215
1789324100121537500,12.94653759765625,0.08612946420907974,-0.45019441843032837,1.2106993198394775
1789324100140387300,12.96538720703125,0.14721418917179108,-0.5961869359016418,1.3011046648025513
1789324100159237000,12.984237060546874,0.42698222398757935,-0.7794411182403564,1.4404542446136475
1789324100178087000,13.0030869140625,0.6346703171730042,-0.966971218585968,1.5754514932632446
1789324100206361600,13.031361572265626,0.5638120174407959,-0.9883508682250977,1.6817388534545898
1789324100225211400,13.05021142578125,0.48012593388557434,-1.0237799882888794,1.6334819793701172
1789324100244061200,13.069061279296875,0.4752391576766968,-1.035386085510254,1.6756303310394287
1789324100262911000,13.087910888671875,0.6517740488052368,-1.050046443939209,1.8533869981765747
1789324100281760800,13.1067607421875,0.8515210747718811,-1.1221264600753784,1.8643821477890015
1789324100300610600,13.125610595703124,0.7977665066719055,-1.5791164636611938,1.6029396057128906
1789324100319460400,13.14446044921875,0.5619794726371765,-2.032365083694458,1.2736165523529053
1789324100338310100,13.16331005859375,0.3512371778488159,-2.0879523754119873,1.0396620035171509
1789324100357160000,13.182159912109375,0.4715740978717804,-1.5675103664398193,0.9266552925109863
1789324100376009700,13.201009765625,0.49295374751091003,-1.2088667154312134,1.090362310409546
1789324100394859500,13.219859619140625,0.4569137394428253,-0.9828532338142395,1.0390511751174927
1789324100413709300,13.238709228515624,0.4453076422214508,-0.7091936469078064,0.7678350210189819
1789324100432559000,13.25755908203125,0.43981003761291504,-0.1960819661617279,0.6731536984443665
1789324100451409000,13.276408935546876,0.3927747905254364,0.21685077250003815,0.6120689511299133
1789324100470258700,13.2952587890625,0.312142938375473,0.2883199155330658,0.4068242609500885
1789324100489108500,13.3141083984375,0.2473931461572647,0.2113531529903412,0.0659715011715889
1789324100507958300,13.332958251953125,0.1557660549879074,0.2651077210903168,-0.33535513281822205
1789324100526807800,13.351807861328124,0.020157959312200546,0.4886777997016907,-0.5790832042694092
1789324100555082500,13.38008251953125,-0.18936264514923096,0.6829272508621216,-0.6664343476295471
1789324100573932300,13.398932373046875,-0.24617144465446472,0.8667922616004944,-0.7342383861541748
1789324100592782000,13.417781982421875,-0.2596100866794586,1.2290246486663818,-0.8820634484291077
1789324100611631900,13.4366318359375,-0.29442837834358215,1.4514493942260742,-1.100746750831604
1789324100630481700,13.455481689453125,-0.40193748474121094,1.492987036705017,-1.23940908908844
1789324100649331500,13.47433154296875,-0.7342383861541748,1.5198643207550049,-1.299272060394287
1789324100668181200,13.49318115234375,-0.9834640622138977,1.5198643207550049,-1.4502277374267578
1789324100687031000,13.512031005859376,-1.063485026359558,1.3787586688995361,-1.6811280250549316
1789324100705880800,13.530880859375,-1.0250016450881958,1.254069447517395,-1.9779998064041138
1789324100724730600,13.549730712890625,-1.068982720375061,1.01706063747406,-2.0097639560699463
1789324100743580400,13.568580322265625,-0.9846857786178589,1.0274450778961182,-2.1575889587402344
1789324100762430200,13.58743017578125,-0.8490777015686035,0.9425373077392578,-2.376883029937744
1789324100781280000,13.606280029296874,-0.767224133014679,0.8014315962791443,-2.3982627391815186
1789324100800129800,13.6251298828125,-0.6768187880516052,0.8814526200294495,-2.4007060527801514
1789324100818979600,13.6439794921875,-0.5338805317878723,0.9052756428718567,-2.390321731567383
1789324100837829400,13.662829345703125,-0.3836120665073395,0.6920899152755737,-2.1838552951812744
1789324100856679200,13.68167919921875,-0.13560809195041656,0.4953971207141876,-1.81246018409729
1789324100875528700,13.70052880859375,0.1423274129629135,0.47585001587867737,-1.3842562437057495
1789324100894378500,13.71937841796875,0.2858765125274658,0.5167768001556396,-0.9938485026359558
1789324100913228300,13.738228271484376,0.2999260127544403,0.46363306045532227,-0.7287407517433167
1789324100932078000,13.757078125,0.15454435348510742,0.22906772792339325,-0.42759308218955994
1789324100950928000,13.775927978515625,0.03665083646774292,0.15210096538066864,-0.12827792763710022
1789324100969777700,13.794777587890625,-0.009773556143045425,0.022601349279284477,0.17897824943065643
1789324100988627500,13.81362744140625,0.062306419014930725,-0.05497625470161438,0.38666632771492004
1789324101007477200,13.832477294921874,0.12400199472904205,-0.17592400312423706,0.522885262966156
1789324101026327000,13.8513271484375,0.17531315982341766,-0.2718270421028137,0.6658235192298889
1789324101045176800,13.8701767578125,0.16431790590286255,-0.3261924386024475,0.836860716342926
1789324101064026600,13.889026611328125,0.1850867122411728,-0.2644968628883362,0.9852966070175171
1789324101082876400,13.90787646484375,0.1575985997915268,-0.23028941452503204,1.0439379215240479
1789324101101726000,13.926725830078125,0.06413896381855011,-0.5112791657447815,1.077534556388855
1789324101120575700,13.94557568359375,0.06047387793660164,-0.601073682308197,1.1826002597808838
1789324101139425500,13.964425537109374,0.13621893525123596,-0.5424323678016663,1.3340904712677002
1789324101158275300,13.983275390625,0.31031039357185364,-0.5192201733589172,1.4031925201416016
1789324101177125000,14.002125,0.4825693368911743,-0.3823903799057007,1.4862676858901978
1789324101195975000,14.020974853515625,0.5448757410049438,-0.3793361485004425,1.6163781881332397
1789324101214824700,14.03982470703125,0.6212316751480103,-0.6126797795295715,1.6261518001556396
1789324101233674500,14.058674560546875,0.648108959197998,-0.9144383668899536,1.6310385465621948
1789324101252524300,14.077524169921874,0.6682668924331665,-1.226581335067749,1.6279842853546143
1789324101271373800,14.096373779296876,0.6132906675338745,-1.2278029918670654,1.5717864036560059
1789324101290223600,14.1152236328125,0.5577035546302795,-1.0787562131881714,1.437399983406067
1789324101309073400,14.134073486328125,0.5155550837516785,-1.1178505420684814,1.4978737831115723
1789324101327923200,14.152923095703125,0.5234960913658142,-1.2705622911453247,1.6762412786483765
1789324101346773000,14.17177294921875,0.5002838969230652,-1.4600013494491577,1.6310385465621948
1789324101365622800,14.190622802734374,0.4367557764053345,-1.803908348083496,1.45939040184021
1789324101384472600,14.20947265625,0.6890357136726379,-2.0225915908813477,1.2424633502960205
1789324101403322400,14.228322265625,0.8747332692146301,-1.7727551460266113,1.1099094152450562
1789324101422172000,14.247171875,0.7776085734367371,-1.1856545209884644,0.9327637553215027
1789324101441021700,14.266021728515625,0.5601469278335571,-0.7446228265762329,0.6633801460266113
1789324101459871500,14.28487158203125,0.3035911023616791,-0.45141613483428955,0.46668729186058044
1789324101478721300,14.30372119140625,0.09712471067905426,-0.17592400312423706,0.5137225389480591
1789324101497571000,14.322571044921874,0.0525328628718853,0.0922379344701767,0.6835380792617798
1789324101516420900,14.3414208984375,0.1575985997915268,0.18630841374397278,0.5436540842056274
1789324101535270400,14.3602705078125,0.20035789906978607,0.4856235682964325,0.16370706260204315
1789324101554120200,14.3791201171875,0.10934165865182877,1.2302464246749878,-0.19974705576896667
1789324101572970000,14.397969970703125,-0.16065283119678497,1.0274450778961182,-0.35917818546295166
1789324101591819800,14.41681982421875,-0.25472331047058105,1.0341644287109375,-0.5595360994338989
1789324101610669600,14.435669677734374,-0.23212195932865143,1.2345223426818848,-0.9052756428718567
1789324101629519400,14.454519287109376,-0.29442837834358215,1.4031925201416016,-1.1593880653381348
1789324101648369000,14.473368896484375,-0.5137225389480591,1.2925528287887573,-1.2662863731384277
1789324101667218700,14.49221875,-0.9254335761070251,1.1404517889022827,-1.2840009927749634
1789324101686068500,14.511068359375,-1.1795459985733032,1.3163758516311646,-1.4031925201416016
1789324101704918300,14.529918212890625,-1.2235270738601685,1.5326920747756958,-1.4911545515060425
1789324101723768000,14.54876806640625,-1.0793671607971191,1.4221287965774536,-1.7416019439697266
1789324101742617600,14.56761767578125,-0.998735249042511,1.1435060501098633,-1.92363440990448
1789324101761467400,14.58646728515625,-1.09219491481781,1.1459494829177856,-1.9205801486968994
1789324101780317200,14.605317138671875,-1.0836430788040161,1.2876659631729126,-2.0922281742095947
1789324101799167000,14.6241669921875,-0.9938485026359558,0.8228112459182739,-2.310300588607788
1789324101818016800,14.643016845703125,-0.9193251132965088,0.6749862432479858,-2.310300588607788
1789324101836866300,14.6618662109375,-0.8301414251327515,0.9040539264678955,-2.4178097248077393
1789324101855716000,14.680716064453126,-0.6371136903762817,0.809983491897583,-2.445908784866333
1789324101874566000,14.69956591796875,-0.41110020875930786,0.48012593388557434,-2.048858165740967
1789324101893415700,14.718415771484375,-0.25777754187583923,0.43981003761291504,-1.4685531854629517
1789324101912265500,14.737265380859375,-0.11545012891292572,0.5577035546302795,-1.0323318243026733
1789324101931115000,14.756114990234375,-0.036039989441633224,0.5619794726371765,-0.8050966858863831
1789324101949964800,14.77496484375,-0.0036650835536420345,0.29626092314720154,-0.5638120174407959
1789324101968814600,14.793814697265624,0.03176405653357506,0.1185043677687645,-0.1692046970129013
1789324101987664400,14.812664306640626,0.16859383881092072,-0.007941014133393764,0.21196399629116058
1789324102006514000,14.831513916015625,0.2644968628883362,-0.0794101431965828,0.4862344264984131
1789324102034788600,14.85978857421875,0.2773246467113495,-0.25289076566696167,0.7000309824943542
1789324102053638400,14.878638427734375,0.24678228795528412,-0.3671191930770874,0.9327637553215027
1789324102072488200,14.89748828125,0.18814095854759216,-0.44958359003067017,1.165496587753296
1789324102091337700,14.916337646484376,0.12278030067682266,-0.43981003761291504,1.2094775438308716
1789324102110187500,14.9351875,0.056808795779943466,-0.4453076422214508,1.13800847530365
1789324102129037300,14.954037353515625,0.07146912813186646,-0.5625903010368347,1.0805888175964355
1789324102147887000,14.97288720703125,0.17409147322177887,-0.6994200944900513,1.1826002597808838
1789324102166736600,14.991736572265625,0.41232189536094666,-0.6786513328552246,1.345162034034729
1789324102185586400,15.01058642578125,0.5967977643013,-0.5033381581306458,1.4294589757919312
1789324102204436200,15.029436279296876,0.5253286361694336,-0.7501204609870911,1.3659307956695557
1789324102223286000,15.0482861328125,0.35978904366493225,-1.1453386545181274,1.340886116027832
1789324102242135600,15.067135498046875,0.367730051279068,-1.2015365362167358,1.4325132369995117
1789324102260985300,15.0859853515625,0.522885262966156,-1.2235270738601685,1.412966012954712
1789324102279835100,15.104835205078125,0.6444438695907593,-1.1355650424957275,1.4337348937988281
1789324102298685000,15.123684814453124,0.6493306159973145,-1.2284138202667236,1.5363571643829346
1789324102317534500,15.142534423828126,0.6664343476295471,-1.3340904712677002,1.6487531661987305
1789324102336384300,15.16138427734375,0.7598940134048462,-1.3921972513198853,1.7648141384124756
1789324102355234000,15.180234130859375,0.6780404448509216,-1.6096588373184204,1.6059937477111816
1789324102374083600,15.19908349609375,0.5528167486190796,-1.7086161375045776,1.2369656562805176
1789324102392933400,15.217933349609375,0.546097457408905,-1.5497958660125732,0.9852966070175171
1789324102411783200,15.236783203125,0.522885262966156,-1.170383334159851,0.8942803740501404
1789324102430632700,15.2556328125,0.5790832042694092,-0.9443698525428772,0.8747332692146301
1789324102449482500,15.274482421875,0.6145123243331909,-0.7556180357933044,0.8173136115074158
1789324102468332300,15.293332275390625,0.5906893014907837,-0.7049177289009094,0.7177455425262451
1789324102487182000,15.31218212890625,0.5638120174407959,-0.5796940326690674,0.6310052275657654
1789324102506031600,15.331031494140625,0.49356457591056824,-0.2748812735080719,0.4960079789161682
1789324102524881400,15.34988134765625,0.4306473135948181,0.04947862774133682,0.2870981991291046
1789324102543731200,15.368731201171874,0.208298921585083,0.5412106513977051,0.10934165865182877
1789324102562580700,15.387580810546876,0.034818295389413834,0.9364288449287415,-0.11117420345544815
1789324102581430500,15.406430419921875,-0.038483377546072006,1.2864443063735962,-0.29748260974884033
1789324102600280300,15.4252802734375,-0.015271181240677834,1.2717839479446411,-0.5332696437835693
1789324102619129900,15.4441298828125,-0.03665083646774292,1.3084348440170288,-0.8020424246788025
1789324102637979600,15.462979736328125,-0.1453816443681717,1.3427186012268066,-1.0616525411605835
1789324102656829400,15.481829345703124,-0.518609344959259,1.3182083368301392,-1.2271921634674072
1789324102675679000,15.500678955078126,-0.8441908955574036,1.492987036705017,-1.3023263216018677
1789324102694528800,15.51952880859375,-1.022558331489563,1.660359263420105,-1.414798617362976
1789324102713378600,15.538378662109375,-1.1264023780822754,1.650585651397705,-1.5229185819625854
1789324102732228000,15.55722802734375,-1.1722159385681152,1.5589585304260254,-1.6408120393753052
1789324102751078000,15.576077880859375,-1.0573766231536865,1.5192534923553467,-1.927910327911377
1789324102769927700,15.594927734375,-1.113574504852295,1.1551121473312378,-2.006098747253418
1789324102788777200,15.613777099609376,-1.1404517889022827,1.1410627365112305,-2.2760932445526123
1789324102807627000,15.632626953125,-1.1520578861236572,1.012784719467163,-2.3237392902374268
1789324102826476800,15.651476806640625,-0.939483106136322,1.1416735649108887,-2.3610010147094727
1789324102845326300,15.670326416015625,-0.6768187880516052,0.9889616966247559,-2.2101216316223145
1789324102864176000,15.689176025390625,-0.4886777997016907,0.7519529461860657,-1.9560092687606812
1789324102883026000,15.70802587890625,-0.25655585527420044,0.6297835111618042,-1.654861569404602
1789324102901875500,15.72687548828125,-0.022601349279284477,0.629172682762146,-1.3114891052246094
1789324102920725200,15.745725341796875,-0.021990500390529633,0.5369347333908081,-0.9266552925109863
1789324102939575000,15.764574951171875,-0.1185043677687645,0.33596599102020264,-0.503948986530304
1789324102958424600,15.783424560546875,-0.13560809195041656,0.1954711228609085,-0.1301104724407196
1789324102977274400,15.8022744140625,-0.025655584409832954,0.024433890357613564,0.15210096538066864
1789324102996124000,15.8211240234375,0.08063183724880219,-0.15271180868148804,0.3836120665073395
1789324103014973700,15.8399736328125,0.18081079423427582,-0.342074453830719,0.6053496599197388
1789324103033823500,15.858823486328125,0.2724378705024719,-0.45202696323394775,0.8228112459182739
1789324103052673000,15.877673095703125,0.3017585575580597,-0.517998456954956,1.032942771911621
1789324103071522800,15.896522705078125,0.3005368411540985,-0.5454866290092468,1.1642749309539795
1789324103090372400,15.915372314453125,0.25289076566696167,-0.5809157490730286,1.1917630434036255
1789324103109222100,15.93422216796875,0.19363857805728912,-0.610236406326294,1.1722159385681152
1789324103128072000,15.953072021484376,0.1698155403137207,-0.5888567566871643,1.1404517889022827
1789324103146921500,15.97192138671875,0.20157960057258606,-0.5577035546302795,1.1642749309539795
1789324103165771300,15.990771240234375,0.20585553348064423,-0.5796940326690674,1.2387982606887817
1789324103184621000,16.00962109375,0.28160059452056885,-0.7678350210189819,1.345162034034729
1789324103203470600,16.028470703125,0.3695625960826874,-0.9254335761070251,1.4447301626205444
1789324103222320400,16.0473203125,0.4220954477787018,-1.1343433856964111,1.4410650730133057
1789324103241170000,16.066169921875,0.5198310017585754,-1.1453386545181274,1.3976948261260986
1789324103260019700,16.085019775390624,0.6120689511299133,-0.9785773158073425,1.4202961921691895
1789324103278869200,16.103869140625,0.6126797795295715,-1.1752700805664062,1.4917653799057007
1789324103297719000,16.122718994140627,0.6053496599197388,-1.3463836908340454,1.5363571643829346
1789324103316568800,16.14156884765625,0.6212316751480103,-1.132510781288147,1.5180318355560303
1789324103335418400,16.16041845703125,0.660936713218689,-1.2467392683029175,1.5919443368911743
1789324103354268200,16.17926806640625,0.754396378993988,-1.618821620941162,1.6347036361694336
1789324103373117700,16.19811767578125,0.786771297454834,-1.9028655290603638,1.3964731693267822
1789324103391967500,16.216967529296873,0.6340594291687012,-1.8692690134048462,1.1270132064819336
1789324103410817300,16.2358173828125,0.5680879354476929,-1.45939040184021,0.9217684864997864
1789324103429666800,16.254666748046876,0.6529957056045532,-0.9309312105178833,0.9333745837211609
1789324103448516400,16.273516357421876,0.6719319820404053,-0.6963658928871155,0.7012526392936707
1789324103467366100,16.2923662109375,0.6132906675338745,-0.444085955619812,0.46302223205566406
1789324103486216000,16.3112158203125,0.5296045541763306,-0.3286358118057251,0.3970507085323334
1789324103505065500,16.3300654296875,0.4489727318286896,-0.21562908589839935,0.37261682748794556
1789324103523915300,16.348915283203127,0.36284327507019043,0.01038440316915512,0.06047387793660164
1789324103542764800,16.367764892578126,0.25533416867256165,0.25594499707221985,-0.18814095854759216
1789324103561614600,16.386614501953126,0.1575985997915268,0.342074453830719,-0.34635040163993835
1789324103580464000,16.405464111328126,0.09529217332601547,0.6554391384124756,-0.46485477685928345
1789324103599314000,16.42431396484375,0.04153761267662048,0.9846857786178589,-0.6016845703125
1789324103618163500,16.44316357421875,-0.05986303091049194,1.3078240156173706,-0.7574505805969238
1789324103637013200,16.46201318359375,-0.22845686972141266,1.4905437231063843,-0.9058864712715149
1789324103655862800,16.48086279296875,-0.3811686933040619,1.5687321424484253,-1.0390511751174927
1789324103674712600,16.499712646484376,-0.6499415040016174,1.520475149154663,-1.174659252166748
1789324103693562400,16.518562255859376,-0.8350282311439514,1.5107016563415527,-1.408690094947815
1789324103712412000,16.537411865234375,-0.9358180165290833,1.678073763847351,-1.5925551652908325
1789324103731261700,16.55626171875,-1.0066763162612915,1.5943876504898071,-1.6560832262039185
1789324103750111200,16.575111328125,-0.9407047629356384,1.3793694972991943,-1.9938818216323853
1789324103768961000,16.5939609375,-0.9969027042388916,0.8338065147399902,-2.084897994995117
1789324103787810600,16.612810546875,-0.9926267862319946,0.9492566585540771,-2.2528810501098633
1789324103806660400,16.631660400390626,-0.896723747253418,0.999346137046814,-2.362222671508789
1789324103825510000,16.650510009765625,-0.7623373866081238,1.0482138395309448,-2.335345506668091
1789324103844359400,16.669359375,-0.5882459282875061,1.1697725057601929,-2.346951484680176
1789324103863209200,16.688209228515625,-0.4581354558467865,0.8893936276435852,-2.353060007095337
1789324103882058800,16.707058837890624,-0.22662433981895447,0.6927008032798767,-2.1991264820098877
1789324103900908500,16.725908447265624,0.11667182296514511,0.7427902817726135,-1.8466676473617554
1789324103919758000,16.744758056640624,0.2864873707294464,0.6358919739723206,-1.4447301626205444
1789324103938607900,16.76360791015625,0.1453816443681717,0.3555130958557129,-1.0726478099822998
1789324103957457400,16.78245751953125,-0.030542362481355667,0.023212196305394173,-0.6273401379585266
1789324103976307200,16.80130712890625,-0.045202698558568954,-0.03542914241552353,-0.20707722008228302
1789324103995156700,16.82015673828125,0.06963659077882767,-0.012216945178806782,0.045202698558568954
1789324104014006500,16.839006591796874,0.20768806338310242,0.010995250195264816,0.1979145109653473
1789324104032856000,16.85785595703125,0.30664533376693726,0.045202698558568954,0.4202629029750824
1789324104051705900,16.876705810546873,0.2767138183116913,-0.005497625097632408,0.6890357136726379
1789324104070555400,16.895555419921877,0.21318569779396057,-0.18081079423427582,0.8576295375823975
1789324104089405200,16.9144052734375,0.1050657257437706,-0.34451785683631897,0.9633061289787292
1789324104108254700,16.933254638671876,0.04214845970273018,-0.4453076422214508,1.0231691598892212
1789324104127104500,16.9521044921875,0.03237490355968475,-0.5320479869842529,1.0482138395309448
1789324104145954000,16.9709541015625,0.07513421028852463,-0.4477510452270508,1.110520362854004
1789324104164803600,16.989803466796875,0.12522368133068085,-0.3310792148113251,1.1880979537963867
1789324104183653400,17.0086533203125,0.1582094430923462,-0.4453076422214508,1.294385313987732
1789324104202503000,17.0275029296875,0.3023693859577179,-0.48989951610565186,1.4679423570632935
1789324104221352400,17.0463525390625,0.47646087408065796,-0.5986303091049194,1.5919443368911743
1789324104240202200,17.0652021484375,0.5540384650230408,-0.7488987445831299,1.5785056352615356
1789324104259051800,17.0840517578125,0.5057815313339233,-0.9052756428718567,1.5467416048049927
1789324104277901600,17.102901611328125,0.4563029110431671,-1.0787562131881714,1.593776822090149
1789324104296751000,17.121751220703125,0.4227063059806824,-1.0390511751174927,1.7031185626983643
1789324104315601000,17.140600830078125,0.40071579813957214,-1.0518789291381836,1.7440452575683594
1789324104334450400,17.159450439453124,0.420873761177063,-1.0207257270812988,1.7580947875976562
1789324104353300000,17.178300048828124,0.5925218462944031,-1.086086392402649,1.7135028839111328
1789324104372149800,17.197149658203124,0.7085828185081482,-1.3066022396087646,1.616989016532898
1789324104390999300,17.215999267578123,0.5992411375045776,-1.6334819793701172,1.482602596282959
1789324104409849000,17.23484912109375,0.446529358625412,-1.9431815147399902,1.3182083368301392
1789324104428698600,17.25369873046875,0.32130566239356995,-1.7593164443969727,1.1813786029815674
1789324104447548200,17.272548095703126,0.3805578351020813,-1.1490037441253662,1.035386085510254
1789324104466398000,17.29139794921875,0.4721849262714386,-0.8527427911758423,1.0219475030899048
1789324104485247500,17.31024755859375,0.41048935055732727,-0.735460102558136,0.8716790676116943
1789324104504097300,17.32909716796875,0.3268032968044281,-0.3542914092540741,0.7183563709259033
1789324104522946800,17.34794677734375,0.2357870489358902,-0.0787992998957634,0.49051034450531006
1789324104541796400,17.36679638671875,0.1563768982887268,0.182643324136734,0.25289076566696167
1789324104560646100,17.385646240234376,0.06352811306715012,0.2754921019077301,0.012827792204916477
1789324104579495700,17.40449560546875,-0.0653606578707695,0.40132665634155273,-0.21501824259757996
1789324104598345200,17.42334521484375,-0.13805148005485535,0.5943543910980225,-0.38605546951293945
1789324104617195000,17.442195068359375,-0.2095206081867218,0.8576295375823975,-0.5338805317878723
1789324104636044500,17.46104443359375,-0.27121618390083313,1.0561549663543701,-0.726908266544342
1789324104654894000,17.47989404296875,-0.337798535823822,1.391586422920227,-0.9297095537185669
1789324104673744000,17.498743896484374,-0.4618005156517029,1.492987036705017,-1.0482138395309448
1789324104692593400,17.517593505859374,-0.6554391384124756,1.4184637069702148,-1.1166287660598755
1789324104711443000,17.53644287109375,-0.9779664874076843,1.4997063875198364,-1.2180293798446655
1789324104730292700,17.555292724609377,-1.0928057432174683,1.5064257383346558,-1.479548454284668
1789324104749142300,17.574142333984376,-1.180156946182251,1.4490060806274414,-1.6860147714614868
1789324104767992000,17.592991943359376,-1.1709941625595093,1.4575579166412354,-1.8008540868759155
1789324104786841600,17.611841552734376,-1.022558331489563,1.368374228477478,-1.919358491897583
1789324104805691100,17.630691162109375,-1.0750911235809326,1.109298586845398,-1.970058798789978
1789324104824540700,17.649540771484375,-1.129456639289856,1.0256125926971436,-2.2247819900512695
1789324104843390500,17.668390380859375,-1.1257915496826172,0.8344173431396484,-2.353670835494995
1789324104862240000,17.687239990234374,-0.9150491952896118,1.0347752571105957,-2.4703426361083984
1789324104881089500,17.706089599609374,-0.7293516397476196,1.058598279953003,-2.3402321338653564
1789324104899939300,17.724939208984374,-0.5656445622444153,0.9144383668899536,-2.089784860610962
1789324104918788900,17.743788818359373,-0.3170297145843506,0.5741963982582092,-1.8185685873031616
1789324104937638400,17.762638427734377,-0.12278030067682266,0.4618005156517029,-1.4624446630477905
1789324104956488200,17.78148828125,0.0012216945178806782,0.4049917459487915,-1.0427162647247314
1789324104975337700,17.800337646484376,0.10323318839073181,0.2730487287044525,-0.6377245187759399
1789324104994187300,17.819187255859376,0.129499614238739,0.19302773475646973,-0.29503923654556274
1789324105013037000,17.838037109375,0.0018325417768210173,-0.007330167107284069,-0.014660334214568138
1789324105031886600,17.856886474609375,-0.02076880633831024,-0.14660334587097168,0.22906772792339325
1789324105050736000,17.875736083984375,0.09956810623407364,-0.10628741979598999,0.4343124032020569
1789324105069585700,17.894585693359375,0.20463383197784424,-0.2113531529903412,0.6132906675338745
1789324105088435500,17.913435546875,0.21990501880645752,-0.4080459773540497,0.8246437907218933
1789324105107285000,17.932284912109374,0.23884128034114838,-0.4422534108161926,1.0042328834533691
1789324105126134500,17.951134521484374,0.2644968628883362,-0.4080459773540497,1.0347752571105957
1789324105144984000,17.969984130859373,0.24556060135364532,-0.45385950803756714,0.9895725846290588
1789324105163833900,17.988833740234377,0.20524467527866364,-0.5094466209411621,1.0256125926971436
1789324105182683400,18.007683349609376,0.2101314514875412,-0.5833591222763062,1.115407109260559
1789324105201533000,18.026532958984376,0.3005368411540985,-0.6493306159973145,1.1618314981460571
1789324105220382700,18.0453828125,0.3665083646774292,-0.5992411375045776,1.1679399013519287
1789324105239232300,18.064232177734375,0.3762819170951843,-0.4953971207141876,1.2271921634674072
1789324105258081800,18.083081787109375,0.3915531039237976,-0.7421793937683105,1.3390535116195679
1789324105276931300,18.101931396484375,0.5241069197654724,-1.058598279953003,1.5149775743484497
1789324105295781000,18.120781005859374,0.7134696245193481,-1.1545013189315796,1.6579158306121826
1789324105314630700,18.139630615234374,0.8619054555892944,-1.0445488691329956,1.6945666074752808
1789324105333480200,18.158480224609374,0.8234221339225769,-0.9663603901863098,1.6511964797973633
1789324105352329700,18.177329833984373,0.7214106321334839,-1.1013575792312622,1.6145457029342651
1789324105371179500,18.196179443359377,0.6584933400154114,-1.1099094152450562,1.673797845840454
1789324105390029000,18.215029052734376,0.6267293095588684,-1.271173119544983,1.706783652305603
1789324105408878600,18.233878662109376,0.497229665517807,-1.6395903825759888,1.6847931146621704
1789324105427728100,18.25272802734375,0.48012593388557434,-1.896146297454834,1.53452467918396
1789324105446577700,18.27157763671875,0.5008947253227234,-1.789247989654541,1.3708176612854004
1789324105465427500,18.290427490234375,0.5699204802513123,-1.3805911540985107,1.1190721988677979
1789324105484277000,18.309277099609375,0.5662553906440735,-0.911384105682373,0.9553651213645935
1789324105503126500,18.32812646484375,0.45447036623954773,-0.6994200944900513,0.8771766424179077
1789324105521976000,18.34697607421875,0.35917818546295166,-0.5833591222763062,0.7831062078475952
1789324105540825900,18.365825927734374,0.2987042963504791,-0.3408527672290802,0.5320479869842529
1789324105559675400,18.38467529296875,0.17592400312423706,0.05619794875383377,0.28343313932418823
1789324105578525000,18.40352490234375,-0.031153209507465363,0.3426853120326996,0.20585553348064423
1789324105597374500,18.42237451171875,-0.13316470384597778,0.4575245976448059,0.021379653364419937
1789324105616224000,18.44122412109375,-0.1692046970129013,0.7898254990577698,-0.2596100866794586
1789324105635073500,18.460073486328124,-0.20219044387340546,1.1722159385681152,-0.48806697130203247
1789324105653923300,18.47892333984375,-0.2858765125274658,1.3053805828094482,-0.7721109390258789
1789324105672772900,18.49777294921875,-0.41110020875930786,1.3084348440170288,-1.0109522342681885
1789324105691622400,18.516622314453127,-0.5894675850868225,1.3763152360916138,-1.1783243417739868
1789324105710472000,18.535471923828126,-0.8997780084609985,1.385477900505066,-1.2717839479446411
1789324105729321500,18.554321533203126,-1.0866972208023071,1.3757044076919556,-1.3750935792922974
1789324105748171300,18.573171142578126,-1.0561549663543701,1.3200409412384033,-1.5418548583984375
1789324105767020800,18.592020751953125,-1.0286667346954346,1.3084348440170288,-1.6536399126052856
1789324105785870300,18.610870361328125,-0.948034942150116,1.1502254009246826,-1.881485939025879
1789324105814144800,18.639144775390626,-0.8429692387580872,0.9639169573783875,-2.06412935256958
1789324105832994300,18.657994384765626,-0.8997780084609985,0.856407880783081,-2.049468994140625
1789324105851843800,18.67684375,-0.8545753359794617,0.8979454636573792,-2.1472043991088867
1789324105870693400,18.695693359375,-0.836860716342926,0.735460102558136,-2.21134352684021
1789324105889543000,18.71454296875,-0.7702783942222595,0.7641699314117432,-2.2479941844940186
1789324105908392400,18.733392333984376,-0.6206207871437073,0.7360709309577942,-2.2424967288970947
1789324105927242200,18.7522421875,-0.37139514088630676,0.6835380792617798,-2.139263391494751
1789324105946091800,18.771091796875,-0.09468132257461548,0.5192201733589172,-1.8778208494186401
1789324105964941300,18.78994140625,0.06291726976633072,0.5143333673477173,-1.4227396249771118
1789324105983790800,18.808790771484375,0.15332266688346863,0.474017471075058,-0.9095515608787537
1789324106002640400,18.827640380859375,0.208298921585083,0.3536805510520935,-0.4563029110431671
1789324106021490000,18.846489990234375,0.18691925704479218,0.13621893525123596,-0.1050657257437706
1789324106040339700,18.865339599609374,0.12216944992542267,-0.12888877093791962,0.16553960740566254
1789324106059189200,18.884189208984374,0.20463383197784424,-0.17836740612983704,0.4080459773540497
1789324106078038800,18.903038818359374,0.288930743932724,-0.16065283119678497,0.5754181146621704
1789324106096888300,18.921888427734373,0.33474430441856384,-0.09284878522157669,0.7159129977226257
1789324106115737900,18.94073779296875,0.2596100866794586,-0.17714570462703705,0.8612946271896362
1789324106134587400,18.95958740234375,0.1973036676645279,-0.3701734244823456,0.9596410393714905
1789324106153437000,18.97843701171875,0.14049486815929413,-0.4092676639556885,0.999346137046814
1789324106172286500,18.997286376953124,0.11911521852016449,-0.5619794726371765,0.9822424054145813
1789324106191136300,19.01613623046875,0.1313321590423584,-0.5485408306121826,1.0811996459960938
1789324106209985800,19.03498583984375,0.17348061501979828,-0.7262973785400391,1.2644537687301636
1789324106228835300,19.05383544921875,0.3268032968044281,-0.7262973785400391,1.4019708633422852
1789324106247684900,19.072684814453126,0.5173876285552979,-0.5980194807052612,1.4038033485412598
1789324106266534400,19.091534423828126,0.5906893014907837,-0.5143333673477173,1.3714284896850586
1789324106285384000,19.110384033203125,0.5949652194976807,-0.8063184022903442,1.362876534461975
1789324106304233500,19.1292333984375,0.6700994372367859,-1.0934165716171265,1.4245721101760864
1789324106323083000,19.1480830078125,0.7531746625900269,-1.2131426334381104,1.4685531854629517
1789324106341932500,19.1669326171875,0.8112051486968994,-1.277281641960144,1.4844352006912231
1789324106360782000,19.185781982421876,0.8173136115074158,-1.2925528287887573,1.576673150062561
1789324106379631900,19.2046318359375,0.7794411182403564,-1.1893196105957031,1.6799063682556152
1789324106398481400,19.2234814453125,0.7537854909896851,-1.3267602920532227,1.706783652305603
1789324106417331000,19.2423310546875,0.6676560640335083,-1.4612230062484741,1.63592529296875
1789324106436180500,19.261180419921875,0.5748072862625122,-1.6762412786483765,1.4771050214767456
1789324106455030000,19.280030029296874,0.45508119463920593,-1.8258987665176392,1.3928080797195435
1789324106473879600,19.298879638671874,0.45202696323394775,-1.4709964990615845,1.1691616773605347
1789324106492729000,19.31772900390625,0.5595360994338989,-0.8887827396392822,0.9999569654464722
1789324106511578600,19.33657861328125,0.5589252710342407,-0.4605788290500641,0.8441908955574036
1789324106530428200,19.35542822265625,0.4172086715698242,-0.1985253542661667,0.6780404448509216
1789324106549277700,19.374277587890624,0.27060532569885254,-0.16187451779842377,0.5247178077697754
1789324106568127200,19.393127197265624,0.19974705576896667,-0.008551862090826035,0.31825143098831177
1789324106586976800,19.411976806640624,0.17775654792785645,0.27121618390083313,0.06841489672660828
1789324106605826300,19.430826416015623,0.055587101727724075,0.43614494800567627,-0.16126367449760437
1789324106624675800,19.44967578125,-0.1716480851173401,0.5870242118835449,-0.3011476993560791
1789324106643525600,19.468525634765626,-0.2864873707294464,0.7488987445831299,-0.4324798583984375
1789324106662375200,19.487375244140626,-0.3298575282096863,1.0640959739685059,-0.5332696437835693
1789324106681224700,19.506224609375,-0.40254834294319153,1.183211088180542,-0.7562289237976074
1789324106700074200,19.52507421875,-0.5393781065940857,1.3334795236587524,-0.9407047629356384
1789324106718923800,19.543923828125,-0.7421793937683105,1.3787586688995361,-1.0445488691329956
1789324106737773300,19.562773193359376,-1.0958600044250488,1.5003172159194946,-1.0848647356033325
1789324106756622800,19.581622802734376,-1.3078240156173706,1.6579158306121826,-1.1331216096878052
1789324106775472400,19.600472412109376,-1.3108782768249512,1.6683002710342407,-1.296217918395996
1789324106794322000,19.619322021484376,-1.2278029918670654,1.5100908279418945,-1.5540717840194702
1789324106813171500,19.63817138671875,-1.1520578861236572,1.4734399318695068,-1.8680472373962402
1789324106832021000,19.65702099609375,-1.0579874515533447,1.1013575792312622,-2.0824546813964844
1789324106850870500,19.67587060546875,-1.1679399013519287,0.8680139780044556,-2.1410961151123047
1789324106869720000,19.694719970703126,-1.1459494829177856,0.7427902817726135,-2.3286261558532715
1789324106888569600,19.713569580078126,-1.0286667346954346,0.8521319031715393,-2.416588068008423
1789324106907419100,19.732419189453125,-0.8667922616004944,0.9352071285247803,-2.3487839698791504
1789324106926268700,19.7512685546875,-0.7061394453048706,0.7043069005012512,-2.176525115966797
1789324106945118200,19.7701181640625,-0.43981003761291504,0.5589252710342407,-1.9108065366744995
1789324106963967700,19.7889677734375,-0.07757759839296341,0.4837910234928131,-1.576673150062561
1789324106982817300,19.8078173828125,0.19119518995285034,0.5870242118835449,-1.1966497898101807
1789324107001666800,19.826666748046875,0.20585553348064423,0.44103172421455383,-0.8008207678794861
1789324107020516400,19.845516357421875,0.15515519678592682,0.2852656841278076,-0.4605788290500641
1789324107039366000,19.864365966796875,0.08857285231351852,0.12888877093791962,-0.182643324136734
1789324107058215400,19.88321533203125,0.07696675509214401,-0.042759306728839874,0.054365407675504684
1789324107077065000,19.90206494140625,0.12033691257238388,-0.13316470384597778,0.2742704153060913
1789324107095914500,19.92091455078125,0.17958909273147583,-0.13744063675403595,0.47890424728393555
1789324107114764000,19.939763916015625,0.18630841374397278,-0.24433889985084534,0.652384877204895
1789324107133613600,19.958613525390625,0.1582094430923462,-0.265718549489975,0.8350282311439514
1789324107152463000,19.977463134765625,0.11422843486070633,-0.3249707520008087,0.9822424054145813
1789324107171312600,19.996312744140624,0.08796200156211853,-0.4202629029750824,1.031110167503357
1789324107190162200,20.015162109375,0.06841489672660828,-0.4825693368911743,0.9975135922431946
1789324107209011700,20.03401171875,0.055587101727724075,-0.5357130169868469,0.9724688529968262
1789324107227861200,20.052861328125,0.07757759839296341,-0.5931326746940613,0.9956810474395752
1789324107246710800,20.071710693359375,0.16370706260204315,-0.6218425035476685,1.105022668838501
1789324107265560300,20.090560302734374,0.31886225938796997,-0.7012526392936707,1.2565127611160278
1789324107284409900,20.109409912109374,0.546097457408905,-0.7177455425262451,1.3995274305343628
1789324107303259400,20.12825927734375,0.7464553713798523,-0.7153021693229675,1.5296379327774048
1789324107322109000,20.14710888671875,0.7922688722610474,-0.7647807598114014,1.5833925008773804
1789324107340958500,20.16595849609375,0.7250757217407227,-0.9217684864997864,1.6035504341125488
1789324107359808000,20.18480810546875,0.6664343476295471,-1.1563338041305542,1.5693429708480835
1789324107378657500,20.203657470703124,0.5919110178947449,-1.13800847530365,1.6133239269256592
1789324107397507000,20.222507080078124,0.5686988234519958,-1.22963547706604,1.6854039430618286
1789324107416356600,20.241356689453124,0.5882459282875061,-1.1606098413467407,1.6768521070480347
1789324107435206100,20.2602060546875,0.6303943991661072,-1.469774842262268,1.5168100595474243
1789324107454055700,20.2790556640625,0.5717530250549316,-1.9431815147399902,1.3011046648025513
1789324107472905200,20.2979052734375,0.5809157490730286,-2.23760986328125,1.0677610635757446
1789324107491754500,20.31675439453125,0.624285876750946,-1.9419597387313843,1.0494356155395508
1789324107510604000,20.33560400390625,0.6664343476295471,-1.414798617362976,1.01706063747406
1789324107529453600,20.35445361328125,0.6267293095588684,-1.1233481168746948,0.9999569654464722
1789324107548303000,20.37330322265625,0.5699204802513123,-0.7934905886650085,0.8448017835617065
1789324107567152600,20.392152587890624,0.48928865790367126,-0.4422534108161926,0.6169557571411133
1789324107586002200,20.411002197265624,0.3701734244823456,0.053143709897994995,0.49051034450531006
1789324107604851700,20.429851806640624,0.2583884000778198,0.3042019307613373,0.42881476879119873
1789324107623701200,20.448701171875,0.16004198789596558,0.4196520745754242,0.2241809368133545
1789324107642550800,20.46755078125,0.08735115826129913,0.5686988234519958,-0.0910162404179573
1789324107661400300,20.486400390625,0.0006108472589403391,0.6774296164512634,-0.29381752014160156
1789324107680249900,20.505249755859374,-0.08674030750989914,0.8026533126831055,-0.499673068523407
1789324107699099400,20.524099365234374,-0.1948602795600891,1.0616525411605835,-0.7324058413505554
1789324107717949000,20.542948974609374,-0.3549022674560547,1.2791141271591187,-0.9364288449287415
1789324107736798200,20.561798095703125,-0.5351021885871887,1.362876534461975,-0.9950701594352722
1789324107755647700,20.580647705078125,-0.7372926473617554,1.3928080797195435,-1.0494356155395508
1789324107774497300,20.599497314453124,-0.962695300579071,1.5571260452270508,-1.1422843933105469
1789324107793346800,20.618346923828124,-1.022558331489563,1.6805171966552734,-1.3983057737350464
1789324107812196400,20.6371962890625,-1.0164498090744019,1.585224986076355,-1.6664676666259766
1789324107831046000,20.6560458984375,-1.02683424949646,1.1435060501098633,-1.9309645891189575
1789324107849895400,20.6748955078125,-0.9791881442070007,0.9297095537185669,-2.1545345783233643
1789324107868745000,20.693744873046874,-1.0207257270812988,0.7036960124969482,-2.1209380626678467
1789324107887594500,20.712594482421874,-0.9846857786178589,0.7391251921653748,-2.19179630279541
1789324107906443800,20.73144384765625,-0.8741224408149719,0.8399149775505066,-2.1862986087799072
1789324107925293300,20.750293212890625,-0.6786513328552246,1.0433270931243896,-2.191185474395752
1789324107944142800,20.769142822265625,-0.5155550837516785,0.9242119193077087,-2.1759142875671387
1789324107962992400,20.787992431640625,-0.41110020875930786,0.7385143637657166,-2.174081802368164
1789324107981842000,20.806842041015624,-0.21562908589839935,0.624285876750946,-2.078789472579956
1789324108000691500,20.82569140625,0.06047387793660164,0.5937435626983643,-1.8692690134048462
1789324108019541000,20.844541015625,0.22051586210727692,0.503948986530304,-1.6047720909118652
1789324108038390500,20.863390625,0.15271180868148804,0.265718549489975,-1.3108782768249512
1789324108057239800,20.88223974609375,0.013438640162348747,-0.09040539711713791,-0.846023440361023
1789324108076089300,20.90108935546875,-0.013438640162348747,-0.1954711228609085,-0.28343313932418823
1789324108094939000,20.91993896484375,0.1044548824429512,-0.08490777015686035,0.17775654792785645
1789324108113788400,20.938788330078125,0.26999449729919434,-0.053143709897994995,0.503948986530304
1789324108132638000,20.957637939453125,0.3561239540576935,-0.04337015375494957,0.7702783942222595
1789324108151487500,20.976487548828125,0.3683409094810486,-0.06291726976633072,0.9596410393714905
1789324108170336800,20.995336669921876,0.312142938375473,-0.12278030067682266,1.110520362854004
1789324108189186300,21.014186279296876,0.22723518311977386,-0.21440738439559937,1.156944751739502
1789324108208035800,21.033035888671876,0.0922379344701767,-0.41415444016456604,1.068982720375061
1789324108226885400,21.051885498046875,-0.01954711228609085,-0.4874561131000519,1.0103414058685303
1789324108245735000,21.07073486328125,-0.07452336698770523,-0.5302154421806335,1.022558331489563
1789324108264584400,21.08958447265625,-0.026877280324697495,-0.46241137385368347,1.1160179376602173
1789324108283434000,21.10843408203125,0.06719319522380829,-0.48806697130203247,1.3078240156173706
1789324108302283300,21.127283203125,0.21990501880645752,-0.5686988234519958,1.5314704179763794
1789324108321132800,21.1461328125,0.3011476993560791,-0.5943543910980225,1.6658568382263184
1789324108339982300,21.164982421875,0.49295374751091003,-0.6945333480834961,1.6151565313339233
1789324108358831900,21.183831787109376,0.6450546979904175,-0.8612946271896362,1.515588402748108
1789324108377681200,21.20268115234375,0.763559103012085,-0.8228112459182739,1.460612177848816
1789324108396530700,21.22153076171875,0.730573296546936,-0.9266552925109863,1.4392324686050415
1789324108415380200,21.240380126953124,0.5729747414588928,-1.2479609251022339,1.4453409910202026
1789324108434229800,21.259229736328123,0.5112791657447815,-1.4196853637695312,1.45939040184021
1789324108453079300,21.278079345703127,0.652384877204895,-1.4349565505981445,1.5009280443191528
1789324108471928800,21.2969287109375,0.7684458494186401,-1.5827815532684326,1.5186426639556885
1789324108490778000,21.315778076171874,0.6310052275657654,-1.9382946491241455,1.4325132369995117
1789324108509627600,21.334627685546874,0.5265503525733948,-2.0885632038116455,1.2607887983322144
1789324108528477200,21.353477294921873,0.652384877204895,-1.595609426498413,1.1709941625595093
1789324108547326700,21.37232666015625,0.7611156702041626,-1.0757020711898804,1.003622055053711
1789324108566176000,21.391176025390624,0.7470661997795105,-0.7623373866081238,0.790436327457428
1789324108585025500,21.410025634765624,0.6627692580223083,-0.5198310017585754,0.503948986530304
1789324108603875000,21.428875,0.49356457591056824,-0.5344913601875305,0.43981003761291504
1789324108622724600,21.447724609375,0.4416425824165344,-0.5619794726371765,0.39643988013267517
1789324108641574100,21.46657421875,0.2999260127544403,0.09529217332601547,0.3127537965774536
1789324108660423400,21.48542333984375,0.11667182296514511,0.5558710098266602,0.13866232335567474
1789324108679273000,21.50427294921875,-0.023823043331503868,0.9822424054145813,0.046424392610788345
1789324108698122500,21.52312255859375,0.023212196305394173,1.2216944694519043,-0.1557660549879074
1789324108716972000,21.541971923828125,0.045202698558568954,1.5803382396697998,-0.3939964771270752
1789324108735821300,21.5608212890625,-0.14171656966209412,1.644477128982544,-0.6542174220085144
1789324108754670800,21.5796708984375,-0.40193748474121094,1.5571260452270508,-0.888171911239624
1789324108773520400,21.598520263671876,-0.6786513328552246,1.4251830577850342,-1.096470832824707
1789324108792370000,21.617369873046876,-0.9999569654464722,1.2919420003890991,-1.3035480976104736
1789324108811219500,21.636219482421875,-1.1490037441253662,1.4038033485412598,-1.49848473072052
1789324108830068700,21.65506884765625,-1.2155860662460327,1.6090480089187622,-1.5833925008773804
1789324108848918300,21.673918212890626,-1.2510151863098145,1.5876684188842773,-1.690901517868042
1789324108867767800,21.692767822265626,-1.2339115142822266,1.4832135438919067,-1.7770310640335083
1789324108886617000,21.7116171875,-1.0989142656326294,1.1826002597808838,-1.8460568189620972
1789324108905466600,21.730466552734374,-1.0598199367523193,1.035996913909912,-1.877210021018982
1789324108924316200,21.749316162109373,-1.0488247871398926,0.9290986657142639,-2.029310941696167
1789324108943165700,21.768165771484377,-1.037218689918518,1.0030112266540527,-2.286477565765381
1789324108962015000,21.787014892578124,-0.8863393664360046,1.0640959739685059,-2.4330809116363525
1789324108980864500,21.805864501953124,-0.7409577369689941,0.8472451567649841,-2.280369281768799
1789324108999714000,21.824714111328124,-0.5467082858085632,0.8527427911758423,-1.9242452383041382
1789324109018563600,21.8435634765625,-0.17836740612983704,0.7623373866081238,-1.5333030223846436
1789324109037412900,21.862412841796875,0.12094775587320328,0.8466343283653259,-1.1874871253967285
1789324109056262400,21.881262451171875,0.1453816443681717,0.6230642199516296,-0.864959716796875
1789324109075112000,21.90011181640625,0.07513421028852463,0.28282228112220764,-0.5308262705802917
1789324109093961200,21.918961181640626,-0.030542362481355667,0.08796200156211853,-0.22479179501533508
1789324109112810800,21.937810791015625,-0.021379653364419937,0.053143709897994995,0.04031591862440109
1789324109131660300,21.956660400390625,0.04947862774133682,-0.08674030750989914,0.28282228112220764
1789324109150509800,21.975509765625,0.09407047927379608,-0.3249707520008087,0.4813476502895355
1789324109178784000,22.003783935546874,0.2089097648859024,-0.4471401870250702,0.7568397521972656
1789324109197633300,22.02263330078125,0.29503923654556274,-0.41171106696128845,0.8814526200294495
1789324109216482800,22.04148291015625,0.3115321099758148,-0.34573954343795776,0.9315420985221863
1789324109235332400,22.060332275390625,0.2480039894580841,-0.45385950803756714,1.0085088014602661
1789324109254181600,22.079181640625,0.16248537600040436,-0.5662553906440735,1.1190721988677979
1789324109273031200,22.09803125,0.18569757044315338,-0.5711421966552734,1.1209046840667725
1789324109291880700,22.116880615234376,0.20585553348064423,-0.555260181427002,1.1300674676895142
1789324109310730200,22.135730224609375,0.26816195249557495,-0.5540384650230408,1.2406307458877563
1789324109329579500,22.15457958984375,0.33169007301330566,-0.4715740978717804,1.4600013494491577
1789324109348429000,22.173428955078126,0.395218163728714,-0.7421793937683105,1.5308595895767212
1789324109367278300,22.1922783203125,0.5583143830299377,-0.8179244995117188,1.5235294103622437
1789324109386128000,22.2111279296875,0.7012526392936707,-0.7837170362472534,1.5351355075836182
1789324109404977400,22.229977294921873,0.8215895891189575,-0.7947123050689697,1.5528501272201538
1789324109423826700,22.24882666015625,0.7415685653686523,-1.0561549663543701,1.5571260452270508
1789324109442676200,22.26767626953125,0.5619794726371765,-1.327981948852539,1.5754514932632446
1789324109461525800,22.28652587890625,0.53143709897995,-1.437399983406067,1.5986636877059937
1789324109480375300,22.305375244140624,0.5961869359016418,-1.4807701110839844,1.6145457029342651
1789324109499224600,22.324224609375,0.5619794726371765,-1.5803382396697998,1.538800597190857
1789324109518074000,22.34307421875,0.49234288930892944,-1.9706696271896362,1.391586422920227
1789324109536923400,22.36192333984375,0.4886777997016907,-2.028700113296509,1.1783243417739868
1789324109555773000,22.38077294921875,0.5540384650230408,-1.3634874820709229,1.0164498090744019
1789324109574622500,22.39962255859375,0.5638120174407959,-0.8264763355255127,0.9871291518211365
1789324109593471700,22.4184716796875,0.5442649126052856,-0.7702783942222595,0.9101623892784119
1789324109612321300,22.4373212890625,0.5173876285552979,-0.8258655071258545,0.5509842038154602
1789324109631170800,22.4561708984375,0.43614494800567627,-0.684759795665741,0.16615045070648193
1789324109650020000,22.47502001953125,0.22967857122421265,-0.2363978922367096,0.02993151545524597
1789324109668869600,22.49386962890625,-0.0006108472589403391,0.1185043677687645,0.05619794875383377
1789324109687719200,22.51271923828125,-0.14965757727622986,0.4074351191520691,-0.01710372418165207
1789324109706568400,22.531568359375,-0.16126367449760437,0.7281299233436584,-0.18569757044315338
1789324109725418000,22.55041796875,-0.12033691257238388,0.9339854717254639,-0.3573456406593323
1789324109744267300,22.569267333984374,-0.13682979345321655,1.123958945274353,-0.5076140761375427
1789324109763116800,22.58811669921875,-0.23273280262947083,1.1838220357894897,-0.7452336549758911
1789324109781966300,22.60696630859375,-0.3823903799057007,1.2571237087249756,-0.938872218132019
1789324109800815600,22.625815673828125,-0.577861487865448,1.296217918395996,-1.0738694667816162
1789324109819665200,22.6446650390625,-0.869235634803772,1.3512704372406006,-1.2449066638946533
1789324109838514400,22.663514404296876,-1.0030112266540527,1.4215179681777954,-1.4557254314422607
1789324109857364000,22.682364013671876,-1.1172395944595337,1.383034586906433,-1.5742297172546387
1789324109876213500,22.701213623046876,-1.1954281330108643,1.2278029918670654,-1.6566941738128662
1789324109895062800,22.720062744140623,-1.1245697736740112,1.1373976469039917,-1.909584879875183
1789324109913912300,22.738912353515627,-1.0750911235809326,0.9058864712715149,-1.9951034784317017
1789324109932761900,22.757761962890626,-1.1123528480529785,0.809983491897583,-2.058020830154419
1789324109951611100,22.776611083984374,-1.077534556388855,0.6676560640335083,-2.148426055908203
1789324109970460700,22.795460693359374,-0.9736905097961426,0.8209787011146545,-2.2541027069091797
1789324109989310000,22.81431005859375,-0.8637380003929138,0.9089407324790955,-2.3512275218963623
1789324110008159500,22.833159423828125,-0.7348492741584778,0.7531746625900269,-2.287088394165039
1789324110027009000,22.852009033203124,-0.5161659121513367,0.6065713167190552,-2.0225915908813477
1789324110045858300,22.8708583984375,-0.19974705576896667,0.5528167486190796,-1.6579158306121826
1789324110064707800,22.889707763671876,0.033596597611904144,0.3561239540576935,-1.3561573028564453
1789324110083557000,22.90855712890625,0.05070032179355621,0.14110571146011353,-1.0934165716171265
1789324110102406700,22.92740673828125,0.0910162404179573,0.03237490355968475,-0.8386932611465454
1789324110121256000,22.946255859375,0.11056335270404816,-0.09712471067905426,-0.5809157490730286
1789324110140105500,22.96510546875,0.17714570462703705,-0.011606098152697086,-0.2602209448814392
1789324110158955000,22.983955078125,0.2730487287044525,-0.02870982140302658,0.04337015375494957
1789324110177804300,23.00280419921875,0.30847787857055664,-0.24189551174640656,0.3023693859577179
1789324110196653800,23.02165380859375,0.314586341381073,-0.4477510452270508,0.5387672781944275
1789324110215503000,23.040503173828125,0.3781144618988037,-0.446529358625412,0.7299624681472778
1789324110234352600,23.0593525390625,0.474017471075058,-0.4178195297718048,0.8258655071258545
1789324110253202000,23.078201904296876,0.53143709897995,-0.2883199155330658,0.8380824327468872
1789324110272051500,23.097051513671875,0.4587462842464447,-0.4489727318286896,0.8069292306900024
1789324110290900700,23.115900634765627,0.39827242493629456,-0.5125008225440979,0.8338065147399902
1789324110309750300,23.134750244140626,0.3787252902984619,-0.6517740488052368,0.9449806809425354
1789324110328599800,23.153599853515626,0.44103172421455383,-0.7678350210189819,1.1483927965164185
1789324110347449000,23.172448974609374,0.5381564497947693,-0.8875610828399658,1.362265706062317
1789324110366298600,23.191298583984373,0.6927008032798767,-0.943759024143219,1.456336259841919
1789324110385148000,23.21014794921875,0.7488987445831299,-0.9297095537185669,1.4569470882415771
1789324110403997400,23.22899755859375,0.7116370797157288,-0.9535325765609741,1.507036566734314
1789324110422846700,23.2478466796875,0.6939224600791931,-1.106244444847107,1.7025076150894165
1789324110441696300,23.2666962890625,0.7647807598114014,-1.2106993198394775,1.839948296546936
1789324110460545500,23.285545654296875,0.8191461563110352,-1.2809467315673828,1.756262183189392
1789324110479395000,23.30439501953125,0.8191461563110352,-1.273005723953247,1.5974419116973877
1789324110498244400,23.323244384765626,0.7788302302360535,-1.5803382396697998,1.4679423570632935
1789324110517094000,23.342093994140626,0.7293516397476196,-2.026256799697876,1.3604332208633423
1789324110535943400,23.360943359375,0.6511631608009338,-1.8594954013824463,1.3298144340515137
1789324110554792700,23.379792724609374,0.6230642199516296,-1.6493639945983887,1.3041589260101318
1789324110573642000,23.39864208984375,0.5882459282875061,-1.2840009927749634,1.4526711702346802
1789324110592491500,23.417491455078125,0.4831801950931549,-1.0488247871398926,1.362876534461975
1789324110611340800,23.4363408203125,0.4190412163734436,-0.7898254990577698,1.2320789098739624
1789324110630190300,23.4551904296875,0.4874561131000519,-0.29687178134918213,0.9242119193077087
1789324110649040000,23.474039794921875,0.47585001587867737,0.1979145109653473,0.5296045541763306
1789324110667889200,23.49288916015625,0.28098973631858826,0.3402419090270996,0.2596100866794586
1789324110686738400,23.511738525390626,0.053143709897994995,0.3958290219306946,0.08002099394798279
1789324110705588000,23.530587890625,-0.10017894953489304,0.6120689511299133,-0.13927318155765533
1789324110724437200,23.549437255859374,-0.14660334587097168,0.7226322889328003,-0.42453885078430176
1789324110743286800,23.568286865234374,-0.2095206081867218,1.0720369815826416,-0.6383354067802429
1789324110762136000,23.587135986328125,-0.33474430441856384,1.3163758516311646,-0.8105943202972412
1789324110780985600,23.605985595703125,-0.42759308218955994,1.5100908279418945,-0.9535325765609741
1789324110799835100,23.624835205078124,-0.5454866290092468,1.6029396057128906,-1.1044118404388428
1789324110818684400,23.643684326171876,-0.8729007244110107,1.6475313901901245,-1.2314680814743042
1789324110837533700,23.66253369140625,-1.1966497898101807,1.5687321424484253,-1.4410650730133057
1789324110856383200,23.68138330078125,-1.2479609251022339,1.5931659936904907,-1.7135028839111328
1789324110875232500,23.700232421875,-1.2620104551315308,1.7684792280197144,-1.8552194833755493
1789324110894082000,23.71908203125,-1.2650647163391113,1.6450880765914917,-1.9859408140182495
1789324110912931300,23.737931396484374,-1.273005723953247,1.2504043579101562,-2.0250349044799805
1789324110931780900,23.75678076171875,-1.2149752378463745,1.0427162647247314,-2.1490371227264404
1789324110950630100,23.775630126953125,-1.050046443939209,0.9736905097961426,-2.330458641052246
1789324110969479700,23.794479736328125,-0.791047215461731,1.087918996810913,-2.3640551567077637
1789324110988329000,23.813328857421876,-0.5876350402832031,1.0989142656326294,-2.2101216316223145
1789324111007178500,23.832178466796876,-0.41415444016456604,0.9425373077392578,-1.9346296787261963
