time,seconds_elapsed,z,y,x
1789323482490361900,0.38436181640625,0.0922379344701767,0.1459924876689911,-0.013438640162348747
1789323482518637800,0.412637939453125,0.1698155403137207,-0.08918370306491852,0.036039989441633224
1789323482537488600,0.431488525390625,0.2632751762866974,0.18997350335121155,-0.19058434665203094
1789323482584615400,0.478615478515625,0.288930743932724,0.5711421966552734,-0.6914790868759155
1789323482603466000,0.497466064453125,0.13866232335567474,0.20096874237060547,-0.38910970091819763
1789323482622316800,0.51631689453125,-0.008551862090826035,0.32252734899520874,0.06780404597520828
1789323482641167600,0.535167724609375,-0.026877280324697495,0.14660334587097168,0.3561239540576935
1789323482660018200,0.55401806640625,-0.0525328628718853,-0.2877090573310852,0.5680879354476929
1789323482678869000,0.572868896484375,0.01038440316915512,-0.20341213047504425,0.4428642690181732
1789323482697719800,0.5917197265625,0.22845686972141266,0.36284327507019043,0.004886778071522713
1789323482716570400,0.6105703125,0.33718767762184143,0.42331716418266296,-0.291374146938324
1789323482735421200,0.629421142578125,0.2718270421028137,-0.07330167293548584,-0.26694026589393616
1789323482754272000,0.64827197265625,0.1979145109653473,-0.05497625470161438,-0.05131116881966591
1789323482773122800,0.667122802734375,0.19180603325366974,0.12094775587320328,0.10323318839073181
1789323482791973400,0.685973388671875,0.09712471067905426,-0.01832541823387146,0.129499614238739
1789323482810824200,0.70482421875,-0.129499614238739,-0.6670452356338501,0.12766708433628082
1789323482829675000,0.723675048828125,0.09040539711713791,-0.6707102656364441,0.025655584409832954
1789323482848525800,0.74252587890625,0.3164188861846924,-0.6621584296226501,-0.20707722008228302
1789323482867376600,0.761376708984375,0.5668662786483765,-0.9058864712715149,0.04947862774133682
1789323482886227200,0.780227294921875,0.8344173431396484,-0.730573296546936,0.6591041684150696
1789323482905078000,0.799078125,0.4960079789161682,0.011606098152697086,0.6676560640335083
1789323482923928800,0.8179287109375,0.15271180868148804,0.6438329815864563,-0.22906772792339325
1789323482942779600,0.836779541015625,0.09712471067905426,1.4862676858901978,-0.9804098606109619
1789323482961630200,0.855630126953125,0.2736595869064331,1.7025076150894165,-1.188708782196045
1789323482980481000,0.87448095703125,0.5198310017585754,1.3011046648025513,-0.9797990322113037
1789323482999331800,0.893331787109375,0.7342383861541748,1.6750195026397705,-0.5033381581306458
1789323483018182700,0.9121826171875,0.9083298444747925,1.0524898767471313,0.1563768982887268
1789323483037033500,0.931033447265625,0.6865923404693604,-0.08796200156211853,0.416597843170166
1789323483055884300,0.94988427734375,0.6487197875976562,0.265718549489975,-0.20096874237060547
1789323483074734800,0.96873486328125,1.018282413482666,1.3659307956695557,-1.012784719467163
1789323483093585700,0.987585693359375,1.5033714771270752,1.7690900564193726,-1.5882792472839355
1789323483112436500,1.0064365234375,1.904698133468628,1.5821707248687744,-1.8967571258544922
1789323483131287300,1.025287353515625,1.7776418924331665,1.2949961423873901,-1.9065306186676025
1789323483150138000,1.04413818359375,1.9016438722610474,-0.14965757727622986,-1.8753774166107178
1789323483187839700,1.08183984375,1.7623707056045532,2.093449831008911,-2.9394733905792236
1789323483206690600,1.100690673828125,1.5485742092132568,4.1557464599609375,-4.426962852478027
1789323483225541400,1.119541259765625,0.4416425824165344,3.2339017391204834,-5.962021827697754
1789323483244392000,1.138391845703125,-1.7446560859680176,2.900379180908203,-5.612006664276123
1789323483263242800,1.15724267578125,-3.0201051235198975,1.7819178104400635,-4.019527912139893
1789323483282093600,1.176093505859375,-2.917482852935791,1.1306782960891724,-2.7861506938934326
1789323483300944400,1.1949443359375,-2.3524491786956787,0.8435800671577454,-2.341453790664673
1789323483319795200,1.213795166015625,-1.8155144453048706,0.9907942414283752,-2.3573360443115234
1789323483338646000,1.23264599609375,-1.926688551902771,1.3805911540985107,-2.640158176422119
1789323483357496800,1.251496826171875,-2.119105577468872,1.7971889972686768,-3.1441071033477783
1789323483376347600,1.27034765625,-2.0042662620544434,1.738547682762146,-3.258335590362549
1789323483404624000,1.298623779296875,-1.6585266590118408,1.3506596088409424,-3.5203890800476074
1789323483423474700,1.317474609375,-0.9119949340820312,2.593122959136963,-3.432427167892456
1789323483442325500,1.336325439453125,0.1172826737165451,3.5588724613189697,-3.1147866249084473
1789323483461176300,1.35517626953125,0.8527427911758423,4.981612205505371,-1.1264023780822754
1789323483480027100,1.374027099609375,0.786771297454834,4.868605136871338,0.45508119463920593
1789323483498878000,1.3928779296875,0.9718579649925232,3.6358392238616943,-0.09895725548267365
1789323483517728800,1.411728759765625,2.185687780380249,1.1679399013519287,-0.8704573512077332
1789323483536579600,1.43057958984375,3.593690872192383,-0.7232431769371033,-0.49173203110694885
1789323483555430700,1.4494306640625,2.7892048358917236,-0.27121618390083313,0.35795649886131287
1789323483574281500,1.468281494140625,1.7190005779266357,0.9144383668899536,0.5027272701263428
1789323483593132300,1.48713232421875,1.0304993391036987,0.7666133046150208,0.24556060135364532
1789323483621408500,1.515408447265625,1.6792954206466675,-1.4679423570632935,-0.05925218388438225
1789323483640259300,1.53425927734375,1.8564411401748657,-2.4092578887939453,-0.19363857805728912
1789323483659110100,1.553110107421875,1.955398440361023,-2.5546395778656006,-0.06352811306715012
1789323483677961000,1.5719609375,2.0189266204833984,-2.035419464111328,0.19302773475646973
1789323483696811800,1.590811767578125,1.7843612432479858,-1.4325132369995117,0.2101314514875412
1789323483715662600,1.60966259765625,1.3334795236587524,-1.4960412979125977,0.11606097966432571
1789323483734513700,1.628513671875,0.6597150564193726,-2.260822057723999,0.2510582208633423
1789323483753364500,1.647364501953125,0.09407047927379608,-2.8576197624206543,0.23028941452503204
1789323483772215300,1.66621533203125,-0.41171106696128845,-2.821579933166504,0.15149012207984924
1789323483800491500,1.694491455078125,-0.5161659121513367,-2.4007060527801514,0.8637380003929138
1789323483819342300,1.71334228515625,-0.32313820719718933,-0.9761339426040649,0.9834640622138977
1789323483838193400,1.732193359375,0.4062134325504303,0.24433889985084534,0.5522059202194214
1789323483857044200,1.751044189453125,0.7116370797157288,0.2351761907339096,0.20035789906978607
1789323483875895000,1.76989501953125,1.1276240348815918,0.5283828973770142,0.18019993603229523
1789323483904171300,1.798171142578125,0.8612946271896362,0.6621584296226501,-0.3255815804004669
1789323483923022300,1.817022216796875,-0.2492256760597229,-0.18997350335121155,-0.4190412163734436
1789323483941873200,1.835873046875,-1.6261518001556396,-0.7556180357933044,-0.2583884000778198
1789323483960724000,1.854723876953125,-2.353670835494995,-1.5180318355560303,0.034818295389413834
1789323483979574800,1.87357470703125,-2.6505424976348877,-1.3952515125274658,0.25472331047058105
1789323483998425900,1.89242578125,-2.8961031436920166,-0.08429691940546036,0.17714570462703705
1789323484017276700,1.911276611328125,-3.4483091831207275,1.833839774131775,-0.2492256760597229
1789323484036127500,1.93012744140625,-3.2461187839508057,3.0091099739074707,-0.6297835111618042
1789323484054978300,1.948978271484375,-2.014650583267212,2.752554178237915,-1.0121738910675049
1789323484073829400,1.967829345703125,-1.5485742092132568,1.5131449699401855,-0.8887827396392822
1789323484092680200,1.98668017578125,-3.2656657695770264,1.2620104551315308,-0.6358919739723206
1789323484111531000,2.005531005859375,-4.4129133224487305,1.1502254009246826,-0.7421793937683105
1789323484130381800,2.0243818359375,-3.5142805576324463,0.9596410393714905,-1.054322361946106
1789323484149233000,2.04323291015625,-2.2278363704681396,0.9938485026359558,-1.5119233131408691
1789323484168083700,2.062083740234375,-0.9804098606109619,0.1044548824429512,-1.6499748229980469
1789323484186934500,2.0809345703125,-0.18875180184841156,-0.6511631608009338,-1.738547682762146
1789323484205785600,2.09978564453125,-0.33474430441856384,-0.7385143637657166,-1.9340187311172485
1789323484224636400,2.118636474609375,-0.37322768568992615,-0.8955020904541016,-1.7825286388397217
1789323484243487200,2.1374873046875,-0.45019441843032837,0.10078980028629303,-1.2247487306594849
1789323484262338300,2.15633837890625,-0.0030542362947016954,-0.791047215461731,-0.9663603901863098
1789323484281189000,2.175189208984375,0.4556920528411865,-1.3292036056518555,-0.6047387719154358
1789323484300040000,2.1940400390625,0.390942245721817,-0.7660024762153625,-0.3298575282096863
1789323484318891000,2.21289111328125,-0.7446228265762329,-0.3243598937988281,0.1325538605451584
1789323484337741800,2.231741943359375,-1.5107016563415527,1.296217918395996,0.10140064358711243
1789323484356593000,2.250593017578125,-1.1593880653381348,1.437399983406067,0.36039987206459045
1789323484375443700,2.269443603515625,-0.00916270911693573,0.9663603901863098,0.8197570443153381
1789323484394294500,2.28829443359375,-0.3658975064754486,0.024433890357613564,0.5204418897628784
1789323484413145600,2.3071455078125,-0.5943543910980225,0.258999228477478,0.5088357925415039
1789323484431996400,2.325996337890625,-0.10201149433851242,0.1557660549879074,0.7605048418045044
1789323484450847200,2.34484716796875,-0.42576053738594055,-0.5674771070480347,1.2314680814743042
1789323484469698300,2.3636982421875,-0.9150491952896118,-0.13866232335567474,1.4013599157333374
1789323484488549000,2.382549072265625,-0.9840749502182007,0.05803048983216286,1.4367891550064087
1789323484507400200,2.401400146484375,-1.2589561939239502,-0.6328377723693848,1.608437180519104
1789323484526251000,2.4202509765625,-0.8050966858863831,-1.1502254009246826,1.2675080299377441
1789323484545102000,2.43910205078125,-0.4886777997016907,-1.7031185626983643,0.9303203821182251
1789323484563953000,2.457952880859375,-0.9736905097961426,-1.5149775743484497,0.3402419090270996
1789323484582804000,2.476803955078125,-0.9736905097961426,-0.9254335761070251,0.24433889985084534
1789323484601654800,2.49565478515625,-0.38544461131095886,-0.497229665517807,0.9022213816642761
1789323484620505900,2.514505859375,0.16370706260204315,-0.31947311758995056,1.4923762083053589
1789323484639356700,2.533356689453125,0.29748260974884033,0.3921639323234558,1.4343457221984863
1789323484658207500,2.55220751953125,0.45080527663230896,0.5167768001556396,1.5595693588256836
1789323484677058600,2.57105859375,0.6383354067802429,0.6920899152755737,1.6951775550842285
1789323484695909600,2.58990966796875,0.7800519466400146,0.5008947253227234,1.766035795211792
1789323484714760400,2.608760498046875,0.5241069197654724,0.46729815006256104,1.7440452575683594
1789323484733611500,2.627611572265625,0.312142938375473,0.09773556143045425,1.6811280250549316
1789323484752462300,2.64646240234375,0.12339114397764206,-0.37444937229156494,1.6432554721832275
1789323484771313400,2.6653134765625,0.38910970091819763,-0.6829272508621216,1.580949068069458
1789323484790164200,2.684164306640625,0.5479300022125244,-0.6303943991661072,1.6896798610687256
1789323484809015300,2.703015380859375,0.6432221531867981,-0.7336275577545166,1.9163042306900024
1789323484827866000,2.7218662109375,0.7550072073936462,-0.7427902817726135,1.8930920362472534
1789323484846717200,2.74071728515625,0.6468872427940369,-0.7794411182403564,1.5876684188842773
1789323484865568300,2.759568359375,0.6865923404693604,-1.3665416240692139,1.2705622911453247
1789323484884419000,2.778419189453125,0.44958359003067017,-0.7372926473617554,1.1734375953674316
1789323484903270100,2.797270263671875,0.3035911023616791,-0.5430431962013245,1.2589561939239502
1789323484922121000,2.816120849609375,0.37139514088630676,-0.33596599102020264,1.2320789098739624
1789323484940972000,2.834971923828125,0.31092125177383423,-0.30664533376693726,0.8912261724472046
1789323484959823000,2.853822998046875,0.35978904366493225,0.01710372418165207,0.6273401379585266
1789323484978674000,2.872673828125,0.44103172421455383,0.08307522535324097,0.546097457408905
1789323484997525000,2.89152490234375,0.3506263196468353,-0.05497625470161438,0.2901524603366852
1789323485016375800,2.910375732421875,0.23884128034114838,0.1185043677687645,0.17348061501979828
1789323485035227000,2.929226806640625,0.14049486815929413,0.4605788290500641,-0.010995250195264816
1789323485054077700,2.94807763671875,0.054365407675504684,0.7293516397476196,-0.17897824943065643
1789323485072928800,2.9669287109375,0.03665083646774292,0.7843278646469116,-0.3830012381076813
1789323485091779800,2.98577978515625,0.037261683493852615,0.7678350210189819,-0.5363239049911499
1789323485110631000,3.004630859375,-0.0922379344701767,0.7592831254005432,-0.6774296164512634
1789323485129481700,3.023481689453125,-0.21807247400283813,0.7226322889328003,-0.856407880783081
1789323485148332800,3.042332763671875,-0.3811686933040619,0.7232431769371033,-1.0757020711898804
1789323485167184000,3.061183837890625,-0.5717530250549316,0.7641699314117432,-1.3298144340515137
1789323485186034700,3.08003466796875,-0.7592831254005432,0.7275190949440002,-1.4923762083053589
1789323485204885800,3.0988857421875,-0.9193251132965088,0.726908266544342,-1.5644562244415283
1789323485223736800,3.11773681640625,-1.0476030111312866,0.6536065936088562,-1.6237083673477173
1789323485242587600,3.136587646484375,-1.1184613704681396,0.6554391384124756,-1.7214438915252686
1789323485261438700,3.155438720703125,-1.1392301321029663,0.4477510452270508,-1.756262183189392
1789323485280289800,3.174289794921875,-1.1025793552398682,0.22723518311977386,-1.756262183189392
1789323485299140900,3.193140869140625,-1.138619303703308,0.015271181240677834,-1.7409909963607788
1789323485317991700,3.21199169921875,-1.1166287660598755,-0.25472331047058105,-1.8381158113479614
1789323485336842800,3.2308427734375,-1.1001359224319458,-0.4306473135948181,-1.9016438722610474
1789323485355693800,3.24969384765625,-1.035386085510254,-0.42453885078430176,-1.9437923431396484
1789323485374544600,3.268544677734375,-0.8472451567649841,-0.4343124032020569,-2.0073204040527344
1789323485393395700,3.287395751953125,-0.6218425035476685,-0.527161180973053,-2.0305325984954834
1789323485412246800,3.306246826171875,-0.43797749280929565,-0.6163448691368103,-1.9731130599975586
1789323485431097900,3.325097900390625,-0.2870981991291046,-0.7275190949440002,-1.8753774166107178
1789323485449949000,3.343948974609375,-0.1044548824429512,-0.6713211536407471,-1.8087950944900513
1789323485468799700,3.3627998046875,0.03787253051996231,-0.43981003761291504,-1.6566941738128662
1789323485487650800,3.38165087890625,0.1459924876689911,-0.2742704153060913,-1.414798617362976
1789323485506502000,3.400501953125,0.24678228795528412,-0.15943112969398499,-1.1593880653381348
1789323485525353000,3.41935302734375,0.2730487287044525,-0.09284878522157669,-1.0720369815826416
1789323485544203800,3.438203857421875,0.28037887811660767,-0.2211267054080963,-0.975523054599762
1789323485563054800,3.457054931640625,0.32130566239356995,-0.21990501880645752,-0.70308518409729
1789323485581906000,3.475906005859375,0.3518480062484741,-0.10078980028629303,-0.2510582208633423
1789323485600757000,3.494757080078125,0.3268032968044281,0.14965757727622986,0.20524467527866364
1789323485619608000,3.513608154296875,0.34696123003959656,0.05497625470161438,0.5906893014907837
1789323485638459100,3.532459228515625,0.29442837834358215,0.006719320081174374,0.9327637553215027
1789323485657310000,3.55131005859375,0.21379654109477997,0.021990500390529633,1.1215155124664307
1789323485676161000,3.5701611328125,0.17653486132621765,0.25350162386894226,1.1899304389953613
1789323485695012000,3.58901220703125,0.1692046970129013,0.4587462842464447,1.161220669746399
1789323485713863200,3.60786328125,0.129499614238739,0.6175665855407715,1.0408837795257568
1789323485732714200,3.62671435546875,0.08796200156211853,0.5638120174407959,0.8912261724472046
1789323485751565300,3.6455654296875,0.06413896381855011,0.37444937229156494,0.841747522354126
1789323485770416400,3.66441650390625,0.1050657257437706,0.2345653474330902,1.0042328834533691
1789323485789267200,3.68326708984375,0.16615045070648193,0.14110571146011353,1.2070342302322388
1789323485808118300,3.7021181640625,0.30847787857055664,0.034818295389413834,1.3127107620239258
1789323485826969300,3.72096923828125,0.3701734244823456,0.04581354558467865,1.3139324188232422
1789323485845820400,3.7398203125,0.390942245721817,0.09651386737823486,1.2589561939239502
1789323485864671500,3.75867138671875,0.4886777997016907,0.07146912813186646,1.276059865951538
1789323485883522600,3.7775224609375,0.6371136903762817,-0.07391251623630524,1.3952515125274658
1789323485902373600,3.79637353515625,0.7159129977226257,-0.258999228477478,1.4960412979125977
1789323485921224700,3.815224609375,0.6707102656364441,-0.4227063059806824,1.5161992311477661
1789323485940075500,3.834075439453125,0.4960079789161682,-0.5033381581306458,1.4679423570632935
1789323485958926600,3.852926513671875,0.43614494800567627,-0.4312581717967987,1.4160202741622925
1789323485977777700,3.871777587890625,0.4819584786891937,-0.40132665634155273,1.4917653799057007
1789323485996628700,3.890628662109375,0.5638120174407959,-0.5467082858085632,1.7183897495269775
1789323486015479800,3.909479736328125,0.7324058413505554,-0.8991671800613403,1.9737238883972168
1789323486034331000,3.928330810546875,0.7947123050689697,-1.3230952024459839,2.070237636566162
1789323486053182000,3.947181884765625,0.6548282504081726,-1.6719653606414795,1.9187475442886353
1789323486072033000,3.966032958984375,0.5467082858085632,-1.405635952949524,1.5705646276474
1789323486090884000,3.984884033203125,0.6035171151161194,-0.7342383861541748,1.475272536277771
1789323486109735200,4.003735107421875,0.7519529461860657,-0.2742704153060913,1.3488271236419678
1789323486128586200,4.022586181640625,0.7739434838294983,0.13316470384597778,1.1257915496826172
1789323486147437300,4.041437255859375,0.6004628539085388,0.2492256760597229,0.869235634803772
1789323486166288400,4.060288330078125,0.42637139558792114,0.3151971995830536,0.5858024954795837
1789323486185139500,4.079139404296875,0.4037700295448303,0.5204418897628784,0.40193748474121094
1789323486203990500,4.097990478515625,0.49417543411254883,0.6212316751480103,0.18997350335121155
1789323486222841600,4.116841552734375,0.4422534108161926,0.34512871503829956,-0.029320668429136276
1789323486241692700,4.135692626953125,0.2779355049133301,0.2620534598827362,-0.24006296694278717
1789323486260543700,4.154543701171875,0.08429691940546036,0.30786702036857605,-0.499673068523407
1789323486279394800,4.173394775390625,-0.07146912813186646,0.48806697130203247,-0.8038749694824219
1789323486298246000,4.192245849609375,-0.21685077250003815,0.7116370797157288,-1.1349542140960693
1789323486317097000,4.211096923828125,-0.38666632771492004,0.9657495021820068,-1.410522699356079
1789323486335948000,4.229947998046875,-0.5338805317878723,1.188708782196045,-1.5919443368911743
1789323486373650200,4.267650146484375,-0.7061394453048706,1.0335536003112793,-1.7721441984176636
1789323486420778000,4.314778076171875,-1.0708152055740356,0.6468872427940369,-1.9608960151672363
1789323486439629000,4.333629150390625,-1.2052016258239746,0.3823903799057007,-1.945624828338623
1789323486467905500,4.361905517578125,-1.3096565008163452,0.284654825925827,-1.9028655290603638
1789323486486756600,4.380756591796875,-1.296217918395996,0.18875180184841156,-1.9303536415100098
1789323486505607700,4.399607666015625,-1.266897201538086,-0.061084724962711334,-1.941348910331726
1789323486543310000,4.43731005859375,-0.9370396733283997,-0.37261682748794556,-2.0561883449554443
1789323486599863300,4.49386328125,-0.337798535823822,-0.5766398310661316,-1.8979787826538086
1789323486618714400,4.51271435546875,-0.1692046970129013,-0.37078428268432617,-1.6805171966552734
1789323486750672100,4.644672119140625,0.21440738439559937,0.11178504675626755,0.6560499668121338
1789323486901481000,4.79548095703125,0.09040539711713791,0.21440738439559937,1.3903647661209106
1789323486939183000,4.83318310546875,0.2858765125274658,0.1435490995645523,1.5992745161056519
1789323486958034200,4.8520341796875,0.34879377484321594,0.1185043677687645,1.6670784950256348
1789323486976885200,4.87088525390625,0.446529358625412,0.056808795779943466,1.6970100402832031
1789323486995736600,4.889736572265625,0.5766398310661316,-0.04581354558467865,1.6945666074752808
1789323487014587600,4.908587646484375,0.6719319820404053,-0.23823043704032898,1.7293848991394043
1789323487033438700,4.927438720703125,0.6554391384124756,-0.32130566239356995,1.7953563928604126
1789323487052289800,4.946289794921875,0.5717530250549316,-0.30969956517219543,1.857051968574524
1789323487071141000,4.96514111328125,0.5418215394020081,-0.3542914092540741,1.8533869981765747
1789323487089992200,4.9839921875,0.5931326746940613,-0.3762819170951843,1.8454458713531494
1789323487108843300,5.00284326171875,0.5980194807052612,-0.5949652194976807,1.8973679542541504
1789323487127694300,5.0216943359375,0.45202696323394775,-1.138619303703308,1.9902167320251465
1789323487146545400,5.04054541015625,0.27915719151496887,-1.3078240156173706,1.7391585111618042
1789323487165396700,5.059396728515625,0.4575245976448059,-0.6878139972686768,1.49848473072052
1789323487184247800,5.078247802734375,0.5955760478973389,-0.3775036036968231,1.4868786334991455
1789323487203099000,5.097098876953125,0.5686988234519958,-0.32069480419158936,1.1581664085388184
1789323487221950000,5.115949951171875,0.41354358196258545,-0.3151971995830536,0.8777875304222107
1789323487240801300,5.13480126953125,0.2492256760597229,-0.1453816443681717,0.7207997441291809
1789323487259652400,5.15365234375,0.1960819661617279,0.08918370306491852,0.5491516590118408
1789323487278503400,5.17250341796875,0.2626643180847168,0.12461283802986145,0.33535513281822205
1789323487297354500,5.1913544921875,0.265718549489975,0.12400199472904205,0.07146912813186646
1789323487316205800,5.210205810546875,0.1185043677687645,0.20707722008228302,-0.12644538283348083
1789323487335057000,5.229056884765625,-0.033596597611904144,0.34757208824157715,-0.3817795515060425
1789323487353908000,5.247907958984375,-0.1050657257437706,0.518609344959259,-0.7110261917114258
1789323487372759300,5.26675927734375,-0.20096874237060547,0.7348492741584778,-1.0103414058685303
1789323487391610400,5.2856103515625,-0.38727715611457825,0.8026533126831055,-1.2174185514450073
1789323487410461400,5.30446142578125,-0.47951510548591614,0.8234221339225769,-1.4502277374267578
1789323487429312500,5.3233125,-0.5528167486190796,0.9327637553215027,-1.618821620941162
1789323487448163800,5.342163818359375,-0.6548282504081726,0.8356390595436096,-1.7251089811325073
1789323487467015000,5.361014892578125,-0.7696675658226013,0.7995990514755249,-1.8417809009552002
1789323487485866000,5.379865966796875,-0.9596410393714905,0.7275190949440002,-1.9816648960113525
1789323487504717300,5.39871728515625,-1.1410627365112305,0.5375455617904663,-2.0109856128692627
1789323487523568400,5.417568359375,-1.2149752378463745,0.26632940769195557,-2.011596441268921
1789323487542419500,5.43641943359375,-1.220472812652588,0.007941014133393764,-1.9938818216323853
1789323487561270800,5.455270751953125,-1.119683027267456,-0.2596100866794586,-2.098947525024414
1789323487580121900,5.474121826171875,-0.9920159578323364,-0.47768256068229675,-2.2736499309539795
1789323487598973000,5.492972900390625,-0.8704573512077332,-0.6096255779266357,-2.2486050128936768
1789323487617824000,5.511823974609375,-0.7275190949440002,-0.5070032477378845,-2.112997055053711
1789323487636675300,5.53067529296875,-0.4679090082645416,-0.46546560525894165,-2.0732920169830322
1789323487655526400,5.5495263671875,-0.2608317732810974,-0.499673068523407,-2.035419464111328
1789323487674377700,5.568377685546875,-0.15271180868148804,-0.4599680006504059,-1.9187475442886353
1789323487693228800,5.587228759765625,-0.03176405653357506,-0.41171106696128845,-1.6896798610687256
1789323487712080000,5.606079833984375,0.1301104724407196,-0.3151971995830536,-1.4264047145843506
1789323487730931200,5.62493115234375,0.21318569779396057,-0.2754921019077301,-1.1123528480529785
1789323487749782300,5.6437822265625,0.23884128034114838,-0.20585553348064423,-0.6988092660903931
1789323487768633300,5.66263330078125,0.19241689145565033,-0.0397050715982914,-0.20280128717422485
1789323487787484700,5.681484619140625,0.14965757727622986,-0.012216945178806782,0.288930743932724
1789323487806335700,5.700335693359375,0.16431790590286255,-0.0794101431965828,0.7379034757614136
1789323487825186800,5.719186767578125,0.21685077250003815,0.022601349279284477,1.0072871446609497
1789323487844038100,5.7380380859375,0.2901524603366852,0.18081079423427582,1.1343433856964111
1789323487862889200,5.75688916015625,0.3176405727863312,0.3671191930770874,1.2284138202667236
1789323487881740500,5.775740478515625,0.2742704153060913,0.3530697226524353,1.3041589260101318
1789323487900591600,5.794591552734375,0.19913621246814728,0.2223484069108963,1.2522368431091309
1789323487919442700,5.813442626953125,0.14782503247261047,-0.033596597611904144,1.1960389614105225
1789323487938294000,5.8322939453125,0.18019993603229523,-0.01588202826678753,1.2546802759170532
1789323487957145000,5.85114501953125,0.2987042963504791,0.08368607610464096,1.4154094457626343
1789323487975996200,5.86999609375,0.444085955619812,0.18081079423427582,1.5589585304260254
1789323487994847500,5.888847412109375,0.5796940326690674,0.17348061501979828,1.6579158306121826
1789323488013698600,5.907698486328125,0.7116370797157288,0.06719319522380829,1.7018967866897583
1789323488032550000,5.9265498046875,0.8228112459182739,-0.13438639044761658,1.7135028839111328
1789323488051401000,5.94540087890625,0.8753440976142883,-0.32130566239356995,1.7275524139404297
1789323488070252300,5.964252197265625,0.8753440976142883,-0.37078428268432617,1.7080053091049194
1789323488089103400,5.983103271484375,0.8961129188537598,-0.28160059452056885,1.7202222347259521
1789323488107954400,6.001954345703125,0.9058864712715149,-0.42698222398757935,1.8533869981765747
1789323488126805800,6.0208056640625,0.8478559851646423,-0.7971556782722473,2.0109856128692627
1789323488145656800,6.03965673828125,0.7250757217407227,-1.427626371383667,2.0372519493103027
1789323488164508200,6.058508056640625,0.5638120174407959,-1.640201210975647,1.8411699533462524
1789323488183359200,6.077359130859375,0.5112791657447815,-1.0384403467178345,1.4789376258850098
1789323488202210600,6.09621044921875,0.4966188073158264,-0.5864133834838867,1.4343457221984863
1789323488221061600,6.1150615234375,0.4825693368911743,-0.6224533319473267,1.266897201538086
1789323488239912700,6.13391259765625,0.4575245976448059,-0.45080527663230896,0.966971218585968
1789323488258764000,6.152763916015625,0.3830012381076813,-0.2229592502117157,0.684148907661438
1789323488277615000,6.171614990234375,0.3023693859577179,0.06780404597520828,0.5008947253227234
1789323488296466400,6.190466552734375,0.2522799074649811,0.14782503247261047,0.4074351191520691
1789323488315317500,6.2093173828125,0.2235700935125351,0.22906772792339325,0.258999228477478
1789323488334168800,6.2281689453125,0.16431790590286255,0.291374146938324,0.026877280324697495
1789323488353020000,6.24702001953125,0.09345962852239609,0.48989951610565186,-0.25533416867256165
1789323488371871200,6.265871337890625,-0.0397050715982914,0.7458444833755493,-0.5864133834838867
1789323488390722300,6.284722412109375,-0.14843589067459106,0.9614735841751099,-0.9077190160751343
1789323488409573600,6.30357373046875,-0.22051586210727692,1.0243908166885376,-1.2271921634674072
1789323488428424700,6.3224248046875,-0.2907632887363434,1.1355650424957275,-1.5333030223846436
1789323488447276000,6.341276123046875,-0.5167768001556396,1.2180293798446655,-1.7226656675338745
1789323488466127000,6.360127197265625,-0.790436327457428,1.096470832824707,-1.8289530277252197
1789323488484978400,6.378978515625,-1.022558331489563,0.9645278453826904,-1.8582737445831299
1789323488503829500,6.39782958984375,-1.294385313987732,0.8729007244110107,-1.8662147521972656
1789323488522680800,6.416680908203125,-1.340886116027832,0.846023440361023,-1.9602851867675781
1789323488541532000,6.435531982421875,-1.3561573028564453,0.6322268843650818,-2.06412935256958
1789323488560383200,6.45438330078125,-1.3964731693267822,0.2516690790653229,-2.081233024597168
1789323488579234600,6.473234619140625,-1.3616548776626587,0.09468132257461548,-2.1746926307678223
1789323488598085600,6.492085693359375,-1.2693406343460083,0.042759306728839874,-2.240664005279541
1789323488616937000,6.51093701171875,-1.1245697736740112,-0.16004198789596558,-2.1820228099823
1789323488635788000,6.5297880859375,-0.9058864712715149,-0.3775036036968231,-2.118494749069214
1789323488654639000,6.54863916015625,-0.6163448691368103,-0.5296045541763306,-2.124603033065796
1789323488673490400,6.567490478515625,-0.37139514088630676,-0.4569137394428253,-2.1514804363250732
1789323488692341800,6.586341796875,-0.2235700935125351,-0.3384093940258026,-1.9908275604248047
1789323488711192800,6.60519287109375,-0.1313321590423584,-0.1172826737165451,-1.660359263420105
1789323488730044200,6.624044189453125,-0.012827792204916477,-0.037261683493852615,-1.3720393180847168
1789323488748895200,6.642895263671875,0.1056765764951706,-0.11422843486070633,-1.02683424949646
1789323488767746600,6.66174658203125,0.2241809368133545,-0.09590301662683487,-0.46546560525894165
1789323488786597600,6.68059765625,0.3151971995830536,0.08063183724880219,0.0390942245721817
1789323488805449000,6.699448974609375,0.28221142292022705,0.022601349279284477,0.4477510452270508
1789323488824300300,6.71830029296875,0.2345653474330902,-0.07024743407964706,0.786160409450531
1789323488843151400,6.7371513671875,0.2351761907339096,0.1447708010673523,1.0066763162612915
1789323488862002700,6.756002685546875,0.22723518311977386,0.3035911023616791,1.1233481168746948
1789323488880853800,6.774853759765625,0.1704263836145401,0.3646758198738098,1.1685508489608765
1789323488899705000,6.793705078125,0.0794101431965828,0.19119518995285034,1.220472812652588
1789323488918556200,6.81255615234375,0.026877280324697495,0.037261683493852615,1.2949961423873901
1789323488937407500,6.831407470703125,0.0397050715982914,-0.012216945178806782,1.317597508430481
1789323488956258600,6.850258544921875,0.09345962852239609,0.010995250195264816,1.372650146484375
1789323488975110000,6.86910986328125,0.22723518311977386,0.0659715011715889,1.5052039623260498
1789323488993961200,6.887961181640625,0.38422292470932007,0.09834641218185425,1.6334819793701172
1789323489012812300,6.906812255859375,0.5051707029342651,0.14049486815929413,1.6579158306121826
1789323489031663600,6.92566357421875,0.5748072862625122,0.10323318839073181,1.5901117324829102
1789323489050514700,6.9445146484375,0.6151232123374939,-0.07452336698770523,1.6096588373184204
1789323489069366000,6.963365966796875,0.6639909744262695,-0.2767138183116913,1.7367150783538818
1789323489088217300,6.98221728515625,0.7018635272979736,-0.36039987206459045,1.8790425062179565
1789323489107068400,7.001068359375,0.7262973785400391,-0.4086568057537079,1.9779998064041138
1789323489125919700,7.019919677734375,0.7525638341903687,-0.39827242493629456,2.0335869789123535
1789323489144771000,7.03877099609375,0.7379034757614136,-0.5674771070480347,2.0946714878082275
1789323489163622100,7.0576220703125,0.6639909744262695,-1.1410627365112305,2.0800113677978516
1789323489182473500,7.076473388671875,0.6273401379585266,-1.395862340927124,1.9957143068313599
1789323489201324500,7.095324462890625,0.624896764755249,-1.0476030111312866,1.761759877204895
1789323489220176000,7.11417578125,0.6071822047233582,-0.8527427911758423,1.6298168897628784
1789323489239027200,7.133027099609375,0.40987852215766907,-0.9101623892784119,1.5467416048049927
1789323489257878300,7.151878173828125,0.261442631483078,-0.6444438695907593,1.2504043579101562
1789323489276729600,7.1707294921875,0.14843589067459106,-0.24617144465446472,0.8399149775505066
1789323489295580700,7.18958056640625,0.10689827054738998,0.1325538605451584,0.5644228458404541
1789323489314432000,7.208431884765625,0.1313321590423584,0.29687178134918213,0.3243598937988281
1789323489333283300,7.227283447265625,0.183865025639534,0.3787252902984619,-0.004886778071522713
1789323489352134400,7.246134521484375,0.1441599577665329,0.37567105889320374,-0.33352261781692505
1789323489370985700,7.26498583984375,0.03176405653357506,0.37261682748794556,-0.6444438695907593
1789323489389837000,7.283837158203125,-0.07146912813186646,0.4563029110431671,-0.9284878373146057
1789323489408688000,7.302688232421875,-0.16248537600040436,0.601073682308197,-1.1520578861236572
1789323489427539500,7.32153955078125,-0.29503923654556274,0.813648521900177,-1.4135769605636597
1789323489446390800,7.340390869140625,-0.4868452548980713,0.9590302109718323,-1.6493639945983887
1789323489465241900,7.359241943359375,-0.6621584296226501,0.911384105682373,-1.831396460533142
1789323489484093200,7.37809326171875,-0.8869501948356628,0.9382613897323608,-1.9059197902679443
1789323489502944500,7.396944580078125,-1.1667182445526123,1.0103414058685303,-1.963950276374817
1789323489521795600,7.415795654296875,-1.2595670223236084,0.9675820469856262,-2.054966449737549
1789323489540647000,7.43464697265625,-1.3457728624343872,0.5796940326690674,-2.1319332122802734
1789323489559498200,7.453498291015625,-1.3903647661209106,0.042759306728839874,-2.217451810836792
1789323489578349300,7.472349365234375,-1.3372210264205933,-0.1429382562637329,-2.306635618209839
1789323489597200600,7.49120068359375,-1.1202938556671143,-0.3646758198738098,-2.4477412700653076
1789323489616052000,7.510052001953125,-0.8222004175186157,-0.4074351191520691,-2.5259296894073486
1789323489634903000,7.528903076171875,-0.5540384650230408,-0.40010493993759155,-2.555861234664917
1789323489653754400,7.54775439453125,-0.34573954343795776,-0.4837910234928131,-2.5448660850524902
1789323489672605700,7.566605712890625,-0.25411245226860046,-0.4581354558467865,-2.3610010147094727
1789323489691456800,7.585456787109375,-0.13621893525123596,-0.4318690001964569,-1.9822757244110107
1789323489710308000,7.60430810546875,0.12033691257238388,-0.36039987206459045,-1.5650670528411865
1789323489729159400,7.623159423828125,0.3573456406593323,-0.22662433981895447,-1.1508362293243408
1789323489748010800,7.6420107421875,0.5076140761375427,-0.07085828483104706,-0.7134696245193481
1789323489776287500,7.67028759765625,0.4709632396697998,-0.08735115826129913,-0.18630841374397278
1789323489795138800,7.689138916015625,0.4196520745754242,-0.1850867122411728,0.15454435348510742
1789323489813990000,7.707989990234375,0.4453076422214508,-0.14721418917179108,0.518609344959259
1789323489832841200,7.72684130859375,0.46485477685928345,-0.010995250195264816,0.7934905886650085
1789323489851692500,7.745692626953125,0.4752391576766968,0.1588202863931656,0.938872218132019
1789323489870544000,7.7645439453125,0.4080459773540497,0.22540263831615448,0.9571976661682129
1789323489889395000,7.78339501953125,0.2730487287044525,0.10017894953489304,0.971247136592865
1789323489908246300,7.802246337890625,0.13866232335567474,0.08002099394798279,1.115407109260559
1789323489927097600,7.82109765625,0.10140064358711243,0.1185043677687645,1.285833477973938
1789323489945948700,7.83994873046875,0.13316470384597778,0.183865025639534,1.385477900505066
1789323489964800000,7.858800048828125,0.13805148005485535,0.18753011524677277,1.507036566734314
1789323489983651300,7.8776513671875,0.1453816443681717,0.1563768982887268,1.7525970935821533
1789323490002502400,7.89650244140625,0.22662433981895447,0.0916270911693573,1.9297428131103516
1789323490021353700,7.915353759765625,0.38788801431655884,-0.047646086663007736,1.9993793964385986
1789323490040205000,7.934205078125,0.5919110178947449,-0.09651386737823486,2.0274784564971924
1789323490059056400,7.953056396484375,0.7091936469078064,-0.14843589067459106,2.0274784564971924
1789323490077907700,7.97190771484375,0.7085828185081482,-0.24250635504722595,1.9676153659820557
1789323490096758800,7.9907587890625,0.5668662786483765,-0.2223484069108963,1.899200439453125
1789323490115610000,8.009610107421874,0.4569137394428253,-0.2638860046863556,1.9059197902679443
1789323490134461400,8.02846142578125,0.4618005156517029,-0.5515950918197632,1.9981577396392822
1789323490153312800,8.047312744140624,0.4966188073158264,-0.8038749694824219,2.0427496433258057
1789323490172163800,8.066163818359374,0.46485477685928345,-1.221083641052246,1.9346296787261963
1789323490191015200,8.08501513671875,0.45202696323394775,-1.0506572723388672,1.7678682804107666
1789323490209866500,8.103866455078125,0.49417543411254883,-0.4886777997016907,1.580949068069458
1789323490228717800,8.1227177734375,0.573585569858551,-0.3787252902984619,1.3506596088409424
1789323490247569000,8.14156884765625,0.4947862923145294,-0.4886777997016907,1.09219491481781
1789323490266420200,8.160420166015625,0.3396310806274414,-0.33169007301330566,0.8472451567649841
1789323490285271600,8.179271484375,0.13866232335567474,-0.18875180184841156,0.5729747414588928
1789323490304123000,8.198122802734375,0.03542914241552353,0.006719320081174374,0.29320669174194336
1789323490322974000,8.216973876953125,0.028098974376916885,0.08551861345767975,0.05925218388438225
1789323490341825300,8.2358251953125,-0.009773556143045425,0.27854636311531067,-0.22540263831615448
1789323490360676600,8.254676513671875,-0.10323318839073181,0.5632011890411377,-0.5601469278335571
1789323490379528000,8.27352783203125,-0.19302773475646973,0.9272661209106445,-0.8845068216323853
1789323490398379000,8.29237890625,-0.26632940769195557,1.0091196298599243,-1.1190721988677979
1789323490417230300,8.311230224609375,-0.3017585575580597,1.012784719467163,-1.332257866859436
1789323490436081700,8.33008154296875,-0.3817795515060425,0.9749122262001038,-1.5742297172546387
1789323490454933000,8.34893310546875,-0.5772506594657898,0.8295305967330933,-1.8014649152755737
1789323490473784300,8.367784423828125,-0.8655705451965332,0.7226322889328003,-1.8601062297821045
1789323490492635400,8.386635498046875,-1.1160179376602173,0.6255075931549072,-1.8564411401748657
1789323490511486700,8.40548681640625,-1.1948171854019165,0.707361102104187,-1.961506962776184
1789323490530338000,8.424338134765625,-1.22963547706604,0.6383354067802429,-2.0910065174102783
1789323490549189400,8.443189453125,-1.3011046648025513,0.4477510452270508,-2.0739028453826904
1789323490568040400,8.46204052734375,-1.2907202243804932,0.1832541823387146,-2.1960723400115967
1789323490586891800,8.480891845703125,-1.2106993198394775,-0.13560809195041656,-2.315798282623291
1789323490605743000,8.4997431640625,-1.0940274000167847,-0.21623992919921875,-2.4153664112091064
1789323490624594400,8.518594482421875,-0.9242119193077087,-0.3292466700077057,-2.3866565227508545
1789323490643445500,8.537445556640625,-0.6694886088371277,-0.32374903559684753,-2.2266147136688232
1789323490662296800,8.556296875,-0.45019441843032837,-0.26938363909721375,-1.9755563735961914
1789323490681148200,8.575148193359375,-0.2632751762866974,-0.2339545041322708,-1.6854039430618286
1789323490699999500,8.59399951171875,-0.09040539711713791,-0.06047387793660164,-1.3720393180847168
1789323490718850800,8.612850830078125,0.05619794875383377,0.23212195932865143,-1.0537115335464478
1789323490737702000,8.631701904296875,0.06413896381855011,0.34879377484321594,-0.7733326554298401
1789323490756553200,8.65055322265625,0.012216945178806782,0.21685077250003815,-0.49112120270729065
1789323490775404500,8.669404541015625,0.036039989441633224,0.10995250940322876,-0.21379654109477997
1789323490794256000,8.688255859375,0.15026842057704926,-0.029320668429136276,0.03787253051996231
1789323490813107000,8.70710693359375,0.237008735537529,-0.22051586210727692,0.2987042963504791
1789323490831958300,8.725958251953125,0.3115321099758148,-0.37261682748794556,0.522885262966156
1789323490850809600,8.7448095703125,0.3640649616718292,-0.314586341381073,0.7409577369689941
1789323490869661000,8.763660888671875,0.367730051279068,-0.10750912129878998,0.8576295375823975
1789323490888512300,8.78251220703125,0.288930743932724,0.10750912129878998,0.8796200752258301
1789323490907363600,8.801363525390625,0.1698155403137207,0.21807247400283813,0.9962918758392334
1789323490926214700,8.820214599609375,0.07635590434074402,0.14660334587097168,1.2168077230453491
1789323490945066000,8.83906591796875,0.08124268800020218,-0.025655584409832954,1.368374228477478
1789323490963917300,8.857917236328126,0.17836740612983704,-0.055587101727724075,1.3818128108978271
1789323490982768600,8.8767685546875,0.2638860046863556,-0.033596597611904144,1.381201982498169
1789323491001619700,8.89561962890625,0.31947311758995056,-0.10384403169155121,1.4813809394836426
1789323491020471000,8.914470947265626,0.42392799258232117,-0.18569757044315338,1.6114914417266846
1789323491039322400,8.933322265625,0.5809157490730286,-0.21562908589839935,1.729995846748352
1789323491058173700,8.952173583984376,0.6890357136726379,-0.19119518995285034,1.8271205425262451
1789323491077025000,8.97102490234375,0.707361102104187,-0.24006296694278717,1.9077523946762085
1789323491095876400,8.98987646484375,0.6823163628578186,-0.31886225938796997,1.9059197902679443
1789323491114727400,9.0087275390625,0.6328377723693848,-0.291374146938324,1.853997826576233
1789323491133578800,9.027578857421876,0.6120689511299133,-0.23090025782585144,1.852776050567627
1789323491152430000,9.04643017578125,0.5607577562332153,-0.5302154421806335,1.9694479703903198
1789323491171281400,9.065281494140624,0.4844018816947937,-1.1270132064819336,1.9957143068313599
1789323491190132700,9.0841328125,0.5900784730911255,-1.1679399013519287,1.7782527208328247
1789323491208983800,9.10298388671875,0.790436327457428,-0.5803049206733704,1.6224867105484009
1789323491227835100,9.121835205078124,0.7855495810508728,-0.2730487287044525,1.4398432970046997
1789323491246686500,9.1406865234375,0.7232431769371033,-0.27121618390083313,1.222305417060852
1789323491265537800,9.159537841796874,0.5864133834838867,-0.3811686933040619,1.2082558870315552
1789323491284389000,9.17838916015625,0.5033381581306458,-0.3536805510520935,0.9914051294326782
1789323491303240400,9.197240478515624,0.38727715611457825,-0.17836740612983704,0.5265503525733948
1789323491322091500,9.216091552734374,0.19363857805728912,-0.08490777015686035,0.1435490995645523
1789323491340942800,9.23494287109375,0.01832541823387146,0.1044548824429512,-0.026877280324697495
1789323491359794200,9.253794189453124,-0.030542362481355667,0.2730487287044525,-0.22540263831615448
1789323491378645500,9.2726455078125,-0.034818295389413834,0.4282039403915405,-0.444085955619812
1789323491397496800,9.291496826171874,-0.08307522535324097,0.5858024954795837,-0.7116370797157288
1789323491416348200,9.31034814453125,-0.17958909273147583,0.6963658928871155,-1.0005677938461304
1789323491435199200,9.32919921875,-0.28160059452056885,0.8167027831077576,-1.2919420003890991
1789323491454050600,9.348050537109375,-0.420873761177063,0.8667922616004944,-1.4978737831115723
1789323491472902000,9.36690185546875,-0.573585569858551,0.860683798789978,-1.6285951137542725
1789323491491753200,9.385753173828125,-0.7488987445831299,0.8661814332008362,-1.7971889972686768
1789323491510604500,9.4046044921875,-0.9938485026359558,0.9345963001251221,-1.970058798789978
1789323491529455900,9.423455810546875,-1.1465603113174438,0.832584798336029,-2.054966449737549
1789323491548307000,9.442306884765625,-1.2479609251022339,0.624285876750946,-2.089784860610962
1789323491567158300,9.461158203125,-1.3151541948318481,0.3695625960826874,-2.139263391494751
1789323491586009600,9.480009521484375,-1.2919420003890991,0.1979145109653473,-2.2760932445526123
1789323491604861000,9.49886083984375,-1.2357439994812012,0.061084724962711334,-2.246772527694702
1789323491633138000,9.527137939453125,-1.032942771911621,-0.08246438205242157,-2.1441502571105957
1789323491651989000,9.545989013671875,-0.8875610828399658,-0.2363978922367096,-2.061685800552368
1789323491670840300,9.56484033203125,-0.7262973785400391,-0.31947311758995056,-1.946846604347229
1789323491689691600,9.583691650390625,-0.5717530250549316,-0.3151971995830536,-1.7800853252410889
1789323491708543000,9.60254296875,-0.41354358196258545,-0.2779355049133301,-1.5320812463760376
1789323491727394300,9.621394287109375,-0.183865025639534,-0.14965757727622986,-1.2412415742874146
1789323491746245600,9.64024560546875,0.0012216945178806782,-0.0030542362947016954,-0.9315420985221863
1789323491765096700,9.6590966796875,0.047646086663007736,0.09468132257461548,-0.6872031688690186
1789323491783948000,9.677947998046875,0.021990500390529633,0.0397050715982914,-0.469741553068161
1789323491802799400,9.69679931640625,0.053143709897994995,-0.012827792204916477,-0.17409147322177887
1789323491821650700,9.715650634765625,0.15087927877902985,-0.004886778071522713,0.12766708433628082
1789323491840502000,9.734501953125,0.23028941452503204,-0.013438640162348747,0.34879377484321594
1789323491859353300,9.753353271484375,0.2773246467113495,-0.11361759155988693,0.554649293422699
1789323491878204400,9.772204345703125,0.3017585575580597,-0.10995250940322876,0.7598940134048462
1789323491897055700,9.7910556640625,0.28221142292022705,-0.10384403169155121,0.9003888368606567
1789323491915907000,9.809906982421875,0.2638860046863556,-0.12155860662460327,0.9694145917892456
1789323491934758400,9.82875830078125,0.22906772792339325,0.11300674080848694,1.0579874515533447
1789323491953609700,9.847609619140625,0.16492876410484314,0.15026842057704926,1.1722159385681152
1789323491972461000,9.8664609375,0.12155860662460327,0.15087927877902985,1.2613996267318726
1789323491991312400,9.8853125,0.15943112969398499,0.045202698558568954,1.3952515125274658
1789323492010163500,9.90416357421875,0.24372805655002594,0.0006108472589403391,1.585224986076355
1789323492029014800,9.923014892578125,0.3762819170951843,-0.09468132257461548,1.7183897495269775
1789323492047866000,9.9418662109375,0.5839699506759644,-0.23273280262947083,1.784972071647644
1789323492076143000,9.97014306640625,0.8399149775505066,-0.3310792148113251,1.84850013256073
1789323492094994400,9.988994384765626,0.8997780084609985,-0.3805578351020813,1.8546086549758911
1789323492113845500,10.007845458984375,0.8667922616004944,-0.4434750974178314,1.8912594318389893
1789323492132696800,10.02669677734375,0.7715001106262207,-0.5876350402832031,1.9725021123886108
1789323492151548200,10.045548095703126,0.679872989654541,-0.8307522535324097,2.0256459712982178
1789323492170399500,10.0643994140625,0.6297835111618042,-1.2192511558532715,2.0415279865264893
1789323492189250800,10.083250732421876,0.6310052275657654,-1.3224843740463257,1.974334716796875
1789323492208102100,10.10210205078125,0.5894675850868225,-0.9834640622138977,1.778863549232483
1789323492226953500,10.120953369140626,0.5686988234519958,-0.7055285573005676,1.6628025770187378
1789323492245804800,10.1398046875,0.6047387719154358,-0.7238540053367615,1.6340928077697754
1789323492264656000,10.15865576171875,0.6597150564193726,-0.5289937257766724,1.409911870956421
1789323492283507200,10.177507080078126,0.5558710098266602,-0.2999260127544403,1.1441168785095215
1789323492302358500,10.196358642578126,0.47829338908195496,-0.14110571146011353,0.7995990514755249
1789323492321209900,10.2152099609375,0.418430358171463,-0.10934165865182877,0.39949411153793335
1789323492340061200,10.234061279296874,0.3243598937988281,-0.009773556143045425,0.07330167293548584
1789323492358912300,10.252912353515624,0.2113531529903412,0.1948602795600891,-0.1588202863931656
1789323492377763600,10.271763671875,0.1954711228609085,0.4453076422214508,-0.3970507085323334
1789323492396615000,10.290614990234374,0.20219044387340546,0.7525638341903687,-0.6646018028259277
1789323492415466200,10.30946630859375,0.16187451779842377,0.856407880783081,-0.9969027042388916
1789323492434317600,10.328317626953124,0.043981000781059265,0.9003888368606567,-1.326149344444275
1789323492453169000,10.3471689453125,-0.18019993603229523,0.9834640622138977,-1.5797274112701416
1789323492472020200,10.366020263671874,-0.42881476879119873,1.0011786222457886,-1.7550405263900757
1789323492490871600,10.38487158203125,-0.6206207871437073,0.9797990322113037,-1.91386079788208
1789323492509722600,10.40372265625,-0.8289197087287903,0.9797990322113037,-2.049468994140625
1789323492528574000,10.422573974609374,-1.0579874515533447,0.916270911693573,-2.168584108352661
1789323492547425300,10.44142529296875,-1.1642749309539795,0.7641699314117432,-2.2883102893829346
1789323492566276600,10.460276611328124,-1.2522368431091309,0.4819584786891937,-2.232112169265747
1789323492585128000,10.4791279296875,-1.2607887983322144,0.2345653474330902,-2.3426756858825684
1789323492603979300,10.497979248046875,-1.165496587753296,-0.02993151545524597,-2.4153664112091064
1789323492622830300,10.516830322265625,-0.966971218585968,-0.2596100866794586,-2.511880397796631
1789323492641681700,10.535681640625,-0.7317950129508972,-0.2987042963504791,-2.5711324214935303
1789323492660533000,10.554532958984375,-0.5082249045372009,-0.3139754831790924,-2.549752712249756
1789323492679384300,10.57338427734375,-0.3384093940258026,-0.3542914092540741,-2.431859254837036
1789323492698235600,10.592235595703125,-0.20280128717422485,-0.3115321099758148,-2.2357773780822754
1789323492717087000,10.6110869140625,-0.04153761267662048,-0.16309621930122375,-1.8827075958251953
1789323492735938000,10.62993798828125,0.15332266688346863,-0.038483377546072006,-1.4630554914474487
1789323492754789400,10.648789306640625,0.2736595869064331,0.1301104724407196,-1.0005677938461304
1789323492773640700,10.667640625,0.24556060135364532,0.2089097648859024,-0.517998456954956
1789323492792492000,10.686491943359375,0.183865025639534,0.12827792763710022,-0.11545012891292572
1789323492811343400,10.70534326171875,0.20463383197784424,-0.10323318839073181,0.21746163070201874
1789323492830194700,10.724194580078125,0.31092125177383423,-0.031153209507465363,0.5088357925415039
1789323492849046000,10.7430458984375,0.4074351191520691,0.08551861345767975,0.7012526392936707
1789323492867897000,10.76189697265625,0.4471401870250702,0.12216944992542267,0.841747522354126
1789323492886748400,10.78074853515625,0.42392799258232117,0.13438639044761658,0.9914051294326782
1789323492905599700,10.799599853515625,0.3396310806274414,-0.0018325417768210173,1.064706802368164
1789323492924451000,10.818451171875,0.20707722008228302,-0.15454435348510742,1.1355650424957275
1789323492943302400,10.837302490234375,0.12888877093791962,-0.02993151545524597,1.2082558870315552
1789323492962153500,10.856153564453125,0.09956810623407364,0.14904673397541046,1.2736165523529053
1789323492981004800,10.8750048828125,0.09529217332601547,0.25655585527420044,1.3720393180847168
1789323492999856000,10.893856201171875,0.08307522535324097,0.24433889985084534,1.540633201599121
1789323493018707500,10.91270751953125,0.15332266688346863,0.1979145109653473,1.6670784950256348
1789323493037558800,10.931558837890625,0.29442837834358215,0.14171656966209412,1.6945666074752808
1789323493056410000,10.95041015625,0.46363306045532227,0.08918370306491852,1.6933449506759644
1789323493075261200,10.96926123046875,0.5644228458404541,-0.04459185153245926,1.7648141384124756
1789323493094112500,10.988112548828125,0.6047387719154358,-0.20035789906978607,1.890648603439331
1789323493112963800,11.0069638671875,0.601073682308197,-0.24189551174640656,1.9108065366744995
1789323493131815200,11.025815185546875,0.5760289430618286,-0.2608317732810974,1.8552194833755493
1789323493150666500,11.04466650390625,0.5858024954795837,-0.24250635504722595,1.7916914224624634
1789323493169517600,11.063517578125,0.6395570635795593,-0.26694026589393616,1.7721441984176636
1789323493207220200,11.10122021484375,0.633448600769043,-0.5210527181625366,1.7721441984176636
1789323493226071600,11.120071533203125,0.3958290219306946,-0.8448017835617065,1.7025076150894165
1789323493244922600,11.138922607421875,0.33230090141296387,-0.7464553713798523,1.4960412979125977
1789323493263774000,11.15777392578125,0.46668729186058044,-0.42698222398757935,1.405635952949524
1789323493282625300,11.176625244140626,0.4190412163734436,-0.3414636254310608,1.1190721988677979
1789323493301476600,11.1954765625,0.22784602642059326,-0.3365768492221832,0.7873821258544922
1789323493320328000,11.214327880859376,0.07146912813186646,-0.13560809195041656,0.6639909744262695
1789323493339179300,11.23317919921875,0.023823043331503868,-0.09834641218185425,0.4752391576766968
1789323493358030300,11.2520302734375,0.014660334214568138,-0.07513421028852463,0.05070032179355621
1789323493376881700,11.270881591796876,-0.09956810623407364,0.208298921585083,-0.2858765125274658
1789323493395733000,11.28973291015625,-0.2596100866794586,0.5210527181625366,-0.4294256269931793
1789323493414584300,11.308584228515626,-0.365286648273468,0.7085828185081482,-0.6505523324012756
1789323493433435400,11.327435302734376,-0.42453885078430176,0.8551861643791199,-1.0335536003112793
1789323493452286700,11.34628662109375,-0.5051707029342651,0.9822424054145813,-1.3469945192337036
1789323493471138000,11.365137939453126,-0.6389462351799011,1.0195040702819824,-1.580949068069458
1789323493489989400,11.3839892578125,-0.8154810667037964,0.9651386737823486,-1.7318283319473267
1789323493508840400,11.40284033203125,-1.0940274000167847,1.003622055053711,-1.8558303117752075
1789323493527691800,11.42169189453125,-1.299272060394287,0.9535325765609741,-1.9437923431396484
1789323493546543000,11.440543212890624,-1.437399983406067,0.8478559851646423,-2.01526141166687
1789323493565394400,11.45939453125,-1.4978737831115723,0.4618005156517029,-1.984719157218933
1789323493584245800,11.478245849609374,-1.4673315286636353,0.2852656841278076,-2.1007800102233887
1789323493603096800,11.497096923828124,-1.3763152360916138,0.11178504675626755,-2.1606431007385254
1789323493621948200,11.5159482421875,-1.22963547706604,-0.12522368133068085,-2.122159719467163
1789323493640799500,11.534799560546874,-1.0909732580184937,-0.2492256760597229,-2.150258779525757
1789323493659650600,11.553650634765624,-0.9510892033576965,-0.3805578351020813,-2.211954355239868
1789323493678502000,11.572501953125,-0.7427902817726135,-0.45080527663230896,-2.257767915725708
1789323493697353200,11.591353271484374,-0.5063923597335815,-0.44042086601257324,-2.121548891067505
1789323493716204500,11.61020458984375,-0.26816195249557495,-0.3298575282096863,-1.7495429515838623
1789323493735055600,11.6290556640625,-0.029320668429136276,-0.13316470384597778,-1.3567681312561035
1789323493753907000,11.647906982421874,0.06047387793660164,0.04092676565051079,-0.9840749502182007
1789323493772758300,11.66675830078125,0.042759306728839874,0.07207997888326645,-0.6872031688690186
1789323493791609600,11.685609619140624,0.06291726976633072,0.01832541823387146,-0.3897205591201782
1789323493810460700,11.704460693359374,0.16798299551010132,-0.028098974376916885,-0.08368607610464096
1789323493829312000,11.72331201171875,0.2987042963504791,-0.08551861345767975,0.20341213047504425
1789323493848163300,11.742163330078125,0.4214846193790436,-0.11545012891292572,0.469741553068161
1789323493867014400,11.761014404296875,0.47707170248031616,-0.11972606182098389,0.70308518409729
1789323493885865700,11.77986572265625,0.45019441843032837,-0.005497625097632408,0.8845068216323853
1789323493904717000,11.798717041015625,0.34451785683631897,0.007941014133393764,0.9883508682250977
1789323493923568400,11.817568359375,0.2522799074649811,-0.051922015845775604,1.0304993391036987
1789323493942419500,11.83641943359375,0.17286977171897888,0.04581354558467865,1.1068552732467651
1789323493961270800,11.855270751953125,0.13438639044761658,0.08612946420907974,1.2247487306594849
1789323493980122000,11.8741220703125,0.16553960740566254,0.1178935244679451,1.3340904712677002
1789323493998973200,11.89297314453125,0.2602209448814392,0.12216944992542267,1.428848147392273
1789323494017824500,11.911824462890625,0.32374903559684753,-0.0036650835536420345,1.5675103664398193
1789323494036675800,11.93067578125,0.41171106696128845,-0.17897824943065643,1.7825286388397217
1789323494055527000,11.94952685546875,0.6303943991661072,-0.18019993603229523,1.894924521446228
1789323494074378200,11.968378173828125,0.8295305967330933,-0.18081079423427582,1.896146297454834
1789323494093229600,11.9872294921875,0.8441908955574036,-0.2583884000778198,1.8625496625900269
1789323494112081000,12.006080810546875,0.707361102104187,-0.3915531039237976,1.857051968574524
1789323494130932000,12.024931884765625,0.5851916670799255,-0.4679090082645416,1.8613280057907104
1789323494149783300,12.043783203125,0.5796940326690674,-0.33230090141296387,1.8784316778182983
1789323494168634600,12.062634521484375,0.6279509663581848,-0.4349232614040375,1.9346296787261963
1789323494187485700,12.081485595703125,0.6377245187759399,-0.7568397521972656,1.9578418731689453
1789323494206337000,12.1003369140625,0.6230642199516296,-1.1819894313812256,1.8869835138320923
1789323494225188000,12.11918798828125,0.5210527181625366,-1.1019684076309204,1.6841822862625122
1789323494244039400,12.138039306640625,0.5650337338447571,-0.6316160559654236,1.4490060806274414
1789323494262890800,12.156890869140625,0.5595360994338989,-0.4856235682964325,1.3506596088409424
1789323494281742000,12.1757421875,0.4703523814678192,-0.5100574493408203,1.0909732580184937
1789323494300593200,12.19459326171875,0.3268032968044281,-0.34757208824157715,0.7641699314117432
1789323494319444500,12.213444580078125,0.18142163753509521,-0.11545012891292572,0.4477510452270508
1789323494338295600,12.232295654296875,0.08674030750989914,0.007330167107284069,0.2638860046863556
1789323494357147000,12.25114697265625,0.0653606578707695,0.05497625470161438,0.08551861345767975
1789323494375998200,12.269998291015625,0.05986303091049194,0.08124268800020218,-0.15943112969398499
1789323494394849500,12.288849609375,-0.01038440316915512,0.12522368133068085,-0.42881476879119873
1789323494413700600,12.30770068359375,-0.1172826737165451,0.28160059452056885,-0.6462764143943787
1789323494432552000,12.326552001953125,-0.23212195932865143,0.49356457591056824,-0.8576295375823975
1789323494451403000,12.345403076171875,-0.3011476993560791,0.70308518409729,-1.1520578861236572
1789323494470254300,12.36425439453125,-0.36162158846855164,0.8179244995117188,-1.4154094457626343
1789323494489105700,12.383105712890625,-0.45202696323394775,0.9126058220863342,-1.6175998449325562
1789323494507956700,12.401956787109375,-0.6236750483512878,1.0286667346954346,-1.7012859582901
1789323494526808000,12.42080810546875,-0.9022213816642761,1.09219491481781,-1.7244981527328491
1789323494545659400,12.439659423828125,-1.086086392402649,1.0726478099822998,-1.7843612432479858
1789323494564510500,12.458510498046875,-1.1099094152450562,0.9223793745040894,-1.8930920362472534
1789323494583361800,12.47736181640625,-1.1740484237670898,0.6652126908302307,-1.9621177911758423
1789323494602213000,12.496213134765625,-1.1734375953674316,0.25472331047058105,-2.0861196517944336
1789323494621064200,12.515064208984375,-1.1606098413467407,-0.01710372418165207,-2.243718385696411
1789323494639915500,12.53391552734375,-1.1044118404388428,-0.19363857805728912,-2.3487839698791504
1789323494658766600,12.5527666015625,-0.943759024143219,-0.30603447556495667,-2.4569039344787598
1789323494677618000,12.571617919921875,-0.7256865501403809,-0.3573456406593323,-2.45995831489563
1789323494696469200,12.59046923828125,-0.5051707029342651,-0.3280249834060669,-2.362222671508789
1789323494715320300,12.6093203125,-0.35795649886131287,-0.2736595869064331,-2.1429286003112793
1789323494734171600,12.628171630859375,-0.21746163070201874,-0.22601348161697388,-1.7868045568466187
1789323494753023000,12.64702294921875,-0.047646086663007736,-0.0794101431965828,-1.438010811805725
1789323494771874000,12.6658740234375,0.129499614238739,0.014049487188458443,-1.0671501159667969
1789323494790725400,12.684725341796875,0.21501824259757996,0.05741964280605316,-0.6768187880516052
1789323494809576400,12.703576416015625,0.1985253542661667,-0.04214845970273018,-0.3005368411540985
1789323494828427800,12.722427734375,0.1710372269153595,-0.12155860662460327,0.03420744836330414
1789323494847278800,12.74127880859375,0.16370706260204315,-0.28098973631858826,0.2907632887363434
1789323494866130200,12.760130126953126,0.2376195788383484,-0.046424392610788345,0.48012593388557434
1789323494884981500,12.7789814453125,0.291374146938324,0.08674030750989914,0.6407787799835205
1789323494903832600,12.79783251953125,0.3127537965774536,0.1429382562637329,0.758672297000885
1789323494922684000,12.816683837890626,0.2480039894580841,0.17775654792785645,0.8893936276435852
1789323494941535000,12.835534912109376,0.2113531529903412,0.06719319522380829,1.0476030111312866
1789323494960386300,12.85438623046875,0.17775654792785645,0.014049487188458443,1.1312891244888306
1789323494979237400,12.8732373046875,0.12278030067682266,-0.08551861345767975,1.1642749309539795
1789323494998088700,12.892088623046876,0.09468132257461548,-0.03542914241552353,1.2656755447387695
1789323495016940000,12.91093994140625,0.1435490995645523,0.1557660549879074,1.35798978805542
1789323495035791000,12.929791015625,0.18936264514923096,0.3170297145843506,1.4184637069702148
1789323495054642400,12.948642333984376,0.26877278089523315,0.13438639044761658,1.5290271043777466
1789323495073493500,12.967493408203126,0.41110020875930786,0.12644538283348083,1.654861569404602
1789323495092344800,12.9863447265625,0.5100574493408203,0.06963659077882767,1.6945666074752808
1789323495111196000,13.00519580078125,0.5570927262306213,-0.2095206081867218,1.7843612432479858
1789323495130047200,13.024047119140626,0.6181774139404297,-0.47646087408065796,1.9529550075531006
1789323495148898300,13.042898193359376,0.7018635272979736,-0.393385648727417,1.9712804555892944
1789323495167749600,13.06174951171875,0.7623373866081238,-0.24617144465446472,1.899200439453125
1789323495186601000,13.08060107421875,0.7427902817726135,-0.38422292470932007,2.0024337768554688
1789323495205452000,13.0994521484375,0.6047387719154358,-0.790436327457428,2.053133964538574
1789323495224303400,13.118303466796876,0.5607577562332153,-0.9431481957435608,1.8857618570327759
1789323495243154400,13.137154541015626,0.5754181146621704,-0.6725428104400635,1.7061727046966553
1789323495262005800,13.156005859375,0.6163448691368103,-0.418430358171463,1.5235294103622437
1789323495280856800,13.17485693359375,0.5919110178947449,-0.37322768568992615,1.2693406343460083
1789323495299708200,13.193708251953124,0.4752391576766968,-0.3023693859577179,1.031110167503357
1789323495318559500,13.2125595703125,0.2864873707294464,-0.46241137385368347,0.8753440976142883
1789323495337410600,13.23141064453125,0.19119518995285034,-0.3762819170951843,0.5845808386802673
1789323495356261600,13.25026171875,0.1832541823387146,-0.1832541823387146,0.34451785683631897
1789323495375113000,13.269113037109374,0.15210096538066864,-0.06963659077882767,0.16615045070648193
1789323495393964000,13.287964111328124,0.08735115826129913,-0.04703523963689804,-0.05803048983216286
1789323495412815400,13.3068154296875,-0.05619794875383377,0.1563768982887268,-0.3915531039237976
1789323495431666700,13.325666748046874,-0.2223484069108963,0.48012593388557434,-0.6035171151161194
1789323495450517800,13.344517822265624,-0.31947311758995056,0.5937435626983643,-0.7189671993255615
1789323495469369000,13.363369140625,-0.33535513281822205,0.762948215007782,-1.0231691598892212
1789323495488220200,13.38222021484375,-0.37322768568992615,0.9639169573783875,-1.4257938861846924
1789323495507071500,13.401071533203124,-0.5265503525733948,1.0793671607971191,-1.6683002710342407
1789323495525922600,13.419922607421874,-0.7916580438613892,0.9199360013008118,-1.7770310640335083
1789323495544774000,13.43877392578125,-1.0072871446609497,0.846023440361023,-1.8973679542541504
1789323495563625000,13.457625,-1.180156946182251,0.6536065936088562,-2.003044605255127
1789323495582476300,13.476476318359374,-1.4557254314422607,0.3426853120326996,-2.0158722400665283
1789323495601327400,13.495327392578124,-1.5045931339263916,0.034818295389413834,-2.069626808166504
1789323495620178700,13.5141787109375,-1.3120999336242676,0.03665083646774292,-2.174081802368164
1789323495639029800,13.53302978515625,-1.1502254009246826,0.13377554714679718,-2.2125651836395264
1789323495667306500,13.561306396484374,-0.8918370008468628,-0.0922379344701767,-2.3664987087249756
1789323495686157800,13.58015771484375,-0.6994200944900513,-0.3042019307613373,-2.4813380241394043
1789323495705009000,13.5990087890625,-0.4850127100944519,-0.45263782143592834,-2.5057718753814697
1789323495723860200,13.617860107421874,-0.34451785683631897,-0.4056025743484497,-2.180190324783325
1789323495742711300,13.636711181640624,-0.24189551174640656,-0.2907632887363434,-1.6615809202194214
1789323495761562600,13.655562744140624,-0.034818295389413834,-0.12155860662460327,-1.2797249555587769
1789323495780413700,13.67441357421875,0.09834641218185425,-0.00916270911693573,-1.0030112266540527
1789323495799265000,13.69326513671875,0.16126367449760437,0.024433890357613564,-0.7568397521972656
1789323495818116000,13.7121162109375,0.19913621246814728,-0.13499724864959717,-0.418430358171463
1789323495836967400,13.730967529296874,0.29626092314720154,-0.06963659077882767,-0.01588202826678753
1789323495855818500,13.749818603515624,0.4043808877468109,0.0390942245721817,0.27976804971694946
1789323495874669800,13.768669921875,0.4159869849681854,0.022601349279284477,0.4886777997016907
1789323495893521000,13.78752099609375,0.37200596928596497,-0.11667182296514511,0.7201889157295227
1789323495912372000,13.8063720703125,0.2596100866794586,-0.11300674080848694,0.9248227477073669
1789323495931223300,13.825223388671875,0.1185043677687645,-0.11056335270404816,1.0744802951812744
1789323495950074400,13.844074462890624,0.04581354558467865,-0.19058434665203094,1.1398409605026245
1789323495968925700,13.86292578125,0.06658235192298889,-0.017714571207761765,1.1496145725250244
1789323495987776800,13.88177685546875,0.09284878522157669,0.056808795779943466,1.1734375953674316
1789323496006628000,13.900628173828125,0.14965757727622986,0.014660334214568138,1.2418525218963623
1789323496025479200,13.919479248046875,0.21685077250003815,0.12094775587320328,1.3512704372406006
1789323496044330500,13.93833056640625,0.27854636311531067,0.0659715011715889,1.4807701110839844
1789323496063181600,13.957181640625,0.39827242493629456,-0.004275931045413017,1.6383687257766724
1789323496082032600,13.97603271484375,0.5540384650230408,-0.023823043331503868,1.7959673404693604
1789323496100884000,13.994884033203125,0.7495095729827881,-0.16187451779842377,1.8332289457321167
1789323496119735000,14.013735107421875,0.8661814332008362,-0.25655585527420044,1.8387266397476196
1789323496138586400,14.03258642578125,0.7623373866081238,-0.3787252902984619,1.9108065366744995
1789323496157437400,14.0514375,0.6090146899223328,-0.503948986530304,2.029921770095825
1789323496176288500,14.07028857421875,0.6053496599197388,-0.42392799258232117,2.1093318462371826
1789323496195139800,14.089139892578125,0.6963658928871155,-0.2864873707294464,2.1325440406799316
1789323496213991000,14.107990966796875,0.7440119385719299,-0.5595360994338989,2.1313223838806152
1789323496232842200,14.12684228515625,0.6981984376907349,-1.1893196105957031,1.9560092687606812
1789323496251693300,14.145693359375,0.6413896083831787,-1.2259705066680908,1.7080053091049194
1789323496270544600,14.164544677734375,0.6065713167190552,-0.7647807598114014,1.5333030223846436
1789323496298821400,14.1928212890625,0.6945333480834961,-0.4856235682964325,1.339664340019226
1789323496317672400,14.21167236328125,0.5705313682556152,-0.6358919739723206,1.0506572723388672
1789323496336523500,14.2305234375,0.4074351191520691,-0.4214846193790436,0.6493306159973145
1789323496355374800,14.249374755859375,0.2730487287044525,-0.10628741979598999,0.3414636254310608
1789323496374226000,14.268225830078125,0.23884128034114838,0.07635590434074402,0.06902574002742767
1789323496393077200,14.2870771484375,0.17836740612983704,0.17775654792785645,-0.1979145109653473
1789323496411928300,14.30592822265625,0.10323318839073181,0.37567105889320374,-0.4581354558467865
1789323496430779400,14.324779296875,0.01710372418165207,0.5705313682556152,-0.6878139972686768
1789323496449630700,14.343630615234375,-0.08918370306491852,0.7757760286331177,-0.9345963001251221
1789323496468481800,14.362481689453125,-0.16065283119678497,0.8832851648330688,-1.2045907974243164
1789323496487333000,14.3813330078125,-0.2498365342617035,1.0054545402526855,-1.4667205810546875
1789323496506184200,14.40018408203125,-0.38605546951293945,0.9492566585540771,-1.6334819793701172
1789323496525035300,14.41903515625,-0.5803049206733704,0.9510892033576965,-1.8454458713531494
1789323496543886600,14.437886474609375,-0.8661814332008362,0.8948912620544434,-2.0128180980682373
1789323496562737700,14.456737548828125,-1.0537115335464478,0.813648521900177,-2.0739028453826904
1789323496581588700,14.475588623046875,-1.1459494829177856,0.6572716236114502,-2.1288790702819824
1789323496600440000,14.494440185546875,-1.2607887983322144,0.40987852215766907,-2.16552996635437
1789323496619291100,14.513291015625,-1.1648857593536377,0.04886778071522713,-2.3310694694519043
1789323496638142200,14.53214208984375,-1.0958600044250488,0.033596597611904144,-2.437356948852539
1789323496656993500,14.55099365234375,-0.9510892033576965,-0.08063183724880219,-2.503939151763916
1789323496675844600,14.5698447265625,-0.7971556782722473,-0.130721315741539,-2.5393683910369873
1789323496694695700,14.58869580078125,-0.6224533319473267,-0.284654825925827,-2.5106585025787354
1789323496713547000,14.607547119140625,-0.4343124032020569,-0.39643988013267517,-2.3579468727111816
1789323496732398000,14.626398193359375,-0.30603447556495667,-0.20707722008228302,-2.046414613723755
1789323496751249200,14.645249267578125,-0.12339114397764206,-0.06963659077882767,-1.673187017440796
1789323496770100500,14.6641005859375,0.10140064358711243,0.09651386737823486,-1.3402752876281738
1789323496788951600,14.68295166015625,0.13316470384597778,0.17897824943065643,-0.9095515608787537
1789323496807802600,14.701802734375,0.0910162404179573,0.15026842057704926,-0.4709632396697998
1789323496826654000,14.720654052734375,0.043981000781059265,0.062306419014930725,-0.10323318839073181
1789323496845505000,14.739505126953125,0.12339114397764206,0.12461283802986145,0.17714570462703705
1789323496864356000,14.758356201171875,0.25777754187583923,0.10140064358711243,0.37261682748794556
1789323496883207200,14.777207275390625,0.2999260127544403,0.05497625470161438,0.5448757410049438
1789323496902058500,14.79605859375,0.2895416021347046,0,0.731184184551239
1789323496920909600,14.81490966796875,0.258999228477478,-0.05131116881966591,0.8631271719932556
1789323496939760600,14.8337607421875,0.18753011524677277,-0.046424392610788345,1.007897973060608
1789323496958612000,14.852612060546875,0.13866232335567474,-0.038483377546072006,1.142895221710205
1789323496977463000,14.871463134765625,0.1435490995645523,0.05497625470161438,1.226581335067749
1789323496996314000,14.890314208984375,0.18875180184841156,0.130721315741539,1.2229162454605103
1789323497015165400,14.90916552734375,0.21868331730365753,0.12155860662460327,1.2363548278808594
1789323497034016500,14.9280166015625,0.2883199155330658,0.12094775587320328,1.3738718032836914
1789323497052867600,14.94686767578125,0.40193748474121094,0.10201149433851242,1.4917653799057007
1789323497071718700,14.96571875,0.5369347333908081,-0.0647498071193695,1.5461307764053345
1789323497090570000,14.984570068359375,0.6358919739723206,-0.26755109429359436,1.6652460098266602
1789323497109421000,15.003421142578125,0.7171346545219421,-0.26632940769195557,1.7403801679611206
1789323497128272100,15.022272216796875,0.7470661997795105,-0.3176405727863312,1.8057408332824707
1789323497147123200,15.041123291015625,0.7745543122291565,-0.3958290219306946,1.8808751106262207
1789323497165974500,15.059974609375,0.7513421177864075,-0.4947862923145294,1.8692690134048462
1789323497184825600,15.07882568359375,0.70308518409729,-0.4074351191520691,1.8698798418045044
1789323497203676700,15.0976767578125,0.6462764143943787,-0.34757208824157715,1.9101957082748413
1789323497222527700,15.11652783203125,0.6090146899223328,-0.5986303091049194,1.941348910331726
1789323497241379000,15.135379150390625,0.6047387719154358,-0.9571976661682129,1.9260777235031128
1789323497260230100,15.154230224609375,0.5467082858085632,-0.994459331035614,1.8258987665176392
1789323497279081200,15.173081298828125,0.4569137394428253,-0.6163448691368103,1.4386216402053833
1789323497297932500,15.1919326171875,0.3946073353290558,-0.38666632771492004,1.199093222618103
1789323497316783600,15.21078369140625,0.32313820719718933,-0.40987852215766907,1.0592091083526611
1789323497335634700,15.229634765625,0.25533416867256165,-0.3164188861846924,0.9791881442070007
1789323497354485800,15.24848583984375,0.1569877415895462,-0.13499724864959717,0.7379034757614136
1789323497373337000,15.267337158203125,0.06169557198882103,0.04581354558467865,0.43797749280929565
1789323497392188200,15.286188232421875,-0.022601349279284477,0.1172826737165451,0.1453816443681717
1789323497411039200,15.305039306640625,-0.04153761267662048,0.2773246467113495,-0.09529217332601547
1789323497429890300,15.323890380859375,-0.06719319522380829,0.4556920528411865,-0.41415444016456604
1789323497448741400,15.342741455078125,-0.18142163753509521,0.6279509663581848,-0.7837170362472534
1789323497467592700,15.3615927734375,-0.314586341381073,0.8820634484291077,-1.1312891244888306
1789323497486443800,15.38044384765625,-0.4294256269931793,1.0243908166885376,-1.4074684381484985
1789323497505294800,15.399294921875,-0.5332696437835693,0.9797990322113037,-1.6560832262039185
1789323497524146000,15.41814599609375,-0.6548282504081726,0.8704573512077332,-1.8283421993255615
1789323497542997000,15.4369970703125,-0.8704573512077332,0.786160409450531,-1.9517333507537842
1789323497561848300,15.455848388671875,-1.0103414058685303,0.7336275577545166,-1.993270993232727
1789323497580699400,15.474699462890625,-1.1025793552398682,0.6554391384124756,-2.093449831008911
1789323497599550500,15.493550537109375,-1.2229162454605103,0.474017471075058,-2.153923749923706
1789323497618401500,15.512401611328125,-1.2882769107818604,0.2339545041322708,-2.21806263923645
1789323497637252600,15.531252685546875,-1.2082558870315552,0.0794101431965828,-2.385434865951538
1789323497656103700,15.550103759765625,-1.09219491481781,-0.03542914241552353,-2.4269726276397705
1789323497684380400,15.57838037109375,-0.8338065147399902,-0.3268032968044281,-2.4208641052246094
1789323497703231500,15.5972314453125,-0.6279509663581848,-0.418430358171463,-2.4391894340515137
1789323497722082800,15.616082763671875,-0.4599680006504059,-0.41110020875930786,-2.338399648666382
1789323497740934000,15.634933837890625,-0.3249707520008087,-0.28221142292022705,-2.0372519493103027
1789323497759785000,15.653784912109375,-0.11300674080848694,-0.030542362481355667,-1.6420338153839111
1789323497778636000,15.672635986328125,0.14965757727622986,0.1844758689403534,-1.2400199174880981
1789323497797487000,15.691487060546875,0.20096874237060547,0.24250635504722595,-0.7995990514755249
1789323497816338200,15.710338134765625,0.08124268800020218,0.11239589750766754,-0.37506023049354553
1789323497835189200,15.729189208984375,0.03176405653357506,0.06841489672660828,-0.012216945178806782
1789323497854040600,15.74804052734375,0.14721418917179108,0.21746163070201874,0.20035789906978607
1789323497872891600,15.7668916015625,0.2638860046863556,0.16737215220928192,0.3414636254310608
1789323497891742700,15.78574267578125,0.31031039357185364,0.1044548824429512,0.550373375415802
1789323497910593800,15.80459375,0.3133646547794342,0.0006108472589403391,0.7641699314117432
1789323497929444900,15.82344482421875,0.2742704153060913,-0.10017894953489304,0.9333745837211609
1789323497948296000,15.8422958984375,0.21990501880645752,-0.04703523963689804,0.9914051294326782
1789323497967147000,15.86114697265625,0.1973036676645279,0.047646086663007736,0.9681929349899292
1789323497985998300,15.879998291015625,0.17286977171897888,0.14843589067459106,1.0537115335464478
1789323498004849400,15.898849365234375,0.16737215220928192,0.10689827054738998,1.1826002597808838
1789323498023700500,15.917700439453125,0.19913621246814728,0.07452336698770523,1.285833477973938
1789323498042551600,15.936551513671875,0.2736595869064331,0.12155860662460327,1.3928080797195435
1789323498061402600,15.955402587890624,0.367730051279068,0.1459924876689911,1.4844352006912231
1789323498080253700,15.974253662109374,0.45202696323394775,0.0525328628718853,1.5748405456542969
1789323498099104800,15.993104736328124,0.5656445622444153,-0.047646086663007736,1.6805171966552734
1789323498117955800,16.011955810546876,0.6627692580223083,-0.09529217332601547,1.7507646083831787
1789323498136807000,16.030806884765624,0.726908266544342,-0.18081079423427582,1.8448350429534912
1789323498155658200,16.049658203125,0.726908266544342,-0.23212195932865143,1.9340187311172485
1789323498174509300,16.06850927734375,0.6963658928871155,-0.32313820719718933,1.978610634803772
1789323498193360400,16.0873603515625,0.6395570635795593,-0.41232189536094666,1.9315754175186157
1789323498212211500,16.10621142578125,0.5876350402832031,-0.5473191738128662,1.8130710124969482
1789323498240488000,16.134488037109374,0.5173876285552979,-0.832584798336029,1.835672378540039
1789323498259339000,16.153339111328126,0.49051034450531006,-0.9706363081932068,1.8509435653686523
1789323498278190000,16.172190185546874,0.4752391576766968,-0.8307522535324097,1.6560832262039185
1789323498297041400,16.19104150390625,0.5106683373451233,-0.7091936469078064,1.3512704372406006
1789323498315892500,16.209892578125,0.4428642690181732,-0.6261184215545654,1.0579874515533447
1789323498334743600,16.22874365234375,0.32374903559684753,-0.4599680006504059,1.0659284591674805
1789323498353594600,16.2475947265625,0.19241689145565033,-0.22540263831615448,0.8893936276435852
1789323498372445700,16.26644580078125,0.0916270911693573,0.008551862090826035,0.5937435626983643
1789323498391296800,16.285296875,0.014660334214568138,0.1692046970129013,0.2993151545524597
1789323498410147800,16.30414794921875,-0.014049487188458443,0.3005368411540985,-0.045202698558568954
1789323498428999000,16.3229990234375,-0.031153209507465363,0.42331716418266296,-0.35795649886131287
1789323498447850000,16.34185009765625,-0.10201149433851242,0.5479300022125244,-0.605960488319397
1789323498466701000,16.360701171875,-0.24006296694278717,0.7067502737045288,-0.8356390595436096
1789323498485552000,16.37955224609375,-0.3781144618988037,0.7763868570327759,-1.1209046840667725
1789323498504403200,16.3984033203125,-0.4886777997016907,0.7989882230758667,-1.3757044076919556
1789323498523254300,16.417254150390626,-0.6053496599197388,0.7647807598114014,-1.553460955619812
1789323498542105300,16.436105224609374,-0.7324058413505554,0.730573296546936,-1.7043402194976807
1789323498560956400,16.454956298828126,-0.9462023973464966,0.7611156702041626,-1.852776050567627
1789323498579807500,16.473807373046874,-1.1355650424957275,0.6212316751480103,-1.937072992324829
1789323498598658600,16.492658447265626,-1.216196894645691,0.5790832042694092,-2.0317542552948
1789323498617509600,16.511509521484374,-1.2852226495742798,0.3658975064754486,-2.0335869789123535
1789323498636360700,16.530360595703126,-1.2510151863098145,0.1692046970129013,-2.1465935707092285
1789323498655211800,16.549211669921874,-1.2143644094467163,0.014660334214568138,-2.291975259780884
1789323498683488500,16.577488525390624,-1.111131191253662,-0.2492256760597229,-2.3976519107818604
1789323498702339600,16.596339599609376,-0.9449806809425354,-0.2901524603366852,-2.4587366580963135
1789323498721190700,16.615190673828124,-0.6920899152755737,-0.22967857122421265,-2.3836023807525635
1789323498740041700,16.634041748046876,-0.5558710098266602,-0.1973036676645279,-2.0977258682250977
1789323498758892800,16.652892822265624,-0.4300364851951599,-0.15943112969398499,-1.7464886903762817
1789323498777744000,16.671743896484376,-0.237008735537529,-0.1575985997915268,-1.4245721101760864
1789323498796595000,16.690594970703124,-0.014049487188458443,-0.08124268800020218,-1.0469921827316284
1789323498815446000,16.709446044921876,0.0781884491443634,-0.01710372418165207,-0.6835380792617798
1789323498834297000,16.728297119140624,0.09773556143045425,0.04214845970273018,-0.3830012381076813
1789323498853148000,16.74714794921875,0.12339114397764206,0.0036650835536420345,-0.08735115826129913
1789323498871999000,16.7659990234375,0.1820324808359146,-0.010995250195264816,0.20035789906978607
1789323498890850000,16.78485009765625,0.22662433981895447,-0.023212196305394173,0.41415444016456604
1789323498909701000,16.803701171875,0.2351761907339096,-0.03420744836330414,0.610236406326294
1789323498937977900,16.831977783203126,0.17958909273147583,-0.2351761907339096,0.9034430980682373
1789323498956829000,16.850828857421874,0.20463383197784424,-0.12033691257238388,1.0256125926971436
1789323498975680000,16.869679931640626,0.22051586210727692,-0.06291726976633072,1.0292776823043823
1789323498994531000,16.888531005859374,0.22723518311977386,-0.0647498071193695,1.0640959739685059
1789323499013382100,16.907382080078126,0.17348061501979828,-0.02870982140302658,1.188708782196045
1789323499032233000,16.92623291015625,0.1716480851173401,-0.07574506103992462,1.2846118211746216
1789323499051084000,16.945083984375,0.21807247400283813,-0.13805148005485535,1.3677634000778198
1789323499069935000,16.96393505859375,0.29503923654556274,-0.1692046970129013,1.5180318355560303
1789323499088786200,16.9827861328125,0.43858832120895386,-0.18691925704479218,1.6652460098266602
1789323499107637200,17.00163720703125,0.6200099587440491,-0.1441599577665329,1.7483211755752563
1789323499126488300,17.02048828125,0.7928797602653503,-0.1716480851173401,1.7971889972686768
1789323499145339400,17.03933935546875,0.9040539264678955,-0.33169007301330566,1.886372685432434
1789323499164190500,17.0581904296875,0.9089407324790955,-0.46607646346092224,1.9969360828399658
1789323499183041500,17.07704150390625,0.8173136115074158,-0.4227063059806824,1.9590635299682617
1789323499201892600,17.095892578125,0.6737645268440247,-0.47768256068229675,1.9590635299682617
1789323499220743700,17.11474365234375,0.5320479869842529,-0.7690566778182983,1.9883841276168823
1789323499239594500,17.133594482421874,0.4734066128730774,-1.1422843933105469,1.926688551902771
1789323499258445600,17.152445556640625,0.5509842038154602,-1.2180293798446655,1.7947455644607544
1789323499277296600,17.171296630859374,0.5705313682556152,-0.9804098606109619,1.6597483158111572
1789323499296147700,17.190147705078125,0.6835380792617798,-0.7507312893867493,1.5357463359832764
1789323499314998800,17.208998779296873,0.7128587365150452,-0.7556180357933044,1.4807701110839844
1789323499333849900,17.227849853515625,0.5998520255088806,-0.652384877204895,1.3506596088409424
1789323499352701000,17.246700927734373,0.44958359003067017,-0.4074351191520691,1.2088667154312134
1789323499371552000,17.265552001953125,0.37200596928596497,-0.17653486132621765,0.8814526200294495
1789323499390403000,17.284403076171873,0.3683409094810486,0.05131116881966591,0.41110020875930786
1789323499409254000,17.30325390625,0.3500154912471771,0.15454435348510742,0.015271181240677834
1789323499428105000,17.32210498046875,0.2754921019077301,0.32252734899520874,-0.2754921019077301
1789323499446956000,17.3409560546875,0.20768806338310242,0.5259394645690918,-0.5088357925415039
1789323499465807000,17.35980712890625,0.1301104724407196,0.7525638341903687,-0.7831062078475952
1789323499484658200,17.378658203125,-0.020157959312200546,0.8222004175186157,-1.0842539072036743
1789323499503509200,17.39750927734375,-0.15332266688346863,0.8808417320251465,-1.3359229564666748
1789323499522360300,17.4163603515625,-0.2773246467113495,0.9339854717254639,-1.576673150062561
1789323499541211400,17.43521142578125,-0.4318690001964569,0.9223793745040894,-1.7043402194976807
1789323499560062200,17.454062255859377,-0.5662553906440735,0.9767447710037231,-1.8662147521972656
1789323499578913300,17.472913330078125,-0.7598940134048462,0.9608627557754517,-1.9767780303955078
1789323499597764400,17.491764404296877,-0.9663603901863098,0.8490777015686035,-2.0708484649658203
1789323499616615400,17.510615478515625,-1.058598279953003,0.7727217674255371,-2.1575889587402344
1789323499635466500,17.529466552734377,-1.133732557296753,0.5479300022125244,-2.2211170196533203
1789323499654317600,17.548317626953125,-1.161220669746399,0.3542914092540741,-2.3316802978515625
1789323499673168600,17.567168701171877,-1.1312891244888306,0.1979145109653473,-2.4501848220825195
1789323499701445000,17.595445068359375,-1.0121738910675049,-0.046424392610788345,-2.526540517807007
1789323499720296200,17.614296142578127,-0.8026533126831055,-0.19302773475646973,-2.550363779067993
1789323499739147000,17.63314697265625,-0.5363239049911499,-0.2583884000778198,-2.4941656589508057
1789323499757998000,17.651998046875,-0.35917818546295166,-0.2217375487089157,-2.3316802978515625
1789323499776849200,17.67084912109375,-0.25533416867256165,-0.1435490995645523,-2.0024337768554688
1789323499795700200,17.6897001953125,-0.0910162404179573,-0.16065283119678497,-1.5797274112701416
1789323499814551300,17.70855126953125,0.10689827054738998,-0.06963659077882767,-1.1874871253967285
1789323499833402000,17.727402099609375,0.1973036676645279,0.007941014133393764,-0.8038749694824219
1789323499852253200,17.746253173828126,0.17714570462703705,0,-0.44103172421455383
1789323499871104300,17.765104248046875,0.13988402485847473,0.02993151545524597,-0.09956810623407364
1789323499889955300,17.783955322265626,0.1948602795600891,0.10323318839073181,0.2229592502117157
1789323499908806400,17.802806396484375,0.2987042963504791,0.18753011524677277,0.46546560525894165
1789323499937083000,17.831082763671876,0.30481278896331787,0.06047387793660164,0.7098045349121094
1789323499955934000,17.849933837890624,0.25472331047058105,0.009773556143045425,0.8612946271896362
1789323499974785000,17.868784912109376,0.20341213047504425,-0.053143709897994995,0.9804098606109619
1789323499993635800,17.8876357421875,0.19913621246814728,0.1044548824429512,0.9932376146316528
1789323500012487000,17.90648681640625,0.16065283119678497,0.20341213047504425,1.073258638381958
1789323500031338000,17.925337890625,0.13866232335567474,0.2486148327589035,1.199093222618103
1789323500050189000,17.94418896484375,0.12766708433628082,0.1698155403137207,1.2937744855880737
1789323500069040000,17.9630400390625,0.1979145109653473,0.09773556143045425,1.4251830577850342
1789323500097316600,17.991316650390626,0.39827242493629456,0.12705622613430023,1.6609700918197632
1789323500116167400,18.01016748046875,0.5705313682556152,0.08674030750989914,1.7782527208328247
1789323500135018500,18.0290185546875,0.6749862432479858,0.03420744836330414,1.783750295639038
1789323500163295000,18.057294921875,0.6957550048828125,-0.129499614238739,1.9272994995117188
1789323500182146000,18.07614599609375,0.6468872427940369,-0.3042019307613373,2.092839002609253
1789323500200997000,18.0949970703125,0.6255075931549072,-0.36284327507019043,2.1636972427368164
1789323500219848200,18.11384814453125,0.6468872427940369,-0.33352261781692505,2.1117753982543945
1789323500238699300,18.13269921875,0.6230642199516296,-0.38483378291130066,2.0158722400665283
1789323500257550000,18.151550048828124,0.517998456954956,-0.7238540053367615,1.9492899179458618
1789323500276401200,18.170401123046876,0.41110020875930786,-1.1019684076309204,1.9816648960113525
1789323500295252200,18.189252197265624,0.35978904366493225,-0.9382613897323608,1.8344507217407227
1789323500314103300,18.208103271484376,0.4715740978717804,-0.6591041684150696,1.63592529296875
1789323500332954000,18.2269541015625,0.522885262966156,-0.5625903010368347,1.4337348937988281
1789323500351805200,18.24580517578125,0.44958359003067017,-0.5839699506759644,1.1551121473312378
1789323500370656300,18.26465625,0.3115321099758148,-0.39766156673431396,0.9492566585540771
1789323500389507300,18.28350732421875,0.21990501880645752,-0.20280128717422485,0.6707102656364441
1789323500408358100,18.302358154296876,0.17409147322177887,-0.023823043331503868,0.3915531039237976
1789323500427209200,18.321209228515624,0.10017894953489304,0.1429382562637329,0.06047387793660164
1789323500446060300,18.340060302734376,-0.006108472589403391,0.2724378705024719,-0.18142163753509521
1789323500464911400,18.358911376953124,-0.08124268800020218,0.4679090082645416,-0.4844018816947937
1789323500483762200,18.37776220703125,-0.14965757727622986,0.6676560640335083,-0.7794411182403564
1789323500502613200,18.39661328125,-0.2113531529903412,0.8857285380363464,-1.1209046840667725
1789323500521464300,18.41546435546875,-0.35978904366493225,0.9541434049606323,-1.3879213333129883
1789323500540315400,18.4343154296875,-0.5100574493408203,0.9907942414283752,-1.589500904083252
1789323500559166200,18.453166259765624,-0.6749862432479858,0.9895725846290588,-1.6902906894683838
1789323500578017300,18.472017333984375,-0.8808417320251465,0.9969027042388916,-1.8350615501403809
1789323500596868400,18.490868408203124,-1.1447277069091797,0.9578084945678711,-1.9486790895462036
1789323500615719400,18.509719482421875,-1.2442958354949951,0.8313631415367126,-2.053133964538574
1789323500634570200,18.5285703125,-1.3151541948318481,0.7953231334686279,-2.171027421951294
1789323500653421300,18.54742138671875,-1.3879213333129883,0.517998456954956,-2.185076951980591
1789323500672272400,18.5662724609375,-1.4410650730133057,0.24556060135364532,-2.2736499309539795
1789323500691123200,18.585123291015623,-1.3903647661209106,-0.05375456064939499,-2.23760986328125
1789323500719399700,18.613399658203125,-1.0561549663543701,-0.25716668367385864,-2.3787155151367188
1789323500738250800,18.632250732421873,-0.7898254990577698,-0.2852656841278076,-2.4385786056518555
1789323500757101800,18.651101806640625,-0.5729747414588928,-0.23823043704032898,-2.3225176334381104
1789323500775952600,18.66995263671875,-0.37383851408958435,-0.09895725548267365,-2.006709575653076
1789323500794803700,18.6888037109375,-0.1710372269153595,0.05803048983216286,-1.6279842853546143
1789323500813654800,18.70765478515625,-0.1050657257437706,0.1832541823387146,-1.2125318050384521
1789323500832505600,18.726505615234377,-0.0525328628718853,0.20524467527866364,-0.8118160367012024
1789323500851356700,18.745356689453125,-0.00916270911693573,0.1820324808359146,-0.5241069197654724
1789323500870207700,18.764207763671877,0.04214845970273018,0.15026842057704926,-0.26877278089523315
1789323500889058600,18.78305859375,0.13927318155765533,0.2376195788383484,-0.02076880633831024
1789323500907909600,18.80190966796875,0.1954711228609085,0.1056765764951706,0.2223484069108963
1789323500926760700,18.8207607421875,0.21318569779396057,0.06169557198882103,0.4813476502895355
1789323500945611800,18.83961181640625,0.19302773475646973,-0.13988402485847473,0.7519529461860657
1789323500964462600,18.858462646484377,0.1435490995645523,-0.20280128717422485,1.0158389806747437
1789323500983313700,18.877313720703125,0.12033691257238388,-0.20768806338310242,1.1807677745819092
1789323501002164500,18.89616455078125,0.13438639044761658,-0.12644538283348083,1.1795459985733032
1789323501021015600,18.915015625,0.16370706260204315,0.02748812735080719,1.1771026849746704
1789323501039866600,18.93386669921875,0.1960819661617279,0.04214845970273018,1.2314680814743042
1789323501058717400,18.952717529296876,0.25594499707221985,-0.022601349279284477,1.3384426832199097
1789323501077568500,18.971568603515625,0.35917818546295166,-0.025655584409832954,1.4954304695129395
1789323501096419600,18.990419677734376,0.4318690001964569,-0.013438640162348747,1.621264934539795
1789323501115270400,19.0092705078125,0.4355340898036957,-0.05986303091049194,1.7116703987121582
1789323501134121500,19.02812158203125,0.4618005156517029,-0.12766708433628082,1.8240662813186646
1789323501152972500,19.04697265625,0.5277720093727112,-0.1973036676645279,1.9169150590896606
1789323501171823400,19.0658232421875,0.6346703171730042,-0.363454133272171,1.9926601648330688
1789323501190674400,19.08467431640625,0.7140804529190063,-0.418430358171463,2.0274784564971924
1789323501209525200,19.103525146484376,0.7146912813186646,-0.3646758198738098,1.9108065366744995
1789323501237801700,19.1318017578125,0.7134696245193481,-0.2742704153060913,1.8625496625900269
1789323501256652800,19.15065283203125,0.7085828185081482,-0.6108472347259521,1.9358513355255127
1789323501275503600,19.169503662109374,0.6517740488052368,-1.1459494829177856,1.8882052898406982
1789323501294354700,19.188354736328126,0.6743753552436829,-1.2693406343460083,1.7409909963607788
1789323501313205800,19.207205810546874,0.6420004963874817,-0.8997780084609985,1.5192534923553467
1789323501332056600,19.226056640625,0.6511631608009338,-0.6578825116157532,1.5064257383346558
1789323501350907600,19.24490771484375,0.5595360994338989,-0.7843278646469116,1.3952515125274658
1789323501369758500,19.263758544921874,0.42637139558792114,-0.6719319820404053,1.0934165716171265
1789323501388609500,19.282609619140626,0.36101073026657104,-0.33474430441856384,0.7415685653686523
1789323501407460600,19.301460693359374,0.2730487287044525,-0.06963659077882767,0.4337015450000763
1789323501426311400,19.3203115234375,0.22540263831615448,0.047646086663007736,0.14904673397541046
1789323501445162500,19.33916259765625,0.17531315982341766,0.09834641218185425,-0.11056335270404816
1789323501464013300,19.358013427734374,0.09834641218185425,0.1960819661617279,-0.34512871503829956
1789323501482864400,19.376864501953126,0.036039989441633224,0.3158080279827118,-0.5308262705802917
1789323501501715500,19.395715576171874,-0.02626643143594265,0.48012593388557434,-0.7892146706581116
1789323501520566300,19.414566162109374,-0.10140064358711243,0.6328377723693848,-1.077534556388855
1789323501539417300,19.433417236328125,-0.21990501880645752,0.7886037826538086,-1.334777593612671
1789323501558268200,19.45226806640625,-0.37322768568992615,0.9315420985221863,-1.5442981719970703
1789323501577119200,19.471119140625,-0.5412106513977051,0.9559759497642517,-1.6988425254821777
1789323501595970000,19.489969970703125,-0.7330167293548584,1.0970816612243652,-1.900422215461731
1789323501614821000,19.508821044921874,-0.9706363081932068,1.1874871253967285,-2.0861196517944336
1789323501633672000,19.527671875,-1.1221264600753784,1.0298885107040405,-2.150258779525757
1789323501652523000,19.54652294921875,-1.2412415742874146,0.7556180357933044,-2.1960723400115967
1789323501671373800,19.565373779296873,-1.3334795236587524,0.446529358625412,-2.3322911262512207
1789323501690225000,19.584224853515625,-1.3702067136764526,0.18691925704479218,-2.466066837310791
1789323501709075700,19.60307568359375,-1.3182083368301392,0.04947862774133682,-2.452017307281494
1789323501737352200,19.631352294921875,-0.9144383668899536,-0.10323318839073181,-2.4941656589508057
1789323501756203300,19.650203369140623,-0.6468872427940369,-0.1850867122411728,-2.4043712615966797
1789323501775054000,19.66905419921875,-0.48989951610565186,-0.17775654792785645,-2.258378744125366
1789323501793905200,19.6879052734375,-0.2858765125274658,-0.13805148005485535,-2.029921770095825
1789323501812756000,19.706755859375,-0.07085828483104706,-0.10628741979598999,-1.7031185626983643
1789323501831607000,19.72560693359375,0.0647498071193695,-0.08918370306491852,-1.30476975440979
1789323501850457900,19.744457763671875,0.12216944992542267,-0.02993151545524597,-0.9138274788856506
1789323501869309000,19.763308837890627,0.11361759155988693,0.007941014133393764,-0.5595360994338989
1789323501888159700,19.78215966796875,0.15149012207984924,0.10140064358711243,-0.2510582208633423
1789323501907010800,19.8010107421875,0.2089097648859024,0.07452336698770523,0.05375456064939499
1789323501925861600,19.819861572265626,0.265718549489975,0.011606098152697086,0.3512371778488159
1789323501944712700,19.838712646484375,0.3274141252040863,0.03237490355968475,0.5955760478973389
1789323501963563500,19.8575634765625,0.3671191930770874,0.021379653364419937,0.8032641410827637
1789323501982414600,19.87641455078125,0.34573954343795776,0.0018325417768210173,0.9877400398254395
1789323502001265400,19.895265380859374,0.2754921019077301,-0.053143709897994995,1.0897514820098877
1789323502020116200,19.9141162109375,0.20280128717422485,-0.07024743407964706,1.0726478099822998
1789323502038967300,19.93296728515625,0.16004198789596558,0.023212196305394173,1.0573766231536865
1789323502057818000,19.951818115234374,0.1441599577665329,0.16187451779842377,1.1178505420684814
1789323502076669200,19.970669189453126,0.13682979345321655,0.14049486815929413,1.2406307458877563
1789323502095520000,19.98952001953125,0.15332266688346863,0.0922379344701767,1.4343457221984863
1789323502114371000,20.00837109375,0.2095206081867218,0.007330167107284069,1.6304277181625366
1789323502133222000,20.027221923828126,0.38544461131095886,-0.023212196305394173,1.6854039430618286
1789323502152073000,20.046072998046874,0.5601469278335571,-0.016492875292897224,1.6786845922470093
1789323502170923800,20.064923828125,0.6951441764831543,-0.03665083646774292,1.753208041191101
1789323502189774600,20.083774658203126,0.7482879161834717,-0.1960819661617279,1.8546086549758911
1789323502218051000,20.112051025390624,0.7556180357933044,-0.3426853120326996,1.9187475442886353
1789323502236902000,20.13090185546875,0.6884248852729797,-0.3561239540576935,1.9285211563110352
1789323502255753000,20.1497529296875,0.5705313682556152,-0.40132665634155273,1.8924812078475952
1789323502274603800,20.168603759765624,0.5057815313339233,-0.4422534108161926,1.882096767425537
1789323502293454800,20.187454833984376,0.44103172421455383,-0.7763868570327759,1.890648603439331
1789323502312305700,20.2063056640625,0.3921639323234558,-1.2418525218963623,1.8937028646469116
1789323502331156500,20.225156494140624,0.363454133272171,-1.0983033180236816,1.63592529296875
1789323502350007600,20.244007568359375,0.5259394645690918,-0.5772506594657898,1.3457728624343872
1789323502368858400,20.2628583984375,0.5644228458404541,-0.393385648727417,1.2003148794174194
1789323502387709200,20.281709228515624,0.5015056133270264,-0.4605788290500641,0.9119949340820312
1789323502406560300,20.300560302734375,0.31886225938796997,-0.4477510452270508,0.6615476012229919
1789323502425411000,20.3194111328125,0.1301104724407196,-0.22723518311977386,0.5027272701263428
1789323502444262100,20.33826220703125,0.06963659077882767,-0.0012216945178806782,0.3701734244823456
1789323502463113000,20.357113037109375,0.034818295389413834,0.12522368133068085,0.1172826737165451
1789323502481963800,20.3759638671875,-0.006719320081174374,0.26816195249557495,-0.1569877415895462
1789323502500814800,20.39481494140625,-0.05741964280605316,0.48012593388557434,-0.3830012381076813
1789323502519665700,20.413665771484375,-0.10995250940322876,0.6548282504081726,-0.6071822047233582
1789323502538516500,20.4325166015625,-0.2235700935125351,0.7843278646469116,-0.8857285380363464
1789323502557367600,20.451367431640627,-0.3402419090270996,0.8209787011146545,-1.132510781288147
1789323502576218400,20.47021826171875,-0.42881476879119873,0.8454126119613647,-1.3072131872177124
1789323502595069400,20.4890693359375,-0.5302154421806335,0.832584798336029,-1.4642772674560547
1789323502613920300,20.507920166015627,-0.6780404448509216,0.818535327911377,-1.6267626285552979
1789323502632771000,20.52677099609375,-0.9052756428718567,0.8289197087287903,-1.738547682762146
1789323502651622100,20.5456220703125,-1.0738694667816162,0.790436327457428,-1.793523907661438
1789323502670473000,20.564472900390626,-1.12823486328125,0.6053496599197388,-1.8723231554031372
1789323502689323800,20.58332373046875,-1.1679399013519287,0.4080459773540497,-1.9010330438613892
1789323502708174800,20.6021748046875,-1.1691616773605347,0.1966928243637085,-1.922412633895874
1789323502727025700,20.621025634765626,-1.1019684076309204,0.05619794875383377,-2.023813247680664
1789323502755302000,20.649302001953124,-1.040272831916809,-0.11606097966432571,-2.070237636566162
1789323502774153000,20.668153076171876,-0.9303203821182251,-0.18814095854759216,-2.1575889587402344
1789323502793003800,20.687003662109376,-0.7886037826538086,-0.10262233763933182,-2.21134352684021
1789323502811854600,20.7058544921875,-0.6297835111618042,0.08185353130102158,-2.1288790702819824
1789323502830705700,20.72470556640625,-0.522885262966156,0.17225892841815948,-1.867436408996582
1789323502849556500,20.743556396484376,-0.40132665634155273,0.1319430023431778,-1.4905437231063843
1789323502868407300,20.7624072265625,-0.33474430441856384,0.11300674080848694,-1.1288456916809082
1789323502887258000,20.781258056640624,-0.3170297145843506,0.03542914241552353,-0.791047215461731
1789323502906109200,20.800109130859376,-0.23028941452503204,-0.005497625097632408,-0.4721849262714386
1789323502924960000,20.8189599609375,-0.09590301662683487,0.026877280324697495,-0.1960819661617279
1789323502943810800,20.837810791015624,0.004275931045413017,0.07146912813186646,0.0024433890357613564
1789323502962661600,20.85666162109375,0.014049487188458443,-0.03420744836330414,0.21562908589839935
1789323502981512700,20.8755126953125,0.05986303091049194,-0.05619794875383377,0.4563029110431671
1789323503000363500,20.894363525390624,0.07269082218408585,-0.10689827054738998,0.6615476012229919
1789323503019214300,20.91321435546875,0.07207997888326645,-0.1172826737165451,0.8191461563110352
1789323503038065400,20.9320654296875,0.06780404597520828,-0.05925218388438225,0.9034430980682373
1789323503056916200,20.950916259765624,0.06413896381855011,-0.06719319522380829,0.948034942150116
1789323503075767000,20.96976708984375,0.07330167293548584,-0.07452336698770523,1.0030112266540527
1789323503094617900,20.988617919921875,0.11117420345544815,-0.1301104724407196,1.0653176307678223
1789323503113468700,21.00746875,0.1948602795600891,-0.1557660549879074,1.1545013189315796
1789323503132319700,21.02631982421875,0.28282228112220764,-0.24678228795528412,1.3029371500015259
1789323503151170600,21.045170654296875,0.4575245976448059,-0.3958290219306946,1.4667205810546875
1789323503170021400,21.064021484375,0.6175665855407715,-0.49051034450531006,1.6029396057128906
1789323503188872200,21.0828720703125,0.7470661997795105,-0.5204418897628784,1.6860147714614868
1789323503207723300,21.10172314453125,0.8154810667037964,-0.49417543411254883,1.7587056159973145
1789323503226574000,21.120573974609375,0.8790091872215271,-0.6322268843650818,1.8692690134048462
1789323503245425000,21.1394248046875,0.9150491952896118,-0.7928797602653503,1.991438388824463
1789323503264275700,21.158275634765626,0.9260444641113281,-0.7733326554298401,2.0561883449554443
1789323503283126500,21.17712646484375,0.8527427911758423,-0.5723638534545898,2.0341978073120117
1789323503301977600,21.1959775390625,0.7525638341903687,-0.6071822047233582,2.0739028453826904
1789323503320828400,21.214828369140626,0.6462764143943787,-1.0347752571105957,2.0910065174102783
1789323503339679200,21.23367919921875,0.6878139972686768,-1.2467392683029175,1.9260777235031128
1789323503358530000,21.252530029296874,0.7525638341903687,-0.9303203821182251,1.650585651397705
1789323503377380900,21.271380859375,0.7501204609870911,-0.4611896872520447,1.505814790725708
1789323503396232000,21.29023193359375,0.7226322889328003,-0.4294256269931793,1.3775368928909302
1789323503415082800,21.309082763671874,0.6578825116157532,-0.4489727318286896,1.2546802759170532
1789323503433933600,21.32793359375,0.6047387719154358,-0.31031039357185364,1.031110167503357
1789323503452784400,21.346784423828126,0.5302154421806335,-0.12461283802986145,0.6401679515838623
1789323503471635200,21.36563525390625,0.4074351191520691,0.07269082218408585,0.30786702036857605
1789323503490486000,21.384486083984374,0.18019993603229523,0.05803048983216286,-0.07574506103992462
1789323503509337000,21.403337158203126,0.1820324808359146,0.1563768982887268,-0.3286358118057251
1789323503528188000,21.42218798828125,0.2626643180847168,0.5094466209411621,-0.4984513521194458
1789323503547038700,21.441038818359374,0.26694026589393616,0.6218425035476685,-0.6303943991661072
1789323503565889500,21.4598896484375,0.08612946420907974,0.6511631608009338,-0.8527427911758423
1789323503584740400,21.478740234375,-0.20157960057258606,0.6914790868759155,-1.02683424949646
1789323503603591200,21.497591064453125,-0.6737645268440247,0.7562289237976074,-1.1862653493881226
1789323503622442000,21.51644189453125,-0.4691306948661804,0.8777875304222107,-1.3744826316833496
1789323503641292800,21.535292724609373,-0.8215895891189575,0.7879929542541504,-1.6707435846328735
1789323503660143600,21.5541435546875,-0.5632011890411377,0.5454866290092468,-1.9987685680389404
1789323503678994700,21.57299462890625,-0.5717530250549316,0.6200099587440491,-2.1875205039978027
1789323503697845500,21.591845458984373,-0.8112051486968994,0.5344913601875305,-2.2938077449798584
1789323503716696300,21.6106962890625,-0.8674030900001526,0.1948602795600891,-2.4941656589508057
1789323503735547100,21.629547119140625,-0.7696675658226013,-0.13744063675403595,-2.5521962642669678
1789323503754398000,21.64839794921875,-0.7898254990577698,-0.030542362481355667,-2.4966092109680176
1789323503773248800,21.667248779296877,-0.8674030900001526,0.11483928561210632,-2.4098687171936035
1789323503792099600,21.686099609375,-0.7201889157295227,-0.2754921019077301,-2.6230545043945312
1789323503810950400,21.704950439453125,-0.5100574493408203,-0.1429382562637329,-2.5393683910369873
1789323503829801200,21.72380126953125,-0.3915531039237976,-0.2767138183116913,-2.4440762996673584
1789323503848652300,21.74265234375,-0.7128587365150452,-0.6896465420722961,-2.1117753982543945
1789323503867503000,21.761503173828125,-0.3280249834060669,0.11117420345544815,-2.2730391025543213
1789323503886354000,21.78035400390625,0.5894675850868225,-0.08796200156211853,-1.4832135438919067
1789323503905204700,21.799204833984376,0.5796940326690674,0.14660334587097168,-0.712247908115387
1789323503924055600,21.8180556640625,0.24006296694278717,0.1557660549879074,-0.5925218462944031
1789323503942906400,21.83690625,0.06902574002742767,0.30786702036857605,-0.4837910234928131
1789323503961757200,21.855757080078124,0.06169557198882103,0.265718549489975,-0.4190412163734436
1789323503980608000,21.87460791015625,0.25716668367385864,0.0922379344701767,-0.09590301662683487
1789323503999458800,21.893458740234376,0.42759308218955994,-0.15210096538066864,0.23151111602783203
1789323504018309600,21.9123095703125,0.6340594291687012,-0.12155860662460327,0.36101073026657104
1789323504037160400,21.931160400390624,1.1306782960891724,0.04459185153245926,0.1710372269153595
1789323504056011300,21.95001123046875,1.543076515197754,-0.025655584409832954,0.2596100866794586
1789323504074862000,21.968862060546876,2.081843852996826,0.33230090141296387,0.8234221339225769
1789323504093713000,21.987712890625,2.5778517723083496,0.33474430441856384,1.147171139717102
1789323504112563700,22.006563720703124,2.6028964519500732,-0.008551862090826035,0.9822424054145813
1789323504131414500,22.02541455078125,3.0323221683502197,-0.35795649886131287,0.27976804971694946
1789323504150265300,22.044265380859375,4.150249004364014,-0.5155550837516785,-0.5143333673477173
1789323504169116200,22.0631162109375,5.5906267166137695,0.6981984376907349,-0.9816315174102783
1789323504187967000,22.081967041015623,6.046319007873535,1.5687321424484253,-0.30969956517219543
1789323504206817800,22.10081787109375,4.980390548706055,-0.09651386737823486,0.762948215007782
1789323504225668600,22.119668701171875,4.294408798217773,-1.400138258934021,1.6670784950256348
1789323504244519400,22.13851953125,0.17348061501979828,-1.5675103664398193,2.21134352684021
1789323504263370200,22.157370361328127,0.04214845970273018,-1.3084348440170288,2.445297956466675
1789323504282221000,22.176220947265627,0.4367557764053345,0.04337015375494957,1.5821707248687744
1789323504301072000,22.19507177734375,0.6963658928871155,0.10140064358711243,-0.4734066128730774
1789323504319922700,22.213922607421875,0.7647807598114014,1.4905437231063843,-1.0488247871398926
1789323504338773500,22.2327734375,0.22662433981895447,0.4337015450000763,-1.8637713193893433
1789323504357624300,22.251624267578126,0.5015056133270264,1.9804431200027466,-2.857008934020996
1789323504376475100,22.27047509765625,1.221083641052246,0.9089407324790955,-3.666381597518921
1789323504395326000,22.289325927734374,1.9773889780044556,0.043981000781059265,-4.64870023727417
1789323504414176800,22.3081767578125,1.8680472373962402,-1.4673315286636353,-3.904001235961914
1789323504433027600,22.327027587890626,0.9657495021820068,-3.1441071033477783,-3.267498254776001
1789323504451878400,22.34587841796875,0.41476529836654663,-3.7256338596343994,-3.128835916519165
1789323504470729200,22.364729248046874,1.3334795236587524,-3.7726690769195557,-2.4434654712677
1789323504489580000,22.383580078125,1.3793694972991943,-3.2607791423797607,-2.2156193256378174
1789323504508430600,22.4024306640625,0.5289937257766724,-2.6120591163635254,-1.321873426437378
1789323504527281400,22.421281494140626,0.25289076566696167,-1.362265706062317,-0.911384105682373
1789323504546132200,22.44013232421875,-0.07757759839296341,-1.5265836715698242,0.21990501880645752
1789323504564983000,22.458983154296874,-0.5491516590118408,-1.408690094947815,1.0323318243026733
1789323504583833900,22.477833740234374,-0.8747332692146301,-0.7531746625900269,1.5986636877059937
1789323504602684700,22.4966845703125,-0.6468872427940369,-0.9773555994033813,2.118494749069214
1789323504621535500,22.515535400390625,-0.28221142292022705,-1.1942063570022583,2.405592918395996
1789323504640386300,22.53438623046875,0.011606098152697086,-1.872934103012085,3.0023906230926514
1789323504659237000,22.553237060546873,-0.23273280262947083,-2.318852663040161,3.7164711952209473
1789323504678088000,22.572087890625,-0.8014315962791443,-1.598052740097046,4.343276500701904
1789323504706364000,22.600364013671875,-2.1123862266540527,0.9290986657142639,4.970616817474365
1789323504725214700,22.619214599609375,-2.2773149013519287,1.3964731693267822,5.097672939300537
1789323504744065500,22.6380654296875,-2.1783576011657715,0.7330167293548584,5.535039901733398
1789323504762916400,22.656916259765627,-2.7916483879089355,0.34879377484321594,6.137946128845215
1789323504781767200,22.67576708984375,-3.327972173690796,0.2510582208633423,6.07136344909668
1789323504800618000,22.694617919921875,-2.7739336490631104,0.1423274129629135,5.787930488586426
1789323504819468800,22.71346875,-2.3322911262512207,-0.9895725846290588,4.8698272705078125
1789323504838319400,22.7323193359375,-2.3084681034088135,-1.202147364616394,3.6340067386627197
1789323504857170200,22.751170166015626,-2.576019287109375,-1.2565127611160278,2.174081802368164
1789323504876021000,22.77002099609375,-2.6438233852386475,-2.095282554626465,0.9535325765609741
1789323504894871800,22.788871826171874,-2.26387619972229,-4.0891642570495605,0.44103172421455383
1789323504923148000,22.81714794921875,-1.9175258874893188,-4.5228657722473145,1.035386085510254
1789323504941998800,22.835998779296876,-1.9028655290603638,-1.95967435836792,1.6200432777404785
1789323504960849400,22.854849365234376,-1.9437923431396484,-3.0750813484191895,1.0640959739685059
1789323504979700200,22.8737001953125,-1.5614019632339478,-4.441012382507324,0.1710372269153595
1789323504998551000,22.892551025390624,-1.1184613704681396,-2.9443602561950684,0.35856732726097107
1789323505026827300,22.9208271484375,-0.6945333480834961,-1.8662147521972656,0.24617144465446472
1789323505073954000,22.9679541015625,-0.9914051294326782,-1.1673290729522705,1.248571753501892
1789323505121081000,23.0150810546875,-0.42698222398757935,-0.518609344959259,0.605960488319397
1789323505139931600,23.033931640625,-0.2870981991291046,0.13927318155765533,0.4227063059806824
1789323505158782500,23.052782470703125,-0.024433890357613564,0.32069480419158936,0.4312581717967987
1789323505177633300,23.07163330078125,0.17470231652259827,0.3432961702346802,0.5986303091049194
1789323505196484000,23.090484130859377,0.14721418917179108,0.3811686933040619,0.5607577562332153
1789323505215334700,23.109334716796877,0.17286977171897888,0.7385143637657166,0.5845808386802673
1789323505243611000,23.13761083984375,0.19974705576896667,-0.2480039894580841,1.0873081684112549
1789323505262461700,23.156461669921875,0.04703523963689804,-0.6945333480834961,1.5540717840194702
1789323505281312500,23.1753125,0.13499724864959717,-0.7715001106262207,1.007897973060608
1789323505300163000,23.1941630859375,0.3903313875198364,-0.12400199472904205,0.0024433890357613564
1789323505319014000,23.213013916015626,0.5454866290092468,0.11178504675626755,-0.39827242493629456
1789323505337864700,23.23186474609375,0.5021164417266846,-0.047646086663007736,-0.43614494800567627
1789323505356715500,23.250715576171874,0.17592400312423706,-0.33169007301330566,-0.5222744345664978
1789323505375566000,23.269566162109374,-0.1050657257437706,-0.5870242118835449,-0.17897824943065643
1789323505394417000,23.2884169921875,-0.16798299551010132,-0.7366818189620972,0.15271180868148804
1789323505422693000,23.316693115234376,0.08796200156211853,-0.8790091872215271,-0.1301104724407196
1789323505441543700,23.335543701171876,0.2980934679508209,-0.8515210747718811,-0.36162158846855164
1789323505460394500,23.35439453125,0.2730487287044525,-0.7043069005012512,-0.3127537965774536
1789323505479245300,23.373245361328124,0.130721315741539,-0.4294256269931793,-0.2217375487089157
1789323505498096000,23.39209619140625,-0.10689827054738998,-0.08368607610464096,-0.24433889985084534
1789323505516946700,23.41094677734375,-0.13682979345321655,0.5057815313339233,-0.13988402485847473
1789323505535797500,23.429797607421875,0.14721418917179108,0.7372926473617554,0.08246438205242157
1789323505554648300,23.4486484375,0.16248537600040436,0.9865183234214783,0.017714571207761765
1789323505573499000,23.467498779296875,0.18569757044315338,1.507036566734314,-0.2351761907339096
1789323505592349700,23.486349609375,0.22784602642059326,2.1575889587402344,-0.3414636254310608
1789323505611200500,23.505200439453127,0.28160059452056885,2.185687780380249,-0.45019441843032837
1789323505630051000,23.524051025390627,0.32191649079322815,1.1044118404388428,-0.5253286361694336
1789323505648902000,23.54290185546875,0.11117420345544815,0.624285876750946,-0.1832541823387146
1789323505667752700,23.561752685546875,0.07513421028852463,0.35856732726097107,0.314586341381073
1789323505686603300,23.580603271484375,0.09712471067905426,-0.03420744836330414,0.652384877204895
1789323505705454000,23.5994541015625,-0.025655584409832954,-0.26999449729919434,0.6639909744262695
1789323505724305000,23.618304931640626,-0.06963659077882767,-0.2510582208633423,0.5485408306121826
1789323505743155500,23.637155517578126,-0.01954711228609085,-0.10262233763933182,0.3500154912471771
1789323505762006300,23.65600634765625,0.04703523963689804,0.20402298867702484,0.15026842057704926
1789323505780857000,23.674857177734374,0.1185043677687645,0.5210527181625366,-0.1313321590423584
1789323505799707600,23.693707763671874,0.22479179501533508,0.6627692580223083,-0.4049917459487915
1789323505818558500,23.712558349609374,0.25350162386894226,0.49356457591056824,-0.36162158846855164
1789323505837409300,23.7314091796875,0.2351761907339096,0.16065283119678497,0.0794101431965828
1789323505856259800,23.750259765625,0.3500154912471771,-0.0647498071193695,0.6004628539085388
1789323505875110700,23.769110595703125,0.44103172421455383,-0.32313820719718933,0.7409577369689941
1789323505893961500,23.78796142578125,0.4752391576766968,-0.5790832042694092,0.6371136903762817
1789323505912812000,23.80681201171875,0.34573954343795776,-0.5961869359016418,0.45019441843032837
1789323505931662800,23.825662841796873,0.27854636311531067,-0.4172086715698242,0.3903313875198364
1789323505950513400,23.844513427734373,0.3029802441596985,-0.12644538283348083,0.38422292470932007
1789323505969364200,23.8633642578125,0.3298575282096863,0.01588202826678753,0.3793361485004425
1789323505988215000,23.882215087890625,0.284654825925827,-0.1954711228609085,0.41415444016456604
1789323506007065600,23.901065673828125,0.26694026589393616,-0.5021164417266846,0.5412106513977051
1789323506025916400,23.91991650390625,0.21379654109477997,-0.5851916670799255,0.6120689511299133
1789323506044767200,23.938767333984377,0.2736595869064331,-0.17775654792785645,0.4416425824165344
1789323506063617800,23.95761767578125,0.3500154912471771,0.1960819661617279,0.16309621930122375
1789323506082468600,23.976468505859376,0.28098973631858826,0.4172086715698242,0.006108472589403391
1789323506101319400,23.9953193359375,0.034818295389413834,0.46485477685928345,0.008551862090826035
1789323506120170000,24.014169921875,-0.1850867122411728,0.5234960913658142,0.0525328628718853
1789323506139020800,24.033020751953124,-0.1698155403137207,0.3781144618988037,0.09529217332601547
1789323506157871400,24.051871337890624,-0.02748812735080719,0.32313820719718933,0.2363978922367096
1789323506176722200,24.07072216796875,0.0653606578707695,0.363454133272171,0.3903313875198364
1789323506195572700,24.08957275390625,0.10140064358711243,0.34818294644355774,0.4477510452270508
1789323506214423600,24.108423583984376,0.14171656966209412,0.28160059452056885,0.4349232614040375
1789323506233274400,24.1272744140625,0.1313321590423584,0.06291726976633072,0.4306473135948181
1789323506261550300,24.15555029296875,0.020157959312200546,-0.17775654792785645,0.4434750974178314
1789323506289826300,24.183826416015624,0.03298575058579445,0.007941014133393764,0.17531315982341766
1789323506308677000,24.202677001953123,0.08551861345767975,-0.07574506103992462,0.19974705576896667
1789323506327527700,24.221527587890623,0.08246438205242157,-0.2596100866794586,0.38605546951293945
1789323506346378500,24.24037841796875,0.09590301662683487,-0.4227063059806824,0.49112120270729065
1789323506365229300,24.259229248046875,0.12705622613430023,-0.4294256269931793,0.4312581717967987
1789323506384080000,24.278079833984375,0.16309621930122375,-0.3023693859577179,0.2919849753379822
1789323506402930700,24.2969306640625,0.2211267054080963,-0.17775654792785645,0.14110571146011353
1789323506421781200,24.31578125,0.22906772792339325,-0.12094775587320328,0.047646086663007736
1789323506440632000,24.334632080078126,0.1441599577665329,-0.23945212364196777,0.14171656966209412
1789323506459482600,24.353482666015626,0.08979454636573792,-0.2883199155330658,0.3530697226524353
1789323506478333400,24.37233349609375,0.09712471067905426,0.016492875292897224,0.34635040163993835
1789323506497184300,24.391184326171874,0.09407047927379608,0.42759308218955994,0.05070032179355621
1789323506516034800,24.410034912109374,0.05497625470161438,0.5057815313339233,-0.2107423096895218
1789323506534885600,24.4288857421875,0.0787992998957634,0.30603447556495667,-0.20035789906978607
1789323506553736200,24.447736083984374,0.12827792763710022,0.0922379344701767,-0.07269082218408585
1789323506600863000,24.494863037109376,0.15454435348510742,0.1325538605451584,-0.042759306728839874
1789323506619713800,24.5137138671875,0.15149012207984924,0.26999449729919434,-0.0910162404179573
1789323506638564400,24.532564453125,0.17286977171897888,0.5870242118835449,-0.19058434665203094
1789323506657415200,24.551415283203124,0.19363857805728912,0.8148702383041382,-0.2742704153060913
1789323506676265700,24.570265625,0.25472331047058105,0.8319739699363708,-0.30603447556495667
