time,seconds_elapsed,z,y,x
1789213792040179000,0.066178955078125,0.2065069079399109,0.2836075723171234,-0.33298951387405396
1789213792050211000,0.076211181640625,0.08399473875761032,0.36157217621803284,-0.009627110324800014
1789213792060242000,0.086241943359375,0.04706895351409912,0.3541211783885956,0.2138690948486328
1789213792070273800,0.096273681640625,0.07589813321828842,0.2728165090084076,0.318261981010437
1789213792080306000,0.106305908203125,0.14046940207481384,0.13649091124534607,0.3322811424732208
1789213792090338000,0.116338134765625,0.1895972490310669,-0.005263972096145153,0.3288705050945282
1789213792100370000,0.126369873046875,0.16341198980808258,0.007761549204587936,0.3612672984600067
1789213792110401000,0.136401123046875,0.08288467675447464,0.2317746877670288,0.39258357882499695
1789213792120433000,0.146432861328125,-0.0138663649559021,0.5898412466049194,0.3314096927642822
1789213792130465000,0.156465087890625,-0.11058411747217178,0.7483219504356384,0.14188264310359955
1789213792140497000,0.166496826171875,-0.1878245770931244,0.7494223713874817,-0.11369107663631439
1789213792150529000,0.176529052734375,-0.23698706924915314,0.6658345460891724,-0.35704994201660156
1789213792160561000,0.186560791015625,-0.27078577876091003,0.5001113414764404,-0.561830461025238
1789213792170591700,0.196591796875,-0.2775793969631195,0.3843066096305847,-0.6726976037025452
1789213792180624100,0.2066240234375,-0.27354469895362854,0.40733814239501953,-0.6985300183296204
1789213792190656000,0.216656005859375,-0.30827218294143677,0.2542853057384491,-0.6543488502502441
1789213792200687900,0.22668798828125,-0.3364209830760956,0.1458299458026886,-0.5519683957099915
1789213792210719700,0.2367197265625,-0.3147749602794647,0.4470575749874115,-0.4090123176574707
1789213792220750800,0.246750732421875,-0.26728761196136475,0.8898935914039612,-0.27010583877563477
1789213792230783000,0.256782958984375,-0.25414448976516724,1.1440335512161255,-0.15572108328342438
1789213792240814800,0.26681494140625,-0.25997042655944824,1.1221368312835693,-0.07258225232362747
1789213792250847000,0.276846923828125,-0.26456937193870544,0.8522627949714661,0.03815532475709915
1789213792260878800,0.28687890625,-0.24598874151706696,0.6505951881408691,0.2342878133058548
1789213792270910000,0.296909912109375,-0.19708706438541412,0.6241683959960938,0.4184221625328064
1789213792280942000,0.306942138671875,-0.14750751852989197,0.4824560284614563,0.47187790274620056
1789213792290974000,0.316973876953125,-0.14002536237239838,0.25554168224334717,0.35117214918136597
1789213792301005800,0.327005859375,-0.18403223156929016,0.09904209524393082,0.1317199468612671
1789213792311038000,0.337037841796875,-0.2694406509399414,0.1794697642326355,-0.16540269553661346
1789213792321069000,0.347069091796875,-0.36783698201179504,0.22342416644096375,-0.502513587474823
1789213792331101000,0.357100830078125,-0.47874295711517334,0.08514115959405899,-0.7734271883964539
1789213792341132800,0.3671328125,-0.5754295587539673,-0.056607186794281006,-0.9819939732551575
1789213792351165000,0.3771650390625,-0.6769148111343384,-0.12403616309165955,-1.1601568460464478
1789213792361197000,0.387197021484375,-0.7518659830093384,0.12088170647621155,-1.1893682479858398
1789213792371228000,0.397227783203125,-0.7771657705307007,0.20229975879192352,-1.0218392610549927
1789213792381260000,0.407260009765625,-0.7789900302886963,-0.030765190720558167,-0.7176681756973267
1789213792391292000,0.4172919921875,-0.705245316028595,-0.261656254529953,-0.3565749526023865
1789213792401324000,0.427323974609375,-0.5953917503356934,-0.37078195810317993,-0.04788714647293091
1789213792411356000,0.43735595703125,-0.6018083691596985,-0.4584297835826874,0.1298142671585083
1789213792421388000,0.447387939453125,-0.6454355120658875,-0.4190911650657654,0.20911307632923126
1789213792431419000,0.4574189453125,-0.5197610259056091,-0.6874493956565857,0.1421862542629242
1789213792441450800,0.46745068359375,-0.2927614450454712,-0.9713296294212341,0.008834857493638992
1789213792451483100,0.477483154296875,-0.1380084753036499,-0.7585213780403137,-0.12081314623355865
1789213792461515000,0.487514892578125,-0.034995272755622864,-0.4223550856113434,-0.28270697593688965
1789213792471547000,0.497546875,0.044676415622234344,-0.3457040786743164,-0.43572255969047546
1789213792481578000,0.507577880859375,-0.003674602136015892,-0.37293675541877747,-0.3983650505542755
1789213792491609900,0.51760986328125,-0.14968152344226837,-0.35808873176574707,-0.2643798589706421
1789213792501642000,0.52764208984375,-0.2097105085849762,-0.4266693890094757,-0.1179930567741394
1789213792511673900,0.537673828125,-0.1830102801322937,-0.5295597910881042,-0.02911798097193241
1789213792521706000,0.5477060546875,-0.10333249717950821,-0.5384007096290588,0.022252531722187996
1789213792531736800,0.55773681640625,0.03868558257818222,-0.40133950114250183,0.041797444224357605
1789213792541769000,0.56776904296875,0.18561244010925293,-0.2651515603065491,0.06451580673456192
1789213792551801000,0.577801025390625,0.3440856337547302,-0.14145487546920776,0.16696369647979736
1789213792561833000,0.5878330078125,0.3829755187034607,0.11947499215602875,0.2553494870662689
1789213792571864800,0.59786474609375,0.35507145524024963,0.33683374524116516,0.2987215220928192
1789213792581896000,0.60789599609375,0.3529459834098816,0.23662005364894867,0.22502972185611725
1789213792591928000,0.617927978515625,0.3802119493484497,-0.10966898500919342,0.1300341784954071
1789213792601960000,0.6279599609375,0.37961965799331665,-0.3913869559764862,0.11775833368301392
1789213792611991800,0.63799169921875,0.33222654461860657,-0.5688517689704895,0.12531918287277222
1789213792622024000,0.64802392578125,0.24055764079093933,-0.7312718629837036,0.12774692475795746
1789213792632054800,0.6580546875,0.07938875257968903,-0.8998569846153259,0.11810687184333801
1789213792642087000,0.6680869140625,-0.09766991436481476,-0.9665438532829285,0.12065871059894562
1789213792652119000,0.678119140625,-0.27446165680885315,-0.9583824872970581,0.13897845149040222
1789213792662151000,0.68815087890625,-0.4560157358646393,-0.7573210597038269,0.18461570143699646
1789213792672183000,0.69818310546875,-0.6657795310020447,-0.37627309560775757,0.19294266402721405
1789213792682215000,0.70821484375,-0.8984165191650391,-0.05928394943475723,0.0924845039844513
1789213792692246000,0.71824609375,-1.1107885837554932,-0.12623751163482666,-0.08240263909101486
1789213792702278000,0.72827783203125,-1.3114250898361206,-0.4822464883327484,-0.28313443064689636
1789213792712309800,0.738309814453125,-1.4763363599777222,-0.8580424189567566,-0.43614882230758667
1789213792722342000,0.748341796875,-1.599938988685608,-1.1224147081375122,-0.5164114236831665
1789213792732374000,0.7583740234375,-1.6597495079040527,-1.2785146236419678,-0.4867137670516968
1789213792742404900,0.76840478515625,-1.5494674444198608,-1.1975430250167847,-0.32056206464767456
1789213792752436000,0.77843603515625,-0.8522429466247559,-0.8597867488861084,0.045705366879701614
1789213792762467800,0.7884677734375,0.0877695083618164,-0.23762354254722595,0.47236669063568115
1789213792772500000,0.7985,0.8372060656547546,0.2815467417240143,0.7401890754699707
1789213792782532000,0.808531982421875,0.7546443343162537,0.44227516651153564,0.6996914744377136
1789213792792563000,0.81856298828125,0.33791446685791016,0.4904373586177826,0.37902408838272095
1789213792802594800,0.8285947265625,0.1477075219154358,0.42580854892730713,0.31830111145973206
1789213792812627200,0.838627197265625,0.11524759232997894,0.390889048576355,0.3140447735786438
1789213792822659000,0.8486591796875,0.07895483076572418,0.24795030057430267,0.28639957308769226
1789213792832691000,0.85869091796875,0.08159374445676804,-0.00958024337887764,0.21825653314590454
1789213792842722000,0.86872216796875,0.1520596593618393,-0.19457033276557922,0.20506510138511658
1789213792852754000,0.87875390625,0.2834859788417816,-0.0867786705493927,0.22795042395591736
1789213792862786000,0.8887861328125,0.33387085795402527,0.10428209602832794,0.18329639732837677
1789213792872818000,0.89881787109375,0.31187453866004944,0.26902803778648376,0.09812019020318985
1789213792882850000,0.90885009765625,0.21844953298568726,0.31349217891693115,0.006735689006745815
1789213792892881000,0.918880859375,0.11608278751373291,0.21422737836837769,-0.04781031236052513
1789213792902912800,0.928912841796875,0.06159131973981857,-0.034510526806116104,-0.043440062552690506
1789213792912945200,0.938945068359375,0.06021370738744736,-0.26509806513786316,0.029561204835772514
1789213792922977000,0.94897705078125,0.10330844670534134,-0.28288689255714417,0.1583050787448883
1789213792933009000,0.9590087890625,0.13486173748970032,-0.22196918725967407,0.27256330847740173
1789213792943040000,0.9690400390625,0.08627422153949738,-0.09840836375951767,0.34516534209251404
1789213792953072000,0.979072021484375,-0.021563652902841568,-0.10880792140960693,0.3495239019393921
1789213792963104000,0.98910400390625,-0.19638392329216003,-0.12524628639221191,0.2906792461872101
1789213792973136000,0.999135986328125,-0.33119550347328186,-0.11272578686475754,0.1864519566297531
1789213792983168000,1.00916796875,-0.32256022095680237,-0.09117361903190613,0.047889553010463715
1789213792993198800,1.01919873046875,-0.26179075241088867,0.04561079293489456,-0.05925251170992851
1789213793003231000,1.02923095703125,-0.31856560707092285,0.284848153591156,-0.13882216811180115
1789213793013263000,1.03926318359375,-0.33728328347206116,0.2499369978904724,-0.15335045754909515
1789213793023295000,1.049294921875,-0.2266092449426651,-0.0673149898648262,-0.13741996884346008
1789213793033326800,1.059326904296875,-0.1100720539689064,-0.2810018062591553,-0.054086849093437195
1789213793043358000,1.06935791015625,-0.006630347575992346,-0.3451451063156128,0.08505772799253464
1789213793053390000,1.07939013671875,0.06639163941144943,-0.22872236371040344,0.22706985473632812
1789213793063422000,1.089421875,0.14504677057266235,0.011612465605139732,0.3657284080982208
1789213793073453800,1.099453857421875,0.15789201855659485,0.030184045433998108,0.4013701379299164
1789213793083486000,1.10948583984375,0.13751085102558136,0.09309323877096176,0.47360971570014954
1789213793093517000,1.11951708984375,0.1415899097919464,0.14099454879760742,0.5975016355514526
1789213793103549000,1.129548828125,0.14861559867858887,0.19067874550819397,0.730933427810669
1789213793113581000,1.1395810546875,0.16648365557193756,0.2339121401309967,0.8217565417289734
1789213793123613000,1.149613037109375,0.17139585316181183,0.23416167497634888,0.8880359530448914
1789213793133645000,1.15964501953125,0.11934013664722443,0.21006157994270325,0.90068119764328
1789213793143676200,1.16967626953125,0.013256842270493507,0.15472935140132904,0.8547558188438416
1789213793153708000,1.1797080078125,-0.09106188267469406,0.0654958188533783,0.7620000839233398
1789213793163740000,1.189739990234375,-0.17143288254737854,-0.04454892501235008,0.6252166628837585
1789213793173771800,1.199771728515625,-0.24561044573783875,-0.12173345685005188,0.481889545917511
1789213793183804200,1.20980419921875,-0.302971214056015,-0.1838572919368744,0.3117026388645172
1789213793193835000,1.2198349609375,-0.27735188603401184,-0.21569330990314484,0.12902112305164337
1789213793203867000,1.229866943359375,-0.18159714341163635,-0.14905570447444916,0.012182382866740227
1789213793213899000,1.23989892578125,-0.11372154206037521,-0.07743215560913086,0.016588300466537476
1789213793223931100,1.24993115234375,-0.08895361423492432,-0.06512702256441116,0.15000654757022858
1789213793233963000,1.259962890625,-0.10992014408111572,-0.19201739132404327,0.27163180708885193
1789213793243995000,1.269994873046875,-0.1476866900920868,-0.3039918839931488,0.25929445028305054
1789213793254026000,1.28002587890625,-0.2057839035987854,-0.3768598437309265,0.07711897045373917
1789213793264057900,1.290057861328125,-0.30646631121635437,-0.34836989641189575,-0.23788024485111237
1789213793274090000,1.300090087890625,-0.4046216607093811,-0.24412530660629272,-0.5960575938224792
1789213793284122000,1.3101220703125,-0.4619414210319519,-0.07329417020082474,-0.8391889929771423
1789213793294154000,1.320154052734375,-0.4692332446575165,0.07594950497150421,-0.9236317873001099
1789213793304184800,1.330184814453125,-0.4041762053966522,0.16619178652763367,-0.8781652450561523
1789213793314217000,1.340217041015625,-0.3017934262752533,0.16580526530742645,-0.7054332494735718
1789213793324249000,1.3502490234375,-0.18416987359523773,0.1333724856376648,-0.42072591185569763
1789213793334281000,1.360281005859375,-0.034713588654994965,0.09396163374185562,-0.12971031665802002
1789213793344312800,1.370312744140625,0.03228248655796051,0.07951798290014267,0.08454978466033936
1789213793354344000,1.380343994140625,0.0651140809059143,0.024742010980844498,0.2459183931350708
1789213793364376000,1.3903759765625,0.03912189230322838,-0.08120732754468918,0.3432047367095947
1789213793374408000,1.400407958984375,-0.011603164486587048,-0.2422005981206894,0.4133114218711853
1789213793384440000,1.410440185546875,-0.05448431894183159,-0.35795357823371887,0.49803534150123596
1789213793394472000,1.420471923828125,-0.07897292822599411,-0.4193141758441925,0.5803656578063965
1789213793404502800,1.430502685546875,-0.12786830961704254,-0.41459399461746216,0.6409571170806885
1789213793414535200,1.44053515625,-0.19802944362163544,-0.26912641525268555,0.6334477663040161
1789213793424567000,1.450567138671875,-0.24576793611049652,-0.04082454741001129,0.5105152130126953
1789213793434599000,1.460598876953125,-0.1938878446817398,-0.0017626993358135223,0.308413028717041
1789213793444630800,1.470630859375,-0.17729395627975464,0.05733257904648781,0.22489337623119354
1789213793454662000,1.480661865234375,-0.24236106872558594,0.013785691000521183,0.11690805852413177
1789213793464694000,1.490694091796875,-0.2159488946199417,-0.18374842405319214,0.010262040421366692
1789213793474726000,1.500725830078125,-0.16852504014968872,-0.3727738559246063,-0.04926053062081337
1789213793484758000,1.510758056640625,-0.10515671968460083,-0.5866469740867615,-0.08895920217037201
1789213793494790100,1.5207900390625,-0.12077171355485916,-0.522321343421936,-0.11953578889369965
1789213793504821000,1.530821044921875,-0.07087952643632889,-0.4841603636741638,-0.264925479888916
1789213793514853000,1.54085302734375,0.004030400887131691,-0.4010145962238312,-0.3940192759037018
1789213793524885000,1.550885009765625,0.025246741250157356,-0.3134751617908478,-0.46233201026916504
1789213793534916900,1.560916748046875,0.018542563542723656,-0.2716238498687744,-0.4690755009651184
1789213793544949000,1.570948974609375,-0.02667977474629879,-0.26472118496894836,-0.4239562451839447
1789213793554980000,1.58097998046875,-0.0980033352971077,-0.28893446922302246,-0.3541567921638489
1789213793565012000,1.591011962890625,-0.15282823145389557,-0.2681429088115692,-0.2445237785577774
1789213793575043800,1.6010439453125,-0.1640918254852295,-0.19380664825439453,-0.10418198257684708
1789213793585076000,1.611075927734375,-0.11767826229333878,-0.07221470773220062,0.03877144679427147
1789213793595108000,1.621108154296875,-0.030934154987335205,-0.06261873245239258,0.15399512648582458
1789213793605139000,1.631138916015625,0.05239428952336311,-0.009772824123501778,0.22816096246242523
1789213793615171000,1.641171142578125,0.050564177334308624,0.05004516988992691,0.19522130489349365
1789213793625203000,1.651202880859375,0.10654835402965546,-0.053965386003255844,0.13423492014408112
1789213793635235000,1.661235107421875,0.10092382878065109,-0.18744544684886932,0.11067932844161987
1789213793645267000,1.671266845703125,0.09148558974266052,-0.38402295112609863,0.13283176720142365
1789213793655298000,1.681298095703125,0.1516195833683014,-0.6629137396812439,0.30909714102745056
1789213793665330000,1.691329833984375,0.32470908761024475,-1.2786016464233398,0.6567975878715515
1789213793675361800,1.70136181640625,0.38426971435546875,-1.8838560581207275,1.1476280689239502
1789213793685394200,1.711394287109375,0.49561089277267456,-2.1908209323883057,1.4735968112945557
1789213793695426000,1.721426025390625,0.6799637675285339,-1.9906878471374512,1.5157886743545532
1789213793705458000,1.7314580078125,0.7097249031066895,-1.5762523412704468,1.3973560333251953
1789213793715489000,1.741489013671875,0.5714455842971802,-1.2061197757720947,1.1427072286605835
1789213793725521000,1.75152099609375,0.3232155740261078,-1.0764282941818237,0.8338978290557861
1789213793735553000,1.761552978515625,0.3042892515659332,-1.0843158960342407,0.5882790088653564
1789213793745585000,1.7715849609375,0.4026331305503845,-0.8710740208625793,0.422994464635849
1789213793755617500,1.781617431640625,0.5293417572975159,-0.5693483352661133,0.3661485016345978
1789213793765648600,1.791648681640625,0.6832935214042664,-0.5174260139465332,0.40096959471702576
1789213793775680500,1.801680419921875,0.805853545665741,-0.7069846391677856,0.44005098938941956
1789213793785712400,1.81171240234375,0.8355621695518494,-0.72749924659729,0.4366474747657776
1789213793795744800,1.821744873046875,0.8174868226051331,-0.44672518968582153,0.2775312066078186
1789213793805776600,1.831776611328125,0.7632220387458801,0.08037564903497696,0.07986020296812057
1789213793815807500,1.841807373046875,0.6772201061248779,0.4178640842437744,-0.04567964747548103
1789213793825839600,1.851839599609375,0.5782335996627808,0.5544792413711548,-0.033722322434186935
1789213793835871500,1.86187158203125,0.5466726422309875,0.5213480591773987,-0.01580646261572838
1789213793845903600,1.871903564453125,0.5311443209648132,0.4928716719150543,-0.17753542959690094
1789213793855935500,1.881935546875,0.45486903190612793,0.517537534236908,-0.466652512550354
1789213793865967600,1.891967529296875,0.32714301347732544,0.602188766002655,-0.6914454102516174
1789213793875998500,1.90199853515625,0.21827974915504456,0.8152973651885986,-0.8620465993881226
1789213793886030300,1.9120302734375,0.21793539822101593,0.9718116521835327,-0.9706934094429016
1789213793896062700,1.922062744140625,0.29650476574897766,0.8803603053092957,-1.0217479467391968
1789213793906094600,1.932094482421875,0.48017367720603943,0.41304370760917664,-0.9933496117591858
1789213793916126500,1.94212646484375,0.7026239037513733,0.025837920606136322,-1.0308716297149658
1789213793926157600,1.952157470703125,0.866566002368927,-0.24942640960216522,-1.163555383682251
1789213793936189700,1.962189697265625,0.976641058921814,-0.4282154440879822,-1.287942886352539
1789213793946221600,1.9722216796875,1.039625883102417,-0.5504752993583679,-1.4798654317855835
1789213793956253400,1.98225341796875,1.0868853330612183,-0.6566154956817627,-1.565878987312317
1789213793966285600,1.99228564453125,1.06135094165802,-0.7887194752693176,-1.5705866813659668
1789213793976316400,2.00231640625,1.0099776983261108,-0.9567530751228333,-1.6302450895309448
1789213793986348500,2.0123486328125,1.2608083486557007,-1.5377129316329956,-1.871483564376831
1789213793996380700,2.022380615234375,1.6026959419250488,-2.3870792388916016,-2.1708271503448486
1789213794006412500,2.03241259765625,2.0494391918182373,-2.6291747093200684,-2.390688419342041
1789213794016444400,2.0424443359375,2.3287606239318848,-2.5430798530578613,-2.634539842605591
1789213794026475500,2.0524755859375,2.415987491607666,-2.3398795127868652,-2.8185551166534424
1789213794036507600,2.062507568359375,2.270867347717285,-2.3201661109924316,-2.988867998123169
1789213794046539500,2.07253955078125,1.9516069889068604,-2.5392088890075684,-3.118948459625244
1789213794056571400,2.0825712890625,1.6531648635864258,-2.9491071701049805,-3.1778154373168945
1789213794066603800,2.092603759765625,1.5737179517745972,-4.0204973220825195,-3.2810091972351074
1789213794076634600,2.102634521484375,1.544553518295288,-5.4981489181518555,-3.438030481338501
1789213794086666500,2.11266650390625,1.336555004119873,-6.313277244567871,-3.3614614009857178
1789213794096698600,2.12269873046875,0.9120810031890869,-6.234132766723633,-3.0572664737701416
1789213794106730500,2.13273046875,0.6893864274024963,-6.003314018249512,-2.665181875228882
1789213794116762600,2.1427626953125,0.9501700401306152,-6.385890007019043,-2.1387176513671875
1789213794126793700,2.152793701171875,1.4912841320037842,-6.955025672912598,-1.5081846714019775
1789213794136825600,2.16282568359375,2.0869929790496826,-7.328614711761475,-0.8610294461250305
1789213794146857500,2.172857421875,2.5985171794891357,-7.242719650268555,-0.1842869371175766
1789213794156889300,2.182889404296875,3.0464651584625244,-6.516477584838867,0.46895259618759155
1789213794166921700,2.192921630859375,3.492436647415161,-5.4072980880737305,0.9977000951766968
1789213794176952600,2.20295263671875,3.9312973022460938,-4.221668243408203,1.3825616836547852
1789213794186984400,2.212984375,4.298767566680908,-3.200974702835083,1.5122253894805908
1789213794197016600,2.2230166015625,4.514475345611572,-2.672192096710205,1.2974296808242798
1789213794207048700,2.233048583984375,4.38043212890625,-2.5810344219207764,0.9115301370620728
1789213794217080600,2.24308056640625,3.921769857406616,-2.9639463424682617,0.6038415431976318
1789213794227112400,2.253112548828125,3.343867063522339,-3.418950319290161,0.5737288594245911
1789213794237143600,2.2631435546875,2.796826124191284,-3.6611037254333496,0.8338018655776978
1789213794247175400,2.273175537109375,2.355846405029297,-3.765856981277466,1.2803412675857544
1789213794257207600,2.28320751953125,2.1516332626342773,-3.708940267562866,1.781017780303955
1789213794267239700,2.29323974609375,2.1646170616149902,-3.4177706241607666,2.2607476711273193
1789213794277271600,2.303271484375,2.37429141998291,-2.958390712738037,2.5780982971191406
1789213794287302400,2.313302490234375,2.8234779834747314,-2.3149349689483643,2.653116464614868
1789213794297334500,2.32333447265625,3.351189613342285,-1.5451442003250122,2.466752052307129
1789213794307366700,2.33336669921875,3.566168785095215,-0.6275579333305359,2.0932459831237793
1789213794317398500,2.3433984375,3.56964373588562,0.1479790359735489,1.657942771911621
1789213794327429600,2.3534296875,3.2386155128479004,0.8330140709877014,1.2789525985717773
1789213794337461500,2.36346142578125,2.637531280517578,1.6341782808303833,1.0068260431289673
1789213794347493600,2.37349365234375,1.963012456893921,2.2415950298309326,0.8261906504631042
1789213794357525500,2.383525390625,1.6088773012161255,2.721526861190796,0.5672340393066406
1789213794367557600,2.3935576171875,1.5934282541275024,3.167325735092163,0.10726328194141388
1789213794377589500,2.403589599609375,1.811860203742981,3.4725353717803955,-0.5682292580604553
1789213794387620400,2.413620361328125,2.0998423099517822,3.3002748489379883,-1.3864349126815796
1789213794397652700,2.42365283203125,2.300666570663452,3.164473056793213,-2.1256179809570312
1789213794407684600,2.4336845703125,2.296307325363159,2.9095075130462646,-2.547088861465454
1789213794417716500,2.443716552734375,2.015869140625,2.4586904048919678,-2.3572819232940674
1789213794427748400,2.453748291015625,1.468116044998169,2.014608383178711,-1.321764349937439
1789213794437779500,2.463779541015625,0.9048959612846375,1.5022823810577393,-0.2355293482542038
1789213794447811600,2.4738115234375,0.5943101048469543,1.1512510776519775,0.4698978066444397
1789213794457843500,2.483843505859375,0.5314908623695374,1.3674076795578003,0.6364043951034546
1789213794467875600,2.49387548828125,0.7585996389389038,1.6315910816192627,0.4607364237308502
1789213794477907700,2.50390771484375,0.9558713436126709,2.1341850757598877,0.3056695759296417
1789213794487938600,2.5139384765625,0.9089139699935913,2.3879618644714355,0.4925236105918884
1789213794497970700,2.523970703125,0.8992375731468201,2.0309934616088867,0.9862244725227356
1789213794508002600,2.53400244140625,1.1994189023971558,1.9980741739273071,1.4596155881881714
1789213794518034400,2.544034423828125,1.503965973854065,2.3048620223999023,1.7135628461837769
1789213794528066600,2.554066650390625,1.7953951358795166,2.131593942642212,1.8061561584472656
1789213794538097700,2.56409765625,1.722158432006836,1.7680675983428955,1.9090832471847534
1789213794548129500,2.574129638671875,1.5454858541488647,1.250472903251648,1.7108210325241089
1789213794558161400,2.584161376953125,1.2925677299499512,1.0132797956466675,0.962303876876831
1789213794568193500,2.594193603515625,1.1382253170013428,1.1560947895050049,0.42099055647850037
1789213794578225700,2.6042255859375,1.1895740032196045,1.0434015989303589,0.3945674002170563
1789213794588256500,2.614256591796875,1.3547488451004028,0.6744396090507507,0.6410357356071472
1789213794598288600,2.62428857421875,1.5084089040756226,0.11238225549459457,0.7620506882667542
1789213794608320500,2.634320556640625,1.4568555355072021,0.31407833099365234,0.6629467606544495
1789213794618352600,2.6443525390625,1.189367413520813,-0.7556929588317871,0.3365851640701294
1789213794628384500,2.654384521484375,0.8880632519721985,-2.7698912620544434,0.3187752664089203
1789213794638415600,2.66441552734375,1.4233980178833008,-1.3711804151535034,0.943014919757843
1789213794648447500,2.674447509765625,1.2641221284866333,-2.4377505779266357,0.9379642605781555
1789213794658479400,2.684479248046875,1.3285170793533325,-3.3364875316619873,0.09056665003299713
1789213794668511700,2.69451171875,1.114199161529541,-2.851828098297119,-0.22875328361988068
1789213794678542600,2.70454248046875,0.4435168206691742,-1.517485499382019,0.13611938059329987
1789213794688574500,2.714574462890625,-0.2802286148071289,-1.2871079444885254,0.43206658959388733
1789213794698606600,2.724606689453125,-0.7535080909729004,-1.5891139507293701,1.0137131214141846
1789213794708638500,2.734638427734375,-0.9132722020149231,-1.772483468055725,1.230897307395935
1789213794718670600,2.744670654296875,-0.7863132953643799,-1.6831165552139282,1.2847200632095337
1789213794728702500,2.754702392578125,-0.5347521901130676,-1.554097056388855,1.8172972202301025
1789213794738733600,2.764733642578125,-0.434553325176239,-1.1919804811477661,1.6926894187927246
1789213794748765400,2.774765380859375,-0.34456270933151245,-0.8684902787208557,1.326161503791809
1789213794758796800,2.784796875,0.04265855997800827,-0.46040165424346924,0.6518793106079102
1789213794768829000,2.794828857421875,0.39651012420654297,-0.24803081154823303,0.43394961953163147
1789213794778859800,2.80485986328125,0.6536413431167603,0.12168003618717194,0.5354954600334167
1789213794788892000,2.814891845703125,0.7990329265594482,-0.03615966811776161,0.7977579832077026
1789213794798923800,2.824923828125,0.6896644830703735,-0.4786166250705719,0.9913740158081055
1789213794808956000,2.834955810546875,0.5599387288093567,-1.0441607236862183,1.3339649438858032
1789213794818987800,2.84498779296875,0.4752788841724396,-0.8508919477462769,1.7983851432800293
1789213794829019000,2.855018798828125,0.38318943977355957,-0.598781943321228,1.9153103828430176
1789213794839050800,2.86505078125,0.05441531538963318,-0.3922071158885956,1.3054187297821045
1789213794849082600,2.87508251953125,-1.043419599533081,-0.2382577657699585,3.365955352783203
1789213794859115000,2.885114990234375,-0.7767989039421082,-1.5609068870544434,2.390932083129883
1789213794869147000,2.89514697265625,0.18508827686309814,-0.5218220949172974,0.6221135258674622
1789213794879177700,2.905177734375,0.35629671812057495,0.4526897966861725,-0.16607387363910675
1789213794889209900,2.9152099609375,-0.08789566159248352,-0.44012802839279175,-0.026903199031949043
1789213794899241700,2.92524169921875,-0.4792588949203491,-1.2390005588531494,0.5344511270523071
1789213794909273900,2.93527392578125,-0.3298454284667969,-1.5376710891723633,0.8111711144447327
1789213794919305700,2.9453056640625,-0.022427188232541084,-1.2238528728485107,0.5806432962417603
1789213794929336800,2.9553369140625,0.32111606001853943,-0.6992183327674866,0.16967198252677917
1789213794939368700,2.96536865234375,0.680275559425354,-0.2854406237602234,-0.33637428283691406
1789213794949400800,2.97540087890625,0.6564948558807373,-0.024947799742221832,-0.5353521108627319
1789213794959433000,2.985432861328125,0.4894728362560272,0.013861050829291344,-0.6120955944061279
1789213794969464800,2.99546484375,0.37415796518325806,0.04461283981800079,-0.8522283434867859
1789213794979495700,3.00549560546875,0.3899725675582886,0.20949383080005646,-1.0420926809310913
1789213794989527800,3.01552783203125,0.30800020694732666,-0.009449166245758533,-1.4797426462173462
1789213794999560000,3.025559814453125,0.2893841564655304,-0.30807557702064514,-1.8364722728729248
1789213795009591800,3.035591796875,0.38867348432540894,-0.5981449484825134,-2.0754687786102295
1789213795019623700,3.045623779296875,0.40293508768081665,-0.7332779169082642,-2.4201717376708984
1789213795029654800,3.05565478515625,0.3415606617927551,-0.8670871257781982,-2.397420883178711
1789213795039686700,3.065686767578125,0.185818150639534,-1.1104415655136108,-2.2512755393981934
1789213795049718800,3.07571875,0.013735344633460045,-1.4311472177505493,-2.247209310531616
1789213795059751000,3.0857509765625,-0.10089422762393951,-1.625832200050354,-2.207231044769287
1789213795069782800,3.09578271484375,-0.49279677867889404,-1.47535240650177,-1.6367281675338745
1789213795079813600,3.105813720703125,-0.47929808497428894,-1.246281623840332,-1.5523085594177246
1789213795089846000,3.115845947265625,-0.321450412273407,-0.4327877461910248,-1.916213035583496
1789213795099878000,3.1258779296875,-0.0958232432603836,0.5327100157737732,-1.9594248533248901
1789213795109909800,3.13590966796875,0.08053048700094223,0.9220945239067078,-1.7762787342071533
1789213795119941600,3.145941650390625,0.3816957175731659,1.0084832906723022,-1.4932681322097778
1789213795129972700,3.15597265625,0.6079866290092468,1.0040310621261597,-1.253575325012207
1789213795140004900,3.1660048828125,0.7752504348754883,1.0055099725723267,-1.1700042486190796
1789213795150036700,3.17603662109375,0.8449000716209412,1.0612632036209106,-1.2827132940292358
1789213795160068900,3.18606884765625,1.6665194034576416,1.419974684715271,-1.346265435218811
1789213795170100700,3.196100830078125,2.760774612426758,1.630366325378418,-1.2152222394943237
1789213795180131800,3.2061318359375,3.2565701007843018,1.5852137804031372,-1.1157593727111816
1789213795190164000,3.2161640625,3.2396938800811768,1.4830693006515503,-1.0728305578231812
1789213795200195800,3.22619580078125,2.949991464614868,1.8596645593643188,-0.8547954559326172
1789213795210227700,3.236227783203125,2.6881635189056396,2.5480008125305176,-0.6511821746826172
1789213795220259800,3.246259765625,2.494389533996582,2.7074077129364014,-0.6170209050178528
1789213795230291000,3.256291015625,1.8000091314315796,2.424071788787842,-0.4844343960285187
1789213795240322800,3.26632275390625,1.2067011594772339,1.7110546827316284,-0.4952997863292694
1789213795250354700,3.276354736328125,0.9232702255249023,1.4399019479751587,-0.6514065861701965
1789213795260386800,3.28638671875,0.33681169152259827,0.5760711431503296,-0.845784068107605
1789213795270419000,3.2964189453125,-0.3724544048309326,0.16152377426624298,-1.0451326370239258
1789213795280449800,3.30644970703125,-0.3964705765247345,0.2919830083847046,-1.2631781101226807
1789213795290482000,3.31648193359375,-0.2511237859725952,0.2730279564857483,-1.3024557828903198
1789213795300513800,3.326513671875,-0.3045988976955414,-0.00748863909393549,-1.3063712120056152
1789213795310545700,3.336545654296875,-0.32897108793258667,-0.28773173689842224,-1.2867752313613892
1789213795320577800,3.346577880859375,-0.2279047816991806,-0.7493433952331543,-1.2460347414016724
1789213795330609000,3.35660888671875,-0.48825329542160034,-1.4767011404037476,-1.220432162284851
1789213795340640800,3.366640869140625,-1.065954566001892,-2.372638463973999,-1.2920480966567993
1789213795350672600,3.376672607421875,-1.7865071296691895,-2.958158016204834,-1.2886943817138672
1789213795360705000,3.386705078125,-2.1051406860351562,-2.7968177795410156,-1.3871933221817017
1789213795370737000,3.39673681640625,-2.1757028102874756,-1.9823713302612305,-1.6269962787628174
1789213795380767700,3.406767822265625,-1.7223790884017944,-1.0910937786102295,-1.7353603839874268
1789213795390800000,3.4167998046875,-1.0745571851730347,-0.04133319854736328,-1.897264838218689
1789213795400831700,3.426831787109375,-0.5741499662399292,0.1656269133090973,-2.0608646869659424
1789213795410863900,3.43686376953125,-0.2501274347305298,0.05882163718342781,-2.0029897689819336
1789213795420895700,3.446895751953125,-0.53382807970047,-0.4863169193267822,-1.755327582359314
1789213795430926800,3.4569267578125,-0.9026529788970947,-1.086921215057373,-1.4062836170196533
1789213795440958700,3.466958740234375,-0.8049885630607605,-1.082612156867981,-1.1215518712997437
1789213795450990600,3.476990478515625,-0.08635029196739197,-0.39613789319992065,-1.010556697845459
1789213795461023000,3.48702294921875,0.6192154288291931,0.041832417249679565,-0.9554648399353027
1789213795471054800,3.497054931640625,0.6651017069816589,0.1597318947315216,-0.7789756059646606
1789213795481085700,3.507085693359375,0.6827653050422668,-0.22828592360019684,-0.5607405304908752
1789213795491117800,3.517117919921875,0.630154550075531,-0.9106940627098083,-0.20478378236293793
1789213795501150000,3.52714990234375,0.35864973068237305,-1.5968966484069824,0.04603361338376999
1789213795511181800,3.537181884765625,0.041818536818027496,-1.7478723526000977,0.6024547219276428
1789213795521213700,3.547213623046875,0.3167489767074585,-1.6915262937545776,1.291632890701294
1789213795531244800,3.557244873046875,0.6453418135643005,-0.6520569920539856,1.358948826789856
1789213795541276700,3.567276611328125,0.7792615294456482,0.2332741618156433,1.4361450672149658
1789213795551308800,3.577308837890625,0.7131301760673523,0.6202501058578491,1.6898598670959473
1789213795561341000,3.5873408203125,0.6170122027397156,0.9710866808891296,1.761807918548584
1789213795571372800,3.597372802734375,0.8432056903839111,1.4220619201660156,1.589809775352478
1789213795581403600,3.607403564453125,0.8771634101867676,1.4879937171936035,1.314393162727356
1789213795591436000,3.61743603515625,0.9620205163955688,1.4261175394058228,1.0382366180419922
1789213795601468000,3.627468017578125,1.0280048847198486,1.0783220529556274,0.7765113115310669
1789213795611499800,3.637499755859375,1.096205472946167,0.7473376989364624,0.4934501051902771
1789213795621531600,3.64753173828125,1.0693186521530151,0.4452415108680725,0.2696193754673004
1789213795631563800,3.657563720703125,0.7977215647697449,0.15671011805534363,0.02726241573691368
1789213795641595000,3.667594970703125,0.35546767711639404,-0.2506418228149414,-0.1831059604883194
1789213795651626800,3.677626708984375,0.2616676688194275,-0.12784986197948456,-0.47246453166007996
1789213795661659000,3.687658935546875,0.25588223338127136,-0.12049832940101624,-0.7973675727844238
1789213795671690800,3.697690673828125,0.011839748360216618,-0.4219774901866913,-1.2385042905807495
1789213795681723000,3.707722900390625,-0.06699831038713455,-0.43575555086135864,-1.4206621646881104
1789213795691754000,3.71775390625,-0.3941445052623749,-0.4320199489593506,-1.5067919492721558
1789213795701785900,3.727785888671875,-0.8761274218559265,-0.35470038652420044,-1.7890024185180664
1789213795711817700,3.737817626953125,-1.0932626724243164,0.2821732759475708,-1.9903050661087036
1789213795721849600,3.747849609375,-1.2563152313232422,0.7726444602012634,-2.076915979385376
1789213795731882000,3.757882080078125,-1.4038584232330322,0.9839345812797546,-1.886426568031311
1789213795741912800,3.767912841796875,-1.3974868059158325,0.7390651106834412,-1.6653687953948975
1789213795751946800,3.77794677734375,-1.8162568807601929,0.285328209400177,-0.9674487113952637
1789213795761978600,3.787978515625,-2.103018045425415,-0.0305184219032526,-0.5931795239448547
1789213795772010500,3.798010498046875,-2.148632526397705,-0.07198037207126617,-0.47080355882644653
1789213795782042600,3.808042724609375,-2.471860885620117,0.12669587135314941,-0.43170058727264404
1789213795792073500,3.818073486328125,-2.768415927886963,0.31975477933883667,-0.3759140074253082
1789213795802105600,3.828105712890625,-2.1083059310913086,-0.045958954840898514,-0.2326086461544037
1789213795812137700,3.8381376953125,-1.1653227806091309,-0.2775394320487976,-0.044575367122888565
1789213795822169600,3.848169677734375,-0.3378947973251343,-0.3114999532699585,-0.06774922460317612
1789213795832200400,3.858200439453125,0.30871379375457764,0.6498279571533203,-0.3008735477924347
1789213795842232600,3.868232666015625,0.4362793266773224,1.1782907247543335,-0.6499915719032288
1789213795852264700,3.8782646484375,0.16286297142505646,1.223759651184082,-0.8002849221229553
1789213795862296600,3.888296630859375,-0.07850909978151321,1.2072774171829224,-0.6829624772071838
1789213795872328400,3.898328369140625,-0.11622079461812973,1.1230261325836182,-0.5867733359336853
1789213795882359600,3.908359619140625,-0.03298100084066391,1.0510220527648926,-0.5821217894554138
1789213795892391700,3.9183916015625,0.023511836305260658,1.0837763547897339,-0.6079549789428711
1789213795902423600,3.928423583984375,-0.0015721265226602554,0.8661109209060669,-0.5507810711860657
1789213795912455700,3.93845556640625,0.006521219853311777,0.3393342196941376,-0.35062214732170105
1789213795922486500,3.948486572265625,-0.02509714476764202,-0.06928347796201706,-0.027271069586277008
1789213795932518400,3.958518310546875,-0.0285323578864336,-0.34968531131744385,0.15732194483280182
1789213795942550800,3.96855078125,0.08976690471172333,-0.43747034668922424,0.05290089175105095
1789213795952582700,3.978582763671875,0.4535709619522095,0.1606796234846115,-0.2994467616081238
1789213795962614500,3.988614501953125,0.522172212600708,1.3392785787582397,-0.618742823600769
1789213795972645600,3.998645751953125,0.30299195647239685,2.550142288208008,-0.784479558467865
1789213795982677800,4.008677734375,-0.010623937472701073,2.765247344970703,-1.1077053546905518
1789213795992709600,4.018709716796875,-0.34887948632240295,2.636380195617676,-1.201456904411316
1789213796002741500,4.028741455078125,-0.6046451330184937,2.447030782699585,-0.8873040080070496
1789213796012772600,4.038772705078125,-0.804473340511322,1.5062998533248901,-0.4072149097919464
1789213796022804500,4.048804443359375,-0.723896861076355,0.9528944492340088,-0.39894527196884155
1789213796032836600,4.058836669921875,-0.5138062238693237,0.9015567302703857,-0.44169992208480835
1789213796042868700,4.06886865234375,-0.24472875893115997,0.5230907201766968,-0.2770966589450836
1789213796052900600,4.078900634765625,0.02126188948750496,0.27701836824417114,-0.3196137547492981
1789213796062931500,4.088931396484375,-0.13433822989463806,0.13514316082000732,-0.2833578586578369
1789213796072963600,4.098963623046875,-0.14349551498889923,0.11322187632322311,-0.33011630177497864
1789213796082995700,4.10899560546875,0.2772045135498047,0.18611542880535126,-0.37151601910591125
1789213796093027600,4.119027587890625,0.6344830393791199,0.3059435784816742,-0.28371718525886536
1789213796103059500,4.1290595703125,0.7387375831604004,0.3318255841732025,-0.018153991550207138
1789213796113090600,4.139090576171875,0.9288278818130493,0.32554665207862854,0.1549948900938034
1789213796123122700,4.149122802734375,1.0170289278030396,0.36479222774505615,0.1548515111207962
1789213796133154600,4.159154541015625,0.8964609503746033,0.4653366804122925,-0.08952467143535614
1789213796143186700,4.169186767578125,0.6476359367370605,0.5538421869277954,-0.3193930685520172
1789213796153217500,4.179217529296875,0.27491241693496704,0.4484233260154724,-0.2704942524433136
1789213796163249400,4.18924951171875,-0.07975117117166519,0.2439216822385788,-0.035691261291503906
1789213796173281800,4.19928173828125,-0.18167300522327423,0.1448366343975067,-0.021787164732813835
1789213796183313700,4.209313720703125,-0.15030629932880402,0.12703420221805573,-0.13345670700073242
1789213796193345500,4.219345458984375,0.03192688897252083,0.3184419870376587,-0.31692588329315186
1789213796203376600,4.229376708984375,-0.1442636102437973,0.053790464997291565,-0.40733861923217773
1789213796213408500,4.239408447265625,-0.23603880405426025,0.15148906409740448,-0.40409141778945923
1789213796223440600,4.249440673828125,-0.10891243815422058,0.38050445914268494,-0.3265291452407837
1789213796233472500,4.259472412109375,0.10442114621400833,0.5590078830718994,-0.24500125646591187
1789213796243503600,4.269503662109375,0.27841588854789734,0.5396480560302734,-0.1477590650320053
1789213796253535500,4.279535400390625,0.4858468472957611,0.37317681312561035,-0.10417057573795319
1789213796263567600,4.289567626953125,0.7780272960662842,0.2994403839111328,-0.275604784488678
1789213796273599700,4.299599853515625,1.182356357574463,0.2828350365161896,-0.6170132756233215
1789213796283631600,4.309631591796875,1.3266416788101196,0.2660214602947235,-0.4815581738948822
1789213796293662500,4.319662353515625,1.1873281002044678,0.20221665501594543,-0.5312244892120361
1789213796303694600,4.329694580078125,0.9872096180915833,0.016082946211099625,-0.8355712890625
1789213796313726700,4.339726806640625,0.5823436379432678,0.13904854655265808,-0.6485306024551392
1789213796323758600,4.349758544921875,0.09786820411682129,0.16128942370414734,-0.6045989394187927
1789213796333789700,4.359789794921875,-0.22152496874332428,0.19797606766223907,-0.6168015599250793
1789213796343821600,4.369821533203125,-0.15715301036834717,0.24202165007591248,-0.5570955276489258
1789213796353853700,4.379853759765625,0.19556854665279388,0.2640020549297333,-0.39209163188934326
1789213796363885600,4.389885498046875,0.6364014148712158,0.24341656267642975,-0.2304927557706833
1789213796373916700,4.399916748046875,0.9706020355224609,0.23086322844028473,-0.014367923140525818
1789213796383948500,4.409948486328125,0.9363387823104858,0.22137269377708435,-0.10959051549434662
1789213796393980400,4.41998046875,1.0910731554031372,-0.015968751162290573,-0.7022804617881775
1789213796404012800,4.4300126953125,1.4593193531036377,0.329552561044693,-0.49811553955078125
1789213796414044700,4.440044677734375,1.9773175716400146,0.5918446779251099,-0.4714634120464325
1789213796424075500,4.450075439453125,2.0954065322875977,1.2037349939346313,-0.4262933135032654
1789213796434107600,4.460107666015625,1.3523155450820923,1.2519574165344238,0.08758491277694702
1789213796444139500,4.470139404296875,0.2155085802078247,-0.018129562959074974,-0.17635084688663483
1789213796454171600,4.480171630859375,0.4519703686237335,0.5844306349754333,-1.260384440422058
1789213796464202800,4.49020263671875,1.196912407875061,1.5066715478897095,-0.9720146059989929
1789213796474234600,4.500234619140625,1.0348111391067505,1.1328506469726562,-0.4110091030597687
1789213796484266500,4.5102666015625,0.7675711512565613,0.20254291594028473,-0.16290411353111267
1789213796494298600,4.520298583984375,0.8073318600654602,-0.494981586933136,-0.07705605030059814
1789213796504330800,4.530330810546875,0.5086393356323242,-0.17268536984920502,-0.23241643607616425
1789213796514361600,4.540361572265625,0.20728746056556702,0.4450441598892212,-0.3841444253921509
1789213796524393500,4.5503935546875,-0.03737783804535866,0.2230576127767563,-0.23111426830291748
1789213796534425600,4.560425537109375,-0.15662379562854767,0.07936329394578934,-0.19561006128787994
1789213796544457700,4.570457763671875,-0.17568016052246094,-0.03930680826306343,-0.21999599039554596
1789213796554488600,4.580488525390625,-0.13858740031719208,0.08667242527008057,-0.3743714392185211
1789213796564520700,4.590520751953125,-0.1794351488351822,0.092567577958107,-0.5278719663619995
1789213796574552600,4.600552490234375,-0.2931979298591614,-0.06732381880283356,-0.6501187682151794
1789213796584584400,4.61058447265625,-0.31122153997421265,-0.26894164085388184,-0.76582932472229
1789213796594616600,4.620616455078125,-0.14945365488529205,-0.39118847250938416,-0.9094317555427551
1789213796604647700,4.630647705078125,0.20010463893413544,-0.5608696341514587,-0.9007694721221924
1789213796614679600,4.640679443359375,0.9209944009780884,-0.10510552674531937,-0.8451421856880188
1789213796624711400,4.65071142578125,0.9829528331756592,0.33653590083122253,-0.5885002613067627
1789213796634743800,4.660743896484375,0.680216372013092,0.32165229320526123,-0.29909831285476685
1789213796644774700,4.670774658203125,0.3683687448501587,0.4642902910709381,-0.47655513882637024
1789213796654806500,4.680806640625,0.1370803862810135,0.3982795774936676,-0.9252804517745972
1789213796664838700,4.690838623046875,0.06523332744836807,0.4471481144428253,-0.9820528626441956
1789213796674870500,4.70087060546875,0.13260172307491302,0.6820011138916016,-0.8642687201499939
1789213796684902700,4.710902587890625,0.23487070202827454,0.8370935916900635,-0.7496542930603027
1789213796694933800,4.720933837890625,0.27267107367515564,0.6940773129463196,-0.7111111283302307
1789213796704965600,4.730965576171875,0.2555822730064392,0.4132607877254486,-0.7441649436950684
1789213796714997500,4.74099755859375,0.24398580193519592,0.17328786849975586,-0.8526203632354736
1789213796725029400,4.751029296875,0.1901147961616516,0.005454326048493385,-1.0027416944503784
1789213796735060700,4.761060791015625,0.07681700587272644,-0.05142679810523987,-1.1315393447875977
1789213796745092600,4.771092529296875,-0.12385421246290207,0.003722882829606533,-1.1864017248153687
1789213796755123200,4.781123291015625,-0.33593183755874634,0.11111219227313995,-1.1779909133911133
1789213796765155000,4.791155029296875,-0.5132595896720886,0.24048544466495514,-1.1146339178085327
1789213796775186200,4.801186279296875,-0.5773549675941467,0.4220679998397827,-1.0521801710128784
1789213796785218000,4.811218017578125,-0.5102220773696899,0.555383026599884,-1.0417113304138184
1789213796795250200,4.821250244140625,-0.3121630549430847,0.5394618511199951,-1.0544447898864746
1789213796805282000,4.831281982421875,-0.018250852823257446,0.30399131774902344,-1.0747764110565186
1789213796815314200,4.841314208984375,0.2761373817920685,-0.2341720163822174,-1.0687021017074585
1789213796825345000,4.851344970703125,0.49976634979248047,-0.7104026675224304,-1.131312370300293
1789213796835377000,4.861376953125,0.6148271560668945,-0.9537569880485535,-1.1978325843811035
1789213796845409300,4.8714091796875,0.5621689558029175,-0.8353480100631714,-1.0482845306396484
1789213796855441200,4.881441162109375,0.37950247526168823,-0.1942814290523529,-0.7406104207038879
1789213796865472000,4.891471923828125,0.09815464168787003,0.6927857398986816,-0.6741124987602234
1789213796875504000,4.901504150390625,-0.15400995314121246,1.4576469659805298,-0.9041571617126465
1789213796885536300,4.911536376953125,-0.3086090385913849,1.7595659494400024,-1.0630645751953125
1789213796895568100,4.921568115234375,-0.2771664559841156,1.375840663909912,-1.044801115989685
1789213796905600000,4.93160009765625,-0.16169191896915436,0.7752819657325745,-1.0237294435501099
1789213796915631000,4.941631103515625,-0.17581358551979065,0.7112510800361633,-1.1680773496627808
1789213796925663000,4.9516630859375,-0.29413822293281555,1.027551531791687,-1.3564088344573975
1789213796935695000,4.961695068359375,-0.40209054946899414,1.0532264709472656,-1.4272435903549194
1789213796945727200,4.971727294921875,-0.4078133702278137,0.6116474866867065,-1.3586382865905762
1789213796955758000,4.981758056640625,-0.5012117624282837,0.23369887471199036,-1.255781650543213
1789213796965790000,4.9917900390625,-0.6934881806373596,0.015199837274849415,-1.2736905813217163
1789213796975822000,5.001822021484375,-0.8754960298538208,-0.090961754322052,-1.4596672058105469
1789213796985854200,5.011854248046875,-1.059584140777588,-0.20711971819400787,-1.7629234790802002
1789213796995886000,5.021885986328125,-1.2275326251983643,-0.36263954639434814,-2.039623498916626
1789213797005917200,5.031917236328125,-1.2722147703170776,-0.3995303213596344,-2.1699106693267822
1789213797015949000,5.041948974609375,-1.2799800634384155,-0.30286797881126404,-2.0810370445251465
1789213797025981200,5.051981201171875,-1.312036156654358,-0.1101064532995224,-1.9800527095794678
1789213797036013000,5.062012939453125,-1.3623515367507935,-0.021573923528194427,-1.950614094734192
1789213797046044200,5.072044189453125,-1.3915199041366577,-0.2029554694890976,-2.017955780029297
1789213797056076000,5.082075927734375,-1.4002883434295654,-0.5721380710601807,-2.0986316204071045
1789213797066108000,5.09210791015625,-1.5069384574890137,-0.9193834662437439,-2.130370855331421
1789213797076140300,5.102140380859375,-1.6773003339767456,-0.9391931295394897,-2.159191846847534
1789213797086171100,5.112171142578125,-1.7115837335586548,-0.830359935760498,-2.1696650981903076
1789213797096203000,5.122203125,-1.5151658058166504,-0.7249515056610107,-2.137437582015991
1789213797106235100,5.132235107421875,-1.2772457599639893,-0.6254668235778809,-1.9413913488388062
1789213797116267000,5.14226708984375,-0.9672845005989075,-0.5409830808639526,-1.5016225576400757
1789213797126299100,5.152299072265625,-0.4958076477050781,-0.25066813826560974,-0.9667844176292419
1789213797136330200,5.162330322265625,0.08010625839233398,0.21129627525806427,-0.650054395198822
1789213797146362000,5.172362060546875,0.3854273557662964,0.40057122707366943,-0.6323388814926147
1789213797156394000,5.18239404296875,0.36816686391830444,0.26387837529182434,-0.516589879989624
1789213797166426000,5.192426025390625,0.49267059564590454,0.24050697684288025,-0.08346958458423615
1789213797176457200,5.202457275390625,0.8933085799217224,0.4971366226673126,0.3895605504512787
1789213797186489000,5.212489013671875,1.2701313495635986,0.6699199676513672,0.5719090104103088
1789213797196521000,5.22252099609375,1.509366750717163,0.6527814269065857,0.7379230260848999
1789213797206553000,5.232552978515625,1.69917631149292,0.640051007270813,1.0353496074676514
1789213797216584000,5.242583984375,1.8867930173873901,0.9355119466781616,1.2961580753326416
1789213797226616000,5.252615966796875,1.996753454208374,1.4129831790924072,1.4325344562530518
1789213797236648200,5.262648193359375,2.0553383827209473,1.7767963409423828,1.2905632257461548
1789213797246680000,5.27268017578125,2.04077410697937,1.5338349342346191,1.1376417875289917
1789213797256712200,5.282712158203125,2.0601003170013428,0.9405897259712219,1.1125808954238892
1789213797266743300,5.292743408203125,2.155620574951172,0.4210723340511322,1.0915610790252686
1789213797276775200,5.302775146484375,2.2733914852142334,0.23970521986484528,1.030863881111145
1789213797286807000,5.31280712890625,2.299072265625,0.30174508690834045,1.0059401988983154
1789213797296839000,5.3228388671875,2.1231560707092285,0.2805822789669037,1.194749355316162
1789213797306870000,5.3328701171875,1.8016161918640137,0.2476700395345688,1.558478832244873
1789213797316902100,5.342902099609375,1.478956937789917,0.13250136375427246,1.7336211204528809
1789213797326934000,5.35293408203125,1.2645050287246704,-0.07084384560585022,1.6264787912368774
1789213797336966100,5.362966064453125,1.067269206047058,-0.3249741196632385,1.4419262409210205
1789213797346997000,5.3729970703125,0.9026822447776794,-0.7085983157157898,1.337353229522705
1789213797357029000,5.383029052734375,0.8493572473526001,-0.9999345541000366,1.309730887413025
1789213797367061200,5.393061279296875,0.9116815328598022,-1.0622438192367554,1.2804412841796875
1789213797377093000,5.403093017578125,0.9734541177749634,-0.9475274682044983,1.261362075805664
1789213797387125000,5.413125,0.9819081425666809,-0.6801359057426453,1.3008240461349487
1789213797397156000,5.423156005859375,0.8321468830108643,-0.4043738543987274,1.3406630754470825
1789213797407188200,5.433188232421875,0.5372905731201172,-0.11754980683326721,1.3327897787094116
1789213797417220000,5.44322021484375,0.3133655786514282,0.012495273724198341,1.296622395515442
1789213797427252000,5.453251953125,0.22253984212875366,-0.09765144437551498,1.2190401554107666
1789213797437283000,5.463282958984375,0.2118150293827057,-0.2659219205379486,1.1271954774856567
1789213797447315000,5.47331494140625,0.2353953868150711,-0.4450180232524872,1.0038237571716309
1789213797457347000,5.48334716796875,0.2816246747970581,-0.41118523478507996,0.8356903791427612
1789213797467379200,5.493379150390625,0.21253284811973572,-0.20487266778945923,0.6026714444160461
1789213797477410000,5.50341015625,0.0024912049993872643,0.06221441924571991,0.365447998046875
1789213797487442000,5.51344189453125,-0.1856875866651535,0.25833839178085327,0.08202849328517914
1789213797497474300,5.523474365234375,-0.2400011569261551,0.24685776233673096,-0.2339814007282257
1789213797507506200,5.533506103515625,-0.22858774662017822,0.1463613659143448,-0.5232081413269043
1789213797517537000,5.543537109375,-0.21088092029094696,0.104246124625206,-0.670570433139801
1789213797527569200,5.553569091796875,-0.19213955104351044,0.21246129274368286,-0.718578040599823
1789213797537601000,5.56360107421875,-0.21108154952526093,0.3301785886287689,-0.7847496271133423
1789213797547633200,5.573633056640625,-0.25631844997406006,0.312456339597702,-0.8640046119689941
1789213797557665000,5.5836650390625,-0.29089826345443726,0.2637351155281067,-0.8971013426780701
1789213797567696100,5.593696044921875,-0.36545056104660034,0.38598695397377014,-0.9314619898796082
1789213797577728000,5.60372802734375,-0.4803052246570587,0.5544249415397644,-1.0709909200668335
1789213797587759900,5.613759765625,-0.5463860034942627,0.611807644367218,-1.2505252361297607
1789213797597792300,5.623792236328125,-0.5236322283744812,0.5490100383758545,-1.382317066192627
1789213797607823000,5.633822998046875,-0.4565242528915405,0.44238734245300293,-1.4228408336639404
1789213797617855000,5.64385498046875,-0.46079593896865845,0.5015054941177368,-1.338527798652649
1789213797627887000,5.65388720703125,-0.5155944228172302,0.709835410118103,-1.229203462600708
1789213797637919200,5.663919189453125,-0.5738515853881836,0.8802729249000549,-1.2307238578796387
1789213797647950000,5.6739501953125,-0.5993763208389282,0.809765636920929,-1.3704826831817627
1789213797657982200,5.683982177734375,-0.5437908172607422,0.30329659581184387,-1.6821532249450684
1789213797668014000,5.69401416015625,-0.49906831979751587,-0.2904500663280487,-2.0837337970733643
1789213797678046000,5.7040458984375,-0.4256497621536255,-0.5946698784828186,-2.386554718017578
1789213797688077000,5.7140771484375,-0.349923312664032,-0.736968994140625,-2.388840436935425
1789213797698109200,5.724109130859375,-0.47151127457618713,-0.8706572651863098,-2.183043956756592
1789213797708141000,5.73414111328125,-0.7009111046791077,-1.0508877038955688,-1.9283961057662964
1789213797718173000,5.7441728515625,-0.8516185879707336,-0.9815661907196045,-1.753955602645874
1789213797728204000,5.7542041015625,-0.9167848229408264,-0.3870728015899658,-1.7048988342285156
1789213797738236200,5.764236083984375,-1.0316163301467896,0.36777782440185547,-1.6861318349838257
1789213797748268000,5.77426806640625,-1.2151459455490112,0.621128499507904,-1.5959264039993286
1789213797758304000,5.784303955078125,-1.323572039604187,0.2945847511291504,-1.382362961769104
1789213797768336000,5.7943359375,-1.2927100658416748,0.10297435522079468,-1.2376351356506348
1789213797778366700,5.80436669921875,-1.197946310043335,-0.05358116328716278,-1.24739408493042
1789213797788399000,5.814399169921875,-1.2099248170852661,-0.19129225611686707,-1.3380308151245117
1789213797798431000,5.824430908203125,-1.4300036430358887,-0.18255682289600372,-1.2998125553131104
1789213797808462800,5.834462890625,-1.766801357269287,0.18872885406017303,-1.2995058298110962
1789213797818494000,5.844493896484375,-1.8149172067642212,-0.10663728415966034,-1.4660083055496216
1789213797828526000,5.854526123046875,-1.4241241216659546,-1.1545928716659546,-1.44718337059021
1789213797838558000,5.864557861328125,-0.9511134624481201,-1.4432907104492188,-1.0719554424285889
1789213797848589800,5.87458984375,-0.49948132038116455,-1.2192059755325317,-0.777703046798706
1789213797858621000,5.884620849609375,-0.23134732246398926,-0.8782278299331665,-0.6359530687332153
1789213797868652800,5.89465283203125,-0.1758558750152588,-0.5684734582901001,-0.23654423654079437
1789213797878685000,5.904684814453125,-0.04698951169848442,0.019801761955022812,0.2909448742866516
1789213797888717000,5.914717041015625,0.2442200928926468,0.6952338218688965,0.585328996181488
1789213797898748000,5.924747802734375,0.6252065896987915,0.8984047770500183,0.7014985084533691
1789213797908779800,5.93477978515625,1.0106929540634155,0.8668180704116821,0.892058789730072
1789213797918812200,5.944812255859375,1.2860832214355469,0.9979244470596313,1.1815448999404907
1789213797928844000,5.954843994140625,1.3713502883911133,1.2334250211715698,1.4506585597991943
1789213797938875000,5.964875,1.4106777906417847,1.527443289756775,1.603545069694519
1789213797948907000,5.974906982421875,1.5477215051651,1.7011866569519043,1.6852015256881714
1789213797958939000,5.98493896484375,1.7081940174102783,1.6479610204696655,1.66556978225708
1789213797968971000,5.994970947265625,1.788158893585205,1.4164555072784424,1.5157839059829712
1789213797979002000,6.005002197265625,1.7884563207626343,0.8928322196006775,1.556265115737915
1789213797989034000,6.015033935546875,1.777597188949585,0.7655397057533264,1.5904388427734375
1789213797999065900,6.02506591796875,1.8178369998931885,0.8367161154747009,1.5889713764190674
1789213798009097700,6.03509765625,1.9713481664657593,0.901921808719635,1.5506881475448608
1789213798019128800,6.04512890625,2.211092472076416,0.6253741383552551,1.3898627758026123
1789213798029161000,6.055160888671875,2.2799806594848633,0.0273551307618618,1.4573028087615967
1789213798039192800,6.06519287109375,2.1521189212799072,-0.22290530800819397,1.564863681793213
1789213798049225000,6.075224853515625,2.011457681655884,-0.44171303510665894,1.4306999444961548
1789213798059257000,6.085257080078125,1.731624960899353,-0.7625264525413513,1.417542576789856
1789213798069288000,6.095287841796875,1.5329368114471436,-0.7413485646247864,1.5785157680511475
1789213798079320000,6.105320068359375,1.5134097337722778,-0.502346396446228,1.6591418981552124
1789213798089352000,6.11535205078125,1.433778166770935,-0.36641719937324524,1.7896884679794312
1789213798099383800,6.1253837890625,1.2866473197937012,-0.4102054238319397,1.877860426902771
1789213798109415000,6.135414794921875,1.2275577783584595,-0.4133135974407196,1.886343002319336
1789213798119447000,6.145447021484375,1.1915940046310425,-0.26436060667037964,1.847864031791687
1789213798129479000,6.15547900390625,1.2206759452819824,-0.3116671144962311,1.8252812623977661
1789213798139510800,6.1655107421875,1.2443485260009766,-0.6518515944480896,1.7766873836517334
1789213798149542000,6.1755419921875,1.1456727981567383,-0.8215562701225281,1.7127372026443481
1789213798159574000,6.185573974609375,1.0206427574157715,-0.7397080063819885,1.573108434677124
1789213798169606000,6.19560595703125,0.852392852306366,-0.7247709035873413,1.348131537437439
1789213798179638000,6.205637939453125,0.543206512928009,-0.806159496307373,1.0885660648345947
1789213798189668900,6.2156689453125,0.23007798194885254,-0.5731886625289917,0.7640672326087952
1789213798199700700,6.22570068359375,0.0897003561258316,-0.35508379340171814,0.4335319399833679
1789213798209733000,6.235733154296875,0.02097466215491295,-0.18512044847011566,0.1699644774198532
1789213798219765000,6.245764892578125,-0.11264784634113312,0.06993609666824341,-0.15865148603916168
1789213798229795800,6.2557958984375,-0.3463224470615387,0.28154411911964417,-0.5798934698104858
1789213798239828000,6.265827880859375,-0.6583953499794006,0.38300445675849915,-1.0565556287765503
1789213798249859800,6.27585986328125,-0.9768585562705994,0.44979792833328247,-1.4772456884384155
1789213798259892000,6.28589208984375,-1.1588648557662964,0.46770182251930237,-1.761898159980774
1789213798269923000,6.295923095703125,-1.1752768754959106,0.4809225797653198,-1.8387330770492554
1789213798279955000,6.305954833984375,-1.0942448377609253,0.4555375874042511,-1.7739818096160889
1789213798289986800,6.31598681640625,-1.028328776359558,0.3875109851360321,-1.6962945461273193
1789213798300019000,6.32601904296875,-0.9826854467391968,0.4444831907749176,-1.643132209777832
1789213798310050000,6.336050048828125,-0.968235969543457,0.83848637342453,-1.5695127248764038
1789213798320082000,6.34608203125,-1.0012586116790771,1.2663676738739014,-1.4770578145980835
1789213798330113800,6.35611376953125,-1.1079094409942627,1.5646892786026,-1.342591643333435
1789213798340146000,6.36614599609375,-1.2193869352340698,1.7515617609024048,-1.2132805585861206
1789213798350176800,6.3761767578125,-1.2874268293380737,1.8741540908813477,-1.166951060295105
1789213798360209000,6.386208984375,-1.238748550415039,1.5920939445495605,-1.3720989227294922
1789213798370241000,6.396240966796875,-1.078840732574463,0.8637605309486389,-1.6600525379180908
1789213798380273000,6.40627294921875,-0.8902473449707031,0.008516999892890453,-1.7413541078567505
1789213798390303700,6.4163037109375,-0.7618392109870911,-0.6089091897010803,-1.5267943143844604
1789213798400336100,6.426336181640625,-0.6873894929885864,-0.9322214722633362,-1.1380332708358765
1789213798410368000,6.436367919921875,-0.7238522171974182,-1.0814365148544312,-0.9351368546485901
1789213798420399900,6.44639990234375,-0.7535099387168884,-1.0346930027008057,-1.0081956386566162
1789213798430431000,6.456430908203125,-0.7863777279853821,-0.7402608394622803,-1.153160572052002
1789213798440462800,6.466462890625,-0.9345842599868774,-0.41105735301971436,-1.3985849618911743
1789213798450495000,6.476494873046875,-1.0348641872406006,-0.16342994570732117,-1.7340279817581177
1789213798460526800,6.48652685546875,-1.11521315574646,0.04558132588863373,-2.0526723861694336
1789213798470558000,6.496557861328125,-1.1522706747055054,-0.0282287634909153,-2.348609209060669
1789213798480589800,6.50658984375,-1.1399461030960083,-0.30227336287498474,-2.552825927734375
1789213798490621700,6.51662158203125,-1.050290822982788,-0.6600828766822815,-2.517731189727783
1789213798500654000,6.526654052734375,-0.9917029738426208,-1.0100888013839722,-2.282297372817993
1789213798510685000,6.536684814453125,-1.1112589836120605,-0.7917426824569702,-2.1871070861816406
1789213798520716800,6.546716796875,-1.3123198747634888,0.20554135739803314,-2.424344539642334
1789213798530749000,6.5567490234375,-1.401861310005188,0.7703008651733398,-2.483551263809204
1789213798540781000,6.566781005859375,-1.1907413005828857,0.04095533490180969,-2.0665957927703857
1789213798550812000,6.57681201171875,-0.9845873713493347,-0.8330748081207275,-1.4141823053359985
1789213798560844000,6.586843994140625,-0.9815353751182556,-0.9783297181129456,-1.1398682594299316
1789213798570876000,6.5968759765625,-1.04681396484375,-0.5435303449630737,-1.0477784872055054
1789213798580907800,6.60690771484375,-1.0779545307159424,-0.045880891382694244,-0.972940981388092
1789213798590939000,6.61693896484375,-0.9562633037567139,-0.01372055895626545,-0.905389666557312
1789213798600971000,6.626970947265625,-0.7588375806808472,-0.3190850019454956,-0.5972899198532104
1789213798611003000,6.6370029296875,-0.47937026619911194,-0.2196209877729416,-0.2688458263874054
1789213798621034800,6.64703466796875,-0.178594172000885,-0.16758547723293304,-0.03975777328014374
1789213798631065900,6.65706591796875,0.22033201158046722,-0.21317818760871887,0.23845522105693817
1789213798641098000,6.667097900390625,0.5958001613616943,-0.13520589470863342,0.6124227046966553
1789213798651129900,6.6771298828125,0.9760228395462036,0.31830593943595886,0.9233610033988953
1789213798661162000,6.687161865234375,1.2869460582733154,0.7499055862426758,1.0643967390060425
1789213798671192800,6.69719287109375,1.536704182624817,0.9401341080665588,1.2003839015960693
1789213798681224700,6.707224609375,1.751419186592102,1.0185104608535767,1.3178855180740356
1789213798691257000,6.717257080078125,1.8825150728225708,0.9459735751152039,1.4001082181930542
1789213798701288000,6.727287841796875,1.9448511600494385,0.8049765229225159,1.4337778091430664
1789213798711319800,6.73731982421875,2.0029518604278564,0.6671413779258728,1.444794774055481
1789213798721352000,6.74735205078125,2.067322015762329,0.3872538208961487,1.524819254875183
1789213798731383800,6.7573837890625,2.119229793548584,0.07912545651197433,1.6886677742004395
1789213798741415000,6.767414794921875,2.21527361869812,0.10292106866836548,1.7058122158050537
1789213798751447000,6.777447021484375,2.3086049556732178,0.0972905308008194,1.6517810821533203
1789213798761475300,6.787475341796875,2.302088499069214,0.012294147163629532,1.594657063484192
1789213798771507200,6.797507080078125,2.192293882369995,-0.06842073798179626,1.5240055322647095
1789213798781538300,6.807538330078125,1.9987151622772217,-0.24012137949466705,1.510743498802185
1789213798791570200,6.817570068359375,1.8309125900268555,-0.44779208302497864,1.5085068941116333
1789213798801602300,6.827602294921875,1.6981679201126099,-0.7132349610328674,1.4496454000473022
1789213798811634200,6.83763427734375,1.5369528532028198,-0.9945714473724365,1.447649359703064
1789213798821665300,6.847665283203125,1.3270877599716187,-1.1593759059906006,1.5118639469146729
1789213798831697200,6.857697265625,1.0835187435150146,-1.1704055070877075,1.551992416381836
1789213798841729300,6.867729248046875,0.8650596141815186,-1.033092737197876,1.5327163934707642
1789213798851761400,6.877761474609375,0.6290982365608215,-0.8300207853317261,1.4826985597610474
1789213798861792300,6.887792236328125,0.404064804315567,-0.7034631371498108,1.429074764251709
1789213798871824400,6.897824462890625,0.27712273597717285,-0.7706341743469238,1.395487904548645
1789213798881856300,6.907856201171875,0.25340011715888977,-0.7916134595870972,1.4203431606292725
1789213798891888400,6.917888427734375,0.3057534396648407,-0.6096075773239136,1.4462134838104248
1789213798901919500,6.92791943359375,0.3356921672821045,-0.3656095266342163,1.3912376165390015
1789213798911951400,6.937951416015625,0.25523486733436584,-0.1966254711151123,1.1749417781829834
1789213798921983200,6.947983154296875,0.15198729932308197,-0.11463766545057297,0.8628534078598022
1789213798932014300,6.958014404296875,0.04737001284956932,-0.0843079537153244,0.6207744479179382
1789213798942046500,6.96804638671875,-0.05319893732666969,-0.046473488211631775,0.4406134784221649
1789213798952078300,6.978078369140625,-0.11336503177881241,0.010581606067717075,0.3583674132823944
1789213798962110200,6.988110107421875,-0.1460105925798416,-0.06933692842721939,0.3249357044696808
1789213798972141300,6.998141357421875,-0.18694055080413818,-0.12464121729135513,0.3518354296684265
1789213798982173200,7.008173095703125,-0.24909287691116333,-0.15047362446784973,0.3618966042995453
1789213798992205300,7.018205322265625,-0.31913551688194275,-0.06413251161575317,0.3050529360771179
1789213799002237400,7.028237548828125,-0.3451034724712372,0.06905217468738556,0.1476374864578247
1789213799012268300,7.038268310546875,-0.38933858275413513,0.13718564808368683,-0.14591294527053833
1789213799022300200,7.048300048828125,-0.429921418428421,0.1014191210269928,-0.5306297540664673
1789213799032332300,7.058332275390625,-0.4510864019393921,0.15981942415237427,-0.8101222515106201
1789213799042364400,7.068364501953125,-0.5038129687309265,0.4543357491493225,-0.8717438578605652
1789213799052395300,7.078395263671875,-0.5661115646362305,0.8173942565917969,-0.8270869851112366
1789213799062427400,7.088427490234375,-0.6089977622032166,0.9138957858085632,-0.8048080205917358
1789213799072459300,7.098459228515625,-0.6611909866333008,0.75014728307724,-0.8254349827766418
1789213799082490000,7.108489990234375,-0.6342381834983826,0.574550211429596,-0.8238767981529236
1789213799092522500,7.1185224609375,-0.5070280432701111,0.3992587924003601,-0.8484830856323242
1789213799102554400,7.128554443359375,-0.4511546790599823,0.2652086019515991,-1.0476601123809814
1789213799112586200,7.138586181640625,-0.42569661140441895,0.2745410203933716,-1.2717868089675903
1789213799122617300,7.148617431640625,-0.4334022104740143,0.2906254529953003,-1.2738527059555054
1789213799132649200,7.158649169921875,-0.5189489722251892,0.4482814073562622,-0.9488340020179749
1789213799142681300,7.168681396484375,-0.5937364101409912,0.4653157889842987,-0.5121917128562927
1789213799152713200,7.178713134765625,-0.6368309259414673,0.3044463098049164,-0.2521269619464874
1789213799162744300,7.188744384765625,-0.5879286527633667,0.18768668174743652,-0.26432663202285767
1789213799172776200,7.198776123046875,-0.46828100085258484,0.0663684755563736,-0.5089361667633057
1789213799182808300,7.208808349609375,-0.35713183879852295,0.05015088990330696,-0.9660879969596863
1789213799192840400,7.21884033203125,-0.3901018500328064,0.2682863175868988,-1.548310399055481
1789213799202871300,7.228871337890625,-0.4888761043548584,0.4954896569252014,-1.863513708114624
1789213799212903200,7.238903076171875,-0.5269917845726013,0.42493736743927,-1.7828458547592163
1789213799222935300,7.248935302734375,-0.5916168689727783,0.17643967270851135,-1.5340783596038818
1789213799232967400,7.258967529296875,-0.7113476395606995,0.07900489866733551,-1.2805631160736084
1789213799242998300,7.268998291015625,-0.9016829133033752,0.07105536013841629,-1.1562310457229614
1789213799253030400,7.279030517578125,-1.08254873752594,0.10664104670286179,-1.1795504093170166
1789213799263062300,7.289062255859375,-1.1865789890289307,0.015886642038822174,-1.223128318786621
1789213799273093000,7.299093017578125,-1.1964645385742188,-0.25740504264831543,-1.270828127861023
1789213799283125500,7.30912548828125,-1.1722049713134766,-0.7093850374221802,-1.3352311849594116
1789213799293157400,7.319157470703125,-1.1332495212554932,-1.0387970209121704,-1.3129709959030151
1789213799303189200,7.329189208984375,-1.0853890180587769,-0.8635309338569641,-1.188266634941101
1789213799313220400,7.339220458984375,-1.04324209690094,-0.322196364402771,-1.0880560874938965
1789213799323252200,7.349252197265625,-1.0219244956970215,0.17177367210388184,-1.1037737131118774
1789213799333284400,7.359284423828125,-0.972881555557251,0.31239402294158936,-1.1468439102172852
1789213799343316200,7.369316162109375,-0.9124631881713867,0.17701010406017303,-1.1918079853057861
1789213799353347300,7.379347412109375,-0.9217205047607422,0.004359588027000427,-1.2447530031204224
1789213799363379200,7.389379150390625,-0.9843753576278687,0.050737738609313965,-1.2647184133529663
1789213799373411000,7.3994111328125,-0.9517694115638733,-0.08933684229850769,-1.3177406787872314
1789213799383443500,7.409443359375,-1.0074273347854614,-0.1282283067703247,-1.479972243309021
1789213799393474300,7.419474365234375,-1.172532320022583,-0.15963740646839142,-1.6662611961364746
1789213799403506200,7.429506103515625,-1.3752553462982178,-0.41457757353782654,-1.3857771158218384
1789213799413538300,7.439538330078125,-1.379806637763977,-0.23395228385925293,-0.8899158239364624
1789213799423569200,7.449569091796875,-1.1686959266662598,-0.26195570826530457,-0.5802445411682129
1789213799433601300,7.459601318359375,-0.8585007190704346,-0.30963122844696045,-0.6063640713691711
1789213799443633400,7.46963330078125,-0.5632099509239197,-0.6809067726135254,-0.37863215804100037
1789213799453665300,7.479665283203125,-0.2747814655303955,-0.9418026208877563,-0.0005032752524130046
1789213799463696100,7.489696044921875,0.023219067603349686,-0.6429493427276611,0.5201444625854492
1789213799473728300,7.499728271484375,0.2327324002981186,0.0018748212605714798,1.0448927879333496
1789213799483760400,7.509760498046875,0.49079856276512146,0.5730733871459961,1.295318841934204
1789213799493792300,7.519792236328125,0.8454809188842773,0.7040577530860901,1.312157392501831
1789213799503823400,7.5298232421875,1.174120306968689,0.5846847891807556,1.4294188022613525
1789213799513855200,7.539855224609375,1.476365327835083,0.7255377769470215,1.5932362079620361
1789213799523887400,7.549887451171875,1.676142692565918,0.9438620805740356,1.7479448318481445
1789213799533919200,7.559919189453125,1.717974066734314,0.9759480953216553,1.8877321481704712
1789213799543950300,7.569950439453125,1.6914044618606567,1.097959280014038,1.9022431373596191
1789213799553982200,7.579982177734375,1.6490448713302612,1.3391304016113281,1.7687994241714478
1789213799564014000,7.59001416015625,1.546409010887146,1.5086033344268799,1.4645856618881226
1789213799574045200,7.600045166015625,1.3998639583587646,1.3140462636947632,1.270397663116455
1789213799584077300,7.610077392578125,1.3560032844543457,0.8033246994018555,1.3162245750427246
1789213799594109200,7.620109130859375,1.538277506828308,0.33687734603881836,1.410391092300415
1789213799604141300,7.630141357421875,1.8565175533294678,0.051684483885765076,1.3995683193206787
1789213799614172200,7.640172119140625,2.131197214126587,-0.07527922838926315,1.2594088315963745
1789213799624204300,7.650204345703125,2.226520538330078,-0.18316441774368286,1.1841135025024414
1789213799634236400,7.660236328125,2.1324734687805176,-0.20573945343494415,1.1776800155639648
1789213799644267300,7.670267333984375,1.9164626598358154,-0.372355580329895,1.1436229944229126
1789213799654299100,7.680299072265625,1.7280206680297852,-0.5508846640586853,1.027071475982666
1789213799664331300,7.690331298828125,1.6469484567642212,-0.592972457408905,0.9404324293136597
1789213799674363400,7.70036328125,1.691344976425171,-0.5683807134628296,0.9423612952232361
1789213799684394200,7.710394287109375,1.6905810832977295,-0.589044988155365,0.8836204409599304
1789213799694426400,7.72042626953125,1.4419528245925903,-0.7741392254829407,0.8337849974632263
1789213799704458200,7.730458251953125,1.0996311902999878,-0.9016247391700745,0.8635796308517456
1789213799714490000,7.740489990234375,0.8005219101905823,-0.8982455730438232,0.9660664796829224
1789213799724521500,7.750521484375,0.5792279243469238,-0.8269966840744019,1.0605183839797974
1789213799734553300,7.76055322265625,0.45484626293182373,-0.5936993360519409,1.2240716218948364
1789213799744585200,7.770585205078125,0.38421177864074707,-0.3048987090587616,1.3877345323562622
1789213799754616300,7.7806162109375,0.2955680787563324,-0.19461533427238464,1.409582257270813
1789213799764648400,7.7906484375,0.17918261885643005,-0.1989152729511261,1.2537645101547241
1789213799774680600,7.8006806640625,0.06676147133111954,-0.12327055633068085,1.084407925605774
1789213799784712400,7.81071240234375,-0.047276947647333145,-0.04222763329744339,0.9394859075546265
1789213799794743600,7.82074365234375,-0.10611490160226822,-0.11819006502628326,0.7854782342910767
1789213799804775400,7.830775390625,-0.16878360509872437,-0.42572498321533203,0.6041662096977234
1789213799814807600,7.8408076171875,-0.23205351829528809,-0.6402150392532349,0.4472050666809082
1789213799824839700,7.850839599609375,-0.23077386617660522,-0.601656973361969,0.2883528470993042
1789213799834870500,7.86087060546875,-0.2185107171535492,-0.3849867880344391,0.0638049989938736
1789213799844902400,7.87090234375,-0.321412593126297,-0.025223005563020706,-0.2374802678823471
1789213799854934500,7.8809345703125,-0.4796904921531677,0.2933177053928375,-0.6148613095283508
1789213799864965400,7.89096533203125,-0.62730872631073,0.3821474611759186,-0.9217791557312012
1789213799874997500,7.90099755859375,-0.7011011242866516,0.4447331726551056,-1.0729470252990723
1789213799885029600,7.911029541015625,-0.6696292161941528,0.42515361309051514,-1.143734335899353
1789213799895060500,7.921060546875,-0.535458505153656,0.3041059672832489,-1.1767663955688477
1789213799905092400,7.93109228515625,-0.4081852436065674,0.1536964774131775,-1.277372121810913
1789213799915124700,7.941124755859375,-0.40560880303382874,0.14394812285900116,-1.462485909461975
1789213799925156600,7.951156494140625,-0.5441616177558899,0.3571639955043793,-1.6421294212341309
1789213799935187500,7.9611875,-0.7170009613037109,0.6107756495475769,-1.7223162651062012
1789213799945219600,7.971219482421875,-0.8297882676124573,0.7652013897895813,-1.5980007648468018
1789213799955251500,7.98125146484375,-0.8968395590782166,0.8914899230003357,-1.2742561101913452
1789213799965283600,7.99128369140625,-0.9271966218948364,0.856359601020813,-0.9501129388809204
1789213799975314700,8.001314697265625,-0.9548704028129578,0.7197428941726685,-0.7347977161407471
1789213799985346600,8.0113466796875,-0.8927867412567139,0.565188467502594,-0.6184719204902649
1789213799995378400,8.02137841796875,-0.7355116605758667,0.2796768546104431,-0.5970985293388367
1789213800005409500,8.031409423828125,-0.5656211972236633,0.005200832150876522,-0.5603431463241577
1789213800015441700,8.041441650390626,-0.4743475019931793,-0.0983101949095726,-0.5037909150123596
1789213800025473500,8.0514736328125,-0.48650988936424255,-0.2786397635936737,-0.5087776780128479
1789213800035505400,8.06150537109375,-0.5328218340873718,-0.44664138555526733,-0.6447328925132751
1789213800045536500,8.07153662109375,-0.6234984993934631,-0.5066179037094116,-0.7931154370307922
1789213800055568400,8.081568359375,-0.7218669056892395,-0.3393198549747467,-0.8256714344024658
1789213800065600500,8.0916005859375,-0.8847130537033081,0.011679734103381634,-0.8032596111297607
1789213800075632600,8.101632568359374,-1.1088796854019165,0.2922631800174713,-0.8708714842796326
1789213800085663500,8.11166357421875,-1.3139705657958984,0.3829480707645416,-1.1220126152038574
1789213800095695600,8.121695556640624,-1.381976842880249,0.24465948343276978,-1.5008821487426758
1789213800105727500,8.1317275390625,-1.3115276098251343,-0.0628727599978447,-1.8342819213867188
1789213800115758600,8.141758544921874,-1.2320500612258911,-0.33732518553733826,-1.955312728881836
1789213800125790700,8.151790771484375,-1.1572221517562866,-0.5049139261245728,-1.9354223012924194
1789213800135822600,8.161822509765624,-1.192021369934082,-0.622379720211029,-1.933767318725586
1789213800145854500,8.1718544921875,-1.4002124071121216,-0.5806472301483154,-2.04887056350708
1789213800155885600,8.181885498046874,-1.5916892290115356,-0.8568835854530334,-2.1784164905548096
1789213800165917700,8.191917724609375,-1.7989636659622192,-1.2082775831222534,-2.031973361968994
1789213800175949600,8.201949462890624,-1.7930291891098022,-0.9455260038375854,-1.7075015306472778
1789213800185980700,8.211980712890625,-1.5344597101211548,-0.5300896167755127,-1.3846824169158936
1789213800196012500,8.222012451171874,-1.2756543159484863,-0.7849595546722412,-1.0618172883987427
1789213800206044400,8.23204443359375,-1.0348070859909058,-0.7985440492630005,-0.8912666440010071
1789213800216076500,8.24207666015625,-0.8730792999267578,-0.8703714609146118,-0.608069896697998
1789213800226107600,8.252107666015625,-0.6718551516532898,-0.3662467896938324,-0.4794940650463104
1789213800236139500,8.262139404296875,-0.5025356411933899,-0.08200901746749878,-0.4502226710319519
1789213800246171400,8.27217138671875,-0.4306030869483948,-0.05589965358376503,-0.10763603448867798
1789213800256202500,8.282202392578125,-0.34720805287361145,0.1665201038122177,0.45825985074043274
1789213800266234600,8.292234619140626,-0.23034588992595673,0.5031290054321289,1.0686709880828857
1789213800276266500,8.3022666015625,0.03117132931947708,0.8215588927268982,1.272722840309143
1789213800286298600,8.312298583984376,0.3526899814605713,0.7672767043113708,1.205270767211914
1789213800296329500,8.32232958984375,0.7632862329483032,0.4860319495201111,1.177956223487854
1789213800306361300,8.332361328125,1.1227025985717773,0.25707200169563293,1.290328860282898
1789213800316393700,8.342393798828125,1.2970187664031982,0.26035186648368835,1.4617377519607544
1789213800326424600,8.352424560546876,1.358166217803955,0.49573588371276855,1.508102536201477
1789213800336456400,8.36245654296875,1.3971487283706665,0.7831918597221375,1.4337407350540161
1789213800346488600,8.372488525390626,1.4900741577148438,0.9587274193763733,1.409171223640442
1789213800356520700,8.382520751953125,1.6316882371902466,0.8666512966156006,1.387685775756836
1789213800366551600,8.392551513671876,1.7309492826461792,0.6046572327613831,1.3545619249343872
1789213800376583700,8.402583740234375,1.7997974157333374,0.2974105179309845,1.456370234489441
1789213800386615600,8.412615478515624,1.877907395362854,0.07648053765296936,1.6610254049301147
1789213800396646400,8.422646484375,1.9677784442901611,-0.04020695760846138,1.7609519958496094
1789213800406678500,8.432678466796874,2.0647470951080322,-0.035428181290626526,1.6217800378799438
1789213800416710700,8.442710693359375,2.0584003925323486,-0.08080705255270004,1.3776715993881226
1789213800426742500,8.452742431640624,1.8974641561508179,-0.2413962036371231,1.270861029624939
1789213800436773600,8.462773681640625,1.6901930570602417,-0.3886098265647888,1.3781310319900513
1789213800446805500,8.472805419921874,1.5435376167297363,-0.39181333780288696,1.4884977340698242
1789213800456837600,8.482837646484375,1.5010325908660889,-0.46034857630729675,1.5042104721069336
1789213800466868700,8.49286865234375,1.4698208570480347,-0.742276132106781,1.4304113388061523
1789213800476900600,8.502900634765625,1.2570018768310547,-1.0144094228744507,1.386650800704956
1789213800486932500,8.512932373046874,0.8774886727333069,-1.0781519412994385,1.3957383632659912
1789213800496964400,8.52296435546875,0.5238479971885681,-0.896045446395874,1.4389848709106445
1789213800506995500,8.532995361328124,0.3791363537311554,-0.6461911201477051,1.490373134613037
1789213800517027600,8.543027587890625,0.3897656798362732,-0.4934047758579254,1.5222591161727905
1789213800527059500,8.5530595703125,0.38684552907943726,-0.46150994300842285,1.4851999282836914
1789213800537090600,8.563090576171875,0.3492582142353058,-0.31648343801498413,1.4541183710098267
1789213800547122400,8.573122314453125,0.3072769343852997,-0.08886653184890747,1.3429700136184692
1789213800557154600,8.583154541015626,0.2027428299188614,0.09705039858818054,1.1985927820205688
1789213800567186700,8.593186767578125,0.21423357725143433,0.18170829117298126,1.084418535232544
1789213800577217500,8.603217529296876,0.2472817599773407,0.17910607159137726,0.9859702587127686
1789213800587249400,8.61324951171875,0.23050729930400848,0.1516326367855072,0.8786134123802185
1789213800597281500,8.623281494140626,0.13042625784873962,0.051548346877098083,0.6893795132637024
1789213800607312400,8.6333125,0.017873339354991913,0.06279247999191284,0.4923599064350128
1789213800617344500,8.643344482421876,-0.12611407041549683,0.21811658143997192,0.3856298625469208
1789213800627376600,8.653376708984375,-0.2816048562526703,0.37300950288772583,0.32266688346862793
1789213800637407500,8.663407470703126,-0.33660250902175903,0.3130054175853729,0.17517338693141937
1789213800647439400,8.673439453125,-0.34243881702423096,0.0005684392526745796,-0.056601520627737045
1789213800657471700,8.6834716796875,-0.3762420117855072,-0.21036949753761292,-0.3615449070930481
1789213800667503600,8.693503662109375,-0.45383936166763306,-0.18481780588626862,-0.626655638217926
1789213800677534500,8.703534423828126,-0.4968807101249695,0.10470223426818848,-0.8453890681266785
1789213800687566600,8.713566650390625,-0.5594916343688965,0.4837699234485626,-0.9999551773071289
1789213800697598500,8.723598388671874,-0.6447163820266724,0.7609050869941711,-1.0708943605422974
1789213800707629600,8.733629638671875,-0.6563876867294312,0.9029498100280762,-1.0118032693862915
1789213800717661700,8.74366162109375,-0.5638338327407837,0.7967685461044312,-0.8747394680976868
1789213800727693600,8.753693603515625,-0.4388221204280853,0.5103439688682556,-0.7448589205741882
1789213800737725400,8.763725341796874,-0.3764408230781555,0.40294933319091797,-0.7216817736625671
1789213800747756500,8.773756591796875,-0.42042210698127747,0.5467690825462341,-0.8091796636581421
1789213800757788000,8.783787841796874,-0.5547119975090027,0.804783284664154,-0.9677871465682983
1789213800767819800,8.79381982421875,-0.6555171608924866,0.8621442914009094,-1.13988196849823
1789213800777851000,8.803850830078124,-0.6463607549667358,0.7121101021766663,-1.2666096687316895
1789213800787883000,8.813883056640625,-0.5777454376220703,0.630017876625061,-1.2809313535690308
1789213800797915000,8.823914794921874,-0.5066787004470825,0.6422732472419739,-1.227890133857727
1789213800807946000,8.833946044921875,-0.5112518668174744,0.5825864672660828,-1.1562308073043823
1789213800817977900,8.843977783203124,-0.5396023392677307,0.2969323694705963,-1.0593230724334717
1789213800828009700,8.854009765625,-0.5568186640739441,-0.039695464074611664,-1.0099807977676392
1789213800838042000,8.8640419921875,-0.6305415630340576,-0.09607716649770737,-1.044655203819275
1789213800848073000,8.874072998046875,-0.726823627948761,-0.045145273208618164,-1.1607639789581299
1789213800858104800,8.884104736328124,-0.8500034213066101,-0.05779305845499039,-1.2334259748458862
1789213800868137000,8.894136962890625,-1.000490427017212,-0.09849760681390762,-1.2033541202545166
1789213800878167800,8.904167724609374,-1.0774002075195312,-0.262356162071228,-1.2006151676177979
1789213800888200000,8.914199951171875,-1.0480977296829224,-0.33336347341537476,-1.2816276550292969
1789213800898232000,8.924232177734375,-0.9656125903129578,-0.2508092224597931,-1.346618890762329
1789213800908264000,8.934263916015626,-0.8731167316436768,-0.1374829113483429,-1.305820107460022
1789213800918294800,8.944294677734375,-0.8118205666542053,-0.19374693930149078,-1.2156392335891724
1789213800928327000,8.954326904296876,-0.8004254102706909,-0.27896544337272644,-1.2345455884933472
1789213800938359000,8.964359130859375,-0.8178275227546692,-0.33604592084884644,-1.4763212203979492
1789213800948390000,8.974389892578126,-0.8700257539749146,-0.48303669691085815,-1.7051395177841187
1789213800958422000,8.984422119140625,-0.9565633535385132,-0.5022506713867188,-1.659148097038269
1789213800968454000,8.994453857421876,-1.0007420778274536,-0.327943354845047,-1.3917174339294434
1789213800978485000,9.004485107421875,-0.9705217480659485,-0.30117902159690857,-1.0358836650848389
1789213800988517000,9.01451708984375,-0.9501163363456726,-0.3655335009098053,-0.7254895567893982
1789213800998549000,9.024549072265625,-0.9970757961273193,-0.24831683933734894,-0.7707796692848206
1789213801008580900,9.034580810546874,-1.1117663383483887,-0.0911988615989685,-0.9803081154823303
1789213801018612000,9.044612060546875,-1.1594626903533936,-0.4599817395210266,-0.9964391589164734
1789213801028643800,9.054643798828126,-1.015527367591858,-0.7140467762947083,-0.8162771463394165
1789213801038676000,9.064676025390625,-0.8341357707977295,-0.5054947137832642,-0.74098140001297
1789213801048707000,9.07470703125,-0.8254644870758057,-0.5392454266548157,-0.5750062465667725
1789213801058739000,9.084739013671875,-0.7270870804786682,-0.4581179916858673,-0.2663944363594055
1789213801068770800,9.094770751953124,-0.5013437271118164,-0.43307679891586304,0.03720858693122864
1789213801078802000,9.104802001953125,-0.2325589805841446,-0.23000913858413696,-0.07553599029779434
1789213801088834000,9.114833984375,-0.06887603551149368,-0.1781693696975708,-0.10938769578933716
1789213801098866000,9.124865966796875,-0.03841980919241905,-0.13977663218975067,0.3049914240837097
1789213801108898000,9.13489794921875,-0.03322957456111908,-0.03757862746715546,0.7029135227203369
1789213801118929000,9.144928955078125,0.13823041319847107,0.2082684189081192,0.7477229833602905
1789213801128960800,9.154960693359374,0.422692209482193,0.2295428216457367,0.6131739616394043
1789213801138993200,9.1649931640625,0.7145318388938904,0.057337403297424316,0.6539580821990967
1789213801149024000,9.17502392578125,1.007598638534546,-0.07767500728368759,0.8067577481269836
1789213801159056000,9.185055908203125,1.2236647605895996,-0.01616789400577545,1.1327366828918457
1789213801169088000,9.195087890625,1.4155447483062744,0.5210811495780945,1.4158991575241089
1789213801179118800,9.205118896484375,1.542083740234375,1.217636227607727,1.3252274990081787
1789213801189151000,9.21515087890625,1.4844616651535034,1.1707086563110352,1.1161826848983765
1789213801199183000,9.22518310546875,1.353472113609314,0.8522437810897827,1.201605200767517
1789213801209215000,9.235215087890625,1.3256306648254395,0.913128137588501,1.3821382522583008
1789213801219245800,9.245245849609375,1.3811933994293213,1.0017796754837036,1.4521433115005493
1789213801229278000,9.25527783203125,1.4060970544815063,0.8662444353103638,1.3582812547683716
1789213801239310000,9.26531005859375,1.407719612121582,0.4958406388759613,1.2018015384674072
1789213801249341000,9.2753408203125,1.4045906066894531,0.07929053902626038,1.210373878479004
1789213801259373000,9.285373046875,1.4919668436050415,-0.048464659601449966,1.2451385259628296
1789213801269405000,9.295405029296875,1.632313847541809,-0.150332972407341,1.2033686637878418
1789213801279435800,9.305435791015626,1.7122833728790283,-0.5444222688674927,1.2268457412719727
1789213801289468200,9.31546826171875,1.6501734256744385,-0.8364607691764832,1.2601107358932495
1789213801299500000,9.3255,1.5093066692352295,-0.8412274122238159,1.294291615486145
1789213801309532000,9.335531982421875,1.3940725326538086,-0.674902081489563,1.221720814704895
1789213801319563000,9.34556298828125,1.2634421586990356,-0.6166197657585144,1.0936764478683472
1789213801329595000,9.355594970703125,1.0488364696502686,-0.7818891406059265,1.1014167070388794
1789213801339627000,9.365626953125,0.8580986261367798,-0.9602351784706116,1.133230209350586
1789213801349658000,9.375658203125,0.7648858428001404,-1.0488965511322021,1.1731736660003662
1789213801359690000,9.38568994140625,0.72870934009552,-1.1237441301345825,1.1849290132522583
1789213801369721900,9.395721923828125,0.6764227151870728,-1.108534812927246,1.2014968395233154
1789213801379753000,9.4057529296875,0.5280663967132568,-0.9349916577339172,1.2624667882919312
1789213801389785000,9.41578515625,0.31307923793792725,-0.6080620288848877,1.3228145837783813
1789213801399817000,9.42581689453125,0.12812019884586334,-0.18144826591014862,1.361809492111206
1789213801409848000,9.43584814453125,0.13040758669376373,0.007298210635781288,1.3527445793151855
1789213801419880000,9.4458798828125,0.21612371504306793,-0.05413818359375,1.2392305135726929
1789213801429911800,9.455911865234375,0.3001248836517334,-0.19197115302085876,1.0944666862487793
1789213801439944000,9.46594384765625,0.36147356033325195,-0.2570769786834717,0.9077752232551575
1789213801449975000,9.47597509765625,0.2663302719593048,-0.0843568742275238,0.7447130680084229
1789213801460007000,9.4860068359375,0.1280328929424286,0.0710759311914444,0.6518142819404602
1789213801470038800,9.496038818359375,-0.006433299742639065,0.1664740890264511,0.4726299047470093
1789213801480070000,9.50606982421875,-0.15899115800857544,0.13329394161701202,0.20365987718105316
1789213801490102000,9.51610205078125,-0.3659869432449341,-0.06102174147963524,-0.10031891614198685
1789213801500134000,9.5261337890625,-0.5708261728286743,-0.15544474124908447,-0.4127916395664215
1789213801510165000,9.5361650390625,-0.7845600247383118,-0.1284157782793045,-0.7076853513717651
1789213801520196900,9.54619677734375,-0.9586456418037415,-0.06152871623635292,-0.9942020177841187
1789213801530228700,9.556228759765625,-1.0697040557861328,0.0700404942035675,-1.1887507438659668
1789213801540260000,9.566260009765625,-1.1177910566329956,0.37659573554992676,-1.2571943998336792
1789213801550292000,9.5762919921875,-1.0416592359542847,0.688301146030426,-1.215502142906189
1789213801560323800,9.58632373046875,-0.9357956647872925,0.8073678612709045,-1.0910805463790894
1789213801570356000,9.59635595703125,-0.8488897681236267,0.8511151075363159,-0.9940906763076782
1789213801580386800,9.60638671875,-0.7416103482246399,0.7253051400184631,-0.9624570608139038
1789213801590419000,9.6164189453125,-0.6427420377731323,0.5401179790496826,-1.005252480506897
1789213801600451000,9.626451171875,-0.6163619160652161,0.5977427363395691,-1.0620698928833008
1789213801610482000,9.63648193359375,-0.5949088335037231,0.7922775745391846,-1.1559475660324097
1789213801620513800,9.646513671875,-0.5165592432022095,0.704738199710846,-1.1957374811172485
1789213801630546000,9.6565458984375,-0.42946857213974,0.3567085862159729,-1.1052360534667969
1789213801640577000,9.666576904296875,-0.42853155732154846,0.01137505006045103,-0.9909206628799438
1789213801650609000,9.67660888671875,-0.4530089497566223,-0.18892715871334076,-0.98299241065979
1789213801660641000,9.68664111328125,-0.43063420057296753,-0.2953224778175354,-0.8871714472770691
1789213801670672000,9.696671875,-0.395186185836792,-0.40461140871047974,-0.6730578541755676
1789213801680704000,9.7067041015625,-0.45012202858924866,-0.23243290185928345,-0.42919889092445374
1789213801690736000,9.716736083984374,-0.6222208142280579,0.2563468813896179,-0.28321370482444763
1789213801700768000,9.72676806640625,-0.8866690993309021,0.7985048890113831,-0.28104373812675476
1789213801710799000,9.736799072265624,-1.1816405057907104,1.0228794813156128,-0.4219273328781128
1789213801720831000,9.7468310546875,-1.433671236038208,0.8475766777992249,-0.6731075644493103
1789213801730862800,9.75686279296875,-1.4822959899902344,0.17487578094005585,-1.0883122682571411
1789213801740894000,9.76689404296875,-1.3823988437652588,-0.4605235755443573,-1.3118231296539307
1789213801750926000,9.776926025390624,-1.2660423517227173,-0.9746561646461487,-1.3001710176467896
1789213801760959000,9.786958984375,-1.190003514289856,-1.239076018333435,-1.2576360702514648
1789213801770989800,9.79698974609375,-1.1312978267669678,-1.1410064697265625,-1.2410600185394287
1789213801781022000,9.80702197265625,-1.0622444152832031,-0.7728984355926514,-1.2378387451171875
1789213801791053800,9.8170537109375,-0.9680148959159851,-0.4955587387084961,-1.3188337087631226
1789213801801084700,9.827084716796875,-0.9055221676826477,-0.43598780035972595,-1.5140098333358765
1789213801811117000,9.837116943359375,-0.8515383005142212,-0.6796342730522156,-1.8161803483963013
1789213801821149000,9.84714892578125,-0.8165793418884277,-0.9463716149330139,-2.097454786300659
1789213801831179800,9.8571796875,-0.8276098966598511,-0.9834984540939331,-2.142183542251587
1789213801841212000,9.8672119140625,-0.9421793222427368,-0.7849816679954529,-1.9086183309555054
1789213801851243800,9.877243896484375,-1.1926169395446777,-0.045749373733997345,-1.5394980907440186
1789213801861276000,9.88727587890625,-1.5072933435440063,1.0449365377426147,-1.2040404081344604
1789213801871307000,9.89730712890625,-1.6944115161895752,1.1032147407531738,-0.8132635354995728
1789213801881339000,9.9073388671875,-1.5313810110092163,0.44573432207107544,-0.5477526783943176
1789213801891370800,9.917370849609375,-1.3429665565490723,-0.25096163153648376,-0.16899952292442322
1789213801901401900,9.92740185546875,-1.3794885873794556,-0.19012388586997986,0.27416568994522095
1789213801911434000,9.93743408203125,-1.276558756828308,0.266933411359787,0.43893226981163025
1789213801921465900,9.9474658203125,-0.9827008247375488,0.31127068400382996,0.4742925763130188
1789213801931497000,9.9574970703125,-0.6069181561470032,0.019303545355796814,0.5750429034233093
1789213801941528800,9.96752880859375,-0.30800679326057434,0.08127915859222412,0.6204444766044617
1789213801951560700,9.977560791015625,-0.1461244374513626,0.13413357734680176,0.8710072040557861
1789213801961591800,9.987591796875,0.02317114733159542,0.3546871542930603,1.0934559106826782
1789213801971624000,9.9976240234375,0.19889743626117706,0.427631676197052,1.1346571445465088
1789213801981655800,10.00765576171875,0.42012283205986023,0.38752275705337524,1.123544692993164
1789213801991687000,10.01768701171875,0.6957259178161621,0.38567906618118286,1.160530686378479
1789213802001718800,10.02771875,1.0028749704360962,0.4632861018180847,1.2087520360946655
1789213802011751000,10.0377509765625,1.2624458074569702,0.4900101125240326,1.1927740573883057
1789213802021782000,10.047781982421874,1.489280104637146,0.5334172248840332,1.1634927988052368
1789213802031814000,10.05781396484375,1.7052409648895264,0.7280319929122925,1.1052169799804688
1789213802041845800,10.067845703125,1.8810042142868042,0.8469119668006897,1.0437692403793335
1789213802051876900,10.077876953125,1.9985487461090088,0.8613063097000122,0.9844963550567627
1789213802061908700,10.08790869140625,2.025373697280884,0.9358540773391724,0.9632928967475891
1789213802071940900,10.09794091796875,1.9864349365234375,1.0672730207443237,0.9829174280166626
1789213802081972700,10.10797265625,1.8999667167663574,1.0646510124206543,1.035788655281067
1789213802092003800,10.11800390625,1.8151589632034302,0.8762651085853577,1.0846922397613525
1789213802102035700,10.12803564453125,1.8147461414337158,0.6265079379081726,1.0836423635482788
1789213802112067800,10.13806787109375,1.8481720685958862,0.2808628976345062,1.0551608800888062
1789213802122099000,10.148098876953124,1.8666985034942627,-0.03589631989598274,1.0885361433029175
1789213802132130800,10.158130859375,1.854441523551941,-0.14538340270519257,1.1384562253952026
1789213802142162700,10.16816259765625,1.7941073179244995,-0.250733345746994,1.1014440059661865
1789213802152193800,10.17819384765625,1.670947790145874,-0.499396413564682,1.1105631589889526
1789213802162225700,10.1882255859375,1.4937736988067627,-0.7105491161346436,1.2159934043884277
1789213802172257800,10.1982578125,1.2696362733840942,-0.8466281294822693,1.2772467136383057
1789213802182289000,10.208288818359375,1.019113540649414,-0.9583871960639954,1.2771636247634888
1789213802192320800,10.21832080078125,0.8881014585494995,-0.9131608605384827,1.2464592456817627
1789213802202352600,10.2283525390625,0.9021817445755005,-0.8109797835350037,1.1803227663040161
1789213802212383700,10.2383837890625,0.9255890846252441,-0.706048309803009,1.0966496467590332
1789213802222416000,10.248415771484375,0.8751496076583862,-0.6186736226081848,1.0220117568969727
1789213802232447700,10.25844775390625,0.7997339367866516,-0.5204610228538513,0.9530981779098511
1789213802242478800,10.268478759765625,0.7435845732688904,-0.4893789291381836,0.9263125061988831
1789213802252510700,10.2785107421875,0.6846171021461487,-0.28822851181030273,1.043864130973816
1789213802262542800,10.28854296875,0.5780863761901855,-0.06376095861196518,1.1815776824951172
1789213802272574000,10.298573974609376,0.31735172867774963,-0.050799354910850525,0.9812472462654114
1789213802282605800,10.308605712890625,0.000018820632249116898,0.017335137352347374,0.6088967323303223
1789213802292638000,10.318637939453126,-0.24254748225212097,0.20470023155212402,0.4237265884876251
1789213802302668800,10.328668701171875,-0.4089324474334717,0.3172965347766876,0.40260812640190125
1789213802312700700,10.33870068359375,-0.42238542437553406,0.11806545406579971,0.3900372087955475
1789213802322732800,10.34873291015625,-0.3537547290325165,-0.14377808570861816,0.29290252923965454
1789213802332764000,10.358763916015626,-0.22045205533504486,-0.26512396335601807,0.117477186024189
1789213802342795800,10.368795654296875,-0.08030842989683151,-0.20723965764045715,-0.08512891083955765
1789213802352828000,10.378827880859374,-0.015447407029569149,-0.17897260189056396,-0.31075990200042725
1789213802362858800,10.388858642578125,-0.10688640922307968,-0.1240915060043335,-0.5579754114151001
1789213802372891000,10.398890869140626,-0.24729011952877045,0.0201231949031353,-0.8003047108650208
1789213802382923000,10.408923095703125,-0.36572083830833435,0.2677125632762909,-0.9607420563697815
1789213802392953900,10.418953857421876,-0.4326929450035095,0.49706828594207764,-0.97273850440979
1789213802402985700,10.42898583984375,-0.4858444035053253,0.679429829120636,-0.8909587860107422
1789213802413017900,10.439017822265624,-0.5547714829444885,0.759838342666626,-0.9202359318733215
1789213802423050000,10.449050048828125,-0.6167224049568176,0.5789225101470947,-1.0800909996032715
1789213802433080800,10.459080810546874,-0.6232895255088806,0.35282039642333984,-1.1247624158859253
1789213802443113000,10.469113037109375,-0.5596863627433777,0.2661093771457672,-1.0330239534378052
1789213802453144800,10.479144775390624,-0.5196182727813721,0.15133698284626007,-0.962705135345459
1789213802463175700,10.48917578125,-0.5421966910362244,0.07951971888542175,-0.9810829758644104
1789213802473208000,10.4992080078125,-0.6043780446052551,-0.010347049683332443,-0.9790563583374023
1789213802483240000,10.509239990234375,-0.6946076154708862,-0.05647926405072212,-0.9127874970436096
1789213802493270800,10.519270751953124,-0.7059665322303772,0.09830658882856369,-0.7956587076187134
1789213802503303000,10.529302978515625,-0.6396151781082153,0.230507031083107,-0.6878814697265625
1789213802513334800,10.539334716796875,-0.6852445006370544,0.43369659781455994,-0.4957346022129059
1789213802523365600,10.54936572265625,-0.9138804078102112,0.8305932283401489,-0.33907026052474976
1789213802533398000,10.55939794921875,-1.3007307052612305,1.0785279273986816,-0.4357917606830597
1789213802543430000,10.569429931640625,-1.620977759361267,1.0833971500396729,-0.7811065912246704
1789213802553460700,10.579460693359374,-1.6891334056854248,0.6864844560623169,-0.9551739692687988
1789213802563492900,10.589492919921875,-1.5922900438308716,-0.109352707862854,-1.0144522190093994
1789213802573525000,10.59952490234375,-1.4447429180145264,-0.701500415802002,-1.1485389471054077
1789213802583555800,10.609555908203125,-1.2492808103561401,-0.9470506310462952,-1.284690260887146
1789213802593588000,10.619587890625,-1.0907033681869507,-0.9096388220787048,-1.3767857551574707
1789213802603619800,10.629619873046876,-0.9962721467018127,-0.5904263854026794,-1.4417288303375244
1789213802613650700,10.639650634765625,-0.993571937084198,-0.22616294026374817,-1.496305227279663
1789213802623682800,10.649682861328126,-1.0293083190917969,-0.08476705849170685,-1.5565416812896729
1789213802633715000,10.65971484375,-1.088560938835144,-0.21825799345970154,-1.6329329013824463
1789213802643745800,10.669745849609376,-1.1396201848983765,-0.4750942885875702,-1.6676033735275269
1789213802653778000,10.67977783203125,-1.1459654569625854,-0.6919690370559692,-1.626645803451538
1789213802663809800,10.689809814453126,-1.0863009691238403,-0.9808986186981201,-1.611419439315796
1789213802673840600,10.699840576171875,-1.0664465427398682,-1.1536380052566528,-1.669162392616272
1789213802683873000,10.709873046875,-0.9378595948219299,-1.2642632722854614,-1.7567912340164185
1789213802693905000,10.71990478515625,-0.8914830684661865,-1.2184499502182007,-1.7018356323242188
1789213802703935700,10.729935791015626,-0.9438475966453552,-1.014920711517334,-1.4610580205917358
1789213802713967900,10.7399677734375,-1.068192481994629,-0.4834040403366089,-1.1624646186828613
1789213802723999700,10.749999755859376,-1.1077758073806763,-0.0578741580247879,-0.8164740204811096
1789213802734030800,10.76003076171875,-0.959093451499939,0.0678882971405983,-0.5685079097747803
1789213802744063000,10.77006298828125,-0.717316746711731,0.14356817305088043,-0.341520756483078
1789213802754094800,10.7800947265625,-0.5736104249954224,0.34832289814949036,-0.04950143024325371
1789213802764125700,10.790125732421876,-0.5491503477096558,0.4662435054779053,0.3621823787689209
1789213802774157600,10.800157470703125,-0.5118546485900879,0.5818041563034058,0.7240127325057983
1789213802784189400,10.810189453125,-0.2947664260864258,0.8095044493675232,0.9310856461524963
1789213802794220500,10.820220458984375,-0.029624218121170998,0.8411108255386353,1.0853015184402466
1789213802804252700,10.830252685546874,0.1503763198852539,0.7760335803031921,1.1828008890151978
1789213802814284500,10.840284423828125,0.2762863039970398,0.6280670166015625,1.2321276664733887
1789213802824315600,10.850315673828124,0.4232824742794037,0.5846579670906067,1.1336311101913452
1789213802834347500,10.860347412109375,0.595308780670166,0.47492504119873047,1.0937801599502563
1789213802844379400,10.87037939453125,0.7728599309921265,0.33883824944496155,1.160830020904541
1789213802854410800,10.88041064453125,0.9703295826911926,0.3409551978111267,1.1989898681640625
1789213802864442600,10.890442626953124,1.1634126901626587,0.3221215605735779,1.2200876474380493
1789213802874474500,10.900474609375,1.3410495519638062,0.2967379093170166,1.2476191520690918
1789213802884505600,10.910505615234374,1.515781283378601,0.3166329562664032,1.277336597442627
1789213802894537500,10.920537353515625,1.639286994934082,0.3778992295265198,1.3241578340530396
1789213802904569600,10.930569580078124,1.7065304517745972,0.4682113826274872,1.3723888397216797
1789213802914600700,10.9406005859375,1.7516870498657227,0.6814674735069275,1.3562370538711548
1789213802924632600,10.950632568359374,1.820881724357605,0.7402951121330261,1.2556227445602417
1789213802934664400,10.96066455078125,1.9395135641098022,0.45661407709121704,1.1144297122955322
1789213802944695600,10.970695556640624,2.0214414596557617,0.1224035993218422,1.1329615116119385
1789213802954727700,10.980727783203125,1.9924041032791138,-0.15546981990337372,1.368895411491394
1789213802964759600,10.990759521484375,1.950341820716858,-0.2264975607395172,1.4646813869476318
1789213802974790700,11.000790771484375,1.9440956115722656,-0.2469378560781479,1.3134106397628784
1789213802984822500,11.010822509765624,1.855986475944519,-0.3291676342487335,1.0954890251159668
1789213802994854400,11.0208544921875,1.4753667116165161,-0.5718916058540344,1.1733036041259766
1789213803004885500,11.030885498046874,0.9947038292884827,-0.7165154218673706,1.426565408706665
1789213803014917600,11.040917724609375,0.6993786692619324,-0.5433095693588257,1.5489059686660767
1789213803024949500,11.050949462890625,0.6328963041305542,-0.2569311559200287,1.601156234741211
1789213803034980600,11.060980712890625,0.5707714557647705,-0.23865441977977753,1.6254668235778809
1789213803045012500,11.071012451171875,0.5340430736541748,-0.46338364481925964,1.6116119623184204
1789213803055044600,11.081044677734376,0.6218341588973999,-0.6818334460258484,1.5673179626464844
1789213803065075700,11.09107568359375,0.7805639505386353,-0.7831423878669739,1.4499763250350952
1789213803075107600,11.101107666015626,0.8303226828575134,-0.71992427110672,1.2976216077804565
1789213803085139500,11.111139404296875,0.7383671402931213,-0.440777450799942,1.2356446981430054
1789213803095170600,11.121170654296876,0.6441338062286377,0.03494381159543991,1.2551547288894653
1789213803105202400,11.131202392578125,0.5616856813430786,0.1782579869031906,1.1413636207580566
1789213803115234600,11.141234619140626,0.48075827956199646,0.23705872893333435,1.0199052095413208
1789213803125265700,11.151265625,0.3420509994029999,0.2532528042793274,0.8109530806541443
1789213803135297500,11.161297607421876,0.17880776524543762,0.18213096261024475,0.49694857001304626
1789213803145329400,11.171329345703125,0.03908631578087807,0.1070215106010437,0.21322813630104065
1789213803155360500,11.181360595703126,-0.1288297325372696,0.14104101061820984,-0.0008652526303194463
1789213803165392600,11.191392578125,-0.26914432644844055,0.16333162784576416,-0.16215603053569794
1789213803175424500,11.201424560546876,-0.38850826025009155,0.1988201141357422,-0.273313969373703
1789213803185455600,11.21145556640625,-0.4751777946949005,0.19466225802898407,-0.4283106327056885
1789213803195487500,11.221487548828126,-0.555737316608429,0.10306444019079208,-0.6677671670913696
1789213803205519400,11.231519287109375,-0.652656614780426,0.0505673922598362,-0.9375737309455872
1789213803215550700,11.24155078125,-0.749408483505249,0.2247258722782135,-1.1091923713684082
1789213803225582600,11.25158251953125,-0.7892470955848694,0.5806582570075989,-1.1407155990600586
1789213803235614500,11.261614501953124,-0.7588260769844055,0.9691429138183594,-1.0901979207992554
1789213803245645600,11.2716455078125,-0.720914900302887,1.2147594690322876,-1.0922883749008179
1789213803255677400,11.281677490234374,-0.6749196648597717,1.1406513452529907,-1.2579047679901123
1789213803265708500,11.29170849609375,-0.5896981954574585,0.7572661638259888,-1.4655733108520508
1789213803275740700,11.30174072265625,-0.44981300830841064,0.3336954414844513,-1.5016595125198364
1789213803285772500,11.3117724609375,-0.3829421401023865,0.09268230944871902,-1.360999584197998
1789213803295803600,11.3218037109375,-0.49177753925323486,0.058566946536302567,-1.283521294593811
1789213803305835500,11.33183544921875,-0.6638352274894714,0.12461388856172562,-1.2829374074935913
1789213803315867400,11.341867431640624,-0.7683845162391663,0.12306126207113266,-1.2535936832427979
1789213803325898800,11.351898681640625,-0.7241835594177246,0.17080157995224,-1.0134741067886353
1789213803335930600,11.3619306640625,-0.6836225986480713,0.14835435152053833,-0.626397967338562
1789213803345962500,11.37196240234375,-0.7239044904708862,0.0810459554195404,-0.32861068844795227
1789213803355993600,11.38199365234375,-0.8276732563972473,0.18891409039497375,-0.21839550137519836
1789213803366025500,11.392025390625,-1.0040388107299805,0.5080161094665527,-0.2947329580783844
1789213803376057600,11.4020576171875,-1.1218013763427734,0.7156579494476318,-0.5449175238609314
1789213803386088700,11.412088623046875,-1.2250860929489136,0.506770133972168,-0.7813290953636169
1789213803396120600,11.42212060546875,-1.2876580953598022,-0.14583353698253632,-1.0064465999603271
1789213803406152400,11.43215234375,-1.2689034938812256,-0.613086462020874,-1.2574306726455688
1789213803416183600,11.44218359375,-1.1729545593261719,-0.6966034173965454,-1.4448580741882324
1789213803426215700,11.452215576171875,-1.0710177421569824,-0.5323203206062317,-1.5572751760482788
1789213803436247600,11.46224755859375,-0.9704514741897583,-0.41475003957748413,-1.628122091293335
1789213803446278700,11.472278564453125,-0.8998048305511475,-0.5043208003044128,-1.6852375268936157
1789213803456310500,11.482310546875,-0.8364319801330566,-0.6915351748466492,-1.7360479831695557
1789213803466342400,11.49234228515625,-0.7970263957977295,-0.7040284872055054,-1.7699428796768188
1789213803476373500,11.50237353515625,-0.7648152112960815,-0.7803464531898499,-1.8096895217895508
1789213803486405600,11.512405517578125,-0.7955906391143799,-0.8729307651519775,-1.8163731098175049
1789213803496437500,11.5224375,-0.8076651096343994,-0.8671112060546875,-1.7834383249282837
1789213803506468600,11.532468505859375,-0.8330304026603699,-0.7442722916603088,-1.720026969909668
1789213803516500500,11.54250048828125,-0.9846108555793762,-0.27955228090286255,-1.529731035232544
1789213803526532600,11.55253271484375,-1.1450681686401367,0.07289299368858337,-1.3308111429214478
1789213803536563700,11.562563720703125,-1.2128468751907349,0.06810516119003296,-1.1767346858978271
1789213803546595600,11.572595703125,-1.1733547449111938,-0.1451733410358429,-0.8230629563331604
1789213803556627500,11.58262744140625,-1.0475858449935913,-0.11699283868074417,-0.3974144458770752
1789213803566658600,11.592658447265626,-0.7959169149398804,0.019983556121587753,-0.2425023466348648
1789213803576690400,11.6026904296875,-0.5761200785636902,-0.20926614105701447,-0.020143037661910057
1789213803586722600,11.61272265625,-0.46191149950027466,-0.1397610604763031,0.23995012044906616
1789213803596753700,11.622753662109375,-0.337517112493515,0.04032214730978012,0.43185457587242126
1789213803606785500,11.63278564453125,-0.22150619328022003,0.08440451323986053,0.3995809555053711
1789213803616817400,11.6428173828125,-0.08810258656740189,0.09720180928707123,0.3667396605014801
1789213803626848500,11.6528486328125,0.01765149086713791,0.015839895233511925,0.5560148358345032
1789213803636880600,11.662880615234375,0.1872578263282776,0.013517884537577629,0.9052394032478333
1789213803646912500,11.67291259765625,0.5337032675743103,0.3296104073524475,1.0805643796920776
1789213803656943600,11.682943603515625,0.9234121441841125,0.5663835406303406,1.0996798276901245
1789213803666975500,11.6929755859375,1.1562063694000244,0.5761817693710327,1.205389142036438
1789213803677006600,11.703006591796875,1.263157844543457,0.6952208280563354,1.334484577178955
1789213803687038700,11.713038818359376,1.3481329679489136,0.9969606399536133,1.3530933856964111
1789213803697070600,11.723070556640625,1.4406325817108154,1.1566542387008667,1.2489999532699585
1789213803707101700,11.733101806640626,1.5244803428649902,0.9536118507385254,1.1800265312194824
1789213803717133600,11.743133544921875,1.591137170791626,0.6806423664093018,1.2198561429977417
1789213803727165400,11.75316552734375,1.6324280500411987,0.5612685680389404,1.2895199060440063
1789213803737196500,11.763196533203125,1.6858606338500977,0.5995110273361206,1.287971019744873
1789213803747228700,11.773228759765624,1.7319566011428833,0.5614517331123352,1.225669264793396
1789213803757260500,11.783260498046875,1.733790636062622,0.40483418107032776,1.1701081991195679
1789213803767291600,11.793291748046874,1.6997735500335693,0.18888379633426666,1.2533413171768188
1789213803777323500,11.803323486328125,1.692559838294983,0.10150761157274246,1.3657392263412476
1789213803787355400,11.81335546875,1.6868613958358765,-0.04442792385816574,1.3915823698043823
1789213803797386500,11.823386474609375,1.621018648147583,-0.40266913175582886,1.4655718803405762
1789213803807418400,11.83341845703125,1.5629364252090454,-0.6931820511817932,1.509214997291565
1789213803817450500,11.843450439453125,1.5136929750442505,-0.9583559036254883,1.541913628578186
1789213803827481600,11.853481689453124,1.4907598495483398,-1.1621665954589844,1.5339733362197876
1789213803837513500,11.863513427734375,1.4721262454986572,-1.1570039987564087,1.488073468208313
1789213803847545300,11.87354541015625,1.3628106117248535,-1.049523949623108,1.4394038915634155
1789213803857576400,11.883576416015625,1.1399922370910645,-0.9645451307296753,1.423742413520813
1789213803867608600,11.893608642578124,0.9015863537788391,-0.7792186737060547,1.3750635385513306
1789213803877640400,11.903640380859375,0.7467759847640991,-0.4706211984157562,1.2831107378005981
1789213803887671600,11.913671630859374,0.6523962020874023,-0.2806490361690521,1.1648231744766235
1789213803897703400,11.923703369140625,0.5502431988716125,-0.40605276823043823,1.0392773151397705
1789213803907734300,11.933734375,0.4532827138900757,-0.5584524869918823,0.9208567142486572
1789213803917766700,11.9437666015625,0.3354610204696655,-0.44858428835868835,0.8258172869682312
1789213803927798500,11.953798583984375,0.20326699316501617,-0.25876498222351074,0.6854140162467957
1789213803937829400,11.963829345703125,0.09009836614131927,-0.09636356681585312,0.546493411064148
1789213803947861500,11.973861572265625,-0.00021092593669891357,0.009155784733593464,0.5126604437828064
1789213803957893400,11.983893310546875,-0.12776514887809753,0.14193274080753326,0.5970847606658936
1789213803967924500,11.993924560546875,-0.22923360764980316,0.3566995859146118,0.5341929197311401
1789213803977956600,12.00395654296875,-0.24562297761440277,0.44393646717071533,0.32160526514053345
1789213803987988500,12.013988525390625,-0.08951275050640106,0.3320257365703583,0.06611795723438263
1789213803998019600,12.02401953125,0.005552780348807573,0.13629166781902313,-0.08410323411226273
1789213804008051500,12.034051513671875,-0.05331236869096756,0.15112540125846863,-0.21938742697238922
1789213804018083600,12.04408349609375,-0.12444246560335159,0.3558708131313324,-0.43196624517440796
1789213804028114400,12.054114501953125,-0.13079525530338287,0.4403836131095886,-0.7248061299324036
1789213804038146600,12.064146484375,-0.13497428596019745,0.3392018675804138,-0.9454138278961182
1789213804048178400,12.074178466796875,-0.25544631481170654,0.14987467229366302,-1.0177843570709229
1789213804058209500,12.08420947265625,-0.4975960850715637,0.10323527455329895,-1.1803584098815918
1789213804068241400,12.094241455078125,-0.6391444206237793,0.1693333238363266,-1.4566863775253296
1789213804078272300,12.104272216796875,-0.6583253145217896,0.3563522398471832,-1.477142095565796
1789213804088304600,12.1143046875,-0.6594877243041992,0.4386768639087677,-1.2248671054840088
1789213804098336500,12.12433642578125,-0.7074182033538818,0.3845877945423126,-0.9113733172416687
1789213804108367400,12.134367431640625,-0.6955176591873169,0.28831279277801514,-0.706030547618866
1789213804118399500,12.1443994140625,-0.6383044719696045,0.1665152758359909,-0.5906379222869873
1789213804128431600,12.154431640625,-0.5774904489517212,0.18185462057590485,-0.5244981646537781
1789213804138462500,12.16446240234375,-0.5041714906692505,0.2706665098667145,-0.47172659635543823
1789213804148494600,12.17449462890625,-0.46251770853996277,0.5473827719688416,-0.46991074085235596
1789213804158526500,12.1845263671875,-0.40967419743537903,0.6813169121742249,-0.5506654977798462
1789213804168557300,12.194557373046875,-0.3488594889640808,0.41159865260124207,-0.70342618227005
1789213804178589400,12.20458935546875,-0.3774072527885437,0.05924326181411743,-0.9173368215560913
1789213804188621600,12.21462158203125,-0.5005785822868347,-0.050065331161022186,-1.1975752115249634
1789213804198652400,12.22465234375,-0.673902690410614,-0.036039527505636215,-1.5225447416305542
1789213804208684500,12.2346845703125,-0.7443770170211792,0.06872811913490295,-1.6956021785736084
1789213804218716400,12.24471630859375,-0.7886608242988586,0.05987710878252983,-1.6762359142303467
1789213804228747300,12.254747314453125,-0.9096933007240295,-0.10344241559505463,-1.5559746026992798
1789213804238779600,12.264779541015624,-1.0649462938308716,-0.24488209187984467,-1.4885132312774658
1789213804248810500,12.274810546875,-1.2309778928756714,-0.034220851957798004,-1.4734158515930176
1789213804258842400,12.28484228515625,-1.3786426782608032,0.29732778668403625,-1.4721194505691528
1789213804268874500,12.29487451171875,-1.5219619274139404,0.17085593938827515,-1.479512333869934
1789213804278905300,12.3049052734375,-1.5523121356964111,-0.39273151755332947,-1.5096555948257446
1789213804288937500,12.3149375,-1.5113890171051025,-0.9942868947982788,-1.6125112771987915
1789213804298969600,12.324969482421874,-1.4498982429504395,-1.1354559659957886,-1.7351347208023071
1789213804309000400,12.33500048828125,-1.4408197402954102,-0.7644566893577576,-1.8572942018508911
1789213804319032300,12.3450322265625,-1.433957576751709,-0.24328938126564026,-1.9516100883483887
1789213804329064400,12.355064453125,-1.4528474807739258,-0.1990877091884613,-1.8210207223892212
1789213804339095300,12.36509521484375,-1.3959312438964844,-0.5850076675415039,-1.3652681112289429
1789213804349127400,12.37512744140625,-1.2819973230361938,-0.7292651534080505,-0.8171862363815308
1789213804359159600,12.38515966796875,-1.154512643814087,-0.513985812664032,-0.5112209916114807
1789213804369190400,12.3951904296875,-1.1248975992202759,-0.26424238085746765,-0.4101371169090271
1789213804379222300,12.40522216796875,-1.0357118844985962,-0.12133289873600006,-0.23603324592113495
1789213804389254700,12.415254638671875,-0.8574821352958679,0.21871598064899445,-0.10889127105474472
1789213804399285500,12.425285400390624,-0.6014828681945801,0.32847338914871216,0.08016387373209
1789213804409317400,12.4353173828125,-0.34061071276664734,0.38023367524147034,0.2721531391143799
1789213804419348500,12.445348388671874,-0.12941566109657288,0.3626461625099182,0.3798079788684845
1789213804429380400,12.45538037109375,0.00036334944888949394,0.279923677444458,0.6391561031341553
1789213804439412500,12.46541259765625,0.1008678525686264,0.4268423020839691,1.0188437700271606
1789213804449443600,12.475443603515625,0.2767401337623596,0.8515820503234863,1.2593590021133423
1789213804459475500,12.485475341796874,0.4345633089542389,1.1209293603897095,1.2165281772613525
1789213804469507300,12.49550732421875,0.5542169213294983,0.9726965427398682,1.1590039730072021
1789213804479538400,12.505538330078124,0.7265929579734802,0.8049022555351257,1.221924901008606
1789213804489570300,12.5155703125,0.92485111951828,0.7920118570327759,1.2434828281402588
1789213804499602400,12.5256025390625,1.1311120986938477,0.6917784810066223,1.252655267715454
1789213804509633500,12.535633544921875,1.2937954664230347,0.4790239632129669,1.3037277460098267
1789213804519665400,12.54566552734375,1.4474235773086548,0.30022093653678894,1.356054663658142
1789213804529697500,12.555697509765626,1.567595362663269,0.2353368103504181,1.3564621210098267
