time,seconds_elapsed,z,y,x
1789214478178734800,0.05873486328125,-0.6398568234175444,0.9689198509573936,1.0353899997521192
1789214478188767000,0.06876708984375,-1.0172177256584167,0.9488771798819303,1.0585073290325702
1789214478198798800,0.078798828125,-0.9363146354287862,0.8194932595998048,0.3615107144191861
1789214478208830000,0.088829833984375,-1.1676321590095757,0.70210022136271,-0.009743030053004621
1789214478218861800,0.09886181640625,-1.3000129230201243,0.5117261180669069,-0.2121716552145779
1789214478228893000,0.108892822265625,-1.2687883481949567,0.4209533757299185,-0.21470482695400714
1789214478238925000,0.118925048828125,-1.3204910629034041,0.29331483781039713,-0.08602112736310809
1789214478248956000,0.128955810546875,-1.322910399004817,0.23352292467057703,0.04645918803177774
1789214478258987800,0.13898779296875,-1.0227800359606742,0.20333353811204433,0.17129384751170873
1789214478269020000,0.14902001953125,-0.852464385831356,0.11655834097862243,0.3729413322329521
1789214478279050800,0.15905078125,-0.9030342971175909,0.086709730681777,0.602464775471203
1789214478289083000,0.169082763671875,-1.0121008210361002,-0.07120528755784035,0.7032420848742127
1789214478299114000,0.179114013671875,-0.8636796073287725,-0.09534253447055815,0.48648014272730794
1789214478309145900,0.189145751953125,-0.8821405621707439,-0.007009001979231834,0.16728008182570336
1789214478319178800,0.1991787109375,-1.148524722957611,-0.01483399651646614,-0.019320877873245625
1789214478329211000,0.2092109375,-1.2246814954429863,-0.004781389057636261,-0.2711518318464048
1789214478339243000,0.219242919921875,-1.1706266646504402,-0.005387538257241249,-0.48197537865396584
1789214478349273900,0.22927392578125,-0.891125832659006,-0.10729366902709006,-0.6116364353770389
1789214478359306000,0.239305908203125,-0.5020750771462917,-0.19121464577317238,-0.589152289433591
1789214478369336800,0.2493369140625,-0.3657733402997255,-0.2670212896466255,-0.41462369778435676
1789214478379368700,0.25936865234375,-0.10664368068575858,-0.2761170347720384,-0.2302319020348601
1789214478389400800,0.26940087890625,0.0316711495488882,-0.2514057873636484,-0.5267005459673703
1789214478399430700,0.2794306640625,-0.025711948883533477,-0.4144219281345606,-0.4581301734903827
1789214478409462800,0.289462890625,-0.3418874377995729,-0.40285540898144245,-0.18195952710127458
1789214478419493600,0.29949365234375,-0.3879781578451395,-0.5876748007595539,-0.24735238378699867
1789214478429525500,0.309525390625,-0.18492051406502721,-0.6700953098148107,-0.45620114165656267
1789214478439556600,0.319556640625,-0.07600070514082909,-0.5691454568564891,-0.3866444980885833
1789214478449588700,0.329588623046875,0.17998656479418276,-1.8460978222846984,-0.21955113447401672
1789214478459620600,0.33962060546875,-0.032548516905307766,-1.224732933369279,-0.5930430497944355
1789214478469651700,0.349651611328125,-0.0855026929795742,-0.08052841169834137,-0.3379149174394086
1789214478479683600,0.35968359375,-0.13452771291136742,-0.6452537140250205,-0.5081016074268146
1789214478489714700,0.369714599609375,0.11525544168651103,-0.7850210811555385,-0.7592163394220173
1789214478499746800,0.379746826171875,0.4569418039560318,-1.2300690337002276,-0.6674529786124825
1789214478509778700,0.38977880859375,0.3401233507364988,-1.4081523952215909,-0.3089675302986055
1789214478519809800,0.399809814453125,-0.19556816480755804,-0.6793307556718587,0.2532085442029871
1789214478529841700,0.409841552734375,-0.2657973008096218,-0.3752648067444563,0.3237057382903993
1789214478539872800,0.419872802734375,0.1625701505690813,-0.42087037362158297,-0.2273057306561619
1789214478549904600,0.429904541015625,0.40079380027651784,-0.5371902296692133,-0.41695429615639146
1789214478559936800,0.439936767578125,0.3487304355621338,-0.44225569147765637,0.10119558961400761
1789214478569967900,0.4499677734375,0.0298936184823513,-0.24787352158427237,0.24337712348047644
1789214478579999700,0.459999755859375,-0.45154491334855557,0.15668050800859928,0.25263887282256037
1789214478590030600,0.470030517578125,-0.932491862270236,0.6589250965029001,0.3941442792594433
1789214478600062700,0.480062744140625,-1.0194880086779594,0.8503525082439184,0.15661507808957248
1789214478610094800,0.4900947265625,-0.6598322744756937,0.9601888474911451,-0.09207207969883456
1789214478620125700,0.500125732421875,0.07167232054769992,0.9663836104780436,-0.046989933907613156
1789214478630157800,0.51015771484375,0.33027064976394177,0.8845096293896436,0.074489277664572
1789214478640188700,0.520188720703125,0.3422130164921284,0.6560586011558771,0.22016891931248828
1789214478650220500,0.530220458984375,0.7056465156674384,0.4401403067588806,0.17174813061784952
1789214478660252700,0.540252685546875,0.8081085267543793,0.4730559034109115,0.2319139185713604
1789214478670283800,0.55028369140625,0.562918545165658,0.4733277060896158,0.9100064742177725
1789214478680315600,0.560315673828125,0.3235942407399416,0.3432756772875786,1.4695627033434808
1789214478690346800,0.5703466796875,-0.01889993078112602,0.006971008056402206,1.9000743271440266
1789214478700378600,0.580378662109375,-0.1480383518695831,-0.4087111492723226,1.9749774463064969
1789214478710410500,0.590410400390625,-0.21449615263938904,-0.6206979494392871,1.937448364509642
1789214478720441600,0.600441650390625,-0.4974339733421802,-0.5887871459156274,1.22207306651026
1789214478730473700,0.6104736328125,-0.8865648083537816,0.013966566032171248,-0.47784730240590867
1789214478740504800,0.6205048828125,-0.33634500124156474,2.3467554338485,-2.4378905797570942
1789214478750536700,0.63053662109375,-0.006679916155338287,4.046701740923524,-1.8306668827883898
1789214478760568600,0.640568603515625,-0.8034668384283781,3.932835123246908,-0.45064580908436325
1789214478770599700,0.650599609375,0.05789221699833869,1.5254074862927198,0.07966032362692058
1789214478780631800,0.6606318359375,0.6588491086572408,0.040700259178876874,1.0821597150377928
1789214478790662700,0.67066259765625,0.32869828588068484,0.16733692657947538,1.8665736240804194
1789214478800694800,0.68069482421875,0.11203531059622764,0.09967033454179763,1.4931038840591906
1789214478810726700,0.6907265625,-0.29849019462168214,-0.14200842405557632,1.1193155796080827
1789214478820757500,0.700757568359375,-1.2377134109735488,0.36931788103878493,0.6430239091463387
1789214478830790000,0.710789794921875,-1.784105768752098,0.8023071469992399,0.1975087044160813
1789214478840820700,0.72082080078125,-1.8741718241244554,0.6787187612533568,0.0020472513860091564
1789214478850852600,0.7308525390625,-1.6235282533049582,0.17502397395074368,-0.14233365568825973
1789214478860884700,0.740884765625,-1.1351327419430017,-0.1513940920382738,-0.2331199516265653
1789214478870915600,0.75091552734375,-0.7187672785252333,-0.09454290852546691,-0.4119380388969555
1789214478880947700,0.76094775390625,-0.6093629009544849,-0.09269406578838825,-0.6186177090991288
1789214478890978600,0.770978515625,-0.44314358022809025,-0.170808402082324,-0.5652287583367899
1789214478901010700,0.7810107421875,-0.13733107989430426,-0.38473873753249643,-0.25205559304188935
1789214478911042800,0.791042724609375,0.13825520900189875,-0.8779010249048471,0.3900426526268944
1789214478921073700,0.80107373046875,-0.13355506848692894,-0.805277687242627,0.8508714175514877
1789214478931105500,0.81110546875,-0.6252174726903438,-0.8960176963537931,0.8990984920386225
1789214478941137700,0.8211376953125,-0.6218512111276387,-0.6661199764430522,0.4352821626706049
1789214478951168800,0.831168701171875,-0.2333499061912298,-0.0815595083117485,0.17664072496499866
1789214478961200600,0.84120068359375,-0.2670253812998533,0.5886755022346973,0.15715113946134224
1789214478971231700,0.851231689453125,-0.4212696020722389,1.5557663841992615,0.2954722350399941
1789214478981263600,0.861263671875,-0.2450175476312637,1.3493968393921851,-0.04945194924012757
1789214478991295500,0.87129541015625,1.0542401731073856,-0.038377369189262385,0.9832676713921129
1789214479001326800,0.881326904296875,0.42656887752413747,-0.6504834313720465,1.685239005678147
1789214479011358700,0.891358642578125,0.02889233248531818,-0.3490811486959457,1.4907713494583963
1789214479021389800,0.901389892578125,0.20135843864679334,0.24990005897581577,1.3641994178570807
1789214479031421700,0.911421630859375,0.26225802076756954,0.18617489804029463,1.3023700075402855
1789214479041453600,0.92145361328125,0.24210195244550703,0.3021037089437246,1.3039850415214895
1789214479051484700,0.931484619140625,0.14101941301822662,0.8544950148761272,1.2462806021802126
1789214479061516800,0.941516845703125,-0.022686463582515717,1.356952369338274,0.9071642365291714
1789214479071547600,0.951547607421875,-0.22395137872695922,1.3282155196756125,0.6976647231332957
1789214479081579800,0.961579833984375,-0.2456944239795208,0.8848959983587265,0.6482482927311212
1789214479091611600,0.971611572265625,0.28699732522666455,0.5319552516251802,0.992712449150905
1789214479101642500,0.981642578125,-1.3325176007837056,1.0671773960918187,0.49054165654517706
1789214479111675000,0.9916748046875,-2.180166110765934,1.95087103292346,-0.3972394687958061
1789214479121706800,1.001706787109375,-0.7531921106964349,1.15887777466774,-0.11196421812139451
1789214479131737600,1.011737548828125,-0.4323585668414831,0.48852702878713605,-0.012464783167093992
1789214479141769700,1.021769775390625,-0.3520353223264217,0.30802842281758785,-0.564071952984482
1789214479151800600,1.031800537109375,0.004752747485041618,0.6044108315050601,-0.6057604925483465
1789214479161832400,1.04183251953125,0.016873393389582634,1.200235620972514,-0.636014614906162
1789214479171864800,1.05186474609375,0.08554770116508006,1.1033055250495671,-0.6255635096490383
1789214479181895700,1.061895751953125,0.19228782796263694,1.0526678092241286,-0.18488500436022876
1789214479191927600,1.071927490234375,0.2453799512028694,1.1321920123159885,-0.0401819343931973
1789214479201959700,1.081959716796875,0.35501287683248517,1.1017904443114996,-0.06697809831686317
1789214479211990500,1.091990478515625,0.2557750884890556,1.024237249031663,0.10561587200798093
1789214479222022700,1.102022705078125,0.12798925105333328,0.772161015060544,0.1595634430337697
1789214479232053800,1.1120537109375,-0.0515396331012249,0.6489449697583913,0.09129567023254931
1789214479242085600,1.122085693359375,-0.24392156908810136,0.4068897790640592,-0.10410933990254997
1789214479252117800,1.13211767578125,-0.3937637555092573,0.2385878068447113,-0.4261747636400163
1789214479262148600,1.142148681640625,-0.4033604358941316,-0.005645312410593032,-0.5867306517772376
1789214479272180700,1.1521806640625,-0.1637637442678213,-0.18147826465666292,-0.7128210834719241
1789214479282212600,1.162212646484375,-0.10639292079508304,-0.1526829628050327,-0.8630907015249133
1789214479292243700,1.17224365234375,0.0354489145219326,-0.14356500584781168,-0.7444697289280593
1789214479302275600,1.182275634765625,0.1522533392161131,-0.555749384188652,-0.3743144837496802
1789214479312306700,1.192306640625,-0.8894166906535625,-0.28859540807306766,-0.9152972741022706
1789214479322338600,1.202338623046875,-0.20322890869379043,-0.06603636048734188,-0.5929103998580947
1789214479332370700,1.21237060546875,-0.32383798636794087,0.10858487788140773,-0.34724304654859006
1789214479342401800,1.22240185546875,-0.46057986819744107,0.014576222363114356,-0.24545612171161918
1789214479352433700,1.23243359375,-0.5815618708372116,-0.002211246308684349,-0.048637408853694795
1789214479362465500,1.242465576171875,-0.9129021956592798,0.0032177930027246474,-0.18151059602368622
1789214479372496600,1.25249658203125,-1.1591057382047176,-0.11049801802635192,-0.47517658535931256
1789214479382528800,1.26252880859375,-1.3049743448197841,-0.12185586286485195,-0.6736784289985894
1789214479392560600,1.272560546875,-1.0875398006409407,-0.1131435640990734,-0.8067354848355054
1789214479402591700,1.282591796875,-0.7790858458876609,0.01953355250954628,-0.8347229043703526
1789214479412624000,1.292623779296875,-0.4545400035113096,0.044997664111852645,-0.7284475455403328
1789214479422655000,1.302655029296875,-0.019067104041576386,0.0249789584338665,-0.48477410599440335
1789214479432686800,1.312686767578125,0.3655120590150356,-0.13554302743375302,-0.17438202278539539
1789214479442718700,1.32271875,0.8204010220944881,-0.22845044371187687,-0.007998026716313325
1789214479452749800,1.332749755859375,1.2348270418822764,-0.2833767966419458,0.2193694212315604
1789214479462781700,1.34278173828125,1.4750105934858322,-0.3642436465144157,0.441179111754708
1789214479472813800,1.352813720703125,1.6659019986540078,-0.4341448657363653,0.5094705211598426
1789214479482845000,1.362844970703125,1.4155845910489557,-0.283147079539299,0.4721475563943386
1789214479492876800,1.372876708984375,0.9095844494134188,-0.0029939211189746857,0.2921959167830646
1789214479502908700,1.38290869140625,0.15355799207389353,0.10059037199616432,0.00844050407858449
1789214479512939800,1.392939697265625,-0.5667120922297239,0.1997322987496853,-0.3448230893926695
1789214479522972000,1.402971923828125,-1.097791145542264,0.45041970871090886,-0.7348975253973156
1789214479533002800,1.413002685546875,-1.337149936759472,0.5310983425348996,-0.8496936790090054
1789214479543035000,1.423034912109375,-1.4153478596836329,0.4932528882652521,-0.9113571581743657
1789214479553066800,1.433066650390625,-1.2142226452708245,0.4110170881271362,-0.8272689351025968
1789214479563097600,1.44309765625,-0.8688730843186377,0.2353723519295454,-0.4980325237572193
1789214479573129700,1.453129638671875,-0.34383857186734673,0.09240238936543464,-0.21160782905304804
1789214479583161900,1.463161865234375,0.016109423279762267,-0.1578255863904953,0.025444603184238076
1789214479593192700,1.473192626953125,0.33381752859055996,-0.7284680038064718,0.1782005216276273
1789214479603224800,1.483224853515625,0.8867705600589513,-0.7798439707785845,0.7951581520274281
1789214479613256700,1.493256591796875,1.04410514806211,-0.9973556718468666,1.1722625952892005
1789214479623287600,1.50328759765625,1.481060979565978,-0.9724994630098343,1.7809518347658215
1789214479633320000,1.51331982421875,0.7421341255873442,-1.2630705550700425,1.4021801889441907
1789214479643351800,1.523351806640625,0.6627098757386207,-1.6241916856497525,1.223626068105921
1789214479653382700,1.533382568359375,-0.02570961079597473,-1.4769640656411647,0.9437957849644124
1789214479663414800,1.543414794921875,-0.4005658367395401,-1.8665829764306545,0.9739398710764944
1789214479673445600,1.553445556640625,-0.4318927028954029,-2.153300900194049,1.617420876340568
1789214479683477800,1.563477783203125,-0.7637649426370858,-1.120146769735217,1.1163513229750097
1789214479693510000,1.573510009765625,-1.1215221497416497,-1.1380366466909646,1.0647861901063471
1789214479703540700,1.583540771484375,-1.491838978689909,-1.4926771830797194,0.952441229039058
1789214479713572900,1.59357275390625,-1.9302397483050822,-1.512271525865793,0.43594840802699325
1789214479723604700,1.603604736328125,-1.9497528425484894,-1.6087743362873792,0.5075809810861945
1789214479733635600,1.613635498046875,-2.368694293934107,-1.315439040210843,0.1651334982510656
1789214479743668000,1.62366796875,-2.3975369420588013,-1.6541005017012356,0.08243431838490069
1789214479753699800,1.633699951171875,-2.439761634325981,-1.7799726144701242,-0.25923472742363807
1789214479763730700,1.643730712890625,-2.1315520097225904,-2.1984154686838386,-0.1616830655362457
1789214479773762800,1.6537626953125,-1.656753646558523,-2.734194077989459,0.3454212379489094
1789214479783795000,1.663794921875,-1.1457324618905782,-2.9215257448494434,0.9606335225187241
1789214479793825800,1.67382568359375,-0.5786076972067355,-3.107251730078459,1.2781301770359277
1789214479803858000,1.68385791015625,-0.06325929698944091,-2.8004806138455867,1.478473885682225
1789214479813889800,1.693889892578125,0.107692897477746,-2.914627217507362,1.5174699712917208
1789214479823920600,1.703920654296875,0.4300713326871395,-3.1937399269640445,1.2827718653619289
1789214479833952800,1.713952880859375,0.6531020894378423,-3.283372851616144,1.044068469313532
1789214479843985000,1.72398486328125,0.8058534413039684,-3.3360318441361185,0.8362957797102629
1789214479854015700,1.734015625,0.5147568640649318,-3.2333716801285743,0.5606763191968203
1789214479864047900,1.7440478515625,0.014938625934720038,-3.1868133425712584,0.31300606509968637
1789214479874079700,1.754079833984375,-0.23297639670372008,-3.490403490680456,0.047873950200527905
1789214479884110600,1.764110595703125,-0.5389116466343402,-3.6821138110160825,0.25121713292375203
1789214479894143000,1.77414306640625,-0.5136334129929542,-5.886832763758301,1.0661860469669102
1789214479904173800,1.784173828125,-0.5466097999215126,-3.397050376461446,1.6768857494831084
1789214479914205700,1.794205810546875,-1.5596628071159124,0.24260960970669984,1.2698206138521433
1789214479924237800,1.80423779296875,0.14520458974838257,-0.3334115781381726,0.8925839225128293
1789214479934268700,1.8142685546875,-1.304892511755228,-0.6083914255738258,-0.015129472331702708
1789214479944300500,1.824300537109375,-1.6631249351561068,-0.9734241766393185,1.1094167014062404
1789214479954333000,1.8343330078125,-0.7920037796497345,-1.7781778400078414,0.9142121092140674
1789214479964363800,1.84436376953125,-2.7595792791366573,-1.4034779736697673,-0.36162177357822656
1789214479974395600,1.854395751953125,-3.432912840220332,-0.7597992538765073,-0.7098378298774362
1789214479984427800,1.864427734375,-2.7616321200132368,-1.0035206242173909,-1.8408286497101187
1789214479994458600,1.874458740234375,-0.9330629401564597,-1.350605922921002,-3.0060230601787565
1789214480004490800,1.88449072265625,0.24112404732406137,-1.8470763119280338,-2.2407366070628165
1789214480014523000,1.89452294921875,1.2334534154415129,-3.2587823079779743,-0.6283622004568576
1789214480024553700,1.9045537109375,3.29591318423748,-4.593353041899204,-0.04557692530453205
1789214480034585600,1.914585693359375,2.8607173481434582,-3.787408707441389,-0.7389782919049263
1789214480044617700,1.92461767578125,0.24414018027484416,-2.0695126099169254,-2.2886872757613657
1789214480054648800,1.93464892578125,-0.7514338688522577,-0.7709303042218089,-4.037749788182974
1789214480064680700,1.9446806640625,0.8089601751476526,0.23655483971238134,-3.1866859167993065
1789214480074712800,1.954712890625,2.5024603748232126,0.2861214191749692,-2.664829449862242
1789214480084743700,1.96474365234375,3.2535645733296867,-0.43894729758203027,-3.2835295034825798
1789214480094775600,1.974775634765625,3.0290932623818514,-0.8593772339597344,-3.222534644293785
1789214480104808000,1.984807861328125,2.133072205027193,-0.5693403949066996,-3.236639742013812
1789214480114838800,1.9948388671875,1.6642518933594226,0.06823693927153944,-3.537063535046577
1789214480124870700,2.00487060546875,1.2611048079550267,0.9232381501041352,-2.6667566185325384
1789214480134902800,2.01490283203125,1.5083388625919818,2.139004956077039,-0.4987129072368145
1789214480144933600,2.02493359375,2.0100513900361956,2.5278411920562385,2.272218956041336
1789214480154965800,2.0349658203125,1.9265490770936011,0.466960582210496,3.481889344835281
1789214480164998000,2.044997802734375,1.4783319929935037,-0.20742109968662262,3.2967385291457174
1789214480175028700,2.05502880859375,1.053770071377605,1.1714739291295408,4.752991230669617
1789214480185060900,2.065060791015625,1.4125836556673048,3.1271964937373995,6.8170373918741936
1789214480195092700,2.0750927734375,2.216898489227146,5.956749180549383,7.514983416166901
1789214480205123600,2.08512353515625,1.5352140100359917,6.76952453007102,6.9797174325585365
1789214480215155700,2.09515576171875,-0.4922294635016471,3.533020397135615,7.16346948736608
1789214480225187800,2.105187744140625,-0.5924549842407927,-1.5733926417827606,7.396525963568687
1789214480235218700,2.11521875,0.12376724031097255,-3.9895524512469764,8.343528581750393
1789214480245250800,2.125250732421875,0.5900842730540782,-2.3296841797992585,8.44347656418979
1789214480255283000,2.135282958984375,0.6263537832438946,3.6637434570670124,6.94520667566955
1789214480265313800,2.145313720703125,-5.226337641459703,5.920680672824383,6.779074448704719
1789214480275346000,2.155345947265625,-6.22955022264123,5.342972554805875,8.054622792553902
1789214480285377800,2.165377685546875,-3.013331337365508,4.734415125015378,8.804588926941156
1789214480295408600,2.17540869140625,-1.077927411230281,3.4548271503865715,9.293057503539323
1789214480305440800,2.185440673828125,-1.6217686962865292,3.837277484720945,9.486628357049822
1789214480315473000,2.195472900390625,-0.4460178204901516,2.990119388604164,8.611697872388362
1789214480325503700,2.205503662109375,1.0534380629442632,-0.09813128840625286,4.043208638110757
1789214480335535900,2.215535888671875,3.0669378398686646,-0.45623628603518007,1.11504973885715
1789214480345567700,2.225567626953125,1.5399135660290717,-1.3073510108232498,4.988913617697357
1789214480355598600,2.2355986328125,-0.9958084424048662,-5.177037311717868,7.352742351421713
1789214480365631000,2.245630859375,1.636197765263915,-5.026291454455256,3.1102018120557067
1789214480375662800,2.255662841796875,0.9371586850374937,-0.7033107661962509,4.9847646813243625
1789214480385693700,2.265693603515625,-2.5134973171442745,0.1469067174911499,4.6058302461564535
1789214480395725800,2.275725830078125,-3.8263773205220697,-0.24811492912471292,4.069748854511976
1789214480405758700,2.2857587890625,-3.684121351446211,-1.8496324261516333,3.9475153905063864
1789214480415789600,2.29578955078125,-0.06677490389496088,-2.666861832472682,3.974577584955096
1789214480425821400,2.305821533203125,2.037813987839222,-0.5965174479067326,7.695961914607882
1789214480435853600,2.315853515625,-0.3927146848477423,1.2368413043141364,3.330264366650581
1789214480445884400,2.325884521484375,0.822633603452146,-0.3501987545490265,1.3694547080367803
1789214480455916300,2.335916259765625,5.381110854542255,-2.0792472374677655,1.3098182777196168
1789214480465948700,2.34594873046875,10.523656114071606,-2.257500110337138,-0.05907412025928497
1789214480475979500,2.3559794921875,-0.8841238449424504,3.5668788275957106,-0.06466214952468871
1789214480486011400,2.366011474609375,8.205322472587227,5.455708707147837,-1.8565262773185967
1789214480496043500,2.37604345703125,3.472288572797179,1.6762386837512253,-1.8693688077569006
1789214480506074400,2.386074462890625,-2.3763471467748283,4.384512138542533,-2.3794167634785173
1789214480516106500,2.3961064453125,4.22468573372364,4.702098078778386,-1.6997037304908036
1789214480526138600,2.406138671875,0.2926382537230849,1.9522440748423338,-2.0394319444298743
1789214480536169500,2.41616943359375,-9.237827783748507,2.09557702549994,-3.5749025595754382
1789214480546201300,2.426201416015625,-11.036655905336142,3.076366177949309,-1.950568835106492
1789214480556233500,2.4362333984375,-4.380285460758209,2.1391718370765447,-0.804597303763032
1789214480566264600,2.4462646484375,-5.417641134560108,1.5917951444357632,-0.6087561672329902
1789214480576296400,2.45629638671875,-5.240062799951434,2.162373848965764,-0.8472545422285794
1789214480586328600,2.46632861328125,-4.077295324368775,1.6696476149231194,-1.0082599276989699
1789214480596360400,2.4763603515625,-3.3865441800162195,3.075894468784332,-1.429782627749443
1789214480606391600,2.4863916015625,-4.305036158506572,2.359799624338746,-1.1327163284510373
1789214480616423700,2.496423583984375,-1.7401014995917676,3.3085382725328203,-2.0206156002789735
1789214480626455600,2.50645556640625,-1.4763523634836078,3.4308377875119445,-2.271247480660677
1789214480636486700,2.516486572265625,-3.085392949491739,4.117193911775947,-3.532660916173458
1789214480646518500,2.5265185546875,-2.2859148884385823,6.306524741250276,-4.578316800808906
1789214480656550400,2.53655029296875,-1.1713424117043614,10.472377177733183,-5.869344453340768
1789214480666581500,2.54658154296875,-0.6301131357774138,13.886874655818938,-7.175322422245144
1789214480676613600,2.556613525390625,0.01434299812912941,14.361536825382709,-8.052762843900918
1789214480686645500,2.5666455078125,-0.9663792265638709,13.97725109231472,-8.607970376297832
1789214480696676600,2.576676513671875,-1.407611420212686,11.850803712254763,-8.114584217041731
1789214480706708500,2.58670849609375,-0.3085143066383898,8.007356598988174,-7.638872246164083
1789214480716740600,2.59674072265625,0.4542031727723777,4.101287317591906,-7.051715916320681
1789214480726771700,2.606771728515625,0.5948761469731108,-1.2904606662988662,-5.90300531540215
1789214480736803600,2.616803466796875,1.3834551763385534,-6.941959072050452,-4.919658879685402
1789214480746835500,2.62683544921875,1.1146142700493336,-9.711595634821057,-5.393289368113875
1789214480756866600,2.636866455078125,1.6325871735513209,-9.782096573501825,-4.344900843644142
1789214480766898700,2.646898681640625,2.865347346031666,-8.8319778691262,-1.5362059436827897
1789214480776930600,2.6569306640625,3.602082242923975,-8.411531858396529,1.0470803644806146
1789214480786962400,2.66696240234375,4.861537530106306,-7.1921999072879546,3.543936343425512
1789214480796993500,2.67699365234375,4.832359366416931,-5.278293454146385,5.3976943250745535
1789214480807025400,2.687025390625,3.376456793504953,-4.516918036994338,7.886563981440663
1789214480817057500,2.6970576171875,2.529049106541276,-5.697358239650726,10.18759343690276
1789214480827088600,2.707088623046875,-2.580567112332582,-8.29767050141692,11.549592568236589
1789214480837120500,2.71712060546875,-3.8498651636153456,-9.81923826341629,13.954457076704502
1789214480847152400,2.72715234375,-2.495778705102205,-9.370951475080847,13.568219040524959
1789214480857183500,2.73718359375,-3.823185831004381,-8.396244272893666,11.59614272248745
1789214480867215600,2.747215576171875,-4.321289958693087,-6.856203865614533,10.46016651545763
1789214480877247500,2.75724755859375,-4.243329643917083,-4.595006069803238,8.193844800761342
1789214480887278600,2.767278564453125,-4.554980348885059,-3.706986970987916,5.000868843907117
1789214480897310500,2.777310546875,-1.8536939765021203,-4.7572862975150345,4.1897219723701475
1789214480907342300,2.78734228515625,2.8047219046771525,-5.964454348099231,4.284661771258712
1789214480917374700,2.797374755859375,6.7412126278221605,-5.245082089418172,4.426774824732542
1789214480927405600,2.807405517578125,-1.373801943460852,-2.606043498894572,2.2389625831276176
1789214480937437400,2.8174375,2.150793155156821,-3.6335230908483265,0.058985857453942296
1789214480947469600,2.827469482421875,13.71902101188898,-0.7390852594107389,-0.013462123641371726
1789214480957500400,2.83750048828125,0.22983049989342688,8.150249404662848,0.5148696767896414
1789214480967532500,2.847532470703125,-5.328345479038357,1.9748785159766673,-2.4290876800984145
1789214480977564700,2.857564697265625,-3.532446396639943,-1.1784686103224753,-5.556459822663665
1789214480987595500,2.867595458984375,-3.294230345717072,0.4212468057185411,-2.5955314572304484
1789214480997627400,2.87762744140625,-4.917385089534521,4.304795627748966,-1.1267910300552844
1789214481007659500,2.887659423828125,-2.0381867666743694,3.4105075316667555,0.8249994558006525
1789214481017690400,2.8976904296875,3.6253152344733475,0.60370239097476,1.7337538841307163
1789214481027722500,2.907722412109375,-1.2927243734471499,1.9262503864079712,1.115784482872486
1789214481037754600,2.917754638671875,-4.301579003790021,4.091097347488999,0.0025444237858057023
1789214481047786500,2.927786376953125,-6.945268050467967,5.497806558164954,-1.2814859172046185
1789214481057817300,2.9378173828125,-0.6692047907158732,4.919849433821439,-1.277010817617178
1789214481067849700,2.947849609375,1.3607124525241554,-1.8906956734240055,-1.3782494243890047
1789214481077881600,2.957881591796875,5.018472305136918,-1.8282026846319437,-0.2641711609125137
1789214481087912400,2.967912353515625,8.57220172830224,3.3951012882202862,-0.3592272796571255
1789214481097944600,2.977944580078125,7.719829112407565,9.731668701034783,-1.4126444459438323
1789214481107976400,2.9879765625,-5.100628025776148,8.458918463471532,-4.989554253688454
1789214481118007300,2.99800732421875,-2.439034196834266,1.9936679721206425,-7.451585002967715
1789214481128039700,3.008039794921875,-2.815237745733559,-0.3506412376195192,-8.376457037883997
1789214481138071600,3.018071533203125,-3.758212423573434,0.34114977117478845,-5.455750792723894
1789214481148103400,3.028103515625,-5.149813789227604,3.6839790203660723,-4.142461039501429
1789214481158134500,3.038134521484375,-4.777107142533362,3.6636031718134876,-4.463585090735554
1789214481168166700,3.048166748046875,-5.241885923725366,4.4415176358342165,-6.342201034787297
1789214481178198500,3.058198486328125,-4.900862117017805,5.738988473156094,-8.070858472561836
1789214481188229600,3.068229736328125,-4.858229428471625,6.592122136551142,-8.457030457767845
1789214481198261500,3.078261474609375,-4.395731451693177,8.023266700303553,-7.122156064724922
1789214481208293400,3.08829345703125,-3.7485342023849486,8.525062375986575,-5.196401937401294
1789214481218324500,3.098324462890625,-3.089163700202107,7.295056470650434,-3.409458899396658
1789214481228356600,3.108356689453125,-0.6627905397593975,6.227775029662251,-0.6771522425889969
1789214481238388500,3.118388427734375,1.7025898073211312,3.717067635497451,0.9012930064082145
1789214481248420400,3.12842041015625,1.906349461890757,1.1397732612252234,1.3215776890963316
1789214481258451500,3.138451416015625,3.7084593816280362,-3.7955250861406324,3.07582315711379
1789214481268483300,3.1484833984375,5.621545750558376,-6.080612876105308,4.202871961322426
1789214481278515500,3.158515380859375,4.9431835476577275,-7.598877504906058,4.821012042972445
1789214481288546600,3.168546630859375,4.526858416250348,-8.678130538716912,4.422994137150049
1789214481298578400,3.178578369140625,4.278908322298527,-10.01556747572422,4.492848594620823
1789214481308610600,3.188610595703125,3.265742502379417,-10.623926168072224,5.347245409819483
1789214481318641400,3.198641357421875,0.13254852179288865,-10.711655889451503,5.155547364443541
1789214481328673500,3.208673583984375,-1.7114350848168134,-8.896280537688732,3.140392367658019
1789214481338705700,3.21870556640625,-2.4363579633623362,-4.736217790523171,0.9006348347604274
1789214481348737500,3.228737548828125,-4.805228782907128,-1.4826058709204195,0.1645171929836273
1789214481358768400,3.238768310546875,-3.993074780154228,-1.0079670822322369,-1.250644788739085
1789214481368800500,3.248800537109375,-3.3413732051640745,-0.43103228667378424,-2.620006557795405
1789214481378832600,3.25883251953125,-2.2410721226274966,-1.6186919191896914,-4.75007738904953
1789214481388863500,3.268863525390625,-0.6599041706681251,-2.635921335285902,-7.14776572227776
1789214481398894800,3.278894775390625,1.0567646500837058,-2.1949135980427266,-8.92039907990098
1789214481408926700,3.2889267578125,1.5521610531836747,-0.4236486061632633,-8.519929104751348
1789214481418958800,3.298958740234375,1.7758318614035844,1.965600400021672,-5.299994998344778
1789214481428990000,3.308989990234375,0.6725280899196863,4.913221540114283,-0.8663570098444819
1789214481439021800,3.319021728515625,0.4304441845875233,1.6003975530862806,3.6908272788256404
1789214481449053700,3.3290537109375,-2.0227736550956963,2.702106748855114,9.057928897237778
1789214481459085800,3.3390859375,-1.274882573416829,0.1677455073803663,12.465972084617613
1789214481469117000,3.349116943359375,-1.4390098903000355,-2.136411140191555,7.394296597081422
1789214481479148800,3.359148681640625,-1.002068160386756,0.17517770320773124,3.5656481167569756
1789214481489181000,3.369180908203125,-0.8071990106940269,1.7993530222445726,1.4726546780094503
1789214481499211800,3.379211669921875,-0.518829812592268,4.064622013017535,0.10628975268155336
1789214481509243600,3.38924365234375,0.5117619200326502,4.6521308095604175,0.46216684512794015
1789214481519275800,3.39927587890625,0.3979243823200464,6.790387869879603,0.6719555507287382
1789214481529308000,3.409307861328125,1.006320557134226,5.911181607595085,1.7170955947965383
1789214481539338800,3.4193388671875,0.7511100437253713,4.439060305809974,3.114376759652793
1789214481549371000,3.429370849609375,1.0926285751473157,4.080057482558488,3.398445630212128
1789214481559402800,3.43940283203125,1.3199100481450556,4.365869981914758,2.8569918978795408
1789214481569433900,3.449433837890625,1.0332967537999151,3.819620247477293,2.695264043353498
1789214481579466000,3.459466064453125,1.076609825825691,3.013731734859943,2.33040957146436
1789214481589497900,3.469497802734375,0.11935345158986746,2.1185288620203733,2.961526331326365
1789214481599529700,3.47952978515625,-1.0398610076863317,0.7704670706242323,2.9955528118297456
1789214481609560800,3.489560791015625,0.690317867501825,-3.563265897795558,1.1162535616889595
1789214481619593000,3.499593017578125,2.124105785369873,-7.386004569554329,-1.8522990150123833
1789214481629624800,3.509624755859375,2.5417946063458916,-8.617410404816269,-3.8168364619776605
1789214481639656000,3.519656005859375,1.158384292062372,-9.357515654924512,-4.548050257360935
1789214481649687800,3.529687744140625,-0.44398046944364905,-7.21348994807601,-5.040000246334076
1789214481659719700,3.5397197265625,-2.4738579651951786,-4.698239065262675,-4.3790854373186825
1789214481669751800,3.549751708984375,-4.096247862119973,-3.0330355702668426,-2.9850284952059387
1789214481679783000,3.559782958984375,-2.2857003689050672,-3.1216192781269547,-0.8574898127779365
1789214481689814800,3.569814697265625,-2.250103862605989,-2.7320833694458004,0.23490619572252033
1789214481699846700,3.5798466796875,-3.4635575693309306,-1.9502859265118837,-1.1643553292959927
1789214481709879000,3.589879150390625,-1.3971736128285526,0.06493278315961361,0.7230591305002569
1789214481719910000,3.599909912109375,-1.050854622322321,3.7106636136740443,-0.16219576429873703
1789214481729941800,3.609941650390625,-2.138313905072957,2.5347400116592644,-3.2738848923027515
1789214481739974000,3.619973876953125,-1.486049873894453,-2.760857628509402,-4.145127043840289
1789214481750004700,3.630004638671875,-0.2513242465600371,-6.880522314313054,-6.242658710539341
1789214481760036600,3.64003662109375,0.42708734844028945,-8.421909460026026,-6.716579121825099
1789214481770069000,3.650069091796875,-0.1271124682188034,-6.718522072586417,-4.4607577583551405
1789214481780100900,3.660100830078125,-1.852898442210257,-3.705297118204832,-3.678949794027209
1789214481790131700,3.670131591796875,-2.1929627562358975,-1.4493880764514206,-3.343438905522227
1789214481800163800,3.680163818359375,-2.533183722127974,-2.3577117121487854,-3.8863720627576113
1789214481810196000,3.690196044921875,-5.223376453566551,0.3849585177630186,-1.4900398203134535
1789214481820226800,3.700226806640625,-1.6705330194555221,6.270524622586369,-2.7694834180355072
1789214481830259000,3.710259033203125,0.7730128095842898,6.943830711141228,-6.506862604677677
1789214481840290800,3.720290771484375,2.4349067416407166,8.090474442657827,-6.9418228784501546
1789214481850322700,3.73032275390625,2.5255437287688256,10.035438881886005,-6.217043207767605
1789214481860353800,3.740353759765625,2.6127368590533733,9.903234058964252,-1.8789193109124898
1789214481870386000,3.750385986328125,3.692044837921858,5.023519651654363,4.745835513696075
1789214481880417800,3.760417724609375,2.6535668820917606,0.41958267189860343,10.095763878989219
1789214481890449700,3.77044970703125,1.9170389059484003,-1.6636510048568247,14.076009572708607
1789214481900480800,3.780480712890625,2.0833914976656436,-4.0937171745985745,14.461751934325694
1789214481910513000,3.790512939453125,2.411654314738512,-5.803350762951374,11.406150896507501
1789214481920544800,3.800544677734375,1.261083765166998,-6.907667510870098,7.787695026409626
1789214481930577000,3.810576904296875,0.9554865880843252,-6.169145730561017,4.82781967716068
1789214481940607700,3.820607666015625,-0.8807562682054937,-3.0560148793160913,2.090882730203867
1789214481950639600,3.8306396484375,-1.9558171110235154,-4.925342770540714,-2.9527476893261073
1789214481960672000,3.840672119140625,-4.226560879945755,-4.862314944219589,-5.209508087211847
1789214481970702800,3.850702880859375,-4.737531211209297,0.38323943888545037,-5.266928010523319
1789214481980734700,3.860734619140625,-3.5636557738959787,2.198004549795389,-6.3044672241985795
1789214481990766800,3.870766845703125,-5.118371772259474,0.46131695030033587,-1.3616624467253684
1789214482000798700,3.880798828125,-3.82492186101675,0.6392986050128936,2.000384713155031
1789214482010829800,3.890829833984375,-2.195512002327293,-5.362905335766077,1.9874726246118544
1789214482020862000,3.900862060546875,-1.0404229524180293,-8.89281432288289,2.8301234724372626
1789214482030893800,3.910893798828125,1.020385542039573,-6.01348813585937,3.353105144011974
1789214482040925700,3.92092578125,-0.380877093668282,0.7877776863873004,2.995725538048148
1789214482050956800,3.930956787109375,-2.831659303702414,2.3447855950802565,2.139980815371871
1789214482060989000,3.940989013671875,-2.189819197513163,-0.6928881563812493,3.848745804196596
1789214482071020800,3.951020751953125,-1.1038891701564193,-5.954580604338646,3.4292987413764
1789214482081052700,3.961052734375,-0.7998419259294867,-5.462255352312326,1.8175182090103625
1789214482091083800,3.971083740234375,0.831320767776668,0.7415887666642665,2.342166352492571
1789214482101115600,3.98111572265625,0.9767898536801337,7.59111505421102,1.9682775102764367
1789214482111147800,3.991147705078125,1.389686764204502,9.892408713567256,-2.6507559163242576
1789214482121179000,4.001178955078125,1.6678405655011534,7.303976274687051,-13.56333009943962
1789214482131210800,4.011210693359375,6.071745679038763,4.061491313776374,-21.427842992591856
1789214482141242600,4.02124267578125,9.354396061599253,6.8043146884232755,-15.842120250564813
1789214482151275000,4.03127490234375,6.849466081792116,8.292905478972196,-11.223708755254744
1789214482161305900,4.041305908203125,3.938093774427473,2.6412247023910282,-7.102965042042732
1789214482171337700,4.051337646484375,-2.168898866820335,-4.196745587396621,-1.9148808511316775
1789214482181369900,4.061369873046875,-17.843283546876908,-3.989221027335524,5.675962400400638
1789214482191400700,4.071400634765625,-11.101592780148982,-7.045823351150751,11.519967829823493
1789214482201432800,4.081432861328125,-3.532413078892231,-14.864985528969763,7.143855855357646
1789214482211465000,4.09146484375,-6.124217624554038,-17.08471909549236,2.861586532193422
1789214482221496800,4.101496826171875,-3.0288600381478665,-11.489507225108145,3.5070547657519575
1789214482231527700,4.111527587890625,-0.728654174028337,-7.187991349682211,2.445867549985647
1789214482241559800,4.121559814453125,0.45727147430181503,-4.382869047510623,1.521619199925661
1789214482251592000,4.131592041015625,-0.19959084445238112,-1.0701397530287504,0.03618775019049644
1789214482261623800,4.141623779296875,-0.6883057970270514,1.6703209841400384,-2.2307973968505856
1789214482271655000,4.151655029296875,-0.7407496854916215,3.344651788443327,-2.8551293188780544
1789214482281686800,4.161686767578125,-0.6069304131105542,6.242111598050594,-2.99538534630835
1789214482291718700,4.17171875,0.6188122818231582,7.421310860735177,-4.44160531411767
1789214482301749800,4.181749755859375,2.357044772672653,6.434595825368166,-6.071411917039752
1789214482311782000,4.191781982421875,3.4322482388317583,5.471372724747657,-5.033384043064713
1789214482321813800,4.201813720703125,2.4367843720808624,4.94239561215043,-3.7316239841163155
1789214482331846000,4.211845947265625,1.482453895229101,4.8074067114681,-2.2688573706537483
1789214482341876700,4.221876708984375,1.5441129174150525,4.715826744401455,-2.765847107359767
1789214482351908900,4.231908935546875,3.6943148286804557,4.120701627635955,-4.8290819521814585
1789214482361940700,4.241940673828125,8.982032236993312,2.5283862587183714,-9.435395013418793
1789214482371972900,4.251972900390625,6.490825662112235,6.001666180640458,-8.003174344867467
1789214482382003700,4.262003662109375,5.705158099746704,6.85691932040751,-6.61138973160088
1789214482392035800,4.272035888671875,4.338244016103446,5.238782112491131,-5.574658327177167
1789214482402068200,4.282068115234375,0.4581561481818556,3.777964879530668,-4.830522798639536
1789214482412099000,4.29209912109375,-10.613232924622297,1.9832628979623317,-3.12144216799438
1789214482422131000,4.302130859375,-18.08796207181215,-0.7011030270189046,-1.4661825593858957
1789214482432163000,4.3121630859375,-3.402222226141393,-0.3784194713830948,-1.266892743706703
1789214482442195000,4.32219482421875,2.073170547902584,1.0457552533566952,-0.6059715049505233
1789214482452226000,4.33222607421875,3.473210363817215,0.09614742111265659,0.634409663927555
1789214482462258200,4.342258056640625,0.8900921056970953,-0.5575935507506132,2.8030998564332723
1789214482472290000,4.3522900390625,-1.9533403456464409,-1.0358014300972223,4.628623677244782
1789214482482322000,4.362322021484375,-2.6714520828723907,-1.7064993819802998,6.348463602313399
1789214482492353000,4.37235302734375,-1.95401795264706,-2.397248772767186,8.075731631556152
1789214482502385000,4.382385009765625,-0.9041628627561032,-3.4348213041901587,7.63365655734241
1789214482512417000,4.3924169921875,-1.773989740668237,-3.3024545687049627,4.6355087605834004
1789214482522448100,4.4024482421875,-2.5471327525034546,-0.9829483763098716,1.4894605591207741
1789214482532480000,4.41247998046875,-1.739079170806706,0.003140636113286018,0.2959744124084711
1789214482542511900,4.422511962890625,-1.2121198277726768,-0.991140450593829,0.4209416852921247
1789214482552544000,4.4325439453125,-1.0038472258232534,-2.7603420802026983,0.453407200089097
1789214482562575000,4.4425751953125,-0.6422277903325856,-2.5523750370711085,0.015690905606746672
1789214482572607000,4.45260693359375,-0.2855423041127622,-0.1512111366868019,-1.0798971769332886
1789214482582639000,4.46263916015625,2.2123194908738135,7.295132458496093,-3.4576363625884055
1789214482592671000,4.4726708984375,-2.567861944538355,11.586774005639553,-5.492267044216394
1789214482602701800,4.482701904296875,-2.1813249254122375,13.46297470524311,-4.1015743178397415
1789214482612734000,4.49273388671875,-0.587046147467196,9.635662734219432,-1.605171343359351
1789214482622766000,4.50276611328125,0.39604865157604213,4.10691100269258,-0.7336340082675218
1789214482632798000,4.5127978515625,0.25491306483224035,0.12424772643744945,-0.15207915169298647
1789214482642829000,4.5228291015625,0.0651871963120997,-1.8266805896311997,-0.06149871705770492
1789214482652861200,4.532861083984375,1.6292425392985344,-3.5416263129174705,1.7129308763325213
1789214482662893000,4.54289306640625,1.6529380337931214,-5.032363467845321,0.22714695989787578
1789214482672924200,4.552924072265625,1.6349242381967604,-5.311041293016076,-2.4796757115632295
1789214482682956000,4.5629560546875,1.1649370747067034,-4.015490610101819,-3.8095530269712206
1789214482692988000,4.57298779296875,-0.31190088033676144,0.30276889485418795,-5.007184602925181
1789214482703020000,4.58302001953125,0.8189970005154609,4.840532151478529,-4.499368351778387
1789214482713051100,4.593051025390625,0.7194425474382936,4.9123143621414895,-3.368377531945705
1789214482723083000,4.6030830078125,-0.03952537018060684,2.132570831376314,-3.365619173148274
1789214482733115000,4.613114990234375,0.9989679293490946,-1.0174310761481522,-2.370761747857928
1789214482743147000,4.62314697265625,2.1213995951510967,-1.1223346351683139,-1.5134142661601304
1789214482753178000,4.63317822265625,-0.6741992380023002,1.9751871435344217,0.22721914835125206
1789214482763210000,4.6432099609375,-2.653340087598562,6.258079567033052,1.4400892099693416
1789214482773242000,4.6532421875,4.740369649505615,7.892841746535897,-0.7133052137270569
1789214482783274000,4.66327392578125,-2.6040532018601894,1.3306792794406412,-2.6607784209057685
1789214482793304800,4.673304931640625,-2.911639141607284,0.8827081329256296,-0.48161827231198545
1789214482803337200,4.683337158203125,-1.3107295473456382,-3.6354701332628725,-1.0478694690316914
1789214482813369000,4.693369140625,2.3020006385818124,-5.608457136404514,-0.4162725244373083
1789214482823400000,4.70339990234375,1.8233309869423509,0.5832809497147798,0.06477730033695697
1789214482833432000,4.71343212890625,-3.8344627195611594,0.22679916937351224,-2.0836896038293835
1789214482843464200,4.723464111328125,-4.663831184226274,-2.335840072080493,0.08508388304561376
1789214482853496000,4.73349609375,-3.7168148297801613,-5.941961945784092,2.3026477043136953
1789214482863527200,4.743527099609375,-2.7393980763733383,-6.808330353805422,2.475849139012396
1789214482873559000,4.75355908203125,-2.4633158206537367,-5.975201367563009,1.4525515089184045
1789214482883591000,4.7635908203125,-2.857194726975262,-6.473219278272986,0.11750818904936312
1789214482893623000,4.773623046875,-3.6507916210353373,-7.719544450247287,-0.2079401551246643
1789214482903654100,4.783654052734375,-3.791762226475775,-7.720801756832003,0.9954928005844355
1789214482913686000,4.79368603515625,-4.395397689694166,-8.134109001722932,1.2691574737682938
1789214482923718000,4.8037177734375,-4.166515576566756,-7.840071694856881,1.4424527242302894
1789214482933750000,4.81375,-3.821325882351398,-6.02199234483242,1.0138017797350882
1789214482943781000,4.823781005859375,-3.4959155321002005,-5.418118104422092,-0.7068278344064951
1789214482953813000,4.83381298828125,-2.5692203734099865,-4.73250899913311,-1.5332386183097957
1789214482963845000,4.84384521484375,-1.566743120765686,-2.9321237112313505,-0.6742471687972545
1789214482973877000,4.853876953125,0.8198407578632235,-2.1242034005254506,1.9141265256330369
1789214482983907800,4.863907958984375,0.7564251012682914,-3.134921827292442,1.0535749871969222
1789214482993940200,4.873940185546875,-0.0019371055424213409,-3.3352351408004757,0.6933592810243367
1789214483003972000,4.88397216796875,-1.3983949713170527,-1.8747797268897295,0.2939545970186591
1789214483014004000,4.89400390625,-2.093101575297117,-1.2898112624794245,0.2321536821439862
1789214483024035000,4.90403515625,-2.8176386693954467,0.5333493363320827,0.6390604123428464
1789214483034067000,4.91406689453125,-2.3462039374455808,1.5587877778470516,1.429081201481819
1789214483044099000,4.92409912109375,-1.1050038534000515,2.9863007070988417,2.80684284235388
1789214483054131000,4.934130859375,-0.8168737247511744,2.5625971558779477,3.1984172711253165
1789214483064162000,4.944162109375,-1.2858648629412055,-1.1567173817634582,-2.525714116899669
1789214483074194000,4.95419384765625,2.2024425322428343,-0.24902736779451368,-7.7929276663661
1789214483084226000,4.96422607421875,3.6798312530368564,2.048662129589915,-6.350238795292377
1789214483094258200,4.974258056640625,2.484139120712876,1.2227806302577255,-5.248977343291044
1789214483104289000,4.9842890625,2.4911048680722714,2.4392069230526685,-3.597954349339008
1789214483114321000,4.99432080078125,0.7791700170397758,4.023642936897278,-1.331660691693425
1789214483124353000,5.00435302734375,0.33034634534865615,4.389357825008035,-0.05045768308341503
1789214483134385200,5.01438525390625,0.2601286075234413,2.972971854448318,0.6517863306641578
1789214483144416000,5.024416015625,-1.9286738141626119,0.7425918062269687,0.6496867280364036
1789214483154448100,5.0344482421875,-4.143231439352035,-2.399798457249999,2.792493706744909
1789214483164480000,5.04447998046875,-4.90850912463963,-4.331545102986693,4.464910201859474
1789214483174511900,5.054511962890625,-3.782696291966736,-5.071933261689543,4.835939270730316
1789214483184543200,5.064543212890625,-2.17732007368505,-5.212445894229412,4.468321471607685
1789214483194575000,5.0745751953125,-1.2752303639411926,-4.608195806244016,4.005580918245017
1789214483204607000,5.08460693359375,-1.0446759336873888,-3.206911543226242,3.5002772344410418
1789214483214638800,5.094638916015625,-0.5097486805140972,-1.0710457619577645,2.7187475025326013
1789214483224670000,5.104669921875,0.716063280263543,0.534952679875493,1.6391083920136094
1789214483234702000,5.1147021484375,1.4655956994086503,1.1712673006415366,0.7903551356598735
1789214483244734000,5.12473388671875,0.9681459439754485,1.0474784238874912,-0.41335868281722066
1789214483254766000,5.13476611328125,0.6455237631380558,0.840304576960206,-1.2123688340976833
1789214483264797000,5.144796875,0.2679366509258747,0.6256441736698151,-1.0562897991135716
1789214483274828800,5.154828857421875,0.9747451961100101,0.11094400822818279,-0.036327743183076376
1789214483284861200,5.164861083984375,1.6246078652352094,-0.5851151794046163,0.5243325016617775
1789214483294893000,5.17489306640625,2.0352216332584616,-1.4949433744460343,0.2282657347947359
1789214483304924000,5.184923828125,2.490028763273358,-2.1196733558803795,-0.7219631519570946
1789214483314956000,5.1949560546875,2.3101468278974293,-2.6693226696282624,-1.747644754578173
1789214483324988200,5.20498828125,2.2571301079809665,-3.0705653827160595,-1.2793451057836414
1789214483335020000,5.21502001953125,1.929331985810399,-3.4978660816460847,-0.7193591069385409
1789214483345051100,5.225051025390625,2.077484319448471,-2.6134277639269827,-0.7386249484226107
1789214483355083000,5.2350830078125,2.1794214298784733,0.3585141629517078,-0.6378548359453677
1789214483365115000,5.245114990234375,2.996040595346689,3.6368969511955975,-0.5350274986773729
1789214483375147000,5.25514697265625,1.796080868706107,5.1230280736327165,-1.2361471845701335
1789214483385178000,5.26517822265625,0.71627429266572,4.851795303770899,-1.2861793357178568
1789214483395210000,5.2752099609375,0.6940583692044019,4.225295390054583,-1.6692638763025403
1789214483405241600,5.28524169921875,2.2575363506942985,2.618537069764733,-2.450757660114765
1789214483415274000,5.29527392578125,2.140993207284808,0.8061457022488117,-2.759087403966486
1789214483425304800,5.305304931640625,1.7229256161242723,1.0338041188001632,-2.7797739259034393
1789214483435336700,5.315336669921875,2.041639099085331,1.9723606879368423,-2.5406381297871468
1789214483445368800,5.325368896484375,2.16831200684309,2.4363997566774485,-2.393113864919543
1789214483455400700,5.335400634765625,1.2925333809196948,3.3465210894465445,-2.317182133361697
1789214483465431800,5.345431884765625,0.6163783326745033,3.879835354465246,-1.6985756032437085
1789214483475464000,5.3554638671875,0.14428455229401588,4.147957298830152,-0.7901756874397396
1789214483485495800,5.365495849609375,0.16227905866801737,4.019927715766429,-0.15751023683100937
1789214483495527700,5.375527587890625,1.282413553443551,3.3108284292966124,0.09128858290463686
1789214483505558800,5.385558837890625,1.4887228924959897,3.7078508943408726,-0.2264107545778155
1789214483515591000,5.3955908203125,1.7610656694263218,4.051416494485736,-0.6765247583404183
1789214483525622800,5.405622802734375,0.9645143094748257,4.614083110716939,-0.7769450344666838
1789214483535654700,5.415654541015625,0.7268512162595987,4.798554127448797,-0.0995277112007141
1789214483545686800,5.425686767578125,1.456823194888234,4.054707937246561,0.5106698870122433
1789214483555717600,5.435717529296875,1.484255976215005,3.898466989699006,0.31061347087472674
1789214483565749800,5.445749755859375,0.6901292130619288,4.058341909834742,-0.18549305325597523
1789214483575782000,5.455781982421875,0.44661739381849763,3.970148662596941,-0.5959241581887006
1789214483585813800,5.465813720703125,-0.05373159018754959,3.7412557358145713,-0.7148653026506304
1789214483595844900,5.475844970703125,-0.3038222032994032,3.413058385193348,-0.4034080744281411
1789214483605877000,5.485876953125,0.255190566599369,3.004334376439452,-0.14412643912285567
1789214483615908900,5.495908935546875,0.5648275936573743,2.732810514676571,0.16913754626065491
1789214483625940700,5.505940673828125,0.4261749097704887,2.6627017901837826,0.8743322265073656
1789214483635971800,5.515971923828125,-0.022891630765795708,2.3822850123912094,1.7290990440621972
1789214483646003700,5.526003662109375,-0.4489332695454359,1.5361585974097252,2.5802514705121515
1789214483656035800,5.536035888671875,-1.253410746321082,0.4237830461978912,3.5906279519736763
1789214483666067700,5.546067626953125,-0.97597619920969,-0.8302198207974434,4.005542924322188
1789214483676098800,5.556098876953125,-0.34473902783840893,-2.0172528458476067,3.5507805102318524
1789214483686130700,5.566130615234375,0.060523442284762856,-2.837429411536455,3.0497280541315672
1789214483696162800,5.576162841796875,0.47942748426944015,-3.424000050446391,2.5403961377248168
1789214483706195000,5.58619482421875,0.16727379821538924,-3.6106437350422143,2.0575895324110984
1789214483716225800,5.596225830078125,-0.032550270470976826,-3.566971182054281,1.299335900541395
1789214483726258000,5.6062578125,-0.8193108887702226,-3.6002392454057928,0.4324979753121733
1789214483736289800,5.616289794921875,-1.2039707158476114,-3.812555131396651,-0.2034291074410081
1789214483746322000,5.626322021484375,-0.8645078748464584,-4.135113599348068,-0.4391919199928641
1789214483756353000,5.63635302734375,-0.9824860194951295,-4.378941644933819,-0.5850684176534414
1789214483766385000,5.646385009765625,-1.9319103118658065,-3.239226835897565,-0.23182971088662743
1789214483776416800,5.656416748046875,-1.9038395248964428,-2.885662404307723,0.23171090681254863
1789214483786448600,5.66644873046875,-2.4743422415807843,-2.155564168950915,1.0583457087300716
1789214483796480800,5.676480712890625,-2.1163100169271227,-1.5640531510293483,1.6317396168112754
1789214483806511900,5.686511962890625,-1.263049220021069,-1.8223229789435862,1.8776663882419466
1789214483816543700,5.696543701171875,-1.268638710591197,-2.134301600691676,1.4446465810127556
1789214483826576000,5.706575927734375,-1.7132871424242853,-2.213403778979182,0.7081703350566327
1789214483836607700,5.716607666015625,-1.4374264205008744,-1.2915975613743067,0.016260083796828983
1789214483846638800,5.726638916015625,-0.9036804860666394,-0.634428368628025,-0.8064766877688467
1789214483856671000,5.7366708984375,-0.8341977845177054,-0.9384124844908713,-1.11228480418846
1789214483866702800,5.746702880859375,-1.37917179993093,-1.2840700884789227,-1.0012649542450904
1789214483876734700,5.756734619140625,-2.3118644454702735,-0.9836462954461574,-1.1435771835528314
1789214483886765800,5.766765869140625,-2.9879882217943665,-0.4046598280549049,-1.2324053676933049
1789214483896798000,5.7767978515625,-3.353922305613756,-0.08610358148217201,-0.8315111757822334
1789214483906829800,5.786829833984375,-3.2314597090274093,-0.6118365975916386,0.23681655938848853
1789214483916861700,5.79686181640625,-2.7540228140532967,-1.6020628559499979,1.8106192432768642
1789214483926892800,5.806892822265625,-2.8541572589755058,-1.9797510904490947,2.525872230070829
1789214483936924700,5.816924560546875,-1.9729653758317232,-1.9326351190090179,2.236578902861476
1789214483946956800,5.826956787109375,-0.3767693660885095,-1.6420026521503925,1.5021123892925679
1789214483956989000,5.836989013671875,0.6178115803480148,-1.1794973688483237,0.6130374978139996
1789214483967019800,5.847019775390625,1.409955645251274,-0.54687575738132,-0.19958368405923246
1789214483977051600,5.8570517578125,1.9627654688566922,0.09981646501421927,-0.7129673600748181
1789214483987084000,5.867083984375,2.5482220090448853,0.6719844845622778,-0.2351123858191073
1789214483997116000,5.877115966796875,2.726562560197711,1.1572972274780273,0.8200485553950071
1789214484007147800,5.887147705078125,2.7114789728343487,1.3696394169539212,1.7729774948857724
1789214484017179000,5.897178955078125,1.8431512474387883,1.2016945876091718,3.231855430346727
1789214484027210800,5.907210693359375,-0.10970365277826785,0.6720505355358123,4.491002089971303
1789214484037243000,5.917242919921875,-2.1743834357112646,-0.3293137874305248,5.175697003024816
1789214484047274800,5.927274658203125,-3.757345285350084,-2.089718362599611,5.336196192538738
1789214484057305900,5.937305908203125,-3.5971611531347034,-3.6721810305446385,5.188361838808656
1789214484067337700,5.947337646484375,-2.2082798600941893,-4.523429026323557,4.224622020837664
1789214484077369900,5.957369873046875,-0.27093700178563596,-4.439620277780294,2.512976215879619
1789214484087402000,5.967402099609375,1.0266524934798478,-3.8739702618241307,0.5266325952976941
1789214484097432800,5.977432861328125,1.9165952538341282,-2.9710224739462134,-0.4753428453043103
1789214484107464700,5.987464599609375,2.171590590122342,-2.75765444855392,-1.4583449976280332
1789214484117496800,5.997496826171875,2.51488614115417,-2.0831085890710352,-1.4462296124204992
1789214484127529000,6.007529052734375,2.2156723084330556,-1.2204542331367731,-1.1657561360046267
1789214484137560800,6.017560791015625,2.063448195311427,-0.6631172874957323,-1.362478147022426
1789214484147592000,6.027592041015625,2.5704467003345486,0.135073071834445,-2.080093625164032
1789214484157623800,6.037623779296875,3.649242053505778,1.1557657801270484,-2.495191552864015
1789214484167655700,6.04765576171875,3.9402585512459276,1.4157505952656269,-1.3735790944904087
1789214484177687800,6.057687744140625,2.449225043720007,0.9788251589000224,0.7228013563469052
1789214484187719000,6.067718994140625,1.2915940542429685,0.02527472651004791,2.34911485645622
1789214484197750800,6.077750732421875,1.0083283167600632,-0.10709317801892757,2.03069334217906
1789214484207782700,6.08778271484375,1.4293652791202067,1.3768085779309271,0.16875497668385506
1789214484217815000,6.09781494140625,3.00096226965785,3.1207308048546314,-2.263804178917408
1789214484227847000,6.107846923828125,1.8672230278998612,2.2725053717672825,-2.54898744045943
1789214484237877800,6.117877685546875,1.6674521507054567,1.3568708285346627,-1.9399162159278989
1789214484247910000,6.127909912109375,1.564074193817377,1.17525198636353,-2.504482820561528
1789214484257941800,6.137941650390625,1.720340860328078,1.925014414872229,-3.6710587485164403
1789214484267974000,6.147973876953125,2.0018091930001973,3.4866219263151286,-4.440603151337802
1789214484278005000,6.1580048828125,1.8094757723301649,4.998893159919977,-3.8480791569814086
1789214484288036900,6.168036865234375,1.916388917607069,5.214632590618729,-2.6621406491696833
1789214484298068700,6.17806884765625,1.4905430936604738,5.025339852818846,-1.591713603632152
1789214484308100600,6.1881005859375,1.2036270169764756,4.479753550726175,-1.058706212605536
1789214484318133000,6.198133056640625,1.8809569542199371,3.820889829021692,-1.774644697445631
1789214484328163800,6.208163818359375,2.0760154159396884,4.250652534151077,-3.1942323866561053
1789214484338195700,6.21819580078125,1.5593699616491794,4.317430652916431,-2.9989713881015776
1789214484348227800,6.228227783203125,1.0895879653424023,4.104053275173902,-1.8022881989136337
1789214484358260000,6.238260009765625,0.9615724108040332,3.8684582204043862,-1.1807348016887902
1789214484368290800,6.248290771484375,1.0987819101452827,3.4943133576005696,-1.2940768109694123
1789214484378323000,6.258322998046875,1.0280535924494265,2.966818007993698,-1.1977622165963053
1789214484388354800,6.268354736328125,0.7492968568235635,2.161193114748597,-0.8940811753332615
1789214484398386700,6.27838671875,0.8088426862478256,1.0630296287626027,-0.0003667874857783317
1789214484408419600,6.288419677734375,0.5642372265487909,-0.2877782464712858,1.0843272683352232
1789214484418450700,6.29845068359375,0.6133674604207277,-1.181414016124606,1.3014695515692234
1789214484428482600,6.308482666015625,1.8974556690782307,-1.8642162472993133,0.7430640999138355
1789214484438514400,6.318514404296875,2.4837188494741915,-2.343165300402045,0.7294912093743682
1789214484448546300,6.32854638671875,2.0125515362888575,-2.802994057971239,1.0614710011437534
1789214484458577700,6.33857763671875,1.2786357884705066,-3.2364258070021865,1.4728639368459582
1789214484468609500,6.348609619140625,-0.10314765526354312,-3.2643390653222797,2.1649404845833775
1789214484478641400,6.358641357421875,-0.010924129596352576,-2.8621792373895643,1.842295799653232
1789214484488673500,6.368673583984375,0.5972948620200157,-2.3973650926232337,0.8031769155710935
1789214484498705700,6.37870556640625,0.6303910759359598,-1.6568828258961439,0.025196692837774752
1789214484508736500,6.388736572265625,0.735500386661291,-1.3473925138324498,-0.22541735962629317
1789214484518768600,6.3987685546875,0.41558161956369877,-1.336716806039214,-0.047256110563129186
1789214484528800500,6.408800537109375,0.16847148356735706,-1.8076263450711965,-0.030474340979754922
1789214484538832400,6.418832275390625,-0.02444528994858265,-2.562792970710993,-0.17625176218003033
1789214484548863500,6.428863525390625,0.23825346032381056,-3.235796861448884,-0.08879208991378545
1789214484558895600,6.4388955078125,0.032713352078199386,-3.4196704968094824,0.15522884789556263
1789214484568927500,6.448927490234375,-0.8044526345953344,-3.3734611188203094,0.5107864991292357
1789214484578959400,6.45895947265625,-1.819184680917859,-3.0846365781664846,0.7950744192667305
1789214484588991500,6.468991455078125,-2.4581530310630795,-2.5338240658581257,0.9986397203080356
1789214484599022600,6.479022705078125,-2.118284531870484,-2.0148633203625677,1.2723562698096036
1789214484609054500,6.489054443359375,-1.7636276288688182,-2.055709710013866,1.4643129661217331
1789214484619086600,6.499086669921875,-2.0587030466109515,-2.4213451031476256,1.4552474700041114
1789214484629118500,6.509118408203125,-2.9080601140767333,-2.658914672860503,0.7966654147852211
1789214484639149300,6.5191494140625,-4.038995988851785,-2.573902393746376,-0.32938634121008215
1789214484649181700,6.529181640625,-3.9812329511910676,-2.3269576774448155,-1.0597394281107932
1789214484659213600,6.539213623046875,-4.053744645172357,-2.3440613724589348,-1.412668995863199
1789214484669245400,6.549245361328125,-3.614394612008333,-2.830862892627716,-0.3000328940190375
1789214484679277300,6.55927734375,-3.0551959641486404,-2.712358678278327,1.2946370752006768
1789214484689308400,6.569308349609375,-2.9023771000042555,-2.119782661473751,2.151333545643836
1789214484699340500,6.579340576171875,-2.471912091824412,-1.6261650315493343,2.932061751911044
1789214484709372400,6.589372314453125,-2.148695452225208,-1.0176374123752117,2.825383292172849
1789214484719404500,6.599404541015625,-1.642751132430136,0.02788110961616039,1.7735864205643534
1789214484729436700,6.609436767578125,-0.45046880854964255,0.973617068862915,0.341379049886018
1789214484739467500,6.619467529296875,0.6495452737390994,1.5016624535679817,-0.9845913212113082
1789214484749499600,6.629499755859375,1.1907733806222676,1.8958096554368733,-1.7613368875831366
1789214484759531500,6.639531494140625,1.5092518857836723,2.0061556977719066,-2.067840000529587
1789214484769563400,6.6495634765625,1.314683837929368,1.8617156626552342,-1.6904082250095902
1789214484779594500,6.659594482421875,0.49264440097808837,1.4781863009124994,-1.3798897389419376
1789214484789626600,6.669626708984375,0.20725860260128973,0.6751566848576068,-1.060165617633611
1789214484799658500,6.679658447265625,0.09739712891280651,-0.5934323413729667,-0.6856628813028335
1789214484809690400,6.6896904296875,0.33990357050597664,-1.7505945442944764,-0.0216926302395761
1789214484819722500,6.699722412109375,0.8598381294697522,-2.3094325421482322,0.8691862419210374
1789214484829753600,6.709753662109375,0.8561375213861465,-2.3526743025034667,1.9607446305535732
1789214484839785500,6.719785400390625,0.4078261831313371,-2.3107728508412837,3.100318131422996
1789214484849817600,6.729817626953125,0.19945114372074602,-2.542970664387941,3.9920840155512094
1789214484859849500,6.739849365234375,-0.06878244432508945,-2.730465412855148,4.200513123236596
1789214484869880300,6.74988037109375,-0.26353344753086566,-3.0890923885315655,3.477773726209998
1789214484879912700,6.75991259765625,-0.31273733116090296,-3.384688615277409,2.6020626125648616
1789214484889944600,6.769944580078125,-0.08335165242552757,-2.942772531017661,1.9911162418112158
1789214484899976400,6.7799765625,0.25418343538343907,-2.372707621228695,1.4689935251533985
1789214484910008300,6.79000830078125,0.7762029839277267,-2.3632225845247508,0.5155480144426227
1789214484920039400,6.800039306640625,1.326024731633067,-2.2564830422490836,-0.6232224994808435
1789214484930071600,6.810071533203125,2.2000123824864626,-1.1124901175022124,-1.4200792721197009
1789214484940103400,6.820103515625,2.6845839516460894,0.6163035138726234,-2.568063020068407
1789214484950135600,6.830135498046875,2.2166765170395375,1.8017606679081917,-3.0181182793810963
1789214484960167400,6.84016748046875,1.6211305445134638,2.1896651759952306,-2.1562962826177476
1789214484970198500,6.850198486328125,0.6355225936055183,1.7370511721104382,-0.7614888143986464
1789214484980230700,6.860230712890625,0.19340192668437955,0.3256634482294321,0.3045668841868639
1789214484990262500,6.870262451171875,-0.28941607680618764,-2.018086958584189,0.8932537845984101
1789214485000294400,6.88029443359375,-0.5902998885661364,-3.435339190584421,1.5256526932254433
1789214485010326500,6.890326416015625,0.8265577911585569,-1.7904583526492117,1.2199632347494362
1789214485020357600,6.900357666015625,2.902876573958993,0.8498843062102794,-1.022174179022014
1789214485030389500,6.910389404296875,4.4530748026371,2.047369751691818,-2.851478102894127
1789214485040421400,6.92042138671875,2.8044658840894696,2.146334568312764,-2.8975539176315066
1789214485050453500,6.93045361328125,-0.05070435132086277,3.0588696842253205,-2.475650109308958
1789214485060485600,6.940485595703125,-0.8044184400647878,4.529367768722772,-3.283030029527843
1789214485070516500,6.9505166015625,0.8493108902364969,3.9856057594478127,-4.202022358755767
1789214485080548600,6.960548583984375,1.8168039232611655,2.847413045412302,-4.048358275958895
1789214485090580500,6.97058056640625,1.2105968559890985,2.551504099455476,-3.47672567846179
1789214485100612400,6.9806123046875,0.9441542430132627,2.0536217978239057,-2.325608600923419
1789214485110643700,6.990643798828125,1.905482323667407,1.656813267791271,-1.3300807290256023
1789214485120675600,7.000675537109375,2.2606045060932636,2.5703777267515657,-2.0934303688600657
1789214485130707500,7.01070751953125,2.2589000402629376,3.8882249971479177,-3.0088784496098757
1789214485140739300,7.0207392578125,1.7403759326189756,4.820121231612563,-2.7391332879573107
1789214485150771700,7.030771728515625,1.0205617753893137,4.83141010286808,-1.665996983461082
1789214485160802600,7.040802490234375,0.844843973955512,3.8694390481352805,-0.8330205574318766
1789214485170834400,7.05083447265625,1.1207008964866398,2.644843477410078,-0.31547523169219494
1789214485180866600,7.060866455078125,1.1703928558945655,2.037979407534003,-0.5168097049415111
1789214485190898400,7.0708984375,0.5041892928212881,2.2720307399928568,-1.4305948209151624
1789214485200930600,7.0809306640625,0.4631067563265562,2.6048288624078033,-1.482636850580573
1789214485210961700,7.090961669921875,0.9264712868064642,2.4119249483734366,-0.8014017225921154
1789214485220993500,7.10099365234375,0.4790303016453981,1.747913342386484,-0.7245277417480945
1789214485231025400,7.111025390625,0.1783387975871563,0.9654600658923387,-0.6197314424946904
1789214485241057500,7.1210576171875,0.31899171538054943,0.2863789010673761,-0.20570582020133732
1789214485251089700,7.131089599609375,0.5308592730820179,-0.06762918263673783,0.16125906797051429
1789214485261120500,7.14112060546875,0.4786339958041906,0.030213351956009864,0.47079029656648635
1789214485271152400,7.15115234375,-0.03987374522686005,0.20633038184046745,1.5479671086251734
1789214485281184500,7.1611845703125,-0.34943829157054423,0.28089608574211594,2.3437968763038515
1789214485291216600,7.171216552734375,-0.47880584523975844,0.28312311414182184,2.4022815062373875
1789214485301248500,7.18124853515625,-0.38752632242441176,0.3021007863342762,2.4605831808194516
1789214485311279600,7.191279541015625,-0.22729016776084898,0.31088088963925836,2.4816549026817083
1789214485321311500,7.2013115234375,-0.32405309042334557,0.39874037487804886,2.400545768485963
1789214485331343400,7.21134326171875,-0.23325755173265933,0.05879530331790447,2.2351034234814344
1789214485341375500,7.22137548828125,-0.4250660717457533,-0.4212999972105026,1.791529635142535
1789214485351407600,7.23140771484375,-0.5672916456833481,-0.9910761531859635,1.3330163440860807
1789214485361438500,7.2414384765625,-0.8802332672446965,-1.600456589797139,1.3239105159580706
1789214485371470300,7.25147021484375,-1.461463129648566,-2.2869272803515193,1.4495074650473891
1789214485381502700,7.261502685546875,-1.3666285447001456,-3.196593562829494,1.0903227093577383
1789214485391534600,7.27153466796875,-1.717685669644177,-3.7682507102459666,0.5867838432691991
1789214485401566500,7.28156640625,-2.8491578432530162,-4.444759978756308,0.21569325346946716
1789214485411597600,7.29159765625,-3.3532296471744774,-5.360159836450219,-0.10677972815558313
1789214485421629400,7.30162939453125,-3.6533106181189416,-5.473778616845608,-0.1006860874556005
1789214485431661300,7.311661376953125,-3.0362682685777544,-4.776898175957799,0.16295739632099865
1789214485441693200,7.321693115234375,-2.4063614690274,-3.71641589359045,0.47778980006501076
1789214485451725600,7.3317255859375,-1.670717289981246,-2.4627941348671913,0.6516723488956689
1789214485461756400,7.34175634765625,-1.5611661974161863,-1.3102894023627043,0.28235037620365616
1789214485471788300,7.351788330078125,-1.527393107151985,-0.3803618376225233,-0.23361776334717868
1789214485481820400,7.3618203125,-1.27040455121994,0.4360229345679283,-0.49385538420304653
1789214485491852300,7.371852294921875,-1.5853583893865346,0.8703519246995448,-0.8198919035285711
1789214485501884400,7.381884521484375,-1.644144340354204,0.6735796447992325,-0.561445988395065
1789214485511915500,7.39191552734375,-1.8486819935590029,0.39742987680137154,-0.2975968990437686
1789214485521947400,7.401947509765625,-2.553159465447068,0.09687573538720608,-0.4604303767241537
1789214485531979300,7.411979248046875,-3.165751849842071,-0.16597908222973345,-0.8803056018285452
1789214485542011400,7.422011474609375,-2.3506679311171172,-0.7546417249828576,-1.055788133201748
1789214485552043500,7.43204345703125,-1.391268480437994,-1.5448866782665251,-1.2837920021899043
1789214485562074400,7.442074462890625,-1.1801935344189405,-2.393759761607647,-1.3217170975670218
1789214485572106200,7.452106201171875,-1.3773352321535348,-2.9339819063186643,-1.0309542823269964
1789214485582138400,7.462138427734375,-0.934476314085722,-2.889487515553832,-0.4377241855278611
1789214485592170500,7.47217041015625,0.6487707822352647,-2.2156354835540055,0.37301527425199743
1789214485602202400,7.482202392578125,1.7315654341757296,-1.1465133831351995,0.7846019789606332
1789214485612233500,7.4922333984375,2.2582921374976634,-0.013446926072239875,1.448971604605019
1789214485622265300,7.502265380859375,1.8030436934560536,0.8228472462028265,2.458454059836268
1789214485632297200,7.512297119140625,0.6098515612542629,1.2695172469913958,3.0804519859582182
1789214485642329300,7.522329345703125,-0.8612725461870432,0.7657944026380777,3.408027405288815
1789214485652361500,7.532361572265625,-1.6858593295335769,-0.37906127641797066,3.3201015768155453
1789214485662392300,7.542392333984375,-2.031851280042529,-1.1890168923437594,2.7724676945433018
1789214485672424200,7.552424072265625,-1.4181781146734953,-1.570817822858691,2.2576114617571235
1789214485682456600,7.56245654296875,-0.14088964915871618,-1.518564488530159,1.490445770765841
1789214485692488400,7.572488525390625,0.278217806443572,-1.0749246492177247,0.634047844877839
1789214485702520300,7.582520263671875,0.5581219585388899,-0.2125362507432699,-0.039735213539004326
1789214485712551400,7.592551513671875,1.271667118501663,0.3064841159850359,-0.30033143857419486
1789214485722583300,7.602583251953125,1.4492057056218386,0.5007528886318207,-0.548552166160941
1789214485732615400,7.612615478515625,1.5361030678302048,0.35267362022995946,-1.023884782332182
1789214485742647300,7.622647216796875,1.0184510668456555,-0.16365736128389835,-1.3879565794110298
1789214485752679400,7.632679443359375,0.49024260053336616,0.46932490018904205,-0.8599503576725721
1789214485762710300,7.642710205078125,0.18619184917509554,0.6049661273002624,-0.5472469287812709
1789214485772742400,7.652742431640625,0.560197595769167,0.1624614294975996,-0.09214636877775191
1789214485782774500,7.6627744140625,1.0242185443311929,-0.7927011142641306,-0.09965396792888641
1789214485792806400,7.672806396484375,1.9320096805870532,-1.2555097644269466,-0.12661416330784558
1789214485802838300,7.68283837890625,2.4164818810254336,-1.034571011519432,-0.08148059785664082
1789214485812869400,7.692869384765625,2.307905770972371,-0.41696226026713845,0.26372049453556534
1789214485822901500,7.702901611328125,1.4494289929836988,0.14493570967912672,0.39024142660200595
1789214485832933400,7.712933349609375,0.2818535325974226,0.28960546189844605,-0.45028643772006033
1789214485842965200,7.72296533203125,0.40202246528863905,0.28084932399094104,-0.4940113054171204
1789214485852997400,7.732997314453125,1.252737377104163,-0.11253624585568904,-0.5277852724641561
1789214485863029500,7.743029541015625,1.3081687569469214,0.09008066841959952,-1.9818164985463023
1789214485873060400,7.753060302734375,0.36243338222205634,2.577964236357808,-2.3808242921888825
1789214485883092500,7.763092529296875,0.9439443996548652,4.308174164271354,-2.6568808289453387
1789214485893124400,7.773124267578125,2.973910596603155,4.124773407119513,-3.018519553658366
1789214485903156200,7.78315625,2.7844652985900638,3.2963632660925386,-3.0074238668873905
1789214485913188400,7.793188232421875,1.943282185229659,2.2461901962935924,-3.2174887590810655
1789214485923219500,7.803219482421875,1.4636843128293753,2.325079024091363,-3.7539851612672206
1789214485933251300,7.813251220703125,1.0303875883549451,3.5962732643842696,-3.2760061222404238
1789214485943283200,7.823283203125,1.0474269859611987,4.310302408471704,-2.079374955500662
1789214485953315600,7.833315673828125,0.9831447756648063,4.332795979830623,-1.1351944090023636
1789214485963347500,7.843347412109375,1.0478811594694852,3.466439262247085,-0.6263073137536644
1789214485973379300,7.85337939453125,1.6566425873994826,2.7394576976060865,-1.085439321230352
1789214485983410400,7.863410400390625,1.2014251230180262,2.4046710317224265,-1.7382576252907513
1789214485993442300,7.8734423828125,0.33940029715895653,2.3515777394384143,-1.9768933629304168
1789214486003474400,7.883474365234375,-0.2082400148540735,2.4631518622636794,-1.5364111108660696
1789214486013506300,7.89350634765625,0.35435528970658775,2.490404026326537,-0.9250742794901132
1789214486023538400,7.903538330078125,0.6041325990855694,2.3479829298168418,-0.9437424473419785
1789214486033569300,7.9135693359375,1.234318507838249,2.0293699846208093,-1.0489134251266716
1789214486043601400,7.923601318359375,1.5697352883189917,1.8310282634466886,-1.5488842234700917
1789214486053633500,7.933633544921875,1.1540689130812882,1.86414785823822,-2.0796035035595297
1789214486063665400,7.94366552734375,0.585460631841421,1.8297738794714211,-2.376066284006834
1789214486073697300,7.953697265625,-0.10564648634195327,1.6924065592199562,-1.8781775526344775
1789214486083728400,7.963728271484375,0.008607084825634955,1.4021592922866344,-0.9134943163335323
1789214486093760500,7.973760498046875,1.1416174277871847,0.983203227853775,0.05957300969213247
1789214486103792400,7.98379248046875,1.699177076268196,0.5289338579773902,0.2524196405813098
1789214486113824300,7.99382421875,1.5519202301651238,0.08004442757368087,0.41342327248603106
1789214486123856400,8.0038564453125,0.5108280001834035,-0.35115503236055373,1.248119946436584
1789214486133887200,8.01388720703125,-1.480193549081683,-1.007149920630455,2.3675831178218125
1789214486143919400,8.02391943359375,-2.23134012542516,-2.3344161767572165,3.6164278714016076
1789214486153951500,8.033951416015626,-1.755776330846548,-3.2105677276462314,4.168921176403761
1789214486163983400,8.0439833984375,-1.005809027415514,-3.1912071936160324,3.3199577844306827
1789214486174015200,8.05401513671875,-0.5882236668139695,-3.161395408198237,2.7919837113961576
1789214486184047400,8.06404736328125,-1.3540952263414858,-3.5372166797816753,2.6530770527482033
1789214486194078500,8.074078369140626,-2.5168302609592677,-3.7926317027866836,2.3792810082696376
1789214486204110300,8.0841103515625,-3.4743837915107605,-3.851315946945548,1.9485513578042386
1789214486214142200,8.09414208984375,-3.6768589592278,-4.129291761326789,1.1867236668400465
1789214486224174600,8.104174560546875,-3.1242443659335373,-4.659458375969529,0.33529943771138787
1789214486234206500,8.11420654296875,-3.139480805771053,-5.061289118078351,-0.792202224831283
1789214486244238300,8.12423828125,-3.218037332874536,-4.522598420718312,-1.48680639135018
1789214486254269400,8.13426953125,-2.9202140777289864,-3.34988676648736,-1.2130563779704273
1789214486264301300,8.14430126953125,-2.2063500610753892,-2.3500375242590903,-0.5985365326441824
1789214486274333400,8.15433349609375,-1.558245926055312,-1.354419635990262,-0.2047133020326495
1789214486284365300,8.164365234375,-0.8144669558703899,-0.5102823489993811,-0.03825418120101094
1789214486294397400,8.1743974609375,-0.7356544081792235,0.07990121971070765,0.050775955252349375
1789214486304428300,8.18442822265625,-1.3750783931374548,0.1471241596341133,-0.19892945793420075
1789214486314460200,8.194460205078125,-1.6285387749433518,-0.32982992025911806,-0.032046558732539414
1789214486324492500,8.204492431640626,-2.0360925708740947,-1.0621569375813007,0.1678947065927088
1789214486334524400,8.2145244140625,-2.865828992068767,-1.5753373461097477,0.2742085708022117
1789214486344556300,8.224556396484376,-3.855909704476595,-1.6429519156992434,0.1678203261822462
1789214486354588400,8.23458837890625,-4.1373675157547,-1.8547323796391486,-0.04056143523007631
1789214486364619500,8.24461962890625,-3.6887978188246486,-2.4845418562948702,0.11939926349297166
1789214486374651400,8.2546513671875,-2.2881167823970316,-3.03104527323246,0.7304924953714013
1789214486384683300,8.264683349609374,-0.8216735262483358,-2.7413971412360665,0.9755670338869095
1789214486394715400,8.27471533203125,-0.02892915736436844,-1.9031068267077207,0.8795224886268377
1789214486404746800,8.284746826171874,0.9039443976998328,-1.4725889192968606,0.56368865275532
1789214486414777900,8.29477783203125,2.0619237622231243,-1.0085013352394103,-0.012267945420742034
1789214486424809700,8.304809814453124,2.8811206692248583,-0.312142287877202,0.24319354707449672
1789214486434841900,8.314841796875,2.5242688865274188,0.29384032298922536,1.2883552184522151
1789214486444873700,8.324873779296874,1.5804308698564766,0.6412813032627105,2.012701173892617
1789214486454905900,8.33490576171875,0.3518225563585758,0.5223012880951166,1.8311518898263572
1789214486464937700,8.344937744140625,-0.5087509016484022,0.08732932388484478,1.0390957954674958
1789214486474968600,8.354968505859375,-0.8610492588251829,-0.4696668454945087,0.5306137738883495
1789214486485001000,8.3650009765625,-1.046022379860282,-0.7140437571346759,0.4743932894945144
1789214486495032800,8.37503271484375,-1.0016185899883507,-0.606098930722475,1.7031752059936522
1789214486505064700,8.385064697265625,-0.9088315852195024,-1.3864572807639837,2.6446263275280595
1789214486515096600,8.3950966796875,-0.5383902531087398,-2.7379098836421965,2.3668889980778096
1789214486525129000,8.40512890625,0.2381564296901226,-4.052622363144159,1.4457348146408795
1789214486535159800,8.415159912109376,0.3584668166786432,-4.9857998695909975,0.4164218697801232
1789214486545191700,8.425191650390625,-0.5738152022331953,-4.939238609424233,-0.2048798907712102
1789214486555223800,8.435223876953126,-1.140109945833683,-4.483180018043518,-0.5935387243568897
1789214486565256000,8.445255859375,-0.05920446864068508,-3.652232467493415,-1.0305503777012228
1789214486575287800,8.455287841796874,1.2342688234776258,-2.4595032766282556,-2.495631697846949
1789214486585319000,8.46531884765625,3.0743957546591756,-0.12500292871892452,-2.6435882166519757
1789214486595350800,8.475350830078124,3.857378607985377,2.0619564954489467,-1.0815569268390535
1789214486605382700,8.485382568359375,3.166785869064927,2.872784218034148,-0.4285869393482804
1789214486615414800,8.495414794921874,1.6893851655721663,2.6447861942648885,0.2002604142770171
1789214486625447000,8.505447021484375,0.44856326718926426,1.650832439815998,0.8586869136080145
1789214486635478800,8.515478759765625,0.7239139937639236,0.6265700563430786,0.010825053136050701
1789214486645510700,8.5255107421875,2.1768092015534637,0.45218847194910045,-2.4423481436878443
1789214486655541800,8.535541748046874,3.650999710828066,1.7363661124557255,-4.881675478249788
1789214486665574000,8.545573974609376,3.592937982481718,2.950139260393381,-6.125084470516443
1789214486675605800,8.555605712890625,3.059129796466231,3.6411826656907795,-5.367908843141794
1789214486685637600,8.5656376953125,3.1012814234971997,3.9978275276392696,-3.819377670893073
1789214486695669800,8.575669677734375,2.770412223318219,4.441034820753336,-3.5752076800018546
1789214486705702000,8.585701904296876,2.5401053380846976,4.645626834493875,-3.964918360728025
1789214486715732700,8.595732666015625,2.5260072546273467,5.0042836207866666,-4.135189587193727
1789214486725764900,8.605764892578126,1.929548258909583,5.857524836209416,-3.831689455455541
1789214486735796700,8.615796630859375,1.2004302667617797,6.662468761453032,-3.075880147998035
1789214486745828900,8.625828857421874,1.1985977906376122,6.521132537570596,-1.865778089788556
1789214486755860700,8.63586083984375,1.0340753369569777,5.12089690682292,-0.7222109892383217
1789214486765891800,8.645891845703124,1.3027397176355122,3.7128029637902973,-0.5029200035378336
1789214486775923700,8.655923828125,1.1146493413627148,2.5665309881955385,-0.9481585102185607
1789214486785955600,8.66595556640625,0.6296721140116452,1.7582739928811788,-1.7917481001988051
1789214486795988000,8.675988037109375,0.026009470525383948,1.3753893587827681,-1.3714832912549375
1789214486806019800,8.686019775390625,-0.41565526932179925,0.8607552443146705,0.1758174624159932
1789214486816051700,8.6960517578125,-0.5566495478987693,0.1686228747367859,1.2125325002267957
1789214486826082800,8.706082763671875,-0.2072381443351507,-0.6136603058874607,0.9744912213489413
1789214486836115000,8.716114990234376,0.04962941556572914,-1.3526707464963197,0.15758388658910988
1789214486846146800,8.726146728515625,0.049746319943666455,-2.0296295123398305,-0.0427317650064826
1789214486856178700,8.7361787109375,-0.06581424216926098,-2.6411960608184337,0.4014861664548516
1789214486866210800,8.7462109375,-0.7569657840162515,-3.0959622743010518,1.3330486389204859
1789214486876243000,8.756242919921876,-0.5548579883068799,-3.141048785740137,1.9994144068181514
1789214486886273800,8.766273681640625,0.25349077694416045,-3.062501903247833,1.8648218119770288
1789214486896306000,8.776305908203126,0.7473007145702838,-2.7247984731346366,1.642611431698501
1789214486906337800,8.786337890625,0.4424117588222027,-1.95838681538105,1.6727134322345256
1789214486916369700,8.79636962890625,0.11538637458980083,-1.4494231477648019,1.5206564923733472
1789214486926401800,8.80640185546875,0.0641530309587717,-1.423642809820175,1.469572494085133
1789214486936434000,8.816433837890624,-0.07453998493850231,-1.605069052028656,1.5694085405826568
1789214486946465800,8.8264658203125,0.09037000675499439,-1.9722358925133943,1.477565830926597
1789214486956496600,8.83649658203125,0.32183658341765403,-2.260570019301772,0.8029346312478184
1789214486966528800,8.84652880859375,0.11594283942878246,-2.4217320566385983,0.21736820094436407
1789214486976561000,8.856560791015625,-0.6678887396812438,-2.520467740678787,0.09943974065631628
1789214486986592800,8.8665927734375,-1.8918895593836902,-2.4818249985516068,0.06310103768780827
1789214486996624600,8.876624755859375,-2.697811682009697,-2.766353887838125,-0.10975669813975691
1789214487006656800,8.88665673828125,-2.9741198554396626,-2.7601597093731165,-0.14131693466007708
1789214487016687900,8.89668798828125,-2.4536370149433613,-2.2497943582653996,-0.07050196159407496
1789214487026719700,8.9067197265625,-1.9531003994107246,-1.6228361793875694,-0.030087533619254824
1789214487036752000,8.916751953125,-1.7501929777562617,-1.0028706358760595,0.035990912444144485
1789214487046783700,8.92678369140625,-1.5303163011223078,-0.5934136366724968,0.37897622848302126
1789214487056815900,8.93681591796875,-1.3206585284247994,-0.43107612581551075,0.9128080876350402
1789214487066847700,8.94684765625,-1.4498957337126135,-0.6488315725117921,0.675738284137845
1789214487076878800,8.95687890625,-1.6505740811407565,-1.1851368360400198,0.47247474252209065
1789214487086910700,8.96691064453125,-2.4457173278599975,-1.6785674189597368,0.20579642109423874
1789214487096942600,8.976942626953125,-3.090997345370054,-1.6876590724319218,0.07850289722010492
1789214487106974700,8.986974609375,-3.2512901986569163,-1.6460884601593018,-0.035842882275581356
1789214487117006800,8.9970068359375,-2.9041975934296844,-1.4981138211756944,-0.15293722982704638
1789214487127038700,9.007038818359375,-2.025223678596318,-1.322427583923936,0.05950900454521179
1789214487137069800,9.01706982421875,-0.8005027279257774,-1.2293196766376495,0.38109132094085213
1789214487147102000,9.02710205078125,0.19056874908506868,-1.0485562822520733,0.5439361967980861
1789214487157133800,9.0371337890625,0.7058084282308816,-0.6289291866898536,0.4883227383866906
1789214487167165700,9.047165771484375,0.6017798984795808,-0.34260055450499055,0.5938581655696034
1789214487177197600,9.057197509765626,0.15527765547335146,-0.4412269329518079,0.9605299160137772
1789214487187230000,9.06722998046875,-0.43709085606038567,-0.5290338112205266,1.0643071013525127
1789214487197260800,9.0772607421875,-0.3931903395354748,-0.47308220689594743,1.1669520677909255
1789214487207292700,9.087292724609375,0.6625695904850959,-0.4357131379663944,0.8258093108788133
1789214487217324800,9.09732470703125,1.552179173362255,-0.36964053712189193,0.02641717454344034
1789214487227356700,9.107356689453125,1.265744158193469,-0.4449135125100612,-0.6557818300411105
1789214487237388800,9.117388916015624,0.5184615638017654,-0.6936334217905998,-0.13057342232763766
1789214487247420700,9.127420654296875,-0.6619061581403016,-0.5514402888178825,1.3447200797528027
1789214487257452800,9.137452880859374,-0.8689221841573714,-0.6433055025666952,1.605702673757076
1789214487267483600,9.147483642578125,0.31097441314160823,-1.3852566728025675,0.3721440443754196
1789214487277515800,9.157515869140624,1.799046148252487,-1.8374176722228526,0.07346767953187226
1789214487287548000,9.1675478515625,1.5948182916492222,-2.3744068263620135,0.6910074572011828
1789214487297579800,9.177579833984375,1.2953741573035715,-2.646881705239415,1.457774504263699
1789214487307611600,9.187611572265626,0.8716314431160688,-2.7829098858416077,1.3561661873966455
1789214487317643800,9.197643798828125,0.7442267139524221,-2.7040391782224176,0.5781736897036432
1789214487327676000,9.207676025390626,1.3790204087615012,-2.624600315326452,-0.3990089626863599
1789214487337706800,9.217706787109375,2.690498728647828,-2.001937203294039,-0.9158528621584177
1789214487347738600,9.227738525390626,2.144680371364951,-1.560872182905674,-2.011826729145646
1789214487357770800,9.237770751953125,1.7500217128425835,-0.13550152637958526,-1.4249509698092937
1789214487367803000,9.247802978515624,1.041350296396017,1.5796230606049297,0.6169312903821468
1789214487377834800,9.257834716796875,0.6232949801951646,1.6627876660257577,1.7765405941948293
1789214487387866600,9.26786669921875,1.6781185061484574,0.38983693745434284,1.055009403914213
1789214487397897700,9.277897705078125,3.7592537493199107,-0.733206722766161,-1.2413368621677159
1789214487407929900,9.287929931640624,3.5020606107264753,1.0895686761200427,-3.21777868193835
1789214487417961700,9.297961669921875,1.8390835596084594,5.1073482739418745,-4.016230030292272
1789214487427994000,9.307994140625,1.0653665472775697,7.020694755113125,-3.503063065767288
1789214487438026000,9.31802587890625,1.0115367574125527,5.376313683393597,-2.3897189617842436
1789214487448057900,9.328057861328125,2.3147382473409173,2.763297422876954,-3.036870033863187
1789214487458089700,9.33808984375,2.2305349465221167,1.3378513630270956,-4.50020363355875
1789214487468120800,9.348120849609375,1.4603466928392648,2.028719411757588,-4.202431231817603
1789214487478153000,9.358153076171876,1.1578548613607882,3.3272704455316067,-2.4841046339213846
1789214487488184800,9.368184814453125,2.269272381195426,2.4161960498213766,-1.8829887523084878
1789214487498217000,9.378217041015626,2.6749884403049946,2.6358658057063815,-2.9593022255361077
1789214487508248800,9.388248779296875,1.3779828824073075,3.7833459880471225,-3.5951077277362344
1789214487518281000,9.398281005859374,0.2058048966616392,4.659023491683602,-2.690862593524158
1789214487528312000,9.40831201171875,-0.1954261259883642,4.630203639912605,-1.2607079175919294
1789214487538344000,9.418343994140624,0.4054857574850321,3.909943492481112,-0.3337748584926128
1789214487548375800,9.428375732421875,0.9732371296346187,3.0286808821886777,-0.24329759197086095
1789214487558407700,9.43840771484375,1.481027077296376,2.316751925250888,-0.4976774267092347
1789214487568440000,9.448440185546875,1.6536825685501098,1.642807538792491,-0.899432765494287
1789214487578472000,9.458471923828125,1.5643109251827,1.2667051121801136,-1.134217965185642
1789214487588503800,9.46850390625,1.7658961583226918,0.8106541195839643,-1.4749655853003263
1789214487598535000,9.478534912109374,1.6291010850012302,0.48728082811832424,-1.3306418700397014
1789214487608567000,9.488567138671876,1.2420873882740735,0.2694102306097746,-0.9674567926675081
1789214487618599000,9.498598876953125,1.136491755336523,0.154696640715003,-0.7224889293968677
1789214487628630800,9.508630859375,0.8872451918333768,0.01443009189069271,-0.41563218070715663
1789214487638663000,9.518662841796875,0.8201023314088582,-0.3457774309754371,0.1423918704152107
1789214487648695000,9.528695068359376,0.8270289158016443,-0.8496294546663761,0.5798802013605833
1789214487658727000,9.538726806640625,0.8745254109919071,-1.5683166536927222,0.7707973254919052
1789214487668758000,9.548758056640626,0.06763093620240689,-2.573471016591787,1.1605647048413752
1789214487678790000,9.558789794921875,-1.5846090323239563,-3.9783571034938094,2.09208012329489
1789214487688821800,9.56882177734375,-2.419802549880743,-5.382906505787372,2.870624409651756
1789214487698854000,9.57885400390625,-2.2529449312508105,-6.288533157485723,2.9056834480732676
1789214487708886000,9.588885986328124,-1.6767153613522647,-6.402074780991673,2.5666402937889097
1789214487718918000,9.59891796875,-1.5935305899262426,-5.87424800747335,2.335545911439508
1789214487728949800,9.60894970703125,-2.3495663996160028,-5.106247034701704,2.2961051508024335
1789214487738981000,9.618981201171875,-2.6320447861135006,-4.233454731112718,1.8005438394643365
1789214487749013000,9.629012939453125,-2.4418559762567282,-3.354991396149993,1.0885742582552134
1789214487759044900,9.639044921875,-2.4930010570824144,-2.784353654909134,0.6134304426543414
1789214487769076700,9.64907666015625,-2.5396318753540514,-2.2885008132785556,-0.5155256564803421
1789214487779109000,9.659109130859376,-2.0413921385869385,-1.647660239520669,-1.3526260305717586
1789214487789141000,9.66914111328125,-1.706674154025316,-0.966455506670475,-1.4806421696320176
1789214487799172900,9.6791728515625,-1.7547034409180282,-0.6677525460809469,-1.2943046283759176
1789214487809204000,9.689203857421875,-1.5525605738952755,-0.12582885814905165,-0.6163147659189999
1789214487819235800,9.69923583984375,-0.982453578530252,0.4150958818733692,0.03170125242620706
1789214487829268000,9.70926806640625,0.1579074194550514,0.46605391569435595,0.597941343230009
1789214487839299800,9.7192998046875,0.9148846016481518,0.6235375567793846,0.5119697175644338
1789214487849332000,9.72933203125,1.0974375097990035,0.9922972194135189,0.01244067163914442
1789214487859363800,9.73936376953125,1.139939849963784,1.3047703466802836,-0.7234735565200447
1789214487869396000,9.74939599609375,1.401527716384828,1.3432529298096894,-0.9865186360120772
1789214487879427000,9.759427001953124,1.0236223320037126,0.9264905760288238,-0.8864822446368634
1789214487889459000,9.769458984375,-0.5337181696444749,0.18516309064924716,-0.6314084362849592
1789214487899490800,9.77949072265625,-2.3565479290664193,-0.4564449603497982,-0.33500103928670283
1789214487909523000,9.78952294921875,-3.309330299693346,-0.9601859248816966,0.12661080230697988
1789214487919555000,9.79955517578125,-3.2737545439213513,-1.4616753110945224,0.446148607262969
1789214487929587000,9.8095869140625,-2.421023616108298,-1.6190753655493257,0.23640973215326666
1789214487939617800,9.81961767578125,-0.9940776730895042,-1.309217389217019,-0.03749561791867018
1789214487949650000,9.82964990234375,-0.046323944279551506,-0.5887970827877521,-0.33742958160787817
1789214487959682000,9.83968212890625,1.2239905905693769,0.17695932592749594,-0.27750322843343017
1789214487969714000,9.8497138671875,1.928384475827217,0.8286234915167093,-0.07482464709877967
1789214487979745800,9.859745849609375,2.1184166338175534,0.9379980584710836,0.31121903555244207
1789214487989778000,9.86977783203125,1.4088269334822892,0.38453064773976803,1.0039444025874138
1789214487999810000,9.87981005859375,0.3286041778564453,-0.4031716353237629,1.7835531033053993
1789214488009842000,9.889842041015624,-1.2289853301167488,-1.2655103494375943,2.27682761888057
1789214488019873000,9.899873046875,-2.4175591548681257,-2.2458488355100155,2.112943463103473
1789214488029905000,9.90990478515625,-1.9825649788260458,-2.993136690598726,1.9601897731497884
1789214488039936800,9.919936767578125,-1.9640952561557292,-3.5122172630816695,2.2284496646806597
1789214488049969000,9.929968994140625,-2.45574596992135,-4.057055961677432,2.3350223259568215
1789214488060001000,9.9400009765625,-3.143271722486615,-4.627309672036767,2.856968517003953
1789214488070033000,9.950032958984375,-3.2292771042913198,-5.1457127836495635,3.1179967037156224
1789214488080065000,9.96006494140625,-1.9953332749843595,-5.284088988682627,2.460401686772704
1789214488090095900,9.970095947265625,-0.46631987315416334,-4.5821115169167514,1.3971350343838334
1789214488100128000,9.9801279296875,0.5071814603745937,-3.6334412577837703,0.27023557551801203
1789214488110160000,9.990159912109375,0.9255909968405961,-2.742067587843537,-0.3475128764659166
1789214488120191700,10.000191650390626,1.2824661604136227,-1.9546078813642263,-0.5636825152754783
1789214488130223900,10.010223876953125,1.9301777889847753,-1.0844582012385129,-0.7763859392791986
1789214488140256000,10.020256103515624,2.5122528700411317,-0.3240934224337339,-1.1918220128923653
1789214488150288000,10.030287841796875,2.7242712343901396,0.40846565007865426,-1.60964936555624
1789214488160319000,10.040319091796874,2.967608281588554,1.1556102973043918,-1.870026394882798
1789214488170350800,10.050350830078125,3.361943699505925,1.7908301085710525,-1.8677908909156917
1789214488180383000,10.060383056640624,3.532360471922159,2.1259160496622322,-2.1282024070337413
1789214488190414800,10.070414794921875,4.105934851136803,2.3619074102729556,-1.6373796685248612
1789214488200446700,10.08044677734375,3.801806942889094,1.6491823345214127,-0.4734185992434621
1789214488210478800,10.090478759765626,2.6033108590602874,0.7514823841691016,0.8181628877788781
1789214488220511000,10.100510986328125,0.6891612448126078,1.2015303369581698,2.08131849078387
1789214488230542800,10.11054296875,-1.224372867885232,2.374904254490137,1.060110526445508
1789214488240574000,10.120573974609375,0.6343015273779631,3.275692818507552,-1.6832669749528169
1789214488250605800,10.130605712890626,2.259551782169938,2.513461076787114,-2.9151433503359554
1789214488260638000,10.140637939453125,2.4354823495715854,0.7536199807196855,-3.224317436057329
1789214488270669800,10.150669921875,1.2284855639010668,0.40858430802226064,-4.131080690570175
1789214488280702000,10.160701904296875,-0.04554536112248897,1.0579057098776101,-4.699616491095721
1789214488290733800,10.17073388671875,0.29825054064691064,1.3489911812007427,-4.444786574502289
1789214488300766000,10.180765869140625,0.581385929748416,1.8940005601882934,-2.580668526880443
1789214488310797000,10.190797119140624,0.8702905499011278,2.0243717379420993,-0.9643678867414593
1789214488320829000,10.200828857421875,1.2485516158521175,1.7535639154940843,-0.5729159153059125
1789214488330860800,10.21086083984375,0.6024246261239051,1.4429372928768396,0.08954466184675693
1789214488340892700,10.220892578125,1.1941758825421334,1.3863257633388042,0.07186141337901353
1789214488350925000,10.230925048828125,2.315410447514057,1.7323025162786245,-0.9068959409818053
1789214488360957000,10.24095703125,2.3744699547261,2.1048037035286424,-1.6268006991043686
1789214488370988800,10.25098876953125,1.724886102542281,2.3847353281527757,-1.7376377398267386
1789214488381020700,10.261020751953126,0.9187345550745725,2.296113626369834,-1.3594257737144828
1789214488391052000,10.271052001953125,0.5088736512452363,1.6421242327034473,-0.729691115860641
1789214488401084000,10.281083984375,0.9831091198295354,0.9179676623553037,-0.5901975972354412
1789214488411116500,10.291116455078125,1.6036223603516817,0.7341361125707626,-1.2328177478864788
1789214488421148400,10.3011484375,1.258034314468503,0.7426262930184603,-2.093109174081683
1789214488431180500,10.3111806640625,0.7728677020251751,0.9808692319482565,-2.272716676430404
1789214488441212400,10.32121240234375,1.0285685562342404,1.2271914324373006,-1.7159914329469204
1789214488451244500,10.33124462890625,1.3953162945240736,1.4158487949430942,-1.1610425514861942
1789214488461276400,10.3412763671875,1.3987071060061453,1.7185604066520928,-1.1275462323367595
1789214488471307500,10.3513076171875,1.330903735846281,2.2805524846225977,-1.082061369229853
1789214488481339400,10.36133935546875,0.5725298385977745,2.819137968042493,-0.31464228799939153
1789214488491371500,10.37137158203125,-0.11928338202834128,3.130475369277596,0.7533361953422427
1789214488501403600,10.381403564453125,0.18700316555798052,2.9794004261910914,1.5865975757926702
1789214488511435500,10.391435546875,0.26600012990534305,2.3667981049239635,2.3024705941811203
1789214488521467400,10.40146728515625,-0.4929857617616653,1.6543875019490717,3.3609994043931364
1789214488531499500,10.41149951171875,-0.6193097099512815,0.6915156989842652,4.200792816960812
1789214488541530600,10.421530517578125,-0.5231009140402079,-0.30973171960413454,4.309863140271604
1789214488551562500,10.4315625,-0.24007073887884617,-1.3335726627945899,4.051768961185217
1789214488561594400,10.441594482421875,0.35772505840063096,-2.045008867779374,3.413773839986324
1789214488571626500,10.45162646484375,0.4558651146352291,-1.9556933385133741,2.431138913539797
1789214488581658600,10.46165869140625,-0.09315174642801284,-0.8880530010849237,1.85244061544016
1789214488591690500,10.4716904296875,-0.6151613581001758,-0.1481996799111366,1.7070127383299172
1789214488601722400,10.481722412109375,-0.9281120397508144,-0.7940577895700931,1.4560034029379487
1789214488611754500,10.49175439453125,-0.845049141138792,-2.256048742485046,0.8867512708365917
1789214488621785300,10.501785400390625,-1.0666539567396045,-4.405063928183913,0.15573497078679502
1789214488631817500,10.5118173828125,-1.9481001069054007,-5.614329243308306,0.43560134815499185
1789214488641849600,10.521849609375,-2.070036926051974,-6.2436827928900716,1.197089066575095
1789214488651881500,10.531881591796875,-1.7027976048529148,-6.086529991194605,1.6211470572568476
1789214488661913600,10.54191357421875,-1.5156392487332224,-4.958857502129674,1.7389488224253058
1789214488671945500,10.551945556640625,-1.2470520249441266,-3.7177778295934196,0.9600007775731384
1789214488681977600,10.5619775390625,-0.7188076105356216,-2.6517484344929456,0.25699089401960373
1789214488692009500,10.572009521484375,-0.17731939141154288,-1.7656430603444575,-0.19969985778480767
1789214488702040300,10.582040283203124,0.06761456958949566,-1.029643491989374,-0.25897110805138945
1789214488712072700,10.59207275390625,-0.4144000085636973,-0.5614519797444343,-0.15377879521772264
1789214488722104600,10.6021044921875,-0.8407081893250345,-0.46841363056302066,0.048450142653286454
1789214488732136400,10.612136474609375,-0.9101748165220022,-0.6044739598691463,0.23457681763768196
1789214488742168300,10.622168212890625,-1.051154774312675,-0.998824575355649,0.1794797843158245
1789214488752200700,10.63220068359375,-0.9477057980149984,-1.330937053593993,0.3777322197712958
1789214488762232600,10.642232666015625,-1.1940128009349107,-1.4614789117395877,0.3592424772262573
1789214488772264400,10.652264404296876,-1.4250012386918067,-1.2130652919292448,0.3949636328183114
1789214488782295600,10.662295654296875,-1.6624749468147755,-0.7593979795992374,0.26925138678625227
1789214488792327400,10.672327392578126,-1.4083791897147893,-0.5584025290459395,0.18582710751593112
1789214488802359600,10.682359619140625,-0.786788090828061,-0.5153068991631269,0.06528013529255985
1789214488812391400,10.692391357421876,0.6880652662694454,-0.29506898800134657,-0.20522943486124276
1789214488822423600,10.702423583984375,2.2399200299829243,0.19601941570639608,-0.21108839002251623
1789214488832455700,10.71245556640625,2.4459464604407546,0.6736310827255249,0.017736147698760033
1789214488842487600,10.722487548828125,2.0271300967395303,0.5915718081980943,0.07898278969153762
1789214488852519400,10.73251953125,1.3650351380288601,0.09715689041614532,0.40199616180360315
1789214488862551600,10.742551513671875,0.37295594528019427,-0.5802899512052536,1.156562775723636
1789214488872582400,10.75258251953125,-0.41964229313135143,-1.0832856503278017,2.058808260551095
1789214488882614500,10.762614501953125,-1.1459206779390574,-1.5899036316007376,2.343676757055521
1789214488892646700,10.772646728515625,-1.346603409281373,-2.163341817215085,2.38792535636574
1789214488902678500,10.782678466796876,-0.8601350665897131,-2.4434435377091166,3.024970337232947
1789214488912710400,10.79271044921875,-1.0697925470262766,-2.9787311486274004,3.4784584936037657
1789214488922742500,10.802742431640626,-0.8614011410027742,-3.5950621350288388,3.1007766888454555
1789214488932774700,10.812774658203125,-0.12014730538129806,-3.334820714780688,1.646766505551338
1789214488942806500,10.822806640625,0.7647299882769584,-2.046592337578535,0.1124313241764903
1789214488952837400,10.83283740234375,1.83037242988646,-0.7412742938876151,-0.9299141207367181
1789214488962869500,10.842869384765624,2.635359609749913,0.14475567693710326,-1.9771128508999942
1789214488972901600,10.852901611328125,3.1053584636777636,0.6967120985835791,-2.489363577362895
1789214488982933500,10.86293359375,2.793359383663535,0.6591846242219209,-2.287724275948107
1789214488992965400,10.87296533203125,2.0091905354231594,1.062995726493001,-1.3729761601611972
1789214489002997800,10.882997802734375,0.6368079572409391,1.0149369212448596,-0.6298913097202777
1789214489013029600,10.893029541015625,0.49057928514182564,0.8744745575875044,0.1610755280971527
1789214489023061500,10.9030615234375,1.0049088637053967,0.025718963146209715,0.31842472914755343
1789214489033093400,10.91309326171875,1.1035831729471683,-1.4592062906324863,-0.6135711662992834
1789214489043124500,10.92312451171875,1.7652870865136383,-2.2084002716034647,-1.0477128171652554
1789214489053156600,10.933156494140626,2.0075410146504638,-1.212574878063798,0.4409390559211373
1789214489063188500,10.9431884765625,0.7390314833968877,-0.1447884101629257,2.090234787689149
1789214489073220600,10.953220703125,-0.052578328499197954,-0.09654197338819503,2.612131294375658
1789214489083252500,10.96325244140625,0.12732932583987713,-0.9021043227910995,1.0521607364848256
1789214489093284600,10.97328466796875,1.8388813150346277,-1.4761533337801693,-0.3062584905356169
1789214489103316500,10.98331640625,3.0253584597676992,-1.639075366526842,-0.596839227207005
1789214489113348600,10.9933486328125,2.650941794285178,-0.2904682162076235,-0.4205062164843082
1789214489123380500,11.00338037109375,0.6684574794799089,2.0556571030437945,-1.08320469404608
1789214489133412600,11.01341259765625,-0.00996200656592846,3.661832655009627,-2.2113740267172455
1789214489143443700,11.023443603515625,0.6018734219819307,3.1338802092850204,-2.9925872400224205
1789214489153475600,11.0334755859375,1.3660352549821138,2.011033532941341,-3.0958383556604385
1789214489163507500,11.043507568359376,1.4563877260804174,0.8574848443418741,-4.014309291362762
1789214489173539300,11.053539306640625,1.8008283554941416,0.8177952235102653,-4.631155241549015
1789214489183571500,11.063571533203126,0.9854881239205598,1.9262667530208826,-3.608901859810948
1789214489193603600,11.073603515625,0.28250936615765093,2.3851994385331867,-2.041425748595595
1789214489203635500,11.083635498046876,1.4008680834323166,2.6891438069075346,-1.8235966521412132
1789214489213667600,11.09366748046875,2.044070710146427,3.207393189263344,-2.0852245583117006
1789214489223699500,11.103699462890624,2.455308163025975,3.8920448476970195,-2.635148597347736
1789214489233730600,11.11373046875,2.032850812473893,4.511787688368559,-3.147082220685482
1789214489243762400,11.123762451171874,1.1082079101383686,4.784668225437402,-3.284287920634448
1789214489253794300,11.133794189453125,0.3549503329902887,4.287050127699971,-2.910317829875648
1789214489263826700,11.14382666015625,0.5740472574234008,3.0910797629565,-2.2716402793705464
1789214489273858600,11.153858642578125,0.5294283634960651,1.8335317707002161,-1.947444857867062
1789214489283890400,11.163890380859375,0.6371931571662426,1.1348352203011511,-1.741042579834163
1789214489293922300,11.17392236328125,1.1429916387498378,0.7762655277699232,-1.5433824111834167
1789214489303954700,11.18395458984375,1.154123273617029,0.5814519807219505,-1.5038590868294237
1789214489313986600,11.193986572265626,0.7674281413197517,0.5227542925596237,-1.6579337962538003
1789214489324018400,11.204018310546875,0.7321645202368497,0.3256108412593603,-1.7344748918816446
1789214489334049500,11.214049560546876,0.04674304647445678,-0.020762802043557165,-1.6818185297101735
1789214489344081400,11.224081298828125,-0.6483633704781532,-0.3719108201414347,-1.0855284608185292
1789214489354113500,11.234113525390624,-0.7060062888905405,-0.6676742201477289,-0.08202391095310449
1789214489364145400,11.2441455078125,-1.2405582790106535,-0.9810504337340593,1.1486036334127188
1789214489374177500,11.254177490234374,-1.474410289505124,-1.3445651814520359,2.3769261157065626
1789214489384209700,11.264209716796875,-0.9085288028806447,-1.9422095875620842,3.392057390479743
1789214489394241500,11.274241455078124,-0.6797527804762125,-2.622746211892366,4.417880739659071
1789214489404273400,11.2842734375,-0.8924497747391462,-2.8949229846060276,4.511912191531062
1789214489414305800,11.294305908203125,-0.6188301097407937,-2.6087866601228713,3.7039030334979293
1789214489424336600,11.304336669921875,0.2052344032973051,-2.1153169142365456,2.528849200055003
1789214489434368500,11.314368408203125,-0.09689853174090385,-1.4165063820689916,1.0201274756252765
1789214489444401000,11.32440087890625,-0.8812032813206314,-0.5919166761130095,-0.0007231997080147266
1789214489454432800,11.334432861328125,-1.4063815861567854,-0.3593354162067175,-0.21606676295697688
1789214489464464600,11.344464599609376,-1.8347493297964332,-0.7175491349071264,0.25807386695072054
1789214489474496500,11.35449658203125,-1.8123101189732551,-1.49938983246088,0.9864406023398041
1789214489484529000,11.36452880859375,-1.5315394131764768,-2.286316454976797,1.03059304779917
1789214489494560800,11.374560791015625,-1.3051245669454334,-2.5181466042548415,1.2378896443232894
1789214489504592600,11.384592529296874,-1.186596971720457,-2.0367776305288077,1.6328860103674232
1789214489514624500,11.39462451171875,-1.270074588613212,-1.6121435204595327,1.9821112437091766
1789214489524655600,11.404655517578124,-1.440084826055169,-1.2856804462850093,2.1007051821686327
1789214489534687700,11.414687744140625,-1.768189822217822,-1.2871148630023002,1.5163408211313187
1789214489544719600,11.4247197265625,-1.7828662900850176,-1.2357675376027821,0.7091219366930425
1789214489554751700,11.434751708984376,-1.4749413276419043,-1.6363304517328738,-0.4340190473996103
1789214489564783600,11.44478369140625,-1.455297592756152,-2.6686229969263073,-1.625042018868774
1789214489574815700,11.454815673828126,-2.069818899387121,-3.833068342593312,-2.238066803331673
1789214489584847600,11.46484765625,-3.046614013764262,-4.320555506938696,-1.914930535492301
1789214489594879700,11.474879638671876,-3.496578964444995,-3.7980034589529037,-0.5767332816369831
1789214489604911900,11.484911865234375,-3.657782502835989,-2.2915450032800435,0.14541633280292152
1789214489614943700,11.49494384765625,-3.0099019474387165,-0.812933754953742,0.4139529954485595
1789214489624975600,11.5049755859375,-2.1298311772793532,0.3257593098193407,0.6092455581851304
1789214489635006700,11.5150068359375,-1.1188529305323958,1.2373901703685521,0.2902585189796984
1789214489645038600,11.52503857421875,0.19889321757704018,1.7652222045838832,-0.19403964006602764
1789214489655070700,11.53507080078125,0.7802282939210534,1.9207886138707397,-0.9568217091456055
1789214489665102800,11.545102783203125,0.7961693748965859,1.7576508925467729,-1.1243754933461547
1789214489675134700,11.555134765625,0.20468670628666877,1.2035785016596316,-0.8105898221760988
1789214489685166600,11.56516650390625,-0.5863064350157976,0.6863321588665247,-0.15092501322180032
1789214489695198700,11.57519873046875,-0.7658966939687728,0.4675064525902271,-0.29057343014776704
1789214489705230600,11.585230712890626,0.030227965003252026,0.6243950503915549,-0.5700257468223572
1789214489715262700,11.5952626953125,0.4115118859067559,0.9269611161500215,-1.2618120794415473
1789214489725294600,11.605294677734374,1.062991927100718,1.1410866819113492,-1.6503522550836205
1789214489735325700,11.61532568359375,1.6346727476537226,1.3288397890537977,-1.7140777082800864
1789214489745357800,11.62535791015625,1.9054624499231576,1.2163748548686504,-1.2373469157487154
1789214489755389700,11.6353896484375,1.257910980349779,0.4531020796626806,0.03854600375443697
1789214489765421600,11.645421630859374,-0.5990478431671857,-0.938987654030323,1.8530895808681844
1789214489775453400,11.655453369140625,-3.0587919428139925,-2.8757752165436745,3.3240301484361288
1789214489785485800,11.66548583984375,-4.684233336263895,-5.00466940523386,3.7181308808147904
1789214489795517700,11.675517578125,-4.256234133675695,-6.62972209162712,3.03768427285552
1789214489805549600,11.685549560546875,-2.253196860185265,-7.536109790825844,2.395762333601713
1789214489815581700,11.695581787109376,-0.819049022963643,-7.0530451190978285,1.7176903458192943
1789214489825613800,11.70561376953125,-0.08620470376908779,-5.004415138211846,0.31179975804984567
1789214489835645700,11.715645751953126,0.16533786171674728,-2.2747446751266716,-1.4077172186747193
1789214489845676500,11.725676513671875,0.9149930304586886,0.18558628449738024,-2.6804902525916696
1789214489855708700,11.735708740234376,1.7150369087010622,2.801796957141161,-2.531835522389412
1789214489865740800,11.74574072265625,1.9051193355739116,4.56549765124619,-1.528432387071848
1789214489875772700,11.755772705078124,1.4367764321595429,4.792838672411442,-0.9867433846786617
1789214489885804500,11.765804443359375,1.6109768147677181,3.8540859961807725,-1.3944672764793038
1789214489895836700,11.775836669921874,2.638873755350709,2.799060225653648,-1.6740619242340324
1789214489905868800,11.785868896484375,3.271992794945836,1.632090914466977,-1.3468877791807055
1789214489915900700,11.795900634765625,3.5949569210886954,1.0539899977385998,-0.9635992404565215
1789214489925932500,11.8059326171875,2.7504432020008562,0.5846434702396393,-1.0707751283228397
1789214489935964700,11.815964599609375,1.0880173550248144,0.15204934107661247,0.3130272540181875
1789214489945996800,11.825996826171876,-0.10131284105181694,-0.8193138113796711,3.081004651404917
1789214489956028700,11.836028564453125,-1.0279869569540023,-2.1202029327124357,4.352991211119294
1789214489966060500,11.846060546875,-1.582845529782772,-2.9928742402702566,2.5445883287176487
1789214489976091600,11.856091552734375,-1.1032418121635914,-2.262716383680701,-0.8091022139668465
1789214489986123800,11.866123779296874,-1.6421131267875433,-0.8186474564254284,-2.761012526810169
1789214489996155600,11.87615576171875,-2.9627421368569133,-0.6227934604138136,-2.937406620070338
1789214490006187800,11.886187744140624,-3.2580233063042163,-1.379007549279928,-2.36577869874835
1789214490016219600,11.8962197265625,-2.003143071952462,-2.674385213714838,-2.219896648129821
1789214490026251800,11.906251708984374,0.07886193979084491,-2.9111224242568015,-3.3398931957393883
1789214490036283600,11.91628369140625,1.6042366928577423,0.06778583450317383,-3.2052637760192155
1789214490046315800,11.926315673828125,2.371868247795105,3.8443373401045795,-3.4238182641386983
1789214490056347600,11.93634765625,3.78732365950644,6.289658946645259,-4.34419591024518
1789214490066379800,11.9463798828125,5.366283872288466,7.547055547732114,-4.782885433673858
1789214490076411600,11.95641162109375,6.838972744828462,8.153421604958176,-5.369912584179639
1789214490086443800,11.96644384765625,7.275648590347171,7.835605363097787,-6.225617559367418
1789214490096474600,11.976474609375,7.313758833032846,7.382595637893676,-6.7882339067161075
1789214490106506500,11.986506591796875,6.123817227059602,7.4516744348168364,-7.522262467259168
1789214490116539000,11.996538818359374,2.634085936552286,8.733924322131276,-8.239988712298869
1789214490126570800,12.00657080078125,-1.61395787640512,8.878662463411688,-7.066465157163143
1789214490136602600,12.0166025390625,-0.6604612200289964,7.01154464945197,-3.5223403054282065
1789214490146634500,12.026634521484375,0.09980535909831523,4.267793638566136,0.7623088986098766
1789214490156667000,12.0366669921875,0.044299160453677176,1.7592442992180586,3.449127477440238
1789214490166698800,12.04669873046875,-1.174019229698181,0.48998774898946285,3.4544600706398487
1789214490176730600,12.056730712890625,-1.0832470718830822,-1.1759715328097342,3.5210870904967186
1789214490186762500,12.066762451171876,-1.7525597068876027,-3.7655648321628568,4.592769104531407
1789214490196794600,12.076794677734375,-3.6946933066040275,-5.215263289737701,5.141594826936721
1789214490206826800,12.08682666015625,-4.309228057238459,-5.653164877659082,5.255411175730824
1789214490216858600,12.096858642578125,-3.648039691978693,-5.958374735924601,5.957115675774216
1789214490226889700,12.1068896484375,-2.1410002215474844,-6.788395819279551,5.9415679780304425
1789214490236921900,12.116921875,-1.5595195992529391,-8.046424873051047,3.5710058443978427
1789214490246953700,12.12695361328125,-1.1584592569947243,-8.675182210305332,0.7830643941298127
1789214490256985600,12.136985595703125,-0.6546025571286678,-6.765408326923847,-1.080206096751988
1789214490267017700,12.147017822265624,-0.11310936956852674,-2.7059961575090883,-2.1074851976975797
1789214490277049900,12.1570498046875,1.3475690394431352,0.4361737412154674,-3.2352325055643916
1789214490287081700,12.167081787109375,1.9361054254680872,2.2263047616064546,-3.0294518665611743
1789214490297113600,12.177113525390626,-0.9023597588568926,2.9764971059650183,-1.7712062474295496
1789214490307145500,12.1871455078125,-4.243564621716738,2.1162048029869793,0.6948784534156323
1789214490317177900,12.197177734375,-3.279447202605009,-1.5701637428641317,3.6367826771661638
1789214490327209700,12.207209716796875,-1.4750924265503882,-4.885143446621298,5.110615751305223
1789214490337241600,12.21724169921875,-0.45953678888529537,-6.890214271765947,5.240893990078568
1789214490347273500,12.2272734375,-0.7344494163036346,-7.6538406827151775,4.538196387344598
1789214490357305900,12.237305908203124,-1.651720328566432,-6.658843556693196,2.7866484878480433
1789214490367336700,12.247336669921875,-2.5829502080768347,-5.083201090157032,0.8265472697645425
1789214490377368600,12.25736865234375,-3.4475428385972973,-3.327073461654782,-1.0629263145186005
1789214490387400700,12.267400634765625,-3.734424428489804,-2.2274913410425183,-2.6361557285636663
1789214490397432800,12.277432861328125,-3.3183243380099534,-1.508857333508134,-3.793472829785943
1789214490407464000,12.2874638671875,-2.178694284647703,-0.601080225777626,-4.068350093629956
1789214490417496300,12.297496337890625,-1.2931909680455922,0.019873159727454185,-3.272138340896368
1789214490427528200,12.307528076171875,-1.1106026963204145,0.2865975122541189,-1.8944255076020955
1789214490437560000,12.31756005859375,-0.7078992630302906,0.9765268188297748,-0.42121319570988414
1789214490447592200,12.32759228515625,-0.3869958688095212,1.859780310678482,0.14819398082271218
1789214490457624300,12.337624267578125,-0.12574176438748835,2.420095395347476,-0.23273323559761047
1789214490467656200,12.34765625,0.6127753397464751,2.847355177745223,-0.39961452736407516
1789214490477688000,12.35768798828125,1.2163543966025114,2.98044788941741,-0.19558979211747646
1789214490487720200,12.36772021484375,0.48225393986701964,2.734600320702791,-0.32519144680351014
1789214490497752000,12.377751953125,-0.021112346133589744,2.4353876570254562,-0.7190905191302299
1789214490507783200,12.387783203125,0.43830724611282346,1.9005840302318333,-0.9474369179457426
1789214490517815000,12.39781494140625,0.5363689764142036,0.8816530709147453,-0.6611331279411912
1789214490527847200,12.40784716796875,-0.425340797033906,-0.46834056532680984,-0.09934767845869064
1789214490537879300,12.41787939453125,-1.046234561306238,-1.923485013347864,0.32742432042211295
1789214490547911200,12.4279111328125,-0.6462503238469361,-3.470601058101654,1.0490955036953091
1789214490557943000,12.437943115234376,-1.202156652162969,-4.7568519977509975,1.886442399893701
1789214490567975200,12.44797509765625,-1.429536544033885,-5.106316008284688,2.466910338014364
1789214490578007300,12.45800732421875,-1.7398299891740083,-4.277145404279231,1.9458309929296373
1789214490588039200,12.4680390625,-1.9715040711075067,-3.4717058044731615,1.2236205882132052
1789214490598071000,12.478071044921874,-2.0884844368904827,-3.2985908790141343,1.904853670375049
1789214490608103000,12.48810302734375,-2.1737281866729257,-3.430046344873309,3.0561838061422106
1789214490618135300,12.49813525390625,-2.060214035695791,-3.30605931519866,2.5684108105927703
1789214490628167200,12.508167236328125,-1.4504624276846647,-2.3830127421438694,0.8723518663451075
1789214490638199000,12.518198974609374,-0.16173603783249854,-0.5877513731271028,-0.5604018861696124
1789214490648231000,12.52823095703125,1.5645786362081766,0.750828888696432,-1.8079323422804474
1789214490658263300,12.53826318359375,2.3246973312973975,1.3133131340980528,-2.4737916219606992
1789214490668294100,12.548294189453125,2.8075661881923675,1.4622195009738206,-2.6768033807724714
1789214490678326000,12.558325927734375,3.2507419171243903,1.4087702348589897,-2.7937589043751356
1789214490688358100,12.568358154296876,3.024597412267327,1.6945698747336864,-2.167377356341481
1789214490698390300,12.578390380859375,2.109034472966194,2.1324732162207365,-0.8711603184729814
1789214490708422100,12.588422119140626,0.5110679464191198,2.3125749318271875,0.06955547452419995
1789214490718454000,12.5984541015625,-0.44748950047791003,2.022287332883477,0.9117667618885635
1789214490728486100,12.608486083984374,-0.8096259455800056,1.3676000200808047,1.9202219198986887
1789214490738518300,12.618518310546875,0.4787380407005548,0.19297522570490835,2.864481376852095
1789214490748550100,12.628550048828124,0.1584171225428581,-1.8251298530578612,2.2725413198634983
1789214490758582000,12.63858203125,-0.22827508714497088,-3.1549849566340447,0.8890960803970694
1789214490768614100,12.6486142578125,0.8295201480954885,-3.7747201985210177,-0.14846329928338528
1789214490778646300,12.658646240234376,2.160738356718421,-4.56426606362462,-0.2548798932150006
1789214490788678100,12.66867822265625,1.8936176983505486,-4.812047815272212,-0.8737173094794154
