time,seconds_elapsed,z,y,x
1789323567179071500,0.233071533203125,0,0,0
1789323567216774000,0.27077392578125,-0.032047271728515625,0.19770383834838867,0.29706424474716187
1789323567245050400,0.29905029296875,-0.21356964111328125,-0.06661415100097656,0.15936604142189026
1789323567263901400,0.3179013671875,-0.07278060913085938,-0.07224750518798828,-0.30256983637809753
1789323567301603800,0.355603759765625,-0.11751937866210938,-0.34329891204833984,-0.8950080275535583
1789323567320455000,0.374454833984375,-0.27417850494384766,-0.45068979263305664,-0.8327192664146423
1789323567339306000,0.393305908203125,-0.6946163177490234,-0.43642377853393555,-0.5877402424812317
1789323567358157000,0.412156982421875,-0.8605961799621582,-0.31110095977783203,-0.5416569709777832
1789323567377008000,0.431008056640625,-0.4352283477783203,-0.23920631408691406,-0.6323010921478271
1789323567395859200,0.449859130859375,0.3675556182861328,-0.4237995147705078,-0.5580580830574036
1789323567442987000,0.496987060546875,0.5768308639526367,-0.7609150409698486,0.06592237949371338
1789323567461838000,0.515838134765625,0.48459434509277344,-0.7376441955566406,0.4105816185474396
1789323567480689400,0.534689453125,0.08646488189697266,-0.5405187606811523,0.6499636769294739
1789323567499540500,0.55354052734375,0.11115741729736328,-0.3433842658996582,0.47640061378479004
1789323567518391600,0.5723916015625,0.16112136840820312,-0.6460127830505371,0.2957264482975006
1789323567537242600,0.59124267578125,-0.3887810707092285,-0.2652721405029297,0.5115358829498291
1789323567565519400,0.619519287109375,-1.3827557563781738,0.19046831130981445,0.7046010494232178
1789323567584370400,0.638370361328125,-1.5437250137329102,0.0645151138305664,0.565200924873352
1789323567603221500,0.657221435546875,-1.496495246887207,-0.1573958396911621,0.8410277366638184
1789323567622072600,0.676072509765625,-1.1469321250915527,-0.6873855590820312,1.5718481540679932
1789323567640924000,0.694923828125,-0.5459575653076172,-0.9936647415161133,2.0460903644561768
1789323567659775000,0.71377490234375,-0.7746014595031738,-1.1531028747558594,2.0436441898345947
1789323567688051700,0.7420517578125,-1.362788200378418,-1.1489169597625732,2.462596893310547
1789323567706902800,0.76090283203125,-1.7031264305114746,-2.966041326522827,3.9754364490509033
1789323567725753900,0.77975390625,-0.9331350326538086,-3.3309152126312256,3.9187893867492676
1789323567744605000,0.79860498046875,-0.8234243392944336,-2.1654977798461914,2.8124876022338867
1789323567763456000,0.8174560546875,-0.7276301383972168,-1.4256043434143066,2.1213176250457764
1789323567782307300,0.836307373046875,-1.590895652770996,-1.319200038909912,1.981480598449707
1789323567801158400,0.855158447265625,-2.835306167602539,-1.4148292541503906,2.341282367706299
1789323567820009500,0.874009521484375,-2.4973206520080566,-1.2940082550048828,2.712660551071167
1789323567838860500,0.892860595703125,-0.3118419647216797,-1.6102521419525146,3.803215265274048
1789323567857711900,0.9117119140625,0.9452114105224609,-2.6580708026885986,4.372227668762207
1789323567876563000,0.93056298828125,0.5862207412719727,-3.9501655101776123,4.055363655090332
1789323567895414000,0.9494140625,0.19604158401489258,-4.187933444976807,2.369668483734131
1789323567914265300,0.968265380859375,0.5486950874328613,-4.5345354080200195,0.5825197696685791
1789323567933116400,0.987116455078125,1.044011116027832,-4.675418376922607,-0.9513623714447021
1789323567951967500,1.005967529296875,2.0784077644348145,-4.552678108215332,-1.9078177213668823
1789323567970818600,1.024818603515625,3.770571708679199,-4.047629356384277,-2.9486570358276367
1789323567989669600,1.043669677734375,4.08690881729126,-3.3606667518615723,-4.318465232849121
1789323568008521000,1.06252099609375,3.1301450729370117,-3.201754570007324,-5.514408588409424
1789323568027372000,1.0813720703125,3.3215761184692383,-3.3378429412841797,-6.55025577545166
1789323568046223000,1.10022314453125,5.337705612182617,-2.9296789169311523,-7.949411392211914
1789323568065074400,1.119074462890625,7.001777648925781,-2.497115135192871,-9.384078025817871
1789323568083925500,1.137925537109375,6.766383647918701,-1.6724309921264648,-10.520842552185059
1789323568102776600,1.156776611328125,6.526219844818115,-0.8085165023803711,-11.363216400146484
1789323568121628000,1.1756279296875,8.331608772277832,0.32613706588745117,-10.827587127685547
1789323568140479000,1.19447900390625,8.876766204833984,1.3234820365905762,-7.507246971130371
1789323568159330000,1.213330078125,8.495058059692383,2.989758014678955,-3.506894111633301
1789323568178181400,1.232181396484375,7.229012489318848,4.641366004943848,-1.066688060760498
1789323568197032400,1.251032470703125,4.697417259216309,5.112289905548096,-0.4394354820251465
1789323568225309200,1.27930908203125,2.5158743858337402,4.811234474182129,1.5689773559570312
1789323568244160300,1.29816015625,2.1793203353881836,4.212188720703125,1.0924267768859863
1789323568263011600,1.317011474609375,2.15738582611084,3.2847423553466797,0.030440807342529297
1789323568291288300,1.345288330078125,1.278125286102295,1.1875779628753662,-0.14220476150512695
1789323568310139400,1.364139404296875,0.8425097465515137,-0.5620095729827881,1.1578049659729004
1789323568328990500,1.382990478515625,-0.2806277275085449,-2.0302975177764893,1.6252026557922363
1789323568347841800,1.401841796875,-1.0552082061767578,-3.565436363220215,0.6908879280090332
1789323568366692900,1.42069287109375,-1.2906622886657715,-4.496234893798828,-0.00969839096069336
1789323568479799800,1.5337998046875,-2.170088768005371,-1.860388994216919,2.566009998321533
1789323568498651100,1.552651123046875,-1.3233122825622559,-1.0894849300384521,3.635775566101074
1789323568517502200,1.571502197265625,-0.7667231559753418,-0.13196158409118652,3.48828387260437
1789323568536353500,1.590353515625,-0.35324811935424805,0.5326437950134277,2.689663887023926
1789323568555204600,1.60920458984375,-0.5391407012939453,0.8474533557891846,1.5356154441833496
1789323568574055700,1.6280556640625,-0.413022518157959,1.1955735683441162,0.8403348922729492
1789323568592907000,1.646906982421875,-0.26216936111450195,1.4657516479492188,0.12305259704589844
1789323568611758000,1.665758056640625,0.19588470458984375,2.399717330932617,-0.13997936248779297
1789323568630609400,1.684609375,-0.2140641212463379,4.119544506072998,0.5910444259643555
1789323568649460500,1.70346044921875,-0.6099190711975098,2.9619174003601074,1.0766000747680664
1789323568668311800,1.722311767578125,-0.5558218955993652,2.924197196960449,0.42789411544799805
1789323568687163000,1.741162841796875,-0.2721552848815918,2.965029239654541,0.3808774948120117
1789323568706014000,1.760013916015625,-0.09947729110717773,2.5408408641815186,0.6290097236633301
1789323568724865300,1.778865234375,0.1330714225769043,2.005284070968628,1.411238193511963
1789323568743716400,1.79771630859375,0.34093379974365234,0.6516828536987305,2.559318780899048
1789323568762567700,1.816567626953125,-0.5554804801940918,-0.691749095916748,1.4422578811645508
1789323568790844400,1.844844482421875,-0.8047018051147461,-2.3845467567443848,-1.5168695449829102
1789323568809695500,1.863695556640625,0.237518310546875,-2.958792209625244,-1.6274447441101074
1789323568828546800,1.882546875,-0.13106203079223633,-3.551492691040039,-1.510094165802002
1789323568847398000,1.90139794921875,0.4698677062988281,-3.940420150756836,-0.8465175628662109
1789323568866249200,1.920249267578125,0.4066891670227051,-4.104748249053955,-2.3096232414245605
1789323568885100300,1.939100341796875,0.3291015625,-3.277597427368164,-2.69260311126709
1789323568903951600,1.95795166015625,0.2433032989501953,-1.6482257843017578,-1.9260077476501465
1789323568922802700,1.976802734375,0.1528759002685547,-1.1061344146728516,-0.07426929473876953
1789323568941654000,1.995654052734375,0.6121411323547363,-1.0106382369995117,0.7233290672302246
1789323568960505000,2.014505126953125,1.0447163581848145,-1.971696376800537,0.41156578063964844
1789323568979356400,2.0333564453125,0.9760265350341797,-2.962285041809082,-0.12666845321655273
1789323569007633200,2.061633056640625,-0.7325477600097656,-1.8956966400146484,-0.6144795417785645
1789323569026484200,2.080484130859375,-1.1493678092956543,-0.7097225189208984,-0.8134036064147949
1789323569045335600,2.09933544921875,-1.2844715118408203,0.35778188705444336,-0.6752951145172119
1789323569083038000,2.137037841796875,-1.2086524963378906,2.8554444313049316,0.19644594192504883
1789323569111314700,2.165314697265625,0.5245046615600586,6.546457290649414,0.09490776062011719
1789323569130166000,2.184166015625,1.0000810623168945,5.556344032287598,-0.02509450912475586
1789323569149017000,2.20301708984375,1.1529641151428223,3.206329345703125,-0.006398677825927734
1789323569167868400,2.221868408203125,1.2121453285217285,-1.2906198501586914,-0.39299774169921875
1789323569186719500,2.240719482421875,0.9196829795837402,-3.293527603149414,-3.0029125213623047
1789323569205570800,2.25957080078125,0.6041641235351562,-4.3501715660095215,-2.3216052055358887
1789323569224422000,2.278421875,0.5560388565063477,-4.677121639251709,-0.9917888641357422
1789323569243273200,2.297273193359375,0.6266865730285645,-5.291560173034668,-0.281341552734375
1789323569262124300,2.316124267578125,0.7936592102050781,-5.204739093780518,0.08013224601745605
1789323569280975600,2.3349755859375,0.1269669532775879,-4.894429683685303,0.2022395133972168
1789323569309252400,2.36325244140625,-0.6258807182312012,-3.4638233184814453,0.867764949798584
1789323569328103700,2.382103759765625,-1.2785487174987793,-2.7346606254577637,1.2043712139129639
1789323569346954800,2.400954833984375,-1.2767558097839355,-2.122011184692383,1.7957606315612793
1789323569365806000,2.41980615234375,-1.0983891487121582,-2.0541510581970215,2.4135916233062744
1789323569384657400,2.438657470703125,-0.44240474700927734,-2.487558364868164,2.545445442199707
1789323569403508500,2.457508544921875,-0.9463214874267578,-2.3561277389526367,1.8256750106811523
1789323569422359800,2.47635986328125,-2.2811670303344727,-1.908970832824707,0.4530613422393799
1789323569441211000,2.4952109375,-3.506007671356201,-0.777794361114502,-0.19182252883911133
1789323569460062200,2.514062255859375,-3.768604278564453,1.2077207565307617,0.050765275955200195
1789323569478913300,2.532913330078125,-2.438828468322754,1.6291730403900146,0.4937129020690918
1789323569497764600,2.5517646484375,-2.3608837127685547,0.9185194969177246,0.6820645332336426
1789323569516616000,2.570615966796875,-3.442615032196045,0.3228778839111328,0.9554295539855957
1789323569535467000,2.589467041015625,-3.162229537963867,0.3617420196533203,1.6162182092666626
1789323569554318300,2.608318359375,-2.378173351287842,0.5162854194641113,2.318324565887451
1789323569573169700,2.627169677734375,-2.7305517196655273,0.580406904220581,1.724499225616455
1789323569592020700,2.646020751953125,-2.923095226287842,0.7717142105102539,2.2523348331451416
1789323569610872000,2.6648720703125,-1.9743008613586426,1.6142661571502686,2.484920024871826
1789323569629723400,2.683723388671875,-1.118849754333496,2.3160786628723145,2.3993170261383057
1789323569648574500,2.702574462890625,-0.38654136657714844,2.6423306465148926,2.2556653022766113
1789323569667425800,2.72142578125,-0.2609548568725586,2.526662588119507,1.1530778408050537
1789323569686277000,2.740277099609375,-0.6659331321716309,1.6649830341339111,0.7179744243621826
1789323569705128200,2.759128173828125,-0.36960649490356445,1.0548806190490723,0.5912365913391113
1789323569723979500,2.7779794921875,-0.5665359497070312,0.6504592895507812,0.14364862442016602
1789323569742830600,2.79683056640625,-0.7345547676086426,0.2893662452697754,0.4300072193145752
1789323569761682000,2.815681884765625,-0.08988094329833984,0.36351442337036133,0.4471313953399658
1789323569780533200,2.834533203125,0.40831899642944336,1.0220179557800293,0.3861401081085205
1789323569799384300,2.85338427734375,0.4555387496948242,1.6037230491638184,-0.15822315216064453
1789323569818235600,2.872235595703125,0.8368582725524902,1.6078686714172363,-0.6546850204467773
1789323569837087000,2.8910869140625,1.0896625518798828,1.1474075317382812,-0.8614320755004883
1789323569855938300,2.909938232421875,1.1249065399169922,0.2698330879211426,-1.0720901489257812
1789323569874789400,2.928789306640625,0.9189834594726562,-1.3614983558654785,-1.4898173809051514
1789323569893640700,2.947640625,0.343106746673584,-2.4495019912719727,-1.1809237003326416
1789323569912492000,2.966491943359375,0.6891055107116699,-1.859579086303711,-0.8464162349700928
1789323569931343000,2.985343017578125,1.2957677841186523,-0.9331741333007812,-0.6202478408813477
1789323569950194400,3.0041943359375,1.9637784957885742,-0.6827754974365234,-1.1018800735473633
1789323569969045800,3.023045654296875,1.9194369316101074,-1.1231632232666016,-1.4898014068603516
1789323569987896800,3.041896728515625,1.835193395614624,-1.7229413986206055,-1.4643561840057373
1789323570006748200,3.060748046875,2.2233948707580566,-2.021364212036133,-0.9456014633178711
1789323570025599500,3.079599609375,1.9515163898468018,-1.8042917251586914,-0.07748126983642578
1789323570044450800,3.098450927734375,2.109422206878662,-1.6362953186035156,0.18885350227355957
1789323570063302000,3.117302001953125,1.6707429885864258,-1.5271129608154297,0.4669591188430786
1789323570082153200,3.1361533203125,0.9817638397216797,-1.0296573638916016,0.749374508857727
1789323570101004500,3.155004638671875,0.36978769302368164,-0.3468160629272461,0.7905824184417725
1789323570119855900,3.17385595703125,-0.1776871681213379,0.07940673828125,0.9143931865692139
1789323570138707000,3.19270703125,-0.02698516845703125,-0.16678524017333984,0.2647264003753662
1789323570157558300,3.211558349609375,-0.17120599746704102,-1.0086250305175781,0.6031019687652588
1789323570176409600,3.23040966796875,-0.1390070915222168,-1.5322566032409668,0.40056276321411133
1789323570195261000,3.249260986328125,-0.2523460388183594,-1.537097454071045,0.1995527744293213
1789323570214112000,3.268112060546875,-0.028870582580566406,-1.3335976600646973,0.024390459060668945
1789323570232963300,3.28696337890625,0.2538576126098633,-1.3938865661621094,-0.2443828582763672
1789323570251814700,3.305814697265625,0.4747195243835449,-1.6445465087890625,-0.4652974605560303
1789323570270666000,3.324666015625,0.4508662223815918,-1.831380844116211,-0.6792120933532715
1789323570289517300,3.343517333984375,-0.0329585075378418,-2.110959053039551,-0.6370031833648682
1789323570308368400,3.362368408203125,-0.16956281661987305,-1.7232780456542969,-0.20627403259277344
1789323570327219700,3.3812197265625,-0.3408327102661133,-1.4002718925476074,-0.22536301612854004
1789323570346071000,3.400071044921875,-0.12496519088745117,-1.464797019958496,-0.318068265914917
1789323570364922400,3.41892236328125,0.024201393127441406,-1.4765138626098633,-0.6790242195129395
1789323570383773700,3.437773681640625,-0.4020061492919922,-1.6646838188171387,-1.049302101135254
1789323570402624800,3.456624755859375,-0.6691012382507324,-1.7882862091064453,-0.7841935157775879
1789323570421476000,3.47547607421875,-1.1427669525146484,-1.6502881050109863,-0.25400853157043457
1789323570440327400,3.494327392578125,-1.5929393768310547,-1.3939924240112305,0.3227248191833496
1789323570459178800,3.5131787109375,-1.8170857429504395,-0.8511967658996582,0.05037283897399902
1789323570478030000,3.532030029296875,-1.7733373641967773,-1.0849015712738037,-0.13411235809326172
1789323570496881400,3.55088134765625,-3.485227108001709,-0.6465861797332764,1.3996068239212036
1789323570515732500,3.569732421875,-4.065670967102051,2.0109610557556152,1.8690571784973145
1789323570544009500,3.598009521484375,-2.0324859619140625,2.9844250679016113,2.48262357711792
1789323570562860800,3.61686083984375,-1.2565984725952148,2.0373144149780273,2.959704637527466
1789323570581712100,3.635712158203125,1.0243501663208008,0.8291182518005371,1.6033731698989868
1789323570600563500,3.6545634765625,-3.420076847076416,-0.6233417987823486,-0.4905705451965332
1789323570619414800,3.673414794921875,-3.4551548957824707,0.2119884490966797,1.4159411191940308
1789323570638266000,3.69226611328125,0.5714054107666016,0.6873373985290527,1.799157977104187
1789323570657117200,3.7111171875,-4.151797294616699,0.8484244346618652,1.2115600109100342
1789323570675968500,3.729968505859375,-2.7275218963623047,1.65933096408844,1.6318641901016235
1789323570694819800,3.74881982421875,-1.1422767639160156,2.3868649005889893,1.9026039838790894
1789323570713671200,3.767671142578125,-2.242281436920166,2.348405122756958,1.1989645957946777
1789323570732522500,3.7865224609375,-0.4827003479003906,2.7541980743408203,1.5748791694641113
1789323570751373800,3.805373779296875,-1.7839360237121582,2.1339385509490967,0.7709164619445801
1789323570770225200,3.82422509765625,-0.7693696022033691,1.3867149353027344,-0.7241199016571045
1789323570789076500,3.843076416015625,-0.09411430358886719,-0.1882476806640625,-0.01348114013671875
1789323570807927600,3.861927490234375,-1.8865046501159668,-0.900719165802002,-1.5392372608184814
1789323570826779000,3.88077880859375,-0.5602307319641113,-1.5378012657165527,-0.19382047653198242
1789323570845630200,3.899630126953125,-1.6061830520629883,-0.4355645179748535,-0.3445258140563965
1789323570864481500,3.9184814453125,-0.16698932647705078,-0.7491297721862793,0.5975556373596191
1789323570883332900,3.937332763671875,0.4881730079650879,-1.0249462127685547,0.6341879367828369
1789323570902184200,3.95618408203125,-0.7838220596313477,-2.175952434539795,-0.617621660232544
1789323570930461200,3.984461181640625,1.2707128524780273,-3.601593494415283,-0.3387279510498047
1789323570949312500,4.0033125,0.09792518615722656,-3.165956497192383,-1.4282236099243164
1789323570968163800,4.022163818359375,0.4427504539489746,-1.3613920211791992,-0.8834882974624634
1789323570987015200,4.04101513671875,1.5974783897399902,0.0585174560546875,-0.5465066432952881
1789323571005866500,4.059866455078125,1.579899787902832,-0.041629791259765625,-0.7945513725280762
1789323571024717800,4.0787177734375,1.752366542816162,-0.8639812469482422,-1.6987109184265137
1789323571043569200,4.097569091796875,2.048431873321533,-2.090390205383301,-1.6413949728012085
1789323571062420200,4.116420166015625,1.816819667816162,-1.5059537887573242,-0.8864548206329346
1789323571081271600,4.135271484375,2.0481724739074707,-0.8895750045776367,-1.1895320415496826
1789323571100123000,4.154122802734375,1.6385955810546875,-1.9682502746582031,-0.5859043598175049
1789323571118974200,4.17297412109375,1.5528903007507324,-3.2924718856811523,-0.05258965492248535
1789323571137825500,4.191825439453125,2.14093017578125,-2.8254480361938477,-1.1818218231201172
1789323571156676900,4.2106767578125,1.5096368789672852,-2.7840328216552734,-0.16527700424194336
1789323571175528200,4.229528076171875,1.6293153762817383,-2.2599802017211914,-1.3464665412902832
1789323571194379500,4.248379638671875,-0.19290494918823242,-0.2868170738220215,-0.9048995971679688
1789323571213230800,4.26723095703125,0.2268829345703125,1.2026333808898926,-1.220099925994873
1789323571232082200,4.286082275390625,-0.5446290969848633,0.7264337539672852,-0.9417777061462402
1789323571250933500,4.30493359375,-0.6337556838989258,0.07142925262451172,-0.49059176445007324
1789323571269784800,4.323784912109375,0.5939521789550781,-1.2223401069641113,-1.0028302669525146
1789323571288636200,4.34263623046875,0.5851545333862305,-2.601195812225342,-1.2917344570159912
1789323571307487500,4.361487548828125,0.659212589263916,-2.520535469055176,-2.5274171829223633
1789323571326338800,4.3803388671875,-0.6723728179931641,-2.1737475395202637,-1.9260592460632324
1789323571345190100,4.399190185546875,-0.7229952812194824,-1.1526823043823242,-1.1474251747131348
1789323571364041500,4.41804150390625,0.21416997909545898,0.06098222732543945,-0.9298088550567627
1789323571382892800,4.436892822265625,1.1297450065612793,-1.0400915145874023,-0.7723977565765381
1789323571401744100,4.455744140625,-0.1817774772644043,-3.3184170722961426,-2.251986265182495
1789323571420595500,4.474595458984375,-1.5129733085632324,-2.571059226989746,-1.4830069541931152
1789323571439446800,4.49344677734375,-2.709890365600586,-0.9219365119934082,-0.2757699489593506
1789323571458298000,4.512298095703125,-2.756196975708008,-0.32237720489501953,1.556600570678711
1789323571477149400,4.5311494140625,-3.0627079010009766,0.06771469116210938,0.8672771453857422
1789323571496000800,4.550000732421875,-3.3701186180114746,-0.05004739761352539,-0.7756319046020508
1789323571514852000,4.56885205078125,-2.280093193054199,-0.36118602752685547,-0.1232757568359375
1789323571533703400,4.587703369140625,-4.070754051208496,-0.7925097942352295,0.5217387676239014
1789323571552554800,4.6065546875,-4.341286659240723,2.7518534660339355,2.8076205253601074
1789323571571406000,4.625406005859375,-1.0245208740234375,3.5009639263153076,1.6528791189193726
1789323571590257400,4.64425732421875,-0.8547372817993164,-0.7691586017608643,0.498180627822876
1789323571609108700,4.663108642578125,-4.534567356109619,-1.6429150104522705,-0.8727383613586426
1789323571627960000,4.6819599609375,-1.7981090545654297,0.6023843288421631,1.6876431703567505
1789323571646811600,4.700811767578125,-0.8869924545288086,1.2671520709991455,1.5094079971313477
1789323571665662700,4.719662841796875,-4.6415886878967285,1.1105022430419922,0.9805917739868164
1789323571684514300,4.738514404296875,-1.8863301277160645,0.9771702289581299,1.10759437084198
1789323571703365600,4.75736572265625,-2.0916786193847656,1.160231113433838,1.5776652097702026
1789323571722217000,4.776217041015625,-2.997706890106201,1.0822536945343018,1.477728247642517
1789323571741068300,4.795068359375,-1.8514018058776855,1.9309813976287842,1.2418339252471924
1789323571759919600,4.813919677734375,-1.4830398559570312,1.906574010848999,1.4942394495010376
1789323571778771000,4.83277099609375,-1.0584907531738281,2.1190412044525146,0.3764963150024414
1789323571797622300,4.851622314453125,-0.7394990921020508,2.221494436264038,-1.027883768081665
1789323571816473600,4.8704736328125,-4.537410736083984,0.7346854209899902,-1.3264963626861572
1789323571835325000,4.889324951171875,-2.645834445953369,-0.6040959358215332,0.4245798587799072
1789323571854176300,4.90817626953125,-0.4741659164428711,-0.6773586273193359,1.127094030380249
1789323571873027600,4.927027587890625,2.8426218032836914,0.13255691528320312,0.010984182357788086
1789323571891879000,4.94587890625,2.5797133445739746,-0.974693775177002,-2.56083083152771
1789323571910730500,4.96473046875,0.8080859184265137,-3.7487659454345703,-4.223202705383301
1789323571929581800,4.983581787109375,-1.3848114013671875,-6.2672295570373535,-1.8137476444244385
1789323571948433200,5.00243310546875,-0.7313051223754883,-5.386937141418457,-0.256854772567749
1789323571967284500,5.021284423828125,1.7351694107055664,-2.8551406860351562,1.8128244876861572
1789323571986135800,5.0401357421875,3.365123748779297,-0.4998512268066406,0.5906243324279785
1789323572004987100,5.058987060546875,3.0905704498291016,-1.7159481048583984,-2.6571249961853027
1789323572033264000,5.08726416015625,-0.34916019439697266,-0.6132240295410156,-2.7416844367980957
1789323572052115500,5.106115478515625,-0.08655929565429688,-0.46625614166259766,-0.6833577156066895
1789323572070966800,5.124966796875,0.5041823387145996,-1.081233024597168,2.2090840339660645
1789323572089818400,5.143818359375,0.6758785247802734,-0.10620594024658203,0.8259930610656738
1789323572108669700,5.162669677734375,1.635354995727539,0.5275554656982422,-0.3048999309539795
1789323572127521000,5.18152099609375,2.1371140480041504,-0.08234310150146484,-2.214128255844116
1789323572146372400,5.200372314453125,1.0709342956542969,0.7063488960266113,-1.551640510559082
1789323572165223700,5.2192236328125,-0.30875730514526367,1.2481155395507812,-0.04842805862426758
1789323572184075000,5.238074951171875,-0.06820297241210938,-0.09788036346435547,0.6988344192504883
1789323572202926300,5.25692626953125,1.7538256645202637,-2.753803253173828,0.5963361263275146
1789323572221777700,5.275777587890625,1.8834662437438965,-6.44827938079834,0.2812316417694092
1789323572240629200,5.294629150390625,0.9313654899597168,-4.088766098022461,-0.5700609683990479
1789323572259480600,5.31348046875,-0.7558846473693848,-0.27298974990844727,-0.07091951370239258
1789323572278332000,5.332331787109375,-1.480086326599121,1.6882600784301758,0.5511143207550049
1789323572297183200,5.351183349609375,-0.9337120056152344,2.0598363876342773,1.2941701412200928
1789323572316034600,5.37003466796875,2.450436592102051,1.0948481559753418,0.7951643466949463
1789323572334886000,5.388885986328125,4.00050163269043,-3.8618946075439453,-1.2976093292236328
1789323572353737200,5.4077373046875,1.685922622680664,-5.397401809692383,-4.566336631774902
1789323572372588800,5.4265888671875,0.0730447769165039,-2.9625587463378906,-3.4450416564941406
1789323572391440100,5.445440185546875,-0.9980850219726562,-0.5248684883117676,-0.6118936538696289
1789323572410291500,5.46429150390625,-1.1996560096740723,0.03583049774169922,0.627100944519043
1789323572429142800,5.483142822265625,-1.7903995513916016,-0.08554697036743164,-0.1908433437347412
1789323572447994000,5.501994140625,-0.6017398834228516,0.14956045150756836,-0.6854374408721924
1789323572466845400,5.520845458984375,1.7551136016845703,-0.9229083061218262,-1.0579907894134521
1789323572485697000,5.539697021484375,1.3829851150512695,-3.5917696952819824,-0.4006772041320801
1789323572504548400,5.55854833984375,-2.903870105743408,-3.537850856781006,1.2608880996704102
1789323572523399700,5.577399658203125,-4.514595031738281,0.4358253479003906,0.0395810604095459
1789323572542251000,5.5962509765625,-2.038963794708252,1.3761301040649414,0.8265781402587891
1789323572561102300,5.615102294921875,-1.418612003326416,2.1846721172332764,0.49324584007263184
1789323572579954000,5.633953857421875,-4.525119781494141,1.6468656063079834,2.0183258056640625
1789323572598805200,5.65280517578125,-1.65716552734375,0.9753289222717285,2.701381206512451
1789323572617656600,5.671656494140625,-2.4234938621520996,-0.6043205261230469,1.5412410497665405
1789323572636508000,5.6905078125,-4.43551778793335,-0.41463613510131836,0.7935802936553955
1789323572655359200,5.709359130859375,-2.6621923446655273,0.47514986991882324,2.1298904418945312
1789323572674210800,5.7282109375,-1.057173728942871,0.8668532371520996,1.96156644821167
1789323572693062100,5.747062255859375,-3.564457416534424,1.0961008071899414,1.345576524734497
1789323572711913500,5.76591357421875,-2.396186351776123,2.1315956115722656,2.9243342876434326
1789323572730764800,5.784764892578125,-0.6377968788146973,2.219761371612549,2.208991527557373
1789323572749616400,5.803616455078125,-2.9975523948669434,2.125993251800537,1.377673625946045
1789323572768467700,5.8224677734375,-3.104287624359131,1.6334431171417236,1.4904475212097168
1789323572787319000,5.841319091796875,-1.1364164352416992,2.4777297973632812,0.973442554473877
1789323572806170400,5.86017041015625,-1.463129997253418,2.613743782043457,0.6714663505554199
1789323572825021700,5.879021728515625,-0.8910036087036133,1.8342125415802002,0.02713799476623535
1789323572843873300,5.897873291015625,-1.676680564880371,-0.01792430877685547,-0.10987639427185059
1789323572862724600,5.916724609375,0.34775876998901367,-1.4433403015136719,-0.22113275527954102
1789323572881576000,5.935575927734375,0.9936013221740723,-0.82696533203125,-1.1284387111663818
1789323572900427300,5.95442724609375,-0.44706058502197266,-1.327958583831787,-0.6311852931976318
1789323572919278600,5.973278564453125,-0.5098066329956055,-0.8462352752685547,-0.810650110244751
1789323572938130200,5.992130126953125,-0.12994909286499023,-1.0128850936889648,-0.775357723236084
1789323572956981500,6.0109814453125,1.3342552185058594,-1.4407763481140137,-0.78125
1789323572975832800,6.029832763671875,1.179072380065918,-2.2137622833251953,-2.026762008666992
1789323572994684200,6.04868408203125,0.8302426338195801,-3.271416664123535,-1.5611085891723633
1789323573013535700,6.06753564453125,1.1586427688598633,-3.6076669692993164,-1.4058845043182373
1789323573032387000,6.086386962890625,1.5999622344970703,-2.438446044921875,-0.3246896266937256
1789323573051238400,6.10523828125,1.1256742477416992,-0.8235855102539062,-0.3082127571105957
1789323573070090000,6.124090087890625,0.5610013008117676,-0.6098747253417969,-0.5308194160461426
1789323573088941300,6.14294140625,1.5414690971374512,-0.7958049774169922,-0.9120900630950928
1789323573107792600,6.161792724609375,2.595975399017334,-0.9555435180664062,-1.0189199447631836
1789323573126644000,6.18064404296875,1.914520263671875,-1.7103099822998047,-0.850632905960083
1789323573145495600,6.19949560546875,0.5910634994506836,-1.3936424255371094,0.5854110717773438
1789323573164347000,6.218346923828125,1.0330686569213867,-0.5071554183959961,1.162644624710083
1789323573183198200,6.2371982421875,2.112712860107422,-1.2701644897460938,-0.896970272064209
1789323573202049500,6.256049560546875,0.20054388046264648,-2.390094757080078,-0.20299935340881348
1789323573220901000,6.274901123046875,-0.06401824951171875,-0.7374324798583984,0.3143486976623535
1789323573239752400,6.29375244140625,-0.340299129486084,0.8841385841369629,-0.200239896774292
1789323573258603800,6.312603759765625,-0.9536104202270508,1.3667850494384766,0.21590256690979004
1789323573277455000,6.331455078125,-0.04550600051879883,1.190427303314209,-0.24673676490783691
1789323573296306700,6.350306640625,-0.5734429359436035,-0.4625425338745117,0.06339120864868164
1789323573315158000,6.369157958984375,0.6454806327819824,-0.9390511512756348,-0.9427731037139893
1789323573334009300,6.38800927734375,2.2839040756225586,-1.8826303482055664,-1.8466858863830566
1789323573352861000,6.40686083984375,2.0225610733032227,-3.4650726318359375,-2.273733615875244
1789323573371712300,6.425712158203125,0.8025736808776855,-2.712592601776123,-2.7182037830352783
1789323573390563600,6.4445634765625,-0.832003116607666,-0.4850344657897949,-2.3730127811431885
1789323573409415200,6.463415283203125,-0.7861099243164062,1.3499822616577148,-0.779855489730835
1789323573428266500,6.4822666015625,1.431778907775879,-0.4387674331665039,-0.37370896339416504
1789323573447117800,6.501117919921875,0.5750503540039062,-4.044106960296631,-1.4596152305603027
1789323573465969400,6.519969482421875,-0.21303558349609375,-3.375929355621338,-3.012009620666504
1789323573484820700,6.53882080078125,-0.26563358306884766,-1.4984798431396484,0.18758630752563477
1789323573503672000,6.557672119140625,-0.08662748336791992,-1.028130054473877,1.050842046737671
1789323573522523400,6.5765234375,-3.503324031829834,-1.2974843978881836,1.4029862880706787
1789323573541375000,6.595375,-4.987398147583008,3.2748584747314453,0.10515618324279785
1789323573560226300,6.614226318359375,-0.5103940963745117,1.706587314605713,0.46283936500549316
1789323573579077600,6.63307763671875,-0.17200374603271484,0.3518564701080322,0.08643317222595215
1789323573597929200,6.65192919921875,-3.2485289573669434,0.255826473236084,1.957216739654541
1789323573616780500,6.670780517578125,-1.1987419128417969,-0.8780112266540527,1.787776231765747
1789323573635631900,6.6896318359375,-2.585507869720459,-1.0320467948913574,0.8837845325469971
1789323573654483500,6.7084833984375,-5.166069984436035,0.22349047660827637,0.7823221683502197
1789323573673334800,6.727334716796875,-2.745387077331543,1.5430630445480347,2.6483445167541504
1789323573692186000,6.74618603515625,-3.2035365104675293,2.1477701663970947,2.491225004196167
1789323573711037700,6.76503759765625,-2.6765732765197754,3.470048666000366,2.4368534088134766
1789323573729889000,6.783888916015625,-1.2609853744506836,2.594770908355713,0.6878573894500732
1789323573748740600,6.80274072265625,-3.1419525146484375,0.6207306385040283,-0.23187851905822754
1789323573767592000,6.821592041015625,-2.2314577102661133,0.48493528366088867,1.1393017768859863
1789323573786443300,6.840443359375,-1.9410672187805176,1.0141687393188477,0.4560272693634033
1789323573805294600,6.859294677734375,-1.5329713821411133,1.0870654582977295,1.8011449575424194
1789323573824146200,6.878146240234375,-1.913475513458252,1.5961778163909912,0.45357799530029297
1789323573842997500,6.89699755859375,-2.1103219985961914,1.27919602394104,0.4683854579925537
1789323573861849000,6.91584912109375,-0.4265437126159668,1.6615138053894043,-0.06223797798156738
1789323573880700400,6.934700439453125,0.684758186340332,1.5949437618255615,0.15791869163513184
1789323573899551700,6.9535517578125,-0.22141408920288086,0.5613369941711426,-0.27033567428588867
1789323573918403000,6.972403076171875,-1.1234407424926758,-2.1988906860351562,-1.3961987495422363
1789323573937254700,6.991254638671875,-0.9524292945861816,-3.02504301071167,-0.9760966300964355
1789323573956106000,7.01010595703125,-1.1602210998535156,-2.650176525115967,-0.47210264205932617
1789323573974957600,7.02895751953125,0.5276212692260742,-2.2552008628845215,0.20123839378356934
1789323573993809000,7.047808837890625,0.16147613525390625,-1.8709044456481934,0.30087947845458984
1789323574012660200,7.06666015625,1.5931220054626465,-1.36720609664917,-0.8511199951171875
1789323574031511800,7.08551171875,1.5217947959899902,-0.9587736129760742,-2.0227417945861816
1789323574050363100,7.104363037109375,0.8484034538269043,-0.48795413970947266,-2.857503890991211
1789323574069214500,7.12321435546875,1.4068894386291504,-1.114924430847168,-2.240297317504883
1789323574088066000,7.142066162109375,2.637082099914551,-4.3667192459106445,-1.0934441089630127
1789323574106917400,7.16091748046875,2.7217211723327637,-6.905553817749023,0.5628442764282227
1789323574125768700,7.179768798828125,3.9379093647003174,-4.448863983154297,-0.0884561538696289
1789323574144620300,7.198620361328125,2.778303623199463,-0.5565948486328125,-0.6844387054443359
1789323574163471600,7.2174716796875,1.0772528648376465,0.17178726196289062,-0.7650811672210693
1789323574182323200,7.2363232421875,0.16998529434204102,0.8173122406005859,-0.09976506233215332
1789323574201174500,7.255174560546875,-1.182434320449829,1.3955512046813965,1.5649926662445068
1789323574220025900,7.27402587890625,-0.27020263671875,1.3117213249206543,0.8028557300567627
1789323574238877400,7.29287744140625,-0.1351175308227539,0.5013236999511719,1.103447675704956
1789323574257728800,7.311728759765625,1.7490196228027344,-1.4560585021972656,0.07155132293701172
1789323574276580400,7.330580322265625,1.924149990081787,-3.330869197845459,0.601229190826416
1789323574295431700,7.349431640625,1.3064427375793457,-1.850236415863037,-0.3475759029388428
1789323574314283000,7.368282958984375,0.5712976455688477,-0.314664363861084,-0.6925778388977051
1789323574333134600,7.387134521484375,-0.14095592498779297,0.021798133850097656,0.1634690761566162
1789323574351986000,7.40598583984375,0.5218925476074219,-0.9182910919189453,-0.2824578285217285
1789323574370837200,7.424837158203125,1.2593770027160645,-2.19303560256958,-0.9730465412139893
1789323574389688800,7.443688720703125,0.9502754211425781,-1.8396987915039062,-2.7508175373077393
1789323574408540200,7.4625400390625,-0.8567047119140625,-1.7755541801452637,-1.7376854419708252
1789323574427391700,7.481391845703125,0.011833667755126953,0.38054323196411133,-0.44373464584350586
1789323574446243000,7.5002431640625,0.7247729301452637,0.4002094268798828,0.9851632118225098
1789323574465094400,7.519094482421875,1.5180058479309082,-1.606654167175293,0.33153438568115234
1789323574483946000,7.537946044921875,-0.10511112213134766,-1.9755668640136719,-0.7917141914367676
1789323574502797300,7.55679736328125,-1.4423332214355469,-1.2944755554199219,-1.1136984825134277
1789323574521649000,7.57564892578125,-1.2616682052612305,-1.519670009613037,0.9596099853515625
1789323574540500200,7.594500244140625,-0.5035467147827148,-0.44878339767456055,1.7515789270401
1789323574559351800,7.613351806640625,-1.162440299987793,0.5955021381378174,0.6274778842926025
1789323574578203100,7.632203125,-2.538168430328369,0.45734310150146484,-0.7197158336639404
1789323574597054500,7.651054443359375,-3.2153477668762207,0.6163628101348877,1.7316169738769531
1789323574615906000,7.669906005859375,-2.3866991996765137,2.329843521118164,2.883941411972046
1789323574634757400,7.68875732421875,-2.8425440788269043,1.1785640716552734,2.6946754455566406
1789323574653608700,7.707608642578125,-3.2947402000427246,1.0876176357269287,1.8154908418655396
1789323574672460300,7.726460205078125,-2.6563196182250977,1.6414653062820435,2.7456181049346924
1789323574691311600,7.7453115234375,-2.9802613258361816,2.0357258319854736,2.4925167560577393
1789323574710163200,7.7641630859375,-0.5776090621948242,2.0773520469665527,2.307096004486084
1789323574729014500,7.7830146484375,-0.06418132781982422,1.1007215976715088,0.9047951698303223
1789323574747866000,7.8018662109375,0.49072837829589844,0.2974696159362793,0.8116824626922607
1789323574766717400,7.820717529296875,-2.7838683128356934,-1.1014981269836426,0.47554707527160645
1789323574785568800,7.83956884765625,-1.0350804328918457,-0.7426249980926514,2.1532821655273438
1789323574804420400,7.85842041015625,-2.0177087783813477,0.536860466003418,1.9062247276306152
1789323574823271700,7.877271728515625,-1.988473892211914,1.4596021175384521,2.0050008296966553
1789323574842123300,7.896123291015625,-2.559813976287842,2.415400505065918,1.5615808963775635
1789323574860974600,7.914974609375,-2.598123073577881,3.0859994888305664,1.4176926612854004
1789323574879826200,7.933826171875,-0.2202916145324707,2.876858711242676,1.5033013820648193
1789323574898677500,7.952677490234375,-0.13839006423950195,1.508336067199707,1.1628172397613525
1789323574917529000,7.971529052734375,-0.4598422050476074,-0.9061312675476074,-0.5201308727264404
1789323574936380400,7.99038037109375,-1.014643669128418,-2.282135009765625,0.06739592552185059
1789323574955231700,8.009231689453125,0.3056755065917969,-1.424299716949463,-0.46114039421081543
1789323574974083300,8.028083251953126,0.8431181907653809,-1.4290757179260254,-0.5222930908203125
1789323574992934700,8.0469345703125,0.3817915916442871,-2.019225597381592,-1.623910665512085
1789323575011786200,8.0657861328125,1.18989896774292,-2.8960976600646973,-1.0795230865478516
1789323575049489200,8.1034892578125,3.8108344078063965,-6.023059844970703,-1.502056360244751
1789323575077766100,8.13176611328125,2.61159610748291,-2.859548568725586,-0.6185200214385986
1789323575096617700,8.15061767578125,2.236461877822876,0.20416736602783203,-0.06377410888671875
1789323575115469000,8.169468994140624,1.5802295207977295,1.6572399139404297,0.09160351753234863
1789323575134320400,8.1883203125,2.6879472732543945,2.32517671585083,-1.5080456733703613
1789323575153172000,8.207171875,2.52024507522583,1.107436180114746,-1.8370261192321777
1789323575172023300,8.226023193359374,2.39339542388916,-1.720625877380371,-1.9084932804107666
1789323575190875000,8.244875,1.108642339706421,-1.6037864685058594,0.586470365524292
1789323575209726200,8.263726318359375,1.1847896575927734,-1.3699722290039062,1.2621945142745972
1789323575228577800,8.282577880859375,1.0152497291564941,-1.8951225280761719,1.1146595478057861
1789323575247429000,8.30142919921875,-0.1764836311340332,-2.309640884399414,1.5490469932556152
1789323575266280700,8.32028076171875,0.01978158950805664,-1.4751930236816406,1.8142163753509521
1789323575285132000,8.339132080078125,0.6455655097961426,-0.7834930419921875,0.0456080436706543
1789323575303983400,8.3579833984375,-0.009572029113769531,-0.19893121719360352,0.3068997859954834
1789323575322835000,8.3768349609375,1.314742088317871,-0.07487106323242188,-0.8289141654968262
1789323575341686300,8.395686279296875,1.3762860298156738,-0.21388864517211914,-0.43225765228271484
1789323575360537900,8.414537841796875,1.2643671035766602,-0.4772000312805176,-1.081277847290039
1789323575379389200,8.43338916015625,0.39101076126098633,-0.4407691955566406,-0.8828413486480713
1789323575398240800,8.45224072265625,-0.0575718879699707,-0.9535408020019531,-0.865501880645752
1789323575417092000,8.471092041015625,-0.12855195999145508,-1.8291282653808594,-0.9230589866638184
1789323575435943700,8.489943603515625,0.9145565032958984,-2.8062663078308105,-1.382202386856079
1789323575454795000,8.508794921875,1.3674006462097168,-2.299487590789795,-0.16550946235656738
1789323575473646300,8.527646240234375,0.6857094764709473,-1.6810483932495117,-1.5232651233673096
1789323575492498000,8.546497802734375,-0.4525918960571289,-1.0205612182617188,-0.34565067291259766
1789323575511349200,8.565349365234376,0.011972904205322266,0.35990285873413086,0.8818118572235107
1789323575530200800,8.584200927734376,-0.24615192413330078,-0.3827829360961914,1.4881420135498047
1789323575549052200,8.60305224609375,-1.511573314666748,-1.158409595489502,-0.14262628555297852
1789323575567903700,8.62190380859375,-3.1344032287597656,-0.7920141220092773,0.1267228126525879
1789323575586755000,8.640755126953126,-2.6882200241088867,-0.10848116874694824,0.20394325256347656
1789323575605606700,8.659606689453126,-2.747999668121338,0.5031876564025879,1.6811468601226807
1789323575624458000,8.6784580078125,-1.9085793495178223,2.2411255836486816,2.7820825576782227
1789323575643309600,8.6973095703125,-4.852562427520752,1.3620482683181763,2.62786602973938
1789323575662161000,8.716160888671874,-0.9529075622558594,2.926802635192871,4.546212196350098
1789323575681012500,8.735012451171874,-2.979543685913086,2.244050979614258,0.9599409103393555
1789323575699863800,8.75386376953125,-2.5769171714782715,0.8973045349121094,0.8599731922149658
1789323575718715100,8.772715087890624,-3.3221755027770996,1.2978026866912842,0.6317541599273682
1789323575737566700,8.791566650390624,-2.3935794830322266,1.2071938514709473,0.4946315288543701
1789323575756418000,8.81041796875,-3.6805620193481445,1.7352193593978882,1.994568943977356
1789323575775269600,8.82926953125,0.15668964385986328,2.4475321769714355,3.434267520904541
1789323575794121000,8.848120849609375,-1.7110657691955566,2.3546066284179688,1.4361577033996582
1789323575812972500,8.86697265625,-2.341766834259033,2.080941677093506,0.7779889106750488
1789323575831824000,8.885823974609375,-2.493259906768799,2.2522640228271484,0.19721555709838867
1789323575850675500,8.904675537109375,-0.602938175201416,2.691706895828247,0.9695675373077393
1789323575869526800,8.92352685546875,-1.719191551208496,2.361783504486084,0.9814932346343994
1789323575888378400,8.94237841796875,-0.8758406639099121,0.1541581153869629,0.06534743309020996
1789323575907229700,8.961229736328125,-0.899388313293457,-1.0035948753356934,0.1178884506225586
1789323575926081300,8.980081298828125,0.14151430130004883,-2.074080467224121,-0.8128261566162109
1789323575944932600,8.9989326171875,1.0711822509765625,-2.435408592224121,0.023288488388061523
1789323575963784000,9.017783935546875,-0.8459043502807617,-2.9680042266845703,-1.126589059829712
1789323575982635500,9.036635498046875,0.38332271575927734,-3.484823226928711,-0.4930903911590576
1789323576001486800,9.05548681640625,1.3719868659973145,-4.332107067108154,-0.08648300170898438
1789323576020338400,9.07433837890625,1.4271035194396973,-5.538830757141113,-1.7341511249542236
1789323576039189800,9.093189697265625,2.12412166595459,-5.088139533996582,-1.4732728004455566
1789323576058041300,9.112041259765626,2.8298983573913574,-3.0369138717651367,-1.017958164215088
1789323576076892700,9.130892578125,2.8198094367980957,-0.8251171112060547,-1.3403956890106201
1789323576095744300,9.149744140625,1.6530020236968994,1.8245182037353516,-1.5274443626403809
1789323576114595600,9.168595703125,0.7301080226898193,3.6300230026245117,-0.821526050567627
1789323576133447200,9.187447265625,2.072939872741699,3.9616360664367676,-1.0222446918487549
1789323576152298500,9.206298583984376,1.9091849327087402,2.2638888359069824,0.5670514106750488
1789323576171149800,9.22514990234375,3.3207483291625977,-0.553339958190918,-1.1733150482177734
1789323576190001400,9.24400146484375,3.466249465942383,-3.4458961486816406,-1.727952480316162
1789323576208852700,9.262852783203124,3.462472438812256,-4.6677961349487305,-2.6114063262939453
1789323576227704300,9.281704345703124,1.5415620803833008,-3.6468629837036133,-1.616063117980957
1789323576246555600,9.3005556640625,1.9500651359558105,-3.7587718963623047,-1.4751381874084473
1789323576265407200,9.3194072265625,1.3504514694213867,-4.734840393066406,-0.6447732448577881
1789323576284258600,9.338258544921874,0.7346692085266113,-4.222353458404541,0.5336194038391113
1789323576303110100,9.357110107421875,1.1646461486816406,-2.4695301055908203,0.4345591068267822
1789323576321961500,9.37596142578125,-0.40732908248901367,-1.5489354133605957,-0.16179966926574707
1789323576340813000,9.39481298828125,-1.3882479667663574,-0.5430140495300293,-0.062459707260131836
1789323576359664400,9.413664306640625,-1.5938448905944824,0.43596601486206055,-0.30204319953918457
1789323576378515700,9.432515625,-1.7019233703613281,1.176651954650879,-0.889378547668457
1789323576397367300,9.4513671875,-1.9578757286071777,1.2346487045288086,-0.5656468868255615
1789323576416218600,9.470218505859375,-1.1794519424438477,1.457618236541748,-0.1823892593383789
1789323576435070200,9.4890703125,-1.9326329231262207,0.5869002342224121,-0.2542588710784912
1789323576453921500,9.507921630859375,-2.6216111183166504,1.1499214172363281,0.6749703884124756
1789323576472773000,9.526773193359375,-1.9104948043823242,1.7301177978515625,0.5372943878173828
1789323576491624400,9.54562451171875,0.18512678146362305,0.1997823715209961,1.618046522140503
1789323576510476000,9.56447607421875,-0.21873140335083008,-1.389965534210205,1.5714777708053589
1789323576529327400,9.583327392578125,-1.339073657989502,-2.0111632347106934,2.0680606365203857
1789323576548179000,9.602178955078125,1.1151933670043945,-1.7707600593566895,-0.49431872367858887
1789323576567030300,9.6210302734375,1.0446949005126953,-3.742288112640381,-1.1833107471466064
1789323576585881900,9.6398818359375,-0.5972757339477539,-0.41115450859069824,0.7364795207977295
1789323576604733200,9.658733154296876,-0.14492511749267578,2.4396939277648926,0.06331801414489746
1789323576623584500,9.67758447265625,1.9496383666992188,-0.06362271308898926,1.1006615161895752
1789323576642436000,9.69643603515625,-3.861299991607666,1.126237392425537,0.5815742015838623
1789323576661287400,9.715287353515626,-2.860471248626709,0.10979533195495605,0.7823071479797363
1789323576680139000,9.734138916015626,-3.7714552879333496,0.703528881072998,1.6124581098556519
1789323576698990300,9.752990234375,-3.466348171234131,2.045203685760498,3.115682363510132
1789323576717842000,9.771842041015624,-5.273832321166992,1.5816261768341064,1.8485502004623413
1789323576736693200,9.790693359375,-5.166092395782471,2.220834732055664,5.025486946105957
1789323576755544600,9.809544677734374,-2.7362589836120605,2.823385715484619,2.5320558547973633
1789323576774396200,9.828396240234374,-5.594252586364746,2.403691053390503,3.6828908920288086
1789323576793247700,9.847247802734374,-1.9340529441833496,3.904266834259033,3.934175968170166
1789323576812099000,9.86609912109375,0.5292463302612305,4.026057720184326,2.673816204071045
1789323576830950400,9.884950439453124,0.22548389434814453,2.8751611709594727,1.6118769645690918
1789323576849802000,9.903802001953125,0.6702837944030762,1.992077350616455,-1.1074423789978027
1789323576868653300,9.9226533203125,0.6632294654846191,-3.4747161865234375,-1.6267821788787842
1789323576887505000,9.9415048828125,1.9227228164672852,-7.386375904083252,-3.203458070755005
1789323576906356200,9.960356201171875,0.5305171012878418,-7.397606372833252,-1.2523903846740723
1789323576925207800,9.979207763671875,-0.03682994842529297,-4.1288323402404785,-0.7363736629486084
1789323576944059100,9.99805908203125,1.1404304504394531,-1.7787866592407227,-0.3510591983795166
1789323576962910500,10.016910400390625,1.2953972816467285,0.07131099700927734,-0.6304450035095215
1789323576981762000,10.035761962890625,0.21988821029663086,1.4129605293273926,-2.471724271774292
1789323577000613400,10.05461328125,-0.60382080078125,2.0187864303588867,-1.4274866580963135
1789323577019465000,10.07346484375,1.9244155883789062,2.5437417030334473,-1.2485744953155518
1789323577038316300,10.09231640625,2.1120729446411133,1.281219482421875,-1.0493006706237793
1789323577057168000,10.11116796875,1.9348211288452148,-1.3932561874389648,-1.7844436168670654
1789323577076019200,10.130019287109375,1.3905529975891113,-2.530339241027832,-1.6288914680480957
1789323577094870500,10.14887060546875,1.933215618133545,-2.7942886352539062,-0.4518461227416992
1789323577113722000,10.16772216796875,3.3793535232543945,-3.9078493118286133,0.1377108097076416
1789323577132573400,10.186573486328125,2.5733823776245117,-4.723668098449707,-0.20688319206237793
1789323577151425000,10.205425048828126,3.2755789756774902,-4.3748579025268555,-1.0608150959014893
1789323577170276400,10.2242763671875,1.9595146179199219,-2.143434524536133,0.18985748291015625
1789323577189128000,10.2431279296875,1.348731517791748,-1.0651006698608398,-0.131089448928833
1789323577207979300,10.261979248046876,0.6452169418334961,-0.09248065948486328,-0.5070583820343018
1789323577226830800,10.280830810546876,0.09179830551147461,0.18703413009643555,-1.0705630779266357
1789323577245682200,10.29968212890625,0.31517934799194336,-0.23543882369995117,-0.09996175765991211
1789323577264533500,10.318533447265626,0.771906852722168,-0.6015439033508301,-1.4168314933776855
1789323577283385000,10.337385009765624,-0.2851295471191406,-0.7758936882019043,-1.0878376960754395
1789323577302236400,10.356236328125,0.42468881607055664,-0.3177070617675781,-1.17905592918396
1789323577330513700,10.384513671875,-2.323772430419922,-0.1902456283569336,-1.3829116821289062
1789323577349365000,10.403364990234374,-1.7089452743530273,1.3652029037475586,-1.0130643844604492
1789323577368216600,10.422216552734374,-1.5984373092651367,1.7124266624450684,-0.6470754146575928
1789323577387068000,10.44106787109375,0.5683698654174805,0.03828096389770508,0.9869093894958496
1789323577405919500,10.45991943359375,4.08988094329834,-2.1749234199523926,-0.8341972827911377
1789323577424770800,10.478770751953125,2.5532236099243164,-5.968210220336914,-1.9835140705108643
1789323577443622100,10.4976220703125,2.452874183654785,-4.238305568695068,-4.003962993621826
1789323577462473700,10.5164736328125,-0.9149017333984375,-3.230219841003418,-1.1210193634033203
1789323577481325000,10.535324951171875,-2.5713930130004883,1.1025457382202148,-1.0522181987762451
1789323577500176600,10.5541767578125,-4.183917999267578,2.398845672607422,-0.6841621398925781
1789323577519028000,10.573028076171875,-1.0561695098876953,0.6386158466339111,-1.2233545780181885
1789323577537879600,10.591879638671875,-1.872809886932373,-0.2935757637023926,0.6306924819946289
1789323577556731000,10.61073095703125,-5.361134052276611,-0.13769912719726562,0.11103010177612305
1789323577575582200,10.629582275390625,-5.960249423980713,1.159177303314209,4.28654670715332
1789323577594433800,10.648433837890625,-4.85105037689209,1.125497579574585,2.767977476119995
1789323577613285000,10.66728515625,-4.853980541229248,2.064648389816284,4.563189506530762
1789323577632136700,10.68613671875,-1.760885238647461,2.6924679279327393,2.3147215843200684
1789323577650988000,10.704988037109375,0.542231559753418,1.183750867843628,1.184898018836975
1789323577669839600,10.723839599609375,-6.545808792114258,0.8844802379608154,-0.7317357063293457
1789323577688691000,10.74269091796875,-3.138551712036133,1.2593367099761963,1.7282660007476807
1789323577707542300,10.761542236328125,-0.8197875022888184,1.8292322158813477,1.780121922492981
1789323577726393900,10.780393798828126,-3.4894938468933105,1.0856952667236328,1.209703803062439
1789323577745245200,10.7992451171875,-2.255016326904297,1.3409733772277832,1.4768418073654175
1789323577764096800,10.8180966796875,-3.1170029640197754,1.672926664352417,-0.3128790855407715
1789323577782948000,10.836947998046876,-0.23250722885131836,1.5398306846618652,0.7110846042633057
1789323577801799400,10.85579931640625,-0.021300792694091797,2.53432035446167,0.13622808456420898
1789323577820651000,10.874651123046876,-2.438249111175537,1.6744489669799805,0.3794670104980469
1789323577839502300,10.89350244140625,-0.18408441543579102,-0.6085524559020996,-0.08571958541870117
1789323577858354000,10.91235400390625,2.632389545440674,-1.5618314743041992,-0.3393683433532715
1789323577877205200,10.931205322265624,-0.23719263076782227,-4.2565202713012695,-2.460941791534424
1789323577914908200,10.968908203125,-2.975973606109619,-4.18269157409668,-1.1791918277740479
1789323577933759500,10.987759521484374,-0.2576937675476074,-1.3241167068481445,0.36817216873168945
1789323577952611000,11.006611083984374,3.055844306945801,1.1846184730529785,0.5332486629486084
1789323577971462400,11.02546240234375,3.1531882286071777,0.0947418212890625,-0.6331801414489746
1789323577990313700,11.044313720703125,2.4194469451904297,-1.8852348327636719,-2.569925308227539
1789323578009165300,11.063165283203125,0.9586367607116699,-2.053680419921875,-2.826465129852295
1789323578028016600,11.0820166015625,1.3427762985229492,-0.5018424987792969,-1.2952017784118652
1789323578046868000,11.100867919921875,3.5219669342041016,-1.7665138244628906,-0.24501585960388184
1789323578065719600,11.119719482421875,3.8623733520507812,-5.461739540100098,-1.7052395343780518
1789323578084571000,11.13857080078125,2.6875481605529785,-5.002816200256348,-1.2983789443969727
1789323578103422500,11.15742236328125,3.855912685394287,-1.8718290328979492,-1.057396650314331
1789323578122273800,11.176273681640625,1.4527244567871094,-1.6403179168701172,0.040924787521362305
1789323578141125000,11.195125,0.7087879180908203,-2.8557605743408203,0.7086811065673828
1789323578159976700,11.213976806640625,0.8132114410400391,-1.8170175552368164,0.9752190113067627
1789323578178828000,11.232828125,0.35195207595825195,-0.588496208190918,0.2926754951477051
1789323578197679600,11.2516796875,-0.6548604965209961,0.844853401184082,-0.07932829856872559
1789323578216531000,11.270531005859375,-1.300602912902832,1.7791762351989746,-0.5444016456604004
1789323578235382300,11.28938232421875,-1.6387574672698975,1.876023292541504,-0.4016866683959961
1789323578254233900,11.30823388671875,-0.7510228157043457,1.614461898803711,-0.215681791305542
1789323578273085200,11.327085205078125,0.8783087730407715,0.8574366569519043,-0.41840219497680664
1789323578291936500,11.3459365234375,0.9553804397583008,-1.1569523811340332,-0.7314205169677734
1789323578310788000,11.3647880859375,0.8574457168579102,-2.0639219284057617,-1.891545295715332
1789323578329639400,11.383639404296876,0.5891013145446777,-1.9159479141235352,-2.0913662910461426
1789323578348491000,11.402490966796876,0.5614104270935059,-1.6493048667907715,-1.888756275177002
1789323578367342300,11.42134228515625,0.08017492294311523,-1.1785731315612793,-0.7040870189666748
1789323578386193700,11.440193603515626,1.3055124282836914,-0.17486572265625,-1.000744104385376
1789323578405045200,11.459045166015626,2.8062539100646973,-1.387382984161377,0.10440754890441895
1789323578423896600,11.477896484375,0.6411013603210449,-2.379055976867676,0.2905871868133545
1789323578442748000,11.496747802734374,-3.5623011589050293,-1.7178339958190918,0.11822986602783203
1789323578471025200,11.525025146484374,-2.016404151916504,0.2980217933654785,0.3702857494354248
1789323578489876500,11.54387646484375,-0.6468353271484375,-1.0420475006103516,0.30930447578430176
1789323578508728000,11.56272802734375,-1.9629907608032227,0.027770280838012695,1.9376883506774902
1789323578527579400,11.581579345703124,-1.934473991394043,0.5030040740966797,2.312329053878784
1789323578546430700,11.6004306640625,-4.041338920593262,-0.4878957271575928,2.146825075149536
1789323578565282300,11.6192822265625,-4.197056770324707,-0.24916601181030273,1.7494356632232666
1789323578584133600,11.638133544921875,-2.7519121170043945,1.543445348739624,3.7167391777038574
1789323578602985000,11.65698486328125,-4.853096961975098,1.5549952983856201,1.3059358596801758
1789323578621836500,11.67583642578125,-4.612925052642822,2.5854763984680176,4.40017557144165
1789323578640687900,11.69468798828125,-3.7076025009155273,3.030682325363159,3.4186453819274902
1789323578668965000,11.722965087890625,-1.2394723892211914,3.183840751647949,2.2505922317504883
1789323578687816400,11.74181640625,-2.125441551208496,2.6089954376220703,2.290971517562866
1789323578706667800,11.760667724609375,-1.0427160263061523,2.366896390914917,0.9977242946624756
1789323578725519400,11.779519287109375,0.48468875885009766,1.6947236061096191,0.673792839050293
1789323578744370700,11.79837060546875,-0.21767902374267578,0.3306865692138672,-0.8967399597167969
1789323578763222300,11.81722216796875,-0.02366161346435547,-2.1165518760681152,-0.9979252815246582
1789323578782073600,11.836073486328125,0.47124671936035156,-3.416578769683838,-1.3744773864746094
1789323578800925000,11.854925048828125,1.7309527397155762,-3.6174440383911133,-0.5628359317779541
1789323578819776300,11.8737763671875,1.4090843200683594,-2.876368522644043,-0.38141322135925293
1789323578838627800,11.8926279296875,0.30890512466430664,-2.876354217529297,-0.4840662479400635
1789323578857479200,11.911479248046875,-0.8214960098266602,-2.012925624847412,0.024913787841796875
1789323578876330500,11.93033056640625,-0.2189493179321289,-0.7000956535339355,0.10103821754455566
1789323578895182000,11.94918212890625,1.395646095275879,0.48540544509887695,-0.5349793434143066
1789323578914033400,11.968033447265626,1.5391631126403809,1.669858455657959,-0.7506988048553467
1789323578932884700,11.986884765625,1.528028964996338,-0.1452465057373047,-1.19520902633667
1789323578961162000,12.015161865234376,1.392669677734375,-1.6376380920410156,-1.6228599548339844
1789323578980013300,12.034013427734376,1.8299355506896973,-1.2800588607788086,-0.07211494445800781
1789323579008290600,12.06229052734375,1.3435707092285156,-1.127279281616211,0.3542301654815674
1789323579027142000,12.081141845703126,2.007377862930298,-1.851241111755371,-0.4136497974395752
1789323579045993200,12.0999931640625,3.1036343574523926,-3.1124801635742188,-1.0636494159698486
1789323579064844800,12.1188447265625,3.190249443054199,-3.119626045227051,-0.9413158893585205
1789323579083696000,12.137696044921874,2.2690529823303223,-0.704742431640625,-0.2974357604980469
1789323579102547500,12.15654736328125,1.9128732681274414,-0.22085952758789062,-0.1725778579711914
1789323579121399000,12.17539892578125,1.168078899383545,-0.9969301223754883,-0.8928472995758057
1789323579140250400,12.19425048828125,-0.05482196807861328,-1.126631736755371,-0.49338746070861816
1789323579159101700,12.213101806640625,-0.4154672622680664,-0.1753225326538086,-0.2299954891204834
1789323579177953000,12.231953125,0.15736865997314453,0.21793699264526367,0.02447986602783203
1789323579196804600,12.2508046875,0.871558666229248,-0.9427251815795898,-0.11827397346496582
1789323579215656000,12.269656005859375,0.7060322761535645,-1.8300633430480957,-0.7673523426055908
1789323579234507300,12.28850732421875,0.005839824676513672,-1.2879109382629395,-1.4289889335632324
1789323579262784500,12.316784423828125,-0.7784581184387207,0.694786548614502,-0.9393210411071777
1789323579281635800,12.3356357421875,-0.7011203765869141,-0.10866308212280273,-0.10839152336120605
1789323579300487200,12.354487060546875,0.9905281066894531,-0.5662908554077148,0.11736488342285156
1789323579319338800,12.3733388671875,1.19854736328125,-1.1777458190917969,-2.1561577320098877
1789323579338190000,12.392190185546875,0.30980443954467773,-1.8482418060302734,-2.3718314170837402
1789323579357041400,12.41104150390625,0.9846196174621582,-0.4087395668029785,-1.7678277492523193
1789323579375893000,12.42989306640625,1.0076870918273926,-2.2614526748657227,-0.7498142719268799
1789323579394744300,12.448744384765625,-0.8734393119812012,-2.8194727897644043,0.07830929756164551
1789323579413595600,12.467595703125,-1.8241586685180664,-0.02733135223388672,-0.44741249084472656
1789323579432447000,12.486447021484375,-1.5229015350341797,-0.5918464660644531,-0.29459118843078613
1789323579451298600,12.505298583984375,-1.9630036354064941,-0.21443796157836914,-0.8560042381286621
1789323579470150000,12.52414990234375,-5.465215682983398,0.6820278167724609,0.6737649440765381
1789323579489001200,12.543001220703125,-4.852304935455322,3.5518505573272705,2.4051148891448975
1789323579507852800,12.561852783203125,-3.006091594696045,2.778252124786377,3.4035868644714355
1789323579526704000,12.5807041015625,-5.101069927215576,1.5921690464019775,2.5822455883026123
1789323579545555500,12.599555419921876,-3.200937271118164,1.7133201360702515,2.7349586486816406
1789323579564406800,12.61840673828125,-2.793588638305664,-0.5324530601501465,1.5501030683517456
1789323579583258400,12.63725830078125,-3.784031391143799,0.6286094188690186,0.29953432083129883
1789323579602109700,12.656109619140626,-3.562349319458008,0.1583240032196045,2.1862289905548096
1789323579620961000,12.6749609375,0.3809061050415039,1.4806475639343262,2.329463481903076
1789323579639812400,12.693812255859376,-3.2898850440979004,1.5154716968536377,1.404504418373108
1789323579658664000,12.712663818359376,-1.4850120544433594,2.5071985721588135,0.36468505859375
1789323579677515300,12.731515380859374,-3.0278592109680176,2.5163235664367676,0.3628528118133545
1789323579696366600,12.75036669921875,-1.0348410606384277,2.398003339767456,0.40846705436706543
1789323579715218000,12.769218017578124,-2.063265323638916,1.9032800197601318,0.08002543449401855
1789323579734069500,12.788069580078124,-0.9472589492797852,-0.37201976776123047,-0.8736283779144287
1789323579752920800,12.8069208984375,-1.8837018013000488,-1.1162776947021484,0.3614516258239746
1789323579771772200,12.825772216796874,-0.7030630111694336,-0.3238711357116699,-0.554025411605835
1789323579790623500,12.84462353515625,-0.1134185791015625,-0.19761180877685547,-0.8983988761901855
1789323579809475000,12.86347509765625,1.2796635627746582,-0.20177745819091797,-2.397526264190674
1789323579828326400,12.882326416015625,2.439443588256836,-1.5902023315429688,-3.653339385986328
1789323579847177700,12.901177734375,3.602684497833252,-4.957688808441162,-5.525574207305908
1789323579866029000,12.920029052734375,1.4249062538146973,-10.110990524291992,-5.703997611999512
1789323579884880600,12.938880615234375,2.459350109100342,-9.68020248413086,-0.4462854862213135
1789323579903732000,12.95773193359375,2.9529218673706055,-4.399388313293457,3.2531111240386963
1789323579922583300,12.976583251953125,1.7409863471984863,-2.988776206970215,0.9316692352294922
1789323579941434600,12.9954345703125,1.4814972877502441,-0.19026470184326172,-1.3348708152770996
1789323579960286000,13.014285888671875,0.8179745674133301,1.929647445678711,-1.7645435333251953
1789323579979137500,13.033137451171875,0.7838821411132812,2.5907301902770996,-1.995816946029663
1789323579997988900,13.05198876953125,0.710319995880127,1.4323983192443848,-0.6920719146728516
1789323580016840200,13.070840087890625,0.966402530670166,-0.33301734924316406,-0.35932207107543945
1789323580035691500,13.08969140625,-0.3383951187133789,0.5959973335266113,0.6965678930282593
1789323580054543000,13.108543212890625,-0.8657917976379395,1.4759702682495117,0.7652428150177002
1789323580073394400,13.12739453125,-1.1138930320739746,1.6382112503051758,1.048732042312622
1789323580092245800,13.146245849609375,-0.7303285598754883,1.0275001525878906,0.8398380279541016
1789323580111097000,13.16509716796875,-0.8505644798278809,-0.21140241622924805,1.174012541770935
1789323580129948400,13.183948486328125,0.5764827728271484,-0.7820072174072266,0.09514451026916504
1789323580148800000,13.202800048828125,2.2195591926574707,-2.448639392852783,-0.8857448101043701
1789323580167651300,13.2216513671875,3.4834961891174316,-4.843922138214111,-1.7185781002044678
1789323580186502700,13.240502685546875,3.5335640907287598,-4.305437088012695,-2.6923599243164062
1789323580205354000,13.25935400390625,1.6792211532592773,-2.3391075134277344,-3.449927568435669
1789323580224205300,13.278205322265626,0.20984268188476562,-0.4179973602294922,-1.7886250019073486
1789323580243057000,13.297056884765626,1.451995849609375,-0.08539009094238281,-1.9732723236083984
1789323580261908200,13.315908203125,0.8463568687438965,-2.173595905303955,-2.3635761737823486
1789323580280759600,13.334759521484376,-0.46811962127685547,-1.4590744972229004,-2.7013587951660156
1789323580299611000,13.35361083984375,-2.7747182846069336,-0.4473752975463867,-0.6213397979736328
1789323580318462200,13.372462158203126,-2.226628303527832,0.02343463897705078,2.6462178230285645
1789323580337313800,13.391313720703126,-1.236299991607666,-0.847022533416748,2.0907983779907227
1789323580356165000,13.4101650390625,-4.27750301361084,-2.617919445037842,1.0884616374969482
1789323580375016400,13.429016357421874,-4.271071434020996,-0.9471964836120605,1.136436104774475
1789323580393867800,13.44786767578125,-2.6002397537231445,0.46152210235595703,2.098961353302002
1789323580422145000,13.47614501953125,-0.5690488815307617,1.0978810787200928,2.9037089347839355
1789323580440996400,13.494996337890624,-1.16221284866333,1.065335988998413,1.282842993736267
1789323580459847700,13.51384765625,-3.216365337371826,0.42246437072753906,0.804473876953125
1789323580478699000,13.532698974609374,-1.991048812866211,0.9172065258026123,1.4470548629760742
1789323580497550300,13.55155029296875,-0.8708434104919434,0.9443023204803467,1.8394747972488403
1789323580516401700,13.570401611328125,-4.040059566497803,1.1771389245986938,0.33147287368774414
1789323580535253200,13.589253173828125,-6.279541969299316,1.7789005041122437,0.5597012042999268
1789323580554104600,13.6081044921875,-3.3648157119750977,2.7838964462280273,3.9116029739379883
1789323580572956000,13.626955810546875,-0.9532136917114258,4.061738014221191,4.304689884185791
1789323580591807200,13.64580712890625,-3.427067279815674,3.0138230323791504,2.728274345397949
1789323580610658600,13.664658447265625,-3.8474044799804688,2.8489646911621094,1.4699251651763916
1789323580629510100,13.68351025390625,0.3525218963623047,2.467604875564575,1.6590681076049805
1789323580648361500,13.702361572265625,-1.5792407989501953,1.9945971965789795,-0.4050753116607666
1789323580667212800,13.721212890625,-0.6503825187683105,-0.7819252014160156,0.6782748699188232
1789323580686064000,13.740064208984375,0.32694149017333984,-2.9963440895080566,-1.2367613315582275
1789323580704915500,13.75891552734375,-0.008329391479492188,-3.411351203918457,-1.4541904926300049
1789323580723766800,13.777766845703125,0.4495100975036621,-2.492180824279785,-1.710597276687622
1789323580742618400,13.796618408203125,0.8957118988037109,-2.4602556228637695,-0.31107187271118164
1789323580761469700,13.8154697265625,1.2211852073669434,-2.7151122093200684,0.09169983863830566
1789323580780321000,13.834321044921875,0.37337684631347656,-3.3273558616638184,-0.8567228317260742
1789323580799172400,13.85317236328125,-0.0574955940246582,-2.270030975341797,-1.0132958889007568
1789323580818023700,13.872023681640625,1.1432900428771973,-0.08091449737548828,-0.8500590324401855
1789323580836875000,13.890875,2.9193315505981445,0.1139211654663086,-0.9278924465179443
1789323580855726300,13.909726318359375,2.1232213973999023,-2.6319103240966797,-1.4914164543151855
1789323580874577700,13.92857763671875,1.4579722881317139,-2.868645668029785,-1.617152214050293
1789323580893429200,13.94742919921875,2.6866273880004883,-1.3591327667236328,-0.8190393447875977
1789323580912280600,13.966280517578125,2.789060592651367,-0.9254589080810547,0.4692726135253906
1789323580931132000,13.9851318359375,2.1693434715270996,-0.19312667846679688,-0.8968939781188965
1789323580949983200,14.003983154296876,0.850693941116333,0.8483963012695312,-0.6346580982208252
1789323580968834600,14.02283447265625,1.593869924545288,1.370863914489746,-0.019967317581176758
1789323580987686000,14.041685791015626,2.1643714904785156,0.7069125175476074,-0.3280172348022461
1789323581006537200,14.060537109375,2.3145551681518555,-1.643620491027832,-0.41971588134765625
1789323581025388500,14.079388427734376,2.2273778915405273,-4.514101982116699,0.21343731880187988
1789323581044240100,14.098240234375,0.7380576133728027,-3.1938867568969727,1.3355532884597778
1789323581063091500,14.117091552734376,0.2546520233154297,-0.25521183013916016,0.6532769203186035
1789323581081942800,14.13594287109375,0.32702159881591797,0.4887199401855469,0.09277892112731934
1789323581100794000,14.154794189453124,1.4222207069396973,-1.1409807205200195,-0.8718032836914062
1789323581119645400,14.1736455078125,1.5969839096069336,-2.8044471740722656,-2.252286195755005
1789323581138496800,14.192496826171874,2.159898281097412,-2.494058609008789,-2.513334035873413
1789323581157348000,14.21134814453125,0.7358059883117676,-2.1687021255493164,-2.8300790786743164
1789323581176199400,14.230199462890624,-1.1569952964782715,-0.8851213455200195,-1.1259362697601318
1789323581195051000,14.249051025390624,-1.7926931381225586,0.8295931816101074,0.7718901634216309
1789323581213902300,14.26790234375,-1.9709835052490234,1.5242176055908203,1.071913719177246
1789323581232753700,14.286753662109374,-1.7912869453430176,0.4464998245239258,0.5824787616729736
1789323581251605000,14.30560498046875,-1.385030746459961,-0.34744739532470703,0.2651407718658447
1789323581279882000,14.333882080078125,3.031893253326416,-0.7515687942504883,0.842008113861084
1789323581298733300,14.3527333984375,3.950969696044922,-3.969451904296875,0.6621031761169434
1789323581317584600,14.371584716796875,-0.8070921897888184,-3.6383867263793945,0.36647510528564453
1789323581336436000,14.39043603515625,-3.4333481788635254,-0.6674060821533203,-0.844841718673706
1789323581355287300,14.409287353515625,-2.436631202697754,0.6244635581970215,-0.2948431968688965
1789323581374139000,14.428138916015625,-2.3621721267700195,1.3469808101654053,0.9897522926330566
1789323581392990200,14.446990234375,-2.812328815460205,1.5657541751861572,1.8107129335403442
1789323581411841500,14.465841552734375,-3.8841161727905273,1.5073034763336182,2.616363525390625
1789323581430692900,14.48469287109375,-5.678709983825684,1.6691181659698486,2.56247615814209
1789323581449544200,14.503544189453125,-3.2946763038635254,3.162586212158203,5.445013523101807
1789323581468395500,14.5223955078125,-1.7830801010131836,2.012887477874756,3.4393036365509033
1789323581487246800,14.541246826171875,-3.6040420532226562,2.3618297576904297,2.7124009132385254
1789323581515523800,14.56952392578125,-1.4300718307495117,2.2886862754821777,0.9115855693817139
1789323581534375200,14.588375244140625,-1.3852763175964355,1.1844077110290527,0.8573110103607178
1789323581553226500,14.6072265625,-2.8578758239746094,1.835801601409912,1.381922960281372
1789323581572077800,14.626077880859375,-2.6546120643615723,1.7742719650268555,0.7026903629302979
1789323581590929200,14.64492919921875,-0.48873472213745117,1.097780704498291,1.605400562286377
1789323581609780500,14.663780517578125,-1.117391586303711,0.5684490203857422,1.413602352142334
1789323581628632000,14.682632080078125,-0.7403898239135742,-0.6554603576660156,0.7649416923522949
1789323581647483400,14.7014833984375,-0.15376996994018555,-1.8820252418518066,1.5519959926605225
1789323581666334700,14.720334716796875,0.2963099479675293,-1.3408184051513672,0.5056636333465576
1789323581685186000,14.73918603515625,-0.9357967376708984,-2.0382614135742188,0.21832823753356934
1789323581704037400,14.758037353515626,-0.03609037399291992,-1.7041826248168945,-0.1158745288848877
1789323581722888700,14.776888671875,1.4816627502441406,-2.259382724761963,-0.7131147384643555
1789323581741740000,14.795739990234376,1.5986428260803223,-2.9468202590942383,-1.9551301002502441
1789323581760591400,14.81459130859375,0.373776912689209,-2.2856497764587402,-1.8081080913543701
1789323581779442700,14.833442626953126,0.8592476844787598,-0.9175024032592773,-0.37799572944641113
1789323581798294000,14.8522939453125,3.779019355773926,-0.40926170349121094,0.10880875587463379
1789323581817145300,14.871145263671876,3.038860321044922,-1.8271751403808594,0.34712862968444824
1789323581835996700,14.88999658203125,2.61970591545105,-2.6949825286865234,-1.3801610469818115
1789323581854848000,14.908847900390626,3.2479310035705566,-1.822042465209961,-1.8169357776641846
1789323581873699300,14.92769921875,4.084820747375488,-3.3331832885742188,-0.7896957397460938
1789323581892550700,14.946550537109376,4.260966777801514,-5.369670867919922,-1.0042624473571777
1789323581911402000,14.965402099609374,2.101435899734497,-1.2517375946044922,0.5177402496337891
1789323581930253300,14.98425341796875,2.290963888168335,0.8639726638793945,0.5223417282104492
1789323581949104600,15.003104736328124,1.7954645156860352,-0.37168121337890625,0.24822068214416504
1789323581967956000,15.0219560546875,1.033740520477295,-1.5079174041748047,0.6746912002563477
1789323581986807300,15.040807373046874,0.6869020462036133,-0.768885612487793,0.4626798629760742
1789323582005658600,15.05965869140625,-0.30502986907958984,0.45348358154296875,1.8924390077590942
1789323582024510000,15.078510009765624,-0.12188243865966797,1.4687891006469727,1.017533779144287
1789323582043361300,15.097361328125,-0.9161558151245117,1.4106206893920898,1.504973292350769
1789323582062212600,15.116212646484374,0.1416473388671875,0.7108044624328613,0.6786766052246094
1789323582081064000,15.13506396484375,0.6926140785217285,-0.020551681518554688,0.04284787178039551
1789323582099915300,15.153915283203125,1.4010186195373535,-0.9869709014892578,-0.8888595104217529
1789323582118766600,15.1727666015625,1.122208595275879,-1.5521249771118164,-1.2049391269683838
1789323582137618000,15.191617919921875,1.6337628364562988,-1.163492202758789,-1.6166205406188965
1789323582156469200,15.21046923828125,1.5437450408935547,-0.9452462196350098,-0.2874870300292969
1789323582175320600,15.229320556640625,2.5796194076538086,-1.3550324440002441,-1.2635703086853027
1789323582194172000,15.248171875,1.225377082824707,-2.6772823333740234,-2.1074838638305664
1789323582213023200,15.267023193359375,1.835505485534668,-1.351212978363037,-0.767174243927002
1789323582231874600,15.28587451171875,1.4474639892578125,-1.062692642211914,0.5043966770172119
1789323582250726000,15.304725830078125,-0.8769683837890625,-1.4714784622192383,0.19315552711486816
1789323582269577200,15.3235771484375,-2.077803611755371,0.7332782745361328,-0.2434844970703125
1789323582288428500,15.342428466796875,0.17592334747314453,0.29021763801574707,0.5167722702026367
1789323582307280000,15.36127978515625,0.18827056884765625,-1.582167148590088,0.4931807518005371
1789323582326131200,15.380131103515625,-2.0361337661743164,-1.4358501434326172,1.7495105266571045
1789323582344982500,15.398982421875,-3.834566116333008,-0.11790204048156738,1.054600477218628
1789323582363833900,15.417833740234375,-4.335671901702881,1.1937777996063232,3.4990904331207275
1789323582392110800,15.44611083984375,-3.5412330627441406,2.3520188331604004,3.4434866905212402
1789323582410962000,15.4649619140625,-4.417209625244141,1.7310502529144287,2.7414627075195312
1789323582429813200,15.483813232421875,-5.42684268951416,2.039719343185425,2.1286091804504395
1789323582448664600,15.50266455078125,-3.7591676712036133,1.9231131076812744,4.204206943511963
1789323582467516000,15.521515869140625,-1.9173498153686523,2.5901832580566406,2.7171549797058105
1789323582486367200,15.5403671875,-4.403316020965576,0.9924211502075195,2.083616256713867
1789323582505218600,15.559218505859375,-1.569262981414795,2.693037986755371,3.2873876094818115
1789323582524070000,15.57806982421875,-1.5531420707702637,3.2090535163879395,0.728341817855835
1789323582542921200,15.596921142578125,1.4033527374267578,3.2642717361450195,0.7119796276092529
1789323582561772500,15.6157724609375,1.8647074699401855,2.8955814838409424,-0.7627029418945312
1789323582580624000,15.634623779296875,-0.5995907783508301,-0.43692922592163086,-2.03993558883667
1789323582599475200,15.65347509765625,0.5919027328491211,-3.9121522903442383,-2.5946810245513916
1789323582618326500,15.672326416015625,0.3903636932373047,-5.483646392822266,-1.6627962589263916
1789323582637177600,15.691177490234375,0.9226827621459961,-5.28557014465332,-0.6055071353912354
1789323582665454600,15.71945458984375,2.1382617950439453,-3.807188034057617,-1.3327927589416504
1789323582684306000,15.738305908203126,3.2824625968933105,-3.133537769317627,-1.691666841506958
1789323582703157200,15.7571572265625,2.721212863922119,-3.607614517211914,-4.268807411193848
1789323582722008600,15.776008544921876,1.5267634391784668,-3.6505117416381836,-2.8228063583374023
1789323582740860000,15.79485986328125,1.711287498474121,-0.9255609512329102,-1.351780652999878
1789323582759711200,15.813711181640626,1.406219482421875,0.5678935050964355,-0.23012351989746094
1789323582778562600,15.8325625,0.12167835235595703,0.8959980010986328,-0.015967130661010742
1789323582797414000,15.851413818359376,-0.08439493179321289,0.9523696899414062,-0.5195837020874023
1789323582816265000,15.870264892578126,-0.6452829837799072,1.4059796333312988,0.46729516983032227
1789323582835116300,15.8891162109375,-0.30954599380493164,1.8726606369018555,-0.11565780639648438
1789323582853967600,15.907967529296876,-0.20848512649536133,1.5829038619995117,0.5676412582397461
1789323582872819000,15.92681884765625,-0.05583047866821289,1.2722444534301758,-0.23367762565612793
1789323582891670300,15.945670166015624,-0.23487091064453125,1.2187433242797852,0.5125201940536499
1789323582910521600,15.964521484375,0.4883084297180176,0.749244213104248,-0.9084265232086182
1789323582929373000,15.983373046875,0.638674259185791,-0.26795291900634766,-0.15722227096557617
1789323582948224000,16.00222412109375,2.687741279602051,-2.0010271072387695,-1.9485423564910889
1789323582967075300,16.021075439453124,2.9231271743774414,-3.930610179901123,-1.8221435546875
1789323582985926700,16.0399267578125,3.251729965209961,-4.489514350891113,-2.6778836250305176
1789323583004778000,16.058778076171876,1.2937183380126953,-3.3214163780212402,-2.170670986175537
1789323583023629300,16.07762939453125,0.884821891784668,-2.010051727294922,-1.9629294872283936
1789323583042480600,16.096480712890624,-0.3855304718017578,-0.9585847854614258,-1.8596014976501465
1789323583061331700,16.115331787109376,-0.35555410385131836,-0.8333525657653809,-2.0708396434783936
1789323583080183000,16.13418310546875,-0.2650413513183594,-0.36804771423339844,-2.5880823135375977
1789323583099034400,16.153034423828124,-0.3318147659301758,-0.1556410789489746,-2.5014500617980957
1789323583117885700,16.1718857421875,-0.27696800231933594,-0.36986255645751953,-2.035871982574463
1789323583136737000,16.190737060546876,-0.2719230651855469,-0.5547552108764648,-1.691554069519043
1789323583155588000,16.209588134765625,-1.8168091773986816,-0.44013261795043945,-0.972069501876831
1789323583174439400,16.228439453125,-3.9787983894348145,-1.4724040031433105,-0.7295868396759033
1789323583193290800,16.247290771484376,-4.633175373077393,-0.7524456977844238,0.9266124963760376
1789323583212142000,16.26614208984375,-2.658507823944092,0.8239855766296387,1.4204901456832886
1789323583230993400,16.284993408203125,-0.30829620361328125,-0.9008960723876953,-0.6688618659973145
1789323583249844500,16.303844482421876,-4.096671104431152,-2.354724645614624,0.678226113319397
1789323583268695800,16.32269580078125,-3.979851245880127,-0.04761552810668945,2.119706630706787
1789323583287547100,16.341547119140625,-1.3533525466918945,1.5087192058563232,2.721834897994995
1789323583306398500,16.3603984375,-3.9119973182678223,1.2846750020980835,1.8020679950714111
1789323583325249500,16.37924951171875,-4.99644660949707,2.1934635639190674,0.8523999452590942
1789323583344100900,16.398100830078125,-0.6753940582275391,2.030618190765381,2.1706013679504395
1789323583362952200,16.4169521484375,-2.1149682998657227,1.3677434921264648,-0.921513557434082
1789323583381803500,16.435803466796877,-4.560873508453369,1.467557430267334,0.9823014736175537
1789323583400654800,16.45465478515625,-0.9477248191833496,0.7587225437164307,1.3608269691467285
1789323583419506000,16.473505859375,-2.0689640045166016,1.0275139808654785,1.7095608711242676
1789323583438357200,16.492357177734377,-2.4858622550964355,1.2236852645874023,0.48744869232177734
1789323583457208600,16.51120849609375,-0.25214338302612305,0.9803836345672607,1.72825288772583
1789323583476060000,16.530059814453125,-1.0490388870239258,1.6222648620605469,-0.14542460441589355
1789323583494911000,16.548910888671877,-0.4376182556152344,0.559791088104248,-0.39995718002319336
1789323583513762300,16.56776220703125,-1.3112411499023438,-1.3946990966796875,-0.9017417430877686
1789323583532613600,16.586613525390625,-0.4363574981689453,-2.245819091796875,-0.33222055435180664
1789323583551465000,16.60546484375,-0.28614187240600586,-2.064362049102783,-1.036484956741333
1789323583570316000,16.62431591796875,-1.5122432708740234,-2.2118959426879883,-0.333507776260376
1789323583589167400,16.64316748046875,-0.3900742530822754,-1.710710048675537,-0.11787676811218262
1789323583608018700,16.662018798828125,0.8252344131469727,-1.3602733612060547,-1.0817039012908936
1789323583626869800,16.680869873046873,0.48909854888916016,-1.0479063987731934,-2.6420443058013916
1789323583645721000,16.69972119140625,0.661562442779541,-0.891685962677002,-3.156161069869995
1789323583664572400,16.718572509765625,1.222602367401123,-1.078251838684082,-2.636312484741211
1789323583683423700,16.737423828125,0.5973052978515625,-1.0466117858886719,-1.364004373550415
1789323583702274800,16.75627490234375,1.1498680114746094,-1.0671625137329102,-0.6822893619537354
1789323583721126100,16.775126220703125,2.2803893089294434,-1.9209928512573242,-0.6229407787322998
1789323583739977500,16.7939775390625,2.3831372261047363,-3.2360191345214844,0.05455732345581055
1789323583758828500,16.81282861328125,2.9223246574401855,-2.5739564895629883,-0.8611416816711426
1789323583777680000,16.831679931640625,2.5366287231445312,-1.821396827697754,-1.1885082721710205
1789323583796531200,16.85053125,1.6704578399658203,-1.6864662170410156,-0.5255508422851562
1789323583815382300,16.86938232421875,1.5163989067077637,-1.4441041946411133,-0.14786314964294434
1789323583834233600,16.888233642578125,1.3886313438415527,-1.2579145431518555,-0.382479190826416
1789323583853085000,16.9070849609375,0.49486637115478516,-1.2028999328613281,-1.0886154174804688
1789323583871936000,16.92593603515625,-0.6824541091918945,0.22152090072631836,-0.1380615234375
1789323583890787300,16.944787353515625,-1.003066062927246,1.9229655265808105,-0.0883321762084961
1789323583909638700,16.963638671875,-1.1743535995483398,2.4096503257751465,0.2764608860015869
1789323583928489700,16.98248974609375,-0.3328361511230469,2.0369558334350586,0.07521176338195801
1789323583947341000,17.001341064453126,0.4178476333618164,0.6507883071899414,-0.11495280265808105
1789323583966192400,17.0201923828125,0.9259328842163086,-1.0494470596313477,-1.6300761699676514
1789323583985043500,17.03904345703125,0.5663881301879883,-1.6226511001586914,-1.6323754787445068
1789323584003894800,17.057894775390626,1.7070856094360352,-1.9737024307250977,-2.028791666030884
1789323584022746000,17.07674609375,1.168060302734375,-3.8881545066833496,-1.7834172248840332
1789323584041597200,17.09559716796875,1.9473586082458496,-3.1486401557922363,-2.2428297996520996
1789323584060448500,17.114448486328126,2.471424102783203,-2.981602668762207,-2.338886022567749
1789323584079299600,17.133299560546874,2.6898679733276367,-4.053452014923096,-2.629600763320923
1789323584098151000,17.15215087890625,0.5294070243835449,-2.6635870933532715,-1.0798194408416748
1789323584117002200,17.171002197265626,-2.138967514038086,-1.6385846138000488,0.17011046409606934
1789323584135853300,17.189853271484374,-2.7135262489318848,-0.4708290100097656,-0.4889798164367676
1789323584154704600,17.20870458984375,-4.65577507019043,-0.5240468978881836,-0.5117237567901611
1789323584173556000,17.227555908203126,-4.518248558044434,-0.16518568992614746,1.2250381708145142
1789323584192407000,17.246406982421874,-4.929919242858887,1.5350396633148193,3.0010831356048584
1789323584211258400,17.26525830078125,-4.6272969245910645,2.906278371810913,3.9721789360046387
1789323584230109400,17.284109375,-5.563538551330566,2.660480260848999,5.959208011627197
1789323584248960800,17.302960693359374,-0.730504035949707,2.3419759273529053,2.9468460083007812
1789323584267812000,17.32181201171875,-6.089468955993652,1.1284763813018799,1.9299758672714233
1789323584286663200,17.3406630859375,-2.8749780654907227,2.6144485473632812,1.5496511459350586
1789323584305514500,17.359514404296874,-3.0312938690185547,2.370145082473755,1.1710641384124756
1789323584324365600,17.378365478515626,-2.4549036026000977,1.7501789331436157,0.8384902477264404
1789323584343217000,17.397216796875,-3.9847264289855957,2.7032790184020996,0.9021892547607422
1789323584362068200,17.416068115234374,0.17352771759033203,2.6793956756591797,1.6324132680892944
1789323584380919300,17.434919189453126,-0.1904926300048828,1.2226581573486328,-0.6334342956542969
1789323584399770600,17.4537705078125,-2.471688747406006,-0.18616056442260742,0.21999287605285645
1789323584418621700,17.47262158203125,-0.45709657669067383,0.32024240493774414,-0.25384521484375
1789323584437473000,17.49147314453125,1.1152071952819824,-0.496640682220459,0.02634716033935547
1789323584456324000,17.510323974609374,0.981724739074707,-1.0343689918518066,-0.8157556056976318
1789323584475175400,17.529175537109374,0.24922943115234375,-1.7195124626159668,-0.3338003158569336
1789323584494026800,17.54802685546875,-1.2069220542907715,-1.969128131866455,-0.5613706111907959
1789323584512877800,17.5668779296875,-2.530168056488037,-1.6582789421081543,-0.5884692668914795
1789323584531729200,17.585729248046874,-0.8856058120727539,-0.14542627334594727,0.5282042026519775
1789323584550580200,17.604580322265626,0.3923988342285156,1.267073631286621,0.7545857429504395
1789323584569431600,17.623431640625,0.024318695068359375,1.8362078666687012,-0.10048818588256836
1789323584588282600,17.64228271484375,-0.9177103042602539,1.139930248260498,-0.6856708526611328
1789323584607134000,17.661134033203126,0.8517827987670898,0.21326160430908203,-1.5517008304595947
1789323584625985000,17.679985107421874,2.2792716026306152,-2.5919628143310547,-1.7417900562286377
1789323584644836400,17.69883642578125,2.171386241912842,-6.551337242126465,-2.692840099334717
1789323584663687400,17.7176875,3.3919153213500977,-8.308920860290527,-2.218566417694092
1789323584682538800,17.736538818359374,3.7779340744018555,-4.595729827880859,-0.2755758762359619
1789323584701389800,17.755389892578126,4.046321868896484,-2.7363672256469727,-0.5590803623199463
1789323584720241200,17.7742412109375,3.6972503662109375,-1.6776447296142578,-2.0274529457092285
1789323584739092200,17.79309228515625,2.2803092002868652,-0.9806022644042969,-1.5100536346435547
1789323584757943600,17.811943603515626,1.291630744934082,0.6791129112243652,-0.22375774383544922
1789323584776794600,17.830794677734374,0.8682866096496582,1.5000247955322266,0.9558815956115723
1789323584795646000,17.84964599609375,1.1163067817687988,0.972661018371582,0.6597628593444824
1789323584814497000,17.8684970703125,0.30493688583374023,-0.12219047546386719,0.8178393840789795
1789323584833348400,17.887348388671874,-0.1743631362915039,-1.0368356704711914,0.7155542373657227
1789323584852199400,17.906199462890626,0.030708789825439453,-0.9080934524536133,0.22271084785461426
1789323584871050500,17.925050537109374,1.316053867340088,-1.1773982048034668,-0.9642369747161865
1789323584889901800,17.94390185546875,2.988372802734375,-2.951073169708252,-0.4152243137359619
1789323584908753000,17.9627529296875,3.155796527862549,-4.628703594207764,-2.656836986541748
1789323584927604200,17.981604248046875,0.22611284255981445,-2.9225306510925293,-2.7388393878936768
1789323584946455300,18.000455322265626,-0.611997127532959,-0.7229065895080566,-1.164896011352539
1789323584965306600,18.019306640625,0.06674718856811523,-1.594754695892334,0.10580301284790039
1789323584984157700,18.03815771484375,0.8955912590026855,-3.1617226600646973,-0.3797283172607422
1789323585003009000,18.057009033203126,-0.13063859939575195,-2.828664779663086,-0.5784692764282227
1789323585021860000,18.075860107421875,-0.5643844604492188,-0.8692946434020996,-0.8474340438842773
1789323585040711200,18.094711181640626,-0.885805606842041,-0.29183053970336914,1.016397476196289
1789323585059562500,18.1135625,-2.846813678741455,0.3684062957763672,1.4628398418426514
1789323585078413600,18.13241357421875,-3.771247386932373,1.924724817276001,1.12510347366333
1789323585097265000,18.151264892578126,-3.3159713745117188,1.3980803489685059,0.02222156524658203
1789323585116116000,18.170115966796875,-2.9694361686706543,0.33674073219299316,0.5253980159759521
1789323585134967000,18.188967041015626,-4.971437454223633,2.390439033508301,3.2088489532470703
1789323585153818400,18.207818359375,-1.1276969909667969,3.428868532180786,2.029426097869873
1789323585172669400,18.22666943359375,-3.6936326026916504,0.014030694961547852,2.3598852157592773
1789323585191520800,18.245520751953126,-4.200689792633057,1.535291075706482,2.1206858158111572
1789323585210371800,18.264371826171875,-2.747223377227783,1.8205891847610474,4.006331920623779
1789323585229223000,18.283222900390626,-0.6212863922119141,2.0022802352905273,2.4218904972076416
1789323585248074200,18.30207421875,-3.9508938789367676,2.079143524169922,2.5227863788604736
1789323585266925300,18.32092529296875,-1.8478007316589355,1.186110496520996,1.3888170719146729
1789323585285776600,18.339776611328126,-0.5575098991394043,1.2171430587768555,1.617116928100586
1789323585304627700,18.358627685546875,-2.451343059539795,0.7953946590423584,1.4097073078155518
1789323585323478800,18.377478759765626,-0.9755110740661621,1.0656216144561768,1.0269386768341064
1789323585342330000,18.396330078125,-0.9829607009887695,0.8086345195770264,0.7169685363769531
1789323585361181200,18.41518115234375,-0.9527068138122559,1.2508652210235596,-0.040123939514160156
1789323585380032300,18.4340322265625,-1.3998713493347168,0.8778157234191895,0.28659486770629883
1789323585398883600,18.452883544921875,-0.94964599609375,-0.30451059341430664,0.19977307319641113
1789323585417734700,18.471734619140626,-2.934091567993164,-0.5560111999511719,0.754533052444458
1789323585436585700,18.490585693359375,-1.7816500663757324,-0.251279354095459,0.307344913482666
1789323585455437000,18.50943701171875,-2.206411123275757,0.6116995811462402,1.2840404510498047
1789323585474288000,18.5282880859375,-1.9659035205841064,0.08574295043945312,-0.48277759552001953
1789323585493139200,18.54713916015625,-1.5610837936401367,-2.3508172035217285,-0.30750107765197754
1789323585511990500,18.565990478515626,2.322969436645508,-5.1906890869140625,-0.521233081817627
1789323585530841600,18.584841552734375,5.175354957580566,-11.432781219482422,-1.4827425479888916
1789323585549692700,18.603692626953126,5.319643497467041,-12.191911697387695,-1.5081849098205566
1789323585568543700,18.622543701171875,6.764211654663086,-3.7355775833129883,-2.8456335067749023
1789323585587395000,18.64139501953125,5.524336814880371,2.2094154357910156,-2.939796209335327
1789323585606246100,18.66024609375,4.808341979980469,1.7413015365600586,-2.8633766174316406
1789323585634523000,18.68852294921875,2.0767149925231934,1.039482593536377,-0.48750877380371094
1789323585653374000,18.7073740234375,2.1882452964782715,1.9227933883666992,-0.3573589324951172
1789323585672225300,18.726225341796876,1.588294506072998,0.6013040542602539,0.434739351272583
1789323585691076400,18.745076416015625,1.1937508583068848,-2.490872383117676,0.7247264385223389
1789323585709927400,18.763927490234376,-0.7574946880340576,-4.435286521911621,1.0500285625457764
1789323585728778500,18.782778564453125,-2.1341469287872314,-3.040192127227783,1.8471299409866333
1789323585747629800,18.8016298828125,-1.9851458072662354,0.2886204719543457,1.6106889247894287
1789323585766481000,18.82048095703125,-2.7177700996398926,2.2063612937927246,1.600222110748291
1789323585785332000,18.83933203125,-1.180929183959961,3.5821213722229004,1.0785832405090332
1789323585804183000,18.85818310546875,0.4438343048095703,2.918337345123291,-0.07961654663085938
1789323585823034400,18.877034423828125,3.1565895080566406,0.2988457679748535,-1.6904230117797852
1789323585841885400,18.895885498046876,3.792736530303955,-2.820126533508301,-3.132831573486328
1789323585860736500,18.914736572265625,4.091545104980469,-3.67988920211792,-4.670010566711426
1789323585879587800,18.933587890625,1.476919174194336,-4.43909215927124,-1.4384074211120605
1789323585898439000,18.95243896484375,-0.384310245513916,-4.0998687744140625,-0.2508265972137451
1789323585917290000,18.9712900390625,-0.8648176193237305,-0.9897246360778809,0.43970298767089844
1789323585936141000,18.99014111328125,1.1238021850585938,0.24590253829956055,0.30211567878723145
1789323585954992000,19.0089921875,2.4879627227783203,-1.5585627555847168,-1.3821008205413818
1789323585973843500,19.027843505859376,1.6297860145568848,-2.5786514282226562,-0.2693212032318115
1789323585992694500,19.046694580078125,-0.6082615852355957,-1.4074153900146484,0.08870482444763184
1789323586020971300,19.07497119140625,-4.863097190856934,0.15601587295532227,0.1295936107635498
1789323586039822300,19.093822265625,-7.461086750030518,1.5673041343688965,-0.4028897285461426
1789323586058673400,19.11267333984375,-7.046586036682129,4.449012756347656,2.645078659057617
1789323586077524500,19.1315244140625,-4.916362762451172,5.27420711517334,5.771172523498535
1789323586096375600,19.15037548828125,-0.8880729675292969,3.3499419689178467,4.956193923950195
1789323586115227000,19.169226806640626,-1.239328384399414,1.9510191679000854,3.8163866996765137
1789323586134078000,19.188077880859375,-3.2941489219665527,1.527537226676941,-0.8654220104217529
1789323586152929000,19.206928955078126,0.24207496643066406,-0.11097979545593262,1.4452341794967651
1789323586171780000,19.225780029296875,-0.1885223388671875,-0.7220609188079834,-1.2815966606140137
1789323586190631200,19.244631103515626,-2.595604419708252,-0.5548207759857178,-0.022748708724975586
1789323586209482200,19.263482177734375,0.13457393646240234,-0.4310266971588135,0.3041260242462158
1789323586228333600,19.28233349609375,-1.562286376953125,-1.7850399017333984,0.6105635166168213
1789323586247184600,19.3011845703125,-2.475222110748291,-0.6933102607727051,0.024847745895385742
1789323586266035700,19.32003564453125,-3.1678805351257324,0.6808204650878906,1.4449923038482666
1789323586284886800,19.33888671875,-2.766721248626709,2.549449920654297,2.329239845275879
1789323586303737900,19.35773779296875,-3.9376144409179688,3.0897326469421387,2.9170875549316406
1789323586322589000,19.3765888671875,-2.264230728149414,3.4043962955474854,2.901766300201416
1789323586341440000,19.39543994140625,-0.8042173385620117,3.6062917709350586,1.9631266593933105
1789323586360291300,19.414291259765626,0.2884531021118164,2.9480092525482178,0.32106590270996094
1789323586379142400,19.433142333984375,-0.2971839904785156,1.3064699172973633,-1.4222173690795898
1789323586397993500,19.451993408203126,0.7425131797790527,-1.447941780090332,-3.878099203109741
1789323586416844500,19.470844482421874,1.2588119506835938,-6.247184753417969,-4.4548797607421875
1789323586435695600,19.489695556640626,0.7659597396850586,-11.377580642700195,-5.503308296203613
1789323586454546700,19.508546630859374,3.6136069297790527,-10.000190734863281,-0.048876285552978516
1789323586473397800,19.527397705078126,3.8380956649780273,-4.808464050292969,2.445662498474121
1789323586492248800,19.546248779296874,2.375631332397461,-2.447720527648926,1.3779816627502441
1789323586511100000,19.565099853515626,3.195977210998535,-0.1265573501586914,-1.2731788158416748
1789323586529951000,19.583950927734374,3.4277992248535156,0.5052719116210938,-2.612055540084839
1789323586548802000,19.602802001953126,3.0343916416168213,0.090606689453125,-2.001221179962158
1789323586567653000,19.621653076171874,2.327071189880371,-0.3383502960205078,-0.8846149444580078
1789323586586504400,19.64050439453125,1.073591947555542,0.8403096199035645,0.03856492042541504
1789323586605355500,19.65935546875,0.38576650619506836,1.3832149505615234,0.5307908058166504
1789323586624206600,19.67820654296875,-0.5195317268371582,1.286069393157959,1.286453127861023
1789323586643057700,19.6970576171875,-0.9072601795196533,1.2540278434753418,1.4241676330566406
1789323586661908700,19.71590869140625,-0.8417251110076904,0.7479152679443359,2.4738106727600098
1789323586680759800,19.734759765625,0.6019878387451172,-0.05419731140136719,2.1085009574890137
1789323586699611000,19.75361083984375,0.841580867767334,-1.629378318786621,1.6951677799224854
1789323586718462000,19.7724619140625,2.655555248260498,-2.648198127746582,-0.9311690330505371
1789323586737313000,19.79131298828125,2.6009998321533203,-3.208554267883301,-2.055094003677368
1789323586756164000,19.8101640625,2.988278865814209,-1.968315601348877,-2.5112972259521484
1789323586775015200,19.82901513671875,2.388810157775879,-1.6451725959777832,-2.4409382343292236
1789323586793866200,19.8478662109375,2.079129219055176,-2.0408148765563965,-2.2805356979370117
1789323586812717300,19.86671728515625,1.0738787651062012,-3.190178871154785,-2.0944604873657227
1789323586831568400,19.885568359375,0.09152841567993164,-2.4059958457946777,-1.3757519721984863
1789323586850419500,19.90441943359375,-0.508366584777832,-1.2146615982055664,-0.5920877456665039
1789323586869270500,19.9232705078125,-0.6108059883117676,0.01913595199584961,0.9397678375244141
1789323586888121600,19.94212158203125,-0.47088003158569336,-0.12409400939941406,0.8645801544189453
1789323586906972700,19.96097265625,-1.6172442436218262,-0.6898102760314941,1.5594069957733154
1789323586925823700,19.97982373046875,-2.7727088928222656,-0.03490161895751953,2.0854573249816895
1789323586944674800,19.9986748046875,-2.5081381797790527,-0.1729435920715332,1.8468602895736694
1789323586963526000,20.01752587890625,-3.3146486282348633,-0.4097590446472168,0.05917859077453613
1789323586982377000,20.036376953125,-3.6535801887512207,0.5819995403289795,2.3594088554382324
1789323587001228000,20.05522802734375,-2.713444709777832,3.1429824829101562,1.6118777990341187
1789323587020079000,20.0740791015625,-1.545900821685791,2.1898441314697266,2.1644716262817383
1789323587038930200,20.09293017578125,-2.327162742614746,0.9252972602844238,2.3468854427337646
1789323587057781200,20.11178125,-2.8077621459960938,1.8647392988204956,1.9241496324539185
1789323587076632300,20.13063232421875,-2.213301181793213,1.637012243270874,2.431952476501465
1789323587095483400,20.1494833984375,-4.579821586608887,1.7990576028823853,1.9274498224258423
1789323587114334500,20.16833447265625,-2.88045072555542,2.440521717071533,1.369771957397461
1789323587133185500,20.187185546875,-2.7810468673706055,2.1295366287231445,2.795752763748169
1789323587152036600,20.20603662109375,-0.5267610549926758,2.649026393890381,1.9819774627685547
1789323587170887700,20.2248876953125,0.30341053009033203,2.1856510639190674,2.158653736114502
1789323587189738500,20.243738525390626,-0.35889101028442383,1.0456819534301758,0.9677443504333496
1789323587208589600,20.262589599609374,-3.9409055709838867,0.6143932342529297,-1.1294689178466797
1789323587227440600,20.281440673828126,-1.1525020599365234,-1.3035950660705566,0.7959179878234863
1789323587246291700,20.300291748046874,0.18149518966674805,-0.49544572830200195,0.6225595474243164
1789323587265142800,20.319142822265626,-1.26505708694458,-0.30824851989746094,0.9780840873718262
1789323587283993900,20.337993896484374,0.1583089828491211,-0.5455913543701172,0.36367034912109375
1789323587302845000,20.356844970703126,-0.8387856483459473,0.12444210052490234,0.7924478054046631
1789323587321696000,20.375696044921874,0.2839818000793457,0.5342698097229004,-0.33620119094848633
1789323587340547000,20.394547119140626,-0.26499176025390625,-0.8029556274414062,-1.331336259841919
1789323587359398100,20.413398193359374,0.1858229637145996,-2.105597972869873,-1.9171960353851318
1789323587378249000,20.4322490234375,2.659127712249756,-4.2417802810668945,-2.671999931335449
1789323587406525700,20.460525634765624,3.223813533782959,-7.17584228515625,-2.4036142826080322
1789323587425376800,20.479376708984375,3.494741916656494,-5.988346099853516,-1.883631706237793
1789323587444227800,20.498227783203124,2.85355281829834,-2.3637266159057617,-0.003740072250366211
1789323587463078700,20.51707861328125,2.2730326652526855,-0.4746217727661133,-0.22713494300842285
1789323587481929700,20.5359296875,3.0044608116149902,0.5569782257080078,-1.3519158363342285
1789323587500780800,20.55478076171875,3.021350383758545,-0.7008485794067383,-2.5303902626037598
1789323587519632000,20.5736318359375,2.5559563636779785,-1.2472467422485352,-1.8297898769378662
1789323587538483000,20.59248291015625,0.842409610748291,0.7601094245910645,0.1281583309173584
1789323587557334000,20.611333984375,0.4917278289794922,2.4254584312438965,0.42766499519348145
1789323587576185000,20.63018505859375,-0.7568783760070801,1.5909528732299805,0.7819831371307373
1789323587595036000,20.649035888671875,-0.6888232231140137,0.3452644348144531,0.7628002166748047
1789323587613887000,20.667886962890623,-0.20704889297485352,-0.9495115280151367,0.6518406867980957
1789323587632738000,20.686738037109375,-0.03480720520019531,-1.770564079284668,0.136671781539917
1789323587651589000,20.705589111328123,1.12890625,-1.9833226203918457,-1.192131519317627
1789323587670440200,20.724440185546875,3.018904209136963,-2.882176399230957,-2.0346264839172363
1789323587689291000,20.743291015625,3.008052349090576,-4.3592939376831055,-1.9234035015106201
1789323587708142000,20.76214208984375,1.9887447357177734,-3.120215892791748,-3.484687089920044
1789323587726993200,20.7809931640625,-1.0107660293579102,-1.341020107269287,-1.5821382999420166
1789323587745844200,20.79984423828125,-1.40879487991333,0.30301809310913086,-0.7595517635345459
1789323587764695300,20.8186953125,-1.583240032196045,0.18641233444213867,-0.6672022342681885
1789323587783546000,20.837546142578127,-1.51611328125,-0.014778614044189453,-0.3237626552581787
1789323587802397200,20.856397216796875,-0.979161262512207,0.4467020034790039,-0.5000178813934326
1789323587821248300,20.875248291015627,-1.2572922706604004,-0.5555367469787598,-0.40390801429748535
1789323587840099300,20.894099365234375,-0.21840190887451172,-0.9194111824035645,0.9450490474700928
1789323587858950400,20.912950439453127,-0.9833106994628906,0.3250463008880615,0.43744492530822754
1789323587877801200,20.93180126953125,-2.376824378967285,-2.1999030113220215,-1.811659336090088
1789323587896652300,20.95065234375,-3.428760528564453,-0.8376410007476807,-1.4638853073120117
1789323587915503400,20.96950341796875,-3.2386040687561035,-0.40992140769958496,0.9356781244277954
1789323587934354200,20.988354248046875,-2.363032817840576,2.1452012062072754,1.4227577447891235
1789323587953205200,21.007205322265627,-4.59251070022583,0.532670259475708,1.8242504596710205
1789323587972056300,21.026056396484375,-2.6520872116088867,2.8172359466552734,2.0368869304656982
1789323587990907400,21.044907470703127,-3.313089370727539,1.0942195653915405,1.6646792888641357
1789323588009758200,21.06375830078125,-3.0418930053710938,1.2341617345809937,1.1947977542877197
1789323588028609300,21.082609375,-4.2758402824401855,2.47782564163208,2.4934022426605225
1789323588047460400,21.10146044921875,-1.4456629753112793,2.2280936241149902,0.82769775390625
1789323588066311400,21.1203115234375,-4.2112956047058105,1.3212430477142334,2.256575345993042
1789323588085162200,21.139162353515626,-2.592339038848877,2.3672451972961426,1.688970923423767
1789323588104013300,21.158013427734375,-3.546499252319336,1.7064273357391357,1.3872933387756348
1789323588122864400,21.176864501953126,-1.090336799621582,1.7871832847595215,1.9719021320343018
1789323588141715500,21.195715576171875,-1.6211037635803223,2.7070224285125732,0.5711731910705566
1789323588160566300,21.214566162109374,-1.2650504112243652,1.676654577255249,0.8545019626617432
1789323588179417300,21.233417236328126,-1.244776725769043,0.7010226249694824,-0.12945771217346191
1789323588198268400,21.252268310546874,-1.0668811798095703,-0.8727850914001465,-0.900982141494751
1789323588217119200,21.271119140625,1.6276307106018066,-2.90501070022583,-0.9360179901123047
1789323588235970300,21.28997021484375,0.9781575202941895,-5.34445333480835,-1.8950304985046387
1789323588264246800,21.318246826171876,-0.48375654220581055,-5.469996452331543,-2.1171090602874756
1789323588283097600,21.33709765625,0.7430248260498047,-3.070159912109375,-2.198244094848633
1789323588301948700,21.35594873046875,1.4928264617919922,-1.077108383178711,-1.2424485683441162
1789323588320799700,21.3747998046875,2.326636791229248,0.0011081695556640625,-1.5726349353790283
1789323588339650800,21.39365087890625,2.4791817665100098,-0.37543392181396484,-1.607595682144165
1789323588358501600,21.412501708984376,2.5630135536193848,-0.8914461135864258,-1.8166203498840332
1789323588377352700,21.431352783203124,2.0882043838500977,-1.248234748840332,-1.2942211627960205
1789323588396203500,21.45020361328125,1.276207447052002,-0.13953304290771484,0.43746089935302734
1789323588415054600,21.4690546875,1.441619873046875,0.5330166816711426,0.14298033714294434
1789323588433905700,21.48790576171875,2.0014657974243164,-1.0277767181396484,-0.5730319023132324
1789323588452756500,21.506756591796876,3.0517940521240234,-4.078052520751953,-1.7829039096832275
1789323588471607600,21.525607666015624,4.326440811157227,-5.673331260681152,-2.5444135665893555
1789323588490458600,21.544458740234376,4.144175052642822,-4.142229080200195,-2.2490904331207275
1789323588509309400,21.563309326171876,2.923884868621826,-2.838087558746338,-2.2090682983398438
1789323588528160500,21.582160400390624,0.3512148857116699,-1.0562305450439453,-2.1234967708587646
1789323588547011300,21.60101123046875,-1.6337826251983643,-0.39586400985717773,-0.7612903118133545
1789323588565862400,21.6198623046875,-1.7527122497558594,-0.4813542366027832,0.5286297798156738
1789323588584713500,21.63871337890625,-1.4290404319763184,-1.1828722953796387,0.4134206771850586
1789323588603564300,21.657564208984375,-1.5070433616638184,-0.35901308059692383,0.4252743721008301
1789323588622415400,21.676415283203124,-0.8716745376586914,-0.026615619659423828,-0.8522086143493652
1789323588641266200,21.69526611328125,-1.2672863006591797,0.2746696472167969,-0.49025845527648926
1789323588660117200,21.7141171875,0.06714963912963867,0.3451700210571289,-0.619502067565918
1789323588678968000,21.732968017578123,0.2485485076904297,-0.7947506904602051,-0.19133210182189941
1789323588697819100,21.751819091796875,0.44755125045776367,-1.1728572845458984,-0.8203234672546387
1789323588716670000,21.770669921875,0.3857917785644531,-1.1828017234802246,-0.779308557510376
1789323588735521000,21.78952099609375,-0.15263986587524414,-1.540595531463623,-2.320369243621826
1789323588754372000,21.8083720703125,-2.180816173553467,-1.9800381660461426,-1.842397689819336
1789323588773223000,21.827222900390623,-2.912964344024658,0.2835350036621094,0.27504467964172363
1789323588792074000,21.846073974609375,-4.259505748748779,0.4426717758178711,0.7249023914337158
1789323588810924800,21.8649248046875,-1.8816781044006348,2.169156074523926,1.5983761548995972
1789323588829776000,21.88377587890625,1.1869487762451172,1.196629524230957,-0.12995076179504395
1789323588848626700,21.902626708984375,1.6119956970214844,-1.147078037261963,0.8476130962371826
1789323588867477800,21.921477783203127,-0.7580890655517578,-0.8654253482818604,-0.624934196472168
1789323588886328600,21.94032861328125,-3.490145206451416,-1.3680572509765625,1.4576218128204346
1789323588905179600,21.9591796875,-4.846967697143555,1.5397993326187134,-0.32527995109558105
1789323588924030500,21.978030517578127,-3.113293170928955,1.4620682001113892,2.919884204864502
1789323588942881500,21.996881591796875,-3.557107448577881,1.2648332118988037,1.2801077365875244
1789323588961732400,22.015732421875,-5.494156360626221,1.1453425884246826,2.4591784477233887
1789323588980583400,22.03458349609375,-6.423100471496582,1.366483211517334,2.4857139587402344
1789323588999434200,22.053434326171875,-4.8457536697387695,2.171664237976074,3.7808070182800293
1789323589018285300,22.072285400390626,-3.4460835456848145,2.7195935249328613,3.8493804931640625
1789323589037136100,22.09113623046875,-3.0615086555480957,3.3291263580322266,3.3417649269104004
1789323589055987200,22.1099873046875,0.28555870056152344,3.5230464935302734,2.898611068725586
1789323589074838000,22.128838134765626,-0.929326057434082,3.279245376586914,-0.5798773765563965
1789323589093689000,22.147689208984374,-0.2395181655883789,1.826054334640503,-1.1271028518676758
1789323589112540000,22.166539794921874,0.2616558074951172,-2.23207426071167,-1.8055438995361328
1789323589131391000,22.185390869140626,0.043875694274902344,-7.41617488861084,-3.2259318828582764
1789323589150241800,22.20424169921875,-0.5795063972473145,-9.484332084655762,-1.7665984630584717
1789323589169092900,22.2230927734375,-0.5030550956726074,-5.705738544464111,-0.6983463764190674
1789323589187943700,22.241943603515626,-0.6853351593017578,-1.9696202278137207,0.49016380310058594
1789323589206794500,22.26079443359375,0.5613837242126465,1.6631946563720703,1.0862889289855957
1789323589225645600,22.2796455078125,3.076423168182373,2.3288402557373047,-0.7334640026092529
1789323589263347500,22.317347412109374,2.280374050140381,-2.18255615234375,-4.193211555480957
1789323589282198300,22.3361982421875,0.5272030830383301,-1.4915027618408203,-3.4370319843292236
1789323589301049300,22.35504931640625,1.9118928909301758,-0.3993568420410156,-0.6952428817749023
1789323589319900200,22.373900146484374,0.7272133827209473,-1.1963157653808594,1.159111738204956
1789323589338751000,22.3927509765625,1.342453956604004,-1.5313072204589844,0.5853011608123779
1789323589357602000,22.41160205078125,2.8883962631225586,-2.916036605834961,-1.1314055919647217
1789323589376452900,22.430452880859374,3.517148971557617,-3.880037307739258,-1.616746187210083
1789323589395304000,22.449303955078125,3.8193063735961914,-2.1804752349853516,-1.6193006038665771
1789323589414154800,22.46815478515625,2.505195140838623,0.037841796875,-0.9999403953552246
1789323589433005600,22.487005615234374,0.6663389205932617,0.841151237487793,-0.08156347274780273
1789323589451856600,22.505856689453125,0.33762550354003906,0.9373478889465332,0.2839179039001465
1789323589470707500,22.52470751953125,0.7755599021911621,-0.9113593101501465,0.38170862197875977
1789323589489558300,22.543558349609373,0.5361227989196777,-2.5432448387145996,0.5267925262451172
1789323589508409300,22.562409423828125,0.6259918212890625,-2.02170467376709,-1.110947847366333
1789323589527260200,22.58126025390625,0.40207767486572266,-1.3482551574707031,-1.2817940711975098
1789323589546111200,22.600111328125,0.6680126190185547,-1.6068634986877441,-0.8948910236358643
1789323589564962000,22.618962158203125,1.1600747108459473,-2.3801941871643066,-0.6167244911193848
1789323589583812900,22.637812744140625,0.8984889984130859,-2.7010087966918945,-1.1772046089172363
1789323589602664000,22.656663818359377,-0.598175048828125,-2.1490511894226074,-1.862682580947876
1789323589621514800,22.6755146484375,-1.9697341918945312,-1.3452587127685547,-1.0274507999420166
1789323589640365600,22.694365478515625,-2.224921226501465,0.19137334823608398,0.338320255279541
1789323589659216400,22.71321630859375,-1.2199993133544922,0.4882650375366211,1.1161816120147705
1789323589678067500,22.7320673828125,-1.185999870300293,-0.16156291961669922,0.8509540557861328
1789323589696918300,22.750918212890625,-0.1447010040283203,0.14985036849975586,1.5909690856933594
1789323589715769000,22.76976904296875,-0.9087810516357422,0.3436293601989746,1.138829231262207
1789323589734620200,22.7886201171875,-1.203770637512207,-0.5778827667236328,0.4973945617675781
1789323589753471000,22.807470947265625,-0.9915432929992676,0.17871999740600586,-0.652632474899292
1789323589772321800,22.82632177734375,-1.1462688446044922,-1.3858919143676758,-0.4564487934112549
1789323589791172900,22.8451728515625,-2.5897374153137207,0.7004802227020264,1.136697769165039
1789323589810023700,22.864023681640624,-2.539133071899414,1.3017730712890625,1.5077297687530518
1789323589828874500,22.88287451171875,-3.3572659492492676,0.9128372669219971,1.8896831274032593
1789323589847725300,22.901725341796876,-2.947202205657959,1.0795395374298096,2.0820651054382324
1789323589866576400,22.920576416015624,-3.642397880554199,1.247154951095581,2.835031509399414
1789323589885427200,22.93942724609375,-3.136384963989258,1.7112139463424683,2.371150493621826
1789323589904278000,22.958278076171876,-4.497727870941162,1.7482585906982422,2.6188127994537354
1789323589923129000,22.977129150390624,-4.631267547607422,1.9597104787826538,2.7234506607055664
1789323589941980000,22.99597998046875,-2.293771743774414,2.8001744747161865,4.0587639808654785
1789323589960830700,23.014830810546876,-1.83711576461792,3.2125062942504883,3.0710506439208984
1789323589979681500,23.033681640625,-1.5856046676635742,3.1576497554779053,2.571211099624634
1789323589998532600,23.05253271484375,-1.0515265464782715,2.819875478744507,0.2097020149230957
1789323590017383400,23.071383544921876,-2.7391281127929688,1.304980993270874,0.6191906929016113
1789323590036234200,23.090234130859375,0.7664189338684082,-0.9217872619628906,-0.8001461029052734
1789323590055085000,23.1090849609375,1.044571876525879,-3.5233912467956543,-0.43779945373535156
1789323590073936100,23.12793603515625,0.09033727645874023,-4.8366780281066895,-0.9012789726257324
1789323590092787000,23.146786865234375,0.5104045867919922,-4.510758399963379,-1.0007412433624268
1789323590111637800,23.1656376953125,0.9824576377868652,-3.7863516807556152,-1.3817684650421143
1789323590130488600,23.184488525390623,1.6039161682128906,-3.2632718086242676,-1.9477615356445312
1789323590149339400,23.20333935546875,1.7589073181152344,-2.973020553588867,-2.2361080646514893
1789323590168190200,23.222190185546875,1.2763147354125977,-1.6102285385131836,-1.0062999725341797
1789323590187041300,23.241041259765623,3.018735408782959,0.6311588287353516,-0.09179425239562988
1789323590205892000,23.25989208984375,3.4774599075317383,0.7667226791381836,-0.8567633628845215
1789323590224743000,23.278742919921875,2.2487077713012695,0.245758056640625,-1.4418206214904785
1789323590243593700,23.29759375,1.2237894535064697,0.7931222915649414,-1.428267478942871
1789323590262444500,23.316444580078127,1.5841009616851807,0.7835559844970703,-0.6528315544128418
1789323590281295600,23.335295654296875,2.826223134994507,-1.8300905227661133,-0.48332715034484863
1789323590300146400,23.354146484375,3.1492998600006104,-4.914398193359375,-2.1818370819091797
1789323590318997200,23.372997314453126,1.4731707572937012,-2.321249008178711,-0.06975579261779785
1789323590337848000,23.39184814453125,1.7171802520751953,0.0626688003540039,1.1520264148712158
1789323590356699000,23.410698974609375,1.139878273010254,0.49237489700317383,0.5572142601013184
1789323590375549700,23.4295498046875,0.2978549003601074,0.07586193084716797,0.033435821533203125
1789323590394400800,23.44840087890625,0.379457950592041,-0.9154224395751953,-0.7683877944946289
1789323590413251600,23.46725146484375,0.2999734878540039,-2.0169620513916016,-0.19087839126586914
1789323590432102400,23.486102294921874,0.7540826797485352,-2.52425479888916,-0.26297593116760254
1789323590450953200,23.504953125,1.8108816146850586,-2.300027370452881,-0.23716521263122559
1789323590469804000,23.523803955078126,1.578585147857666,-2.4814505577087402,-0.8011367321014404
1789323590488654800,23.54265478515625,0.8307933807373047,-1.654343605041504,-1.1168608665466309
1789323590507505700,23.561505615234374,0.1923065185546875,-0.4053153991699219,-1.393202304840088
1789323590526356700,23.580356689453126,-1.2678332328796387,-0.5126161575317383,-1.1681487560272217
1789323590545207600,23.59920751953125,-1.1889066696166992,-0.7525730133056641,-1.067838191986084
1789323590564058400,23.618058349609374,-0.5084900856018066,0.1209416389465332,0.5685858726501465
1789323590582909200,23.6369091796875,2.214371681213379,-0.771916389465332,0.6725003719329834
1789323590601760000,23.655760009765626,2.2353944778442383,-3.7138023376464844,0.02943706512451172
1789323590620610800,23.67461083984375,-0.9787402153015137,-3.1051454544067383,-0.09338808059692383
1789323590639461600,23.693461669921874,-3.864231586456299,-0.8321714401245117,0.8994700908660889
1789323590658312400,23.7123125,-1.4481267929077148,1.0850651264190674,1.8266808986663818
1789323590677163300,23.731163330078125,0.45646095275878906,1.7628755569458008,-0.6662125587463379
1789323590696014000,23.75001416015625,-0.9400482177734375,-0.24500489234924316,0.10259485244750977
1789323590714865000,23.768864990234373,-3.178337574005127,2.2503063678741455,0.52239990234375
1789323590733716000,23.787716064453125,-3.559241771697998,0.9878396987915039,1.8285205364227295
1789323590752566800,23.80656689453125,-2.256671905517578,0.8440194129943848,1.7470768690109253
1789323590771417600,23.82541748046875,-2.0290637016296387,-0.1621417999267578,3.019320487976074
1789323590790268400,23.844268310546877,-4.570511817932129,0.8845181465148926,1.8952274322509766
1789323590809119200,23.863119140625,-2.858470916748047,1.516278624534607,4.697713851928711
1789323590827970000,23.881969970703125,-2.1284260749816895,1.4716463088989258,2.174484968185425
1789323590846820900,23.90082080078125,-2.5984487533569336,1.4908063411712646,3.4553632736206055
1789323590865671700,23.919671630859376,-1.8268070220947266,1.3514304161071777,1.6003856658935547
1789323590884522500,23.9385224609375,-2.661367893218994,1.326751470565796,2.344311237335205
1789323590903373300,23.957373291015625,-1.9198036193847656,1.463559627532959,1.6407089233398438
1789323590922224000,23.97622412109375,-1.372138500213623,1.423823356628418,1.549314260482788
1789323590941075000,23.995074951171876,-2.7031660079956055,1.4192781448364258,0.981940507888794
1789323590959925800,24.01392578125,-2.4269800186157227,1.5201597213745117,1.4986627101898193
1789323590978776600,24.032776611328124,-2.2231245040893555,1.3644061088562012,1.1191623210906982
1789323590997627400,24.05162744140625,0.21050691604614258,1.5723028182983398,1.3418242931365967
1789323591016478200,24.070478271484376,0.7545623779296875,1.1101746559143066,0.6000568866729736
1789323591035329000,24.0893291015625,0.9632582664489746,-0.9442315101623535,-0.571873664855957
1789323591054179800,24.108179931640624,0.22519207000732422,-3.658653736114502,-2.1513280868530273
1789323591073030700,24.12703076171875,-0.3354763984680176,-6.2095160484313965,-3.3334286212921143
1789323591091881500,24.145881591796876,0.5372042655944824,-6.752813339233398,-2.078923225402832
1789323591110732300,24.164732177734376,3.2261924743652344,-4.240654945373535,0.019402503967285156
1789323591129583000,24.1835830078125,4.082512855529785,-2.3715591430664062,0.5294020175933838
1789323591148434000,24.202433837890624,4.812762260437012,-1.7182350158691406,-1.96266770362854
1789323591167284700,24.22128466796875,2.9607341289520264,-1.231673240661621,-3.189734697341919
1789323591186135600,24.240135498046875,2.392270803451538,-0.5922250747680664,-2.711362600326538
1789323591204986400,24.258986328125,1.8734734058380127,-0.5957794189453125,-0.9520816802978516
1789323591223837200,24.277837158203123,1.3679227828979492,-0.2947578430175781,-0.3442695140838623
1789323591242688000,24.29668798828125,1.6653320789337158,0.9526042938232422,-0.827667236328125
1789323591261538800,24.315538818359375,1.2193822860717773,0.8928499221801758,0.31809377670288086
1789323591280389600,24.3343896484375,2.2125601768493652,0.15697383880615234,-0.17522788047790527
