time,seconds_elapsed,z,y,x
1789030855572205300,0.017205322265625,0.2333835161998868,-0.17049334478378295,0.2617589852042496
1789030855582209300,0.027209228515625,0.23687632675170897,-0.15767594878673552,0.20425401395782827
1789030855592214300,0.03721435546875,0.27643443015813823,-0.14725976871252058,0.18566300299540162
1789030855602218500,0.047218505859375,0.2755839508086443,-0.17115677712857721,0.15081190823614596
1789030855612223500,0.057223388671875,0.2660159119963646,-0.13684417316019534,0.10501242622211575
1789030855622227500,0.0672275390625,0.29259879849553105,-0.07689151650071144,0.16258812461718916
1789030855632232400,0.077232421875,0.2881158078625798,-0.018244097220897672,0.22520853918120265
1789030855642236200,0.087236083984375,0.2559519063606858,0.024670330876111982,0.2351280217796564
1789030855652241200,0.0972412109375,0.25232787064462897,-0.028568507358431815,0.23953341713175177
1789030855662245400,0.107245361328125,0.2656616917312145,-0.1527449221253395,0.30772476369589563
1789030855672249300,0.117249267578125,0.24198124867528675,-0.2346142270386219,0.33405966678336263
1789030855682254300,0.12725439453125,0.19493834247142075,-0.2056003140002489,0.3824558872923255
1789030855692258300,0.13725830078125,0.11436316902190446,-0.15771102010011673,0.4592927509963512
1789030855702263300,0.14726318359375,-0.015176818604767321,0.0073883566856384275,0.4642248005710542
1789030855712267500,0.157267578125,0.004245967006683349,0.06303133345246315,0.4625276412643492
1789030855722272500,0.1672724609375,-0.008946984304487704,0.07434183201789855,0.5115992768168449
1789030855732276500,0.1772763671875,-0.05366612373590469,0.0026081366717815397,0.5344732257954776
1789030855742281500,0.187281494140625,-0.04489800312966108,-0.15574819559454917,0.6118962188243866
1789030855752285200,0.19728515625,-0.053854047523438926,-0.34781156715154643,0.6385908951349556
1789030855762290200,0.207290283203125,0.09212035755366087,-0.47434360513389107,0.6489594366751611
1789030855772294400,0.21729443359375,0.36990035710185765,-0.49541620377898216,0.6115852531790733
1789030855782299400,0.22729931640625,0.42573768739700313,-0.4603969128459692,0.4813153438426554
1789030855792303400,0.237303466796875,0.44643794559836386,-0.42833121102154254,0.2746842254899442
1789030855802307300,0.247307373046875,1.0622671199575067,-0.39581776542961594,0.24527342208847402
1789030855812312300,0.257312255859375,0.7790884762361645,-0.14034662832319736,0.1588564638081938
1789030855822316300,0.26731640625,0.7103790971472859,-0.12503800003230572,-0.28967158593721687
1789030855832321300,0.2773212890625,0.7224614568680524,-0.00915244374871254,-0.25405571735054255
1789030855842325500,0.287325439453125,0.5394003069341182,0.11336802050471305,-0.2498538086812943
1789030855852330500,0.29733056640625,0.17478168962746857,0.32817981496453286,-0.040617476266250015
1789030855862334200,0.307334228515625,-0.47344840985983605,0.29001988791823385,-0.00439158602245152
1789030855872339200,0.317339111328125,-0.7089888118326664,-0.038410686936974525,0.09822751532234252
1789030855882343200,0.32734326171875,-0.9232838889420032,-0.44356268242299557,0.08364749356694519
1789030855892348400,0.337348388671875,-0.6309209450289607,-0.6930524070322513,0.06199314951114356
1789030855902352400,0.347352294921875,-0.24404577998965976,-0.6938888578563929,0.0038787411294877528
1789030855912356400,0.3573564453125,-0.12487491842508315,-0.6803402249753475,-0.09543101647160947
1789030855922361300,0.367361328125,-0.2800458986535668,-0.7476742240577936,0.11425934332124889
1789030855932365300,0.377365234375,-0.5661863147899509,-0.8033131091713905,0.4476278860352933
1789030855942370300,0.387370361328125,-0.6492749323651195,-0.6292798998236656,0.5876520044058561
1789030855952374300,0.397374267578125,-0.8689312442466616,-0.36734862679243085,0.4561795143466443
1789030855962379500,0.407379638671875,-0.7650047135651111,-0.1216834289073944,0.3376175053954124
1789030855972383200,0.41738330078125,-0.5796162897273898,-0.09133797500431537,0.14494674252979456
1789030855982388200,0.42738818359375,-0.32480127844214435,-0.21359248179793355,-0.045171413243561984
1789030855992392200,0.43739208984375,0.08266630050987005,-0.5499076724231243,-0.24823344093784688
1789030856002397200,0.447397216796875,0.4101543338179588,-0.8659662569612264,-0.3572213831948116
1789030856012401400,0.4574013671875,0.5209516270518303,-0.6253261937618255,-0.15322254957444964
1789030856022405400,0.4674052734375,0.32597850552797314,-0.1219277590572834,0.12480605443995445
1789030856032410400,0.477410400390625,-0.08822919533401727,0.011722586497664451,0.35901747283134605
1789030856042414300,0.487414306640625,-0.21252456030547617,0.06060615213215351,0.39213023602329194
1789030856052419300,0.49741943359375,-0.0035308044746518133,0.19182605566978453,0.23942250410318372
1789030856062423300,0.50742333984375,0.04820084406733512,0.16131225946247577,-0.07191493366453797
1789030856072428300,0.51742822265625,-0.01834668081253767,0.26884850507378577,-0.10173906710725276
1789030856082432300,0.527432373046875,-0.06738251439929008,0.21874796486496925,0.04336461954992264
1789030856092437200,0.537437255859375,0.2490577629327774,-0.49446986283957955,0.24775555776041
1789030856102441200,0.547441162109375,0.3972454601451754,-1.3770154986798762,0.5341025658521801
1789030856112446200,0.5574462890625,0.4005930170074105,-1.9898329240024089,0.80692282410115
1789030856122450400,0.567450439453125,0.6465177426114678,-1.7225573673337697,0.671526730857417
1789030856132454400,0.577454345703125,0.5856956096410751,-0.3776958332836628,0.11463986707143485
1789030856142459400,0.58745947265625,0.37027211302369833,0.5807680901110172,-0.2022133384430781
1789030856152463400,0.59746337890625,-0.11648615252524613,0.9934048883944749,-0.34979375394470985
1789030856162468400,0.60746826171875,-0.2041644359782338,0.24068565590679644,0.26038543182872237
1789030856172472300,0.617472412109375,-0.45450522445887326,0.056067924180626866,0.3694937490623444
1789030856182477300,0.627477294921875,-0.6247682676181197,-0.2546037066221237,0.598258446355164
1789030856192481300,0.637481201171875,-0.5574889213323593,-0.4482511325001716,0.853630945392698
1789030856202486300,0.647486328125,-0.31056349425315855,0.21322774013876913,0.5241780782850459
1789030856212490200,0.657490234375,-0.03778115686178207,-0.6235615221768617,0.5537974098706617
1789030856222494500,0.667494384765625,0.4525196035996079,-5.943312775871157,2.3165647321157157
1789030856232499500,0.67749951171875,3.746711370871961,-8.998176731586456,1.8089128777503967
1789030856242503400,0.68750341796875,-1.0560326094821095,9.281056100100278,-3.053170888061821
1789030856252508400,0.69750830078125,-3.4584698908030984,10.218141719901562,-1.3460090966500342
1789030856262512400,0.707512451171875,-0.9427633731767535,3.5413322984069584,-0.18114472185336053
1789030856272517400,0.717517333984375,-0.3804708509549498,0.7299439215779304,0.21098986155148594
1789030856282521300,0.727521240234375,-0.27579057929664846,0.7329968794077635,0.2633756996858865
1789030856292526300,0.7375263671875,-0.12517448589354752,1.5044775109887123,0.3014505787972361
1789030856302530300,0.7475302734375,-0.2541138772785663,1.665360731384158,0.501567456417717
1789030856312534300,0.7575341796875,-0.9338108359143137,1.3082406531393527,0.7809643531106412
1789030856322539300,0.767539306640625,-1.7683926513135433,0.5550502960085868,1.056851086258143
1789030856332543500,0.77754345703125,-1.2178177471533418,0.806889214092493,0.9707348644901066
1789030856342548500,0.787548583984375,-1.0196019904464482,0.4515764775305986,1.0089023172557354
1789030856352552400,0.797552490234375,-1.0373787624165416,0.1768131954550743,0.9405824489410967
1789030856362557400,0.807557373046875,-0.4284276571333408,0.7061147177010774,0.3119154933840036
1789030856372561400,0.8175615234375,0.7148506896033883,1.6934692200154065,-0.7499538594275712
1789030856382566400,0.82756640625,0.4790399462565779,1.0709434706270695,-0.38527971254140136
1789030856392570400,0.8375703125,-0.08753186071962117,-0.25437925021648405,0.009723229373991489
1789030856402574300,0.84757421875,-0.6237193430870771,-0.6328945831894874,0.2652325065337121
1789030856412579300,0.857579345703125,-0.34288960057944057,-0.9775848034501076,0.35351072864122685
1789030856422583300,0.867583251953125,1.0139750904753804,-0.41096623472273347,-0.24637678022049367
1789030856432588300,0.87758837890625,0.569188711476326,-0.06122749890089035,0.05049721137620508
1789030856442592300,0.88759228515625,-0.07372720725089311,-1.0251812518835066,0.23421594843603669
1789030856452597500,0.897597412109375,0.7998612151518464,-0.9419184467852115,-0.06224690507650375
1789030856462601500,0.9076015625,0.797592101176083,-0.6923305224984884,-0.030961905300989745
1789030856472606500,0.9176064453125,-0.1135506835952401,-0.984340707451105,0.3888680924221873
1789030856482610200,0.927610107421875,-0.23655016353726385,-1.1372720920592545,0.20661475173979996
1789030856492614100,0.9376142578125,-0.21624708795994518,-0.9835656314253807,0.3805251384254545
1789030856502619400,0.947619384765625,-0.731459002315998,-1.3896727356791496,0.8202787839543074
1789030856512623400,0.957623291015625,-0.7345449856325984,-0.7320961311757564,0.3806163238402456
1789030856522628400,0.96762841796875,-0.48217181454151864,0.5569733730256557,-0.21128632374741135
1789030856532632300,0.97763232421875,-0.060224459338188166,1.5212287393033503,-0.6898517112948
1789030856542637300,0.98763720703125,0.12060644732564688,1.6661948441207408,-0.6059639792311936
1789030856552641300,0.997641357421875,-0.4298506756737828,1.6687883677452802,-0.033654724581539626
1789030856562645500,1.0076455078125,-1.3940867527291179,1.4804682743698359,0.2853642075994983
1789030856572650500,1.017650390625,-0.9926210445404052,1.786487110930681,0.5481291549758985
1789030856582654500,1.027654541015625,-0.887328778463602,1.967016112038493,0.7424453834936022
1789030856592659500,1.037659423828125,-1.3643791583381593,0.8810030825734138,0.9417729008346796
1789030856602663400,1.047663330078125,-1.300705289198458,-0.3989870431154966,1.1083872122280298
1789030856612668400,1.05766845703125,-1.027726260191202,-1.3190765199303627,1.3957013483189045
1789030856622672400,1.06767236328125,-0.6501577065490186,-1.759178248244524,1.5071892541654408
1789030856632676400,1.07767626953125,0.08001140208691358,-1.0820300973087549,0.6326318406000733
1789030856642681300,1.087681396484375,0.1954457074716687,0.05124444954693317,-0.00506944875139743
1789030856652685300,1.097685302734375,-0.38743981318473814,0.08909925616681576,-0.16109686314612626
1789030856662690300,1.107690185546875,-0.757891666689515,-0.5263151999115944,-0.12341054496094583
1789030856672694500,1.117694580078125,-0.5989395604871213,-0.8185708840578794,-0.01858027037270367
1789030856682699500,1.127699462890625,-0.5711136881895363,-0.5576198542356491,-0.0027526231763884425
1789030856692703500,1.137703369140625,-0.8219888758078217,0.006910802301764488,-0.15061612993571907
1789030856702707500,1.14770751953125,-0.6244976339831948,0.5037555775791406,-0.03675353084709495
1789030856712712400,1.15771240234375,-0.6466054208949208,0.35938451604545113,0.4620227604821324
1789030856722716400,1.16771630859375,-0.7258499302625656,-0.0747013129800558,0.6722089409679174
1789030856732721400,1.177721435546875,-0.6312453546777367,-0.13624211561381816,0.5939451862659305
1789030856742725400,1.187725341796875,-0.7287712245367467,0.03744797938466072,0.5100809081431478
1789030856752730400,1.19773046875,-0.7333550451956689,0.17812661614120007,0.429325336625427
1789030856762734300,1.207734375,-0.7479775909185409,0.3871411224991083,0.3808194451969117
1789030856772738600,1.217738525390625,-0.9581649404481053,0.6084960549920797,0.5910240381222218
1789030856782743600,1.22774365234375,-1.1243220095932482,0.6303560046225786,0.7732364622723311
1789030856792747500,1.23774755859375,-1.120986873821169,0.5582651664018631,0.7142587150596081
1789030856802752500,1.24775244140625,-0.9965222897626459,0.6978712054908275,0.6107126350630074
1789030856812756500,1.257756591796875,-0.8935293866693973,0.8296358834296464,0.5882727666527032
1789030856822761500,1.267761474609375,-0.9544178628742694,0.6856658039122819,0.6582609335057437
1789030856832765400,1.277765380859375,-0.9345943875074386,0.48574412007033824,0.6792939307928085
1789030856842769400,1.287769287109375,-0.854428087119758,0.31473171984851356,0.6812380505979061
1789030856852774400,1.2977744140625,-0.8716821503899991,0.1844692631661892,0.54821840416193
1789030856862778400,1.3077783203125,-1.0139315435945988,0.16830547935068607,0.4378837600037455
1789030856872783400,1.317783447265625,-1.057076273316145,0.22685469895303248,0.5215797323549166
1789030856882787600,1.32778759765625,-1.1332556960247457,0.1688350561827421,0.6209785930115729
1789030856892791600,1.33779150390625,-1.1440158672310412,0.05833820720016956,0.7344344379302113
1789030856902796500,1.347796630859375,-1.1509621792376041,0.040248423758149146,0.8182099417909979
1789030856912800300,1.35780029296875,-1.2074186643444,-0.0035620763957500455,0.924557123748213
1789030856922805200,1.36780517578125,-1.227637276508659,-0.1691319933027029,0.929196327856183
1789030856932809500,1.3778095703125,-1.1898362459026277,-0.16633154892921448,0.9514042872067541
1789030856942814500,1.387814453125,-1.213743191190809,-0.10603519339859485,1.1086926249153912
1789030856952818400,1.397818359375,-1.2037174717389048,-0.07094049914181232,1.1423804480489343
1789030856962822400,1.407822509765625,-1.1948644493281841,-0.007286649876832961,1.133440258811414
1789030856972827400,1.417827392578125,-1.2535913635849951,0.07579904508888721,1.1239236579254268
1789030856982831400,1.427831298828125,-1.2108419167913496,0.19019757768511772,1.098251456530392
1789030856992836400,1.43783642578125,-1.233779578655958,0.2713929288595915,1.0672184587545692
1789030857002840600,1.447840576171875,-1.3808815264582632,0.2602192084163427,1.09898751571998
1789030857012844300,1.45784423828125,-1.6128057837605476,0.22534487891197202,1.2170840991165488
1789030857022849300,1.467849365234375,-1.7191363068439065,0.27942718223333357,1.2059381434630603
1789030857032853200,1.477853271484375,-1.771844837594032,0.4219178368479013,1.1672220438387244
1789030857042858200,1.487858154296875,-1.8971138699032366,0.46230537681579587,1.0269295568555592
1789030857052862500,1.497862548828125,-1.9488743061482905,0.40471360406875606,0.9137690416216849
1789030857062867500,1.507867431640625,-1.8166253518238662,0.4082382710635662,0.7580253030065447
1789030857072871400,1.517871337890625,-1.786252133131027,0.33633506436944005,0.5745447220841422
1789030857082875400,1.52787548828125,-1.6269373310960829,0.2836304791420698,0.5181973964402452
1789030857092880400,1.53788037109375,-1.2147430158831178,0.3973784388750791,0.4657411234181374
1789030857102884600,1.547884521484375,-0.7753858223259449,0.47244916968941686,0.21728300687894223
1789030857112889600,1.5578896484375,-0.5167511796873062,0.16870763041079043,-0.10004866633489727
1789030857122893300,1.567893310546875,-0.42193478798270223,-0.17615619285106657,-0.20423242318052798
1789030857132898300,1.577898193359375,-0.37544425496459005,-0.07460545139014721,-0.22445253318212924
1789030857142902300,1.58790234375,-0.578843844050169,0.05077975464463234,-0.24599874068833885
1789030857152906500,1.597906494140625,-0.5940555878378451,0.1735837120145559,-0.2436752661768347
1789030857162911500,1.607911376953125,-0.5734487070083618,0.18920622856020927,-0.41998200994711365
1789030857172915500,1.61791552734375,-0.6076094814158975,0.1739122133165598,-0.5152923957137391
1789030857182920400,1.62792041015625,-0.42679684106111526,0.08902326832115649,-0.5145271104296669
1789030857192924400,1.63792431640625,-0.32012152312807735,0.0027852468043565747,-0.5928845712970942
1789030857202928400,1.647928466796875,-0.24786877234391866,0.15985679995715618,-0.5072525528494268
1789030857212933600,1.65793359375,-0.001107084459066391,0.568690698826313,-0.29897085427809506
1789030857222937300,1.667937255859375,0.14107786520719529,0.9424486081391572,-0.04031557071022689
1789030857232942300,1.6779423828125,-0.01874802815504372,1.109441835847497,0.14224573994278908
1789030857242946300,1.6879462890625,-0.08074702288508415,1.2006091304600237,0.5217064640071243
1789030857252950500,1.697950439453125,0.08273205922245978,1.5013701926231384,1.063859065324068
1789030857262955500,1.70795556640625,0.25998824920468033,1.949274119120836,1.4774363593280315
1789030857272959500,1.71795947265625,0.29756723455786704,2.193277521273494,1.6809031684309244
1789030857282964500,1.727964599609375,0.05057049580812454,2.036313520148396,1.736483016833663
1789030857292968400,1.737968505859375,-0.30896650738529857,1.4927005639553068,1.610911202185601
1789030857302972400,1.747972412109375,-0.6789199098486453,0.5811164651572704,1.697402321680635
1789030857312977400,1.757977294921875,-0.7009480556529015,-0.4464046278506517,1.9091228721268474
1789030857322981400,1.7679814453125,-0.47446226307749745,-1.0936942316174507,1.8434452619493007
1789030857332986400,1.777986328125,-0.6620493660032749,-1.5593436581641436,1.4184557625710963
1789030857342990300,1.787990234375,-0.9112672879338264,-1.9797563511461018,0.9901922830235212
1789030857352994600,1.79799462890625,-0.917418796300888,-2.3042273747205733,0.8124223713655024
1789030857362999600,1.80799951171875,-0.6615794104039668,-2.447233577641845,0.7314042033888399
1789030857373003500,1.81800341796875,-0.7541312912426889,-2.3706623791366814,0.6491565666824579
1789030857383008500,1.828008544921875,-0.7986649911046028,-1.9362971486479044,0.7093693355828523
1789030857393012500,1.838012451171875,-0.8018645177982747,-1.4748475118786095,0.9949451766390353
1789030857403017500,1.848017578125,-1.0979996737264097,-1.1470318540513516,1.2895049730092287
1789030857413021400,1.858021484375,-1.6009259608745574,-1.1056418590426444,1.4048241275817155
1789030857423025400,1.868025390625,-1.768780773848295,-1.1366560059875248,1.3663089573569596
1789030857433030400,1.878030517578125,-1.8250712547384202,-0.9334095616370439,1.0266915833812207
1789030857443034400,1.888034423828125,-1.9464613997876643,-0.49676995647549627,0.6011570904061198
1789030857453039400,1.898039306640625,-1.7307342440485953,-0.04486322407722473,0.5672228182308375
1789030857463043300,1.908043212890625,-1.4358463117025793,0.294836932811141,0.4827439153410494
1789030857473047600,1.918047607421875,-0.8167685108110309,0.6793009450554848,0.42321416026875375
1789030857483052500,1.928052490234375,-0.44070510103479027,1.0522855319082736,0.4440511965923011
1789030857493056500,1.938056396484375,-0.7489677709996699,1.2693763772159814,0.7330385265924036
1789030857503061500,1.9480615234375,-1.0837035834789275,1.3140583995074033,1.2089482119992374
1789030857513065200,1.958065185546875,-0.9923775911733508,1.287313015922904,1.4224191132441162
1789030857523069400,1.9680693359375,-0.7690788311362267,1.4451602296233177,1.5329840590268373
1789030857533074400,1.978074462890625,-0.4707354976393282,1.6531062299668788,1.710508909882605
1789030857543078400,1.988078369140625,-0.18775529909953473,1.7585685919135807,1.9533624113477766
1789030857553083400,1.99808349609375,0.12091069096922874,1.5745570093870163,1.8640891137883067
1789030857563087000,2.008087158203125,0.0918565920509398,1.1639385651886462,1.6983249894835053
1789030857573091300,2.01809130859375,-0.08054726252928376,0.8948229336112737,1.6076513236068188
1789030857583096300,2.028096435546875,-0.15752879540100692,0.968932125917077,1.5247069368079305
1789030857593100300,2.038100341796875,-0.7497358327627182,1.438107973024249,1.2464467525273561
1789030857603105300,2.048105224609375,-1.1964869359634815,1.8985475559681653,1.06510526599288
1789030857613109000,2.05810888671875,-1.0820014557361601,2.1878227629989384,1.0198932284779847
1789030857623113200,2.06811328125,-1.0725612810872494,2.2265561060190198,0.9401593281581997
1789030857633118200,2.0781181640625,-0.8091524828493595,2.040312818917632,0.8947865471236407
1789030857643122200,2.0881220703125,-0.8282935289099812,1.688666203647852,1.068706213094294
1789030857653127200,2.098127197265625,-1.044722110916674,1.1280728865593672,1.3227989014543593
1789030857663131100,2.108131103515625,-1.0389804985247553,0.47457916745543477,1.5850295958235858
1789030857673135400,2.11813525390625,-0.774288966999948,-0.05521510674357414,1.6058018963478504
1789030857683140400,2.128140380859375,-0.6493348458588123,-0.2557943777114153,1.3182478140212595
1789030857693144300,2.138144287109375,-0.6524699290141462,-0.33863632704913615,1.0235890142560005
1789030857703149300,2.1481494140625,-0.8406348318278789,-0.48219724124372004,1.0906766373619436
1789030857713153000,2.158153076171875,-1.2645815441548824,-0.9486936400085687,1.009716994639486
1789030857723158000,2.168157958984375,-1.268534081172943,-1.4468132575273513,0.8860334779560566
1789030857733162200,2.178162353515625,-1.2258885331451892,-1.9479881709635256,0.5088672215044499
1789030857743166200,2.188166259765625,-1.0881894967213273,-2.2118945434600112,-0.016935352709889412
1789030857753171200,2.198171142578125,-1.1933726033352314,-2.203973102810979,-0.2591981948055327
1789030857763175200,2.208175048828125,-1.4021230519294738,-1.8777841694027184,-0.06453282405659556
1789030857773179400,2.218179443359375,-1.3932112850688396,-1.3625357224285601,0.15522665593847632
1789030857783184400,2.228184326171875,-1.2695289374291896,-0.8506120359629392,0.2080421541944146
1789030857793188000,2.23818798828125,-1.2113389065280555,-0.3956061685055494,0.18948489937111734
1789030857803193300,2.248193359375,-1.3284054892897605,0.09340718249380588,0.246585527600348
1789030857813197000,2.258197021484375,-1.1228393698200583,0.3163350633919239,0.5171176018469036
1789030857823202000,2.2682021484375,-0.7467641234755515,0.5615934340417384,0.7718506339371204
1789030857833206300,2.278206298828125,-0.34448052303269505,0.8354168049186468,0.6238567057311535
1789030857843210200,2.288210205078125,-0.12704071815684437,1.070921843317151,0.4447742501698434
1789030857853215200,2.29821533203125,0.04721577855274081,1.2728028445333242,0.4704810844868421
1789030857863219200,2.30821923828125,-0.05515899264216423,1.3279238432526588,0.7513887145362794
1789030857873223400,2.318223388671875,-0.29282004003077744,1.0647457850307225,0.6597798136360943
1789030857883228400,2.328228515625,-0.04819412206560373,0.71541621453166,0.3269701469138264
1789030857893232000,2.338232177734375,0.08843114764690399,0.2095703866750002,0.05362286911606788
1789030857903237000,2.348237060546875,0.03826251063793897,-0.38926118339300153,0.0810018744289875
1789030857913241000,2.358240966796875,-0.26405688688308,-0.8878712147772312,0.1684812743090093
1789030857923245300,2.368245361328125,-0.5934976616941392,-1.0824024377524852,0.23048574893176554
1789030857933250300,2.378250244140625,-0.521988130492717,-0.8819465009033679,0.15381620461866258
1789030857943254300,2.388254150390625,-0.2840276617661118,-0.48616380678713317,0.07183525602445005
1789030857953259300,2.39825927734375,-0.3682683719858527,-0.20795418365001678,-0.030844489466398953
1789030857963263200,2.40826318359375,-0.19611045499071478,-0.028102643412351608,-0.08816913570985198
1789030857973267200,2.41826708984375,-0.04798676292523742,0.010579261681437491,-0.14167524657845496
1789030857983272200,2.428272216796875,0.42316754464805123,0.21960136682391165,0.056618397670239205
1789030857993276200,2.438276123046875,0.6310206060111523,0.43605975944697856,0.2202618765592575
1789030858003281200,2.44828125,0.9602491993762552,0.719073567995429,0.08868409949466585
1789030858013285000,2.45828515625,1.1618564982175827,0.8574743229478597,0.13865180710405112
1789030858023289000,2.4682890625,1.1048255742236972,1.4401041152775287,0.752932875238359
1789030858033294000,2.478294189453125,1.0266866880103944,1.6966215465664862,1.1818033077031374
1789030858043298300,2.48829833984375,0.8981377572476863,1.9798358461230992,0.743635762321949
1789030858053303300,2.49830322265625,0.4228381665632128,1.685618506515026,-0.7726210337877273
1789030858063307300,2.508307373046875,0.2610451378464699,1.045214570608735,-2.464562898105383
1789030858073312300,2.518312255859375,0.4673135603666305,0.34430326676964756,-3.2600445829987525
1789030858083316200,2.528316162109375,1.3396060977399349,0.24001813190877436,-2.342210776156187
1789030858093320200,2.5383203125,0.7759259205520153,0.9192647164285183,-0.16068915912806986
1789030858103325200,2.5483251953125,-1.6566040089547633,0.27954116400182244,1.0979814074173568
1789030858113329200,2.5583291015625,-2.14685450053364,-2.677939691326022,0.3981175668045878
1789030858123334100,2.568334228515625,-0.6561724367938936,-4.551294938370585,0.17470979343503712
1789030858133338000,2.578338134765625,0.04292407270818949,-3.4398850173205133,1.0465610167816282
1789030858143342300,2.58834228515625,-0.3176046449363231,-1.7576204974085092,1.0593462640747426
1789030858153347300,2.598347412109375,-0.4366751148663461,-1.021236313650012,1.0419403712436557
1789030858163351300,2.608351318359375,-0.7900926853314042,-0.9777665897578001,1.3755474719539285
1789030858173356300,2.618356201171875,-0.9461479010485112,-0.9302011209845542,1.6653052018046377
1789030858183360000,2.628360107421875,-0.9450564525499939,-0.7900374480128288,1.5810694600209594
1789030858193364200,2.6383642578125,-0.7576628263697027,-0.48676118815839287,0.7067407406449318
1789030858203369200,2.648369140625,-0.5527008102729917,0.07358662973642349,0.48589960289299483
1789030858213373200,2.658373291015625,-0.9732876907780766,0.39956981143951414,1.2053303137630222
1789030858223378200,2.668378173828125,-1.4089330242052673,0.18387246631681917,1.4562354581281542
1789030858233382100,2.678382080078125,-1.334401368703693,0.015723054310679434,0.7852984367921948
1789030858243386400,2.688386474609375,-0.8286088784694671,0.2612093884974718,0.1253565644621849
1789030858253391400,2.698391357421875,-0.5406755875669419,0.7058446685880422,0.5238368270993232
1789030858263395300,2.708395263671875,-0.3631611119747162,1.1050152515769005,1.1709642260417341
1789030858273399000,2.71839892578125,-0.05025017781257629,1.4851666613191365,1.360255210275948
1789030858283404000,2.728404052734375,0.007615151178836822,1.8338591029584406,1.1149046312980353
1789030858293408300,2.738408203125,0.11656667041555047,1.77973763667047,0.6675878570385277
1789030858303413200,2.748413330078125,0.0035961247958242893,1.2426397614598272,0.818436297892779
1789030858313417200,2.758417236328125,-0.3377895009614527,0.4680822066515684,1.3649964134536683
1789030858323422200,2.768422119140625,-0.32907164923772214,-0.10169102671444416,1.5326714859463273
1789030858333426200,2.77842626953125,-0.3716119833253324,-0.4225099575221538,1.1040282863661646
1789030858343430400,2.788430419921875,-0.37850247349143024,-0.8829869498670101,0.3479429384462535
1789030858353435400,2.798435302734375,-0.4106558535993099,-1.4443722941160202,0.2617052091903984
1789030858363439400,2.808439453125,-0.4470351808391511,-1.7018951030552387,0.696610537905246
1789030858373443000,2.818443115234375,-0.28376477304622527,-1.3325982648044823,0.8185903194107115
1789030858383448000,2.828447998046875,-0.38093627650961276,-0.5222416668623685,0.7785654752753675
1789030858393452300,2.838452392578125,-0.677091306181997,0.16710487138926983,0.3954565309017896
1789030858403457300,2.848457275390625,-0.632456337902695,0.3506552661448717,0.27528467560112474
1789030858413461200,2.858461181640625,0.39646249307394027,0.622718057090044,0.7384558754660189
1789030858423465200,2.86846533203125,1.5865269947744904,1.57736622158885,1.310504506418109
1789030858433470200,2.87847021484375,0.6296997326709329,1.9257132107913493,0.9841266263090074
1789030858443474200,2.88847412109375,-0.22209157620444892,1.6120950051426886,0.4977652511231601
1789030858453479200,2.898479248046875,-0.32482816644907,1.1936159105718136,0.722672030878812
1789030858463483100,2.908483154296875,-0.7913586136139928,0.6149567754387855,0.9545800676986574
1789030858473487000,2.918487060546875,-0.7227027182780206,0.2195166111499071,0.803845608612895
1789030858483492000,2.9284921875,-0.8443322250410914,-0.010140285742282866,0.5569112675748765
1789030858493496000,2.93849609375,-0.8137374725520611,-0.4225263241350651,0.18519494709223508
1789030858503501000,2.9485009765625,-0.7630734532415866,-0.5845797573536634,0.2957747981831431
1789030858513505300,2.95850537109375,-0.9728650814518331,-0.37862054691314695,0.7395883866272867
1789030858523509200,2.96850927734375,-1.5056241968058048,-0.16058569875359535,1.5188859755694866
1789030858533514200,2.97851416015625,-1.753195082181692,-0.40462651030719277,1.9160086861178278
1789030858543518200,2.988518310546875,-1.6754324819348752,-0.628449294218421,2.2569290324509144
1789030858553523200,2.998523193359375,-1.6925521051704882,-0.9309978243201971,2.3629459595404563
1789030858563527400,3.00852734375,-1.76846849302873,-0.9892787483751774,2.340182631329447
1789030858573531400,3.018531494140625,-1.8317957406878471,-1.114143145406246,2.3337387158870695
1789030858583536400,3.028536376953125,-1.733157671803236,-1.327285545349121,1.9590178067609667
1789030858593540000,3.0385400390625,-1.4658335998177527,-1.3524322615653275,1.423369691967219
1789030858603545000,3.048545166015625,-1.357047061884403,-1.2281167305886744,1.0678120407335459
1789030858613549300,3.05854931640625,-1.2767090581916272,-0.8854951332956552,1.167450664962828
1789030858623553300,3.06855322265625,-1.4890426259696483,-0.6204828453838824,1.252747021715343
1789030858633558300,3.078558349609375,-1.4765408717930315,-0.5570055217295885,0.9803878781720995
1789030858643562200,3.088562255859375,-1.2486685202300547,-0.7683049241542815,0.8741670990735292
1789030858653567200,3.098567138671875,-1.205321545934677,-0.9876128609895706,0.8378338029325008
1789030858663571500,3.108571533203125,-0.6159000476382672,-0.8545330087989568,0.6949110405109822
1789030858673575400,3.118575439453125,-0.10534604209065437,-0.4482265825808048,0.3460178156025708
1789030858683580400,3.128580322265625,-0.12935834744945168,0.09902385333180427,0.14133826970905064
1789030858693584100,3.138584228515625,-0.7019710420250892,0.18901158277094363,0.10292655985876917
1789030858703588400,3.14858837890625,-0.8547709092080593,0.15460779338777064,0.3528822945445776
1789030858713593300,3.15859326171875,-0.54339273757115,0.5785948377251625,0.6814552004799246
1789030858723597300,3.168597412109375,-0.3966754051722586,1.0739753856688736,0.8644869781889021
1789030858733602300,3.178602294921875,-0.2859293306689709,1.4759551808595657,0.9638666592210531
1789030858743606300,3.188606201171875,-0.2985609217703342,1.5358452936768532,0.9056932871937752
1789030858753610500,3.198610595703125,-0.3814811970412731,1.7482798376113176,0.6392876452274621
1789030858763615500,3.208615478515625,-0.2591746677994728,2.199576913678646,0.43621319644302126
1789030858773619500,3.218619384765625,0.2846505429048091,2.443573301568627,0.46472412839531896
1789030858783624400,3.22862451171875,0.7180653408009559,2.2272096014916896,0.4997416657626629
1789030858793628200,3.238628173828125,0.9947136329054832,2.061903888478875,0.602226327072829
1789030858803632400,3.24863232421875,1.0230687897741795,1.8904647872775793,0.7351653094880283
1789030858813637400,3.258637451171875,1.28444827414155,1.5708973178356884,0.5416822803914547
1789030858823641300,3.268641357421875,1.7035387786090372,1.3026245668232441,0.37561961153149603
1789030858833646300,3.278646240234375,1.6569091293811797,1.421962893909216,0.19750117869675157
1789030858843650300,3.288650390625,1.4433166475832462,1.739567538845539,-0.10986585760265588
1789030858853654300,3.298654296875,0.9961316830098629,1.9873773475438354,-0.33055545805469155
1789030858863659300,3.3086591796875,0.7364905667424202,1.5448539450407028,-0.6473289128638804
1789030858873663200,3.318663330078125,1.1540355953335761,0.9272907864958048,-0.8265180436700582
1789030858883667200,3.328667236328125,1.196860007059574,0.5759954688817263,-0.8780255280673503
1789030858893672200,3.338672119140625,0.43477319023516026,0.27321955976486206,-0.9651371175482869
1789030858903676200,3.34867626953125,-0.3444073116660118,-0.1209077683597803,-0.8124541547432541
1789030858913681200,3.35868115234375,-0.9253647868692875,-0.41472880212664603,-0.3308639394819736
1789030858923685400,3.368685302734375,-1.3145616728544234,-0.8853110089004039,0.17212576829120516
1789030858933689300,3.378689453125,-1.4541887547314165,-0.9160650436043739,0.5108145561799406
1789030858943694300,3.3886943359375,-1.9260580787062644,-0.4924427409261465,0.44689927949979896
1789030858953698300,3.3986982421875,-1.8764952986359595,0.246434428691864,0.09066533643975853
1789030858963703300,3.408703369140625,-1.7295348051309585,0.8318570666104554,0.017288111670315263
1789030858973707300,3.418707275390625,-1.7519255006372927,0.9547814354896544,0.19645649194940923
1789030858983711200,3.428711181640625,-1.8394225823044776,0.6718401076555252,0.5869314350463449
1789030858993716200,3.43871630859375,-1.8732430188417433,-0.00022679449319839477,1.405011759108305
1789030859003720200,3.44872021484375,-1.6733482230067251,-0.5816548098176717,2.2663107549108563
1789030859013725200,3.45872509765625,-1.666618037968874,-0.8006792535364627,2.582893509453535
1789030859023729400,3.4687294921875,-1.3433458687901496,-1.0532494085043669,2.1005168199896813
1789030859033733400,3.4787333984375,-0.6347006827633828,-0.8161743443101644,1.3378661222048103
1789030859043738400,3.48873828125,0.09448094920516013,-0.6732125650525093,0.879243963946402
1789030859053742300,3.498742431640625,0.5347369912981986,-0.6904658976703881,0.4237620034098625
1789030859063746300,3.508746337890625,0.8768142525814473,-0.40552901210486886,-0.1797925035268068
1789030859073751300,3.518751220703125,0.42170229440107937,-0.05529226363301277,-0.0554281649723649
1789030859083755300,3.52875537109375,-0.4751356322944164,-0.4621937331348657,0.20642814312651753
1789030859093760300,3.53876025390625,-0.762788352689892,-1.1444015055477619,0.01660422105938196
1789030859103764200,3.54876416015625,-0.7402503576673567,-1.0529150619834662,0.10175225538238883
1789030859113768400,3.5587685546875,-1.434331377094984,-0.46899581436514853,0.37492753761410713
1789030859123773400,3.5687734375,-1.8816284237407146,0.15759119311273098,0.4602909682534635
1789030859133777400,3.57877734375,-1.6150021247610449,0.837557324078679,0.3848905670933425
1789030859143782400,3.588782470703125,-1.3955704154156148,1.4599164847284554,0.395499639391154
1789030859153786000,3.5987861328125,-1.3973358176529407,1.8884978711187839,0.22346607942804692
1789030859163790300,3.608790283203125,-1.3593708286568522,2.1269155820935963,-0.008848200105130672
1789030859173795300,3.61879541015625,-1.265986442516744,2.3497329883545635,-0.013806991556286811
1789030859183799300,3.62879931640625,-1.435783183338493,2.4193518835037944,0.004732435349375009
1789030859193804300,3.63880419921875,-1.4835399369001387,2.550201784685254,0.1877361560076475
1789030859203808300,3.648808349609375,-0.9892600436747073,2.6142373267441985,0.4055164448842406
1789030859213812200,3.658812255859375,-0.3252314865529537,2.53670692781806,0.5561021431490779
1789030859223817500,3.6688173828125,-0.22365327256321907,2.1636802553892136,0.6032656069926917
1789030859233821400,3.678821533203125,-0.5566458946369588,1.4579811327517032,0.717191699771583
1789030859243825200,3.6888251953125,-0.6138435534998774,0.6748498108655214,0.6231408125467598
1789030859253830100,3.698830078125,-0.7024535648450255,0.05414192455410957,0.5949681726381182
1789030859263834000,3.708834228515625,-0.9069206370316445,-0.5806874260902405,0.475126133813709
1789030859273839400,3.71883935546875,-0.9383164767704903,-1.1812450892984867,0.5971965162120759
1789030859283843300,3.72884326171875,-1.0150222614407538,-1.6757698971956967,1.276929422944039
1789030859293847300,3.738847412109375,-0.8614087397873401,-2.0174954224318267,2.0217313064359126
1789030859303852300,3.748852294921875,-0.7654827063404023,-2.1379057626634834,2.4809365252792834
1789030859313856300,3.758856201171875,-0.742520494556427,-2.1212159091472627,2.452046238620579
1789030859323861200,3.768861328125,-0.5966051261901855,-1.8807015181541442,2.0315283316984774
1789030859333865500,3.778865478515625,-0.47015667483806606,-1.6489911958634853,1.7161811103001237
1789030859343869200,3.788869140625,-0.4364239165842533,-1.538652167791128,1.5050712390981613
1789030859353874200,3.798874267578125,-0.28453341933116316,-1.5511334637016057,1.2517382830642163
1789030859363878100,3.808878173828125,-0.3645053661905229,-1.547884106516838,1.0347628808297216
1789030859373883100,3.818883056640625,-0.5218750255070627,-1.4713520709782837,0.991150095205009
1789030859383887400,3.828887451171875,-0.30066870770454407,-1.3548691333234308,0.7253747139662504
1789030859393891300,3.838891357421875,0.28713804887160654,-1.0597995608001947,-0.015976444549858568
1789030859403896300,3.848896240234375,0.7368984168909489,-0.42486733430325985,-0.8395134265825152
1789030859413900300,3.858900390625,0.4007799178816378,0.6076315471172332,-1.204379881170392
1789030859423904300,3.868904296875,-0.002691138780117035,1.297313016411662,-1.1490683283150196
1789030859433909500,3.878909423828125,-0.19170082185491918,1.2549877863794565,-0.8026952695339917
1789030859443913200,3.888913330078125,-0.35333164574727416,0.8081646408557891,-0.5263014636471868
1789030859453918200,3.898918212890625,-0.3302373320162296,0.13382453307807446,-0.36809389220178124
1789030859463922200,3.908922119140625,-0.03569309854134917,-0.35580256590545173,-0.6167036191061138
1789030859473926400,3.918926513671875,0.2073157396160066,-0.4306283820480108,-0.797836431325972
1789030859483931400,3.928931396484375,0.2595452546775341,-0.13734920007288456,-0.5894798043549061
1789030859493935400,3.938935302734375,0.3211059310555458,0.2614735923916101,-0.36949586795419453
1789030859503940400,3.9489404296875,0.30878406349048015,0.613816373232007,-0.014985387685894965
1789030859513944300,3.9589443359375,0.2647428233206272,0.6723375357836484,-0.0705319183409214
1789030859523948300,3.9689482421875,0.5057547885723411,0.514075896063447,-0.44221477494537825
1789030859533953300,3.978953369140625,0.6714250971138477,0.5214151529103517,-0.40248365305960176
1789030859543957200,3.988957275390625,0.803100489334017,0.546416907697916,-0.42658407509326934
1789030859553961200,3.998961181640625,0.7970984724402427,0.44703824957907196,-0.5566317199811339
1789030859563965400,4.00896533203125,0.4962834881328046,0.17776421256959438,-0.4984957573547959
1789030859573969700,4.0189697265625,0.3097662063956261,-0.11758066976368427,-0.3121808663219213
1789030859583974700,4.028974609375,0.3175136056520045,-0.23253274458944795,-0.13827742083370684
1789030859593978600,4.038978515625,0.23377032356038688,-0.2155342635154724,0.04168780891150236
1789030859603982600,4.048982666015625,0.014706278483569622,-0.4520136999040842,-0.005228548303246498
1789030859613987600,4.058987548828125,-0.3587232756577432,-0.9878829101026058,-0.31889000857174393
1789030859623991600,4.068991455078125,-0.6639676207147538,-1.4192781848698854,-0.3731958915159106
1789030859633996500,4.07899658203125,-0.3591419394612312,-1.3325327983528374,-0.7130816341042518
1789030859644000500,4.08900048828125,-0.16861001525521277,-0.6119271984845399,-0.7094076217666268
1789030859654004500,4.09900439453125,-0.019119711011648177,-0.055142626029253,-0.3846881763890385
1789030859664009500,4.109009521484375,-0.05491320118755102,0.40166473789215085,0.16129384702295063
1789030859674013700,4.119013671875,-0.8879296669661998,0.2278425409466028,0.5534560125544666
1789030859684018700,4.129018798828125,-0.9766273565948009,-0.43464346290826794,0.8750099796384573
1789030859694022700,4.139022705078125,-1.0595990697920321,-0.7294792266756296,1.4836653168454765
1789030859704026600,4.149026611328125,-0.763526165445149,-0.6284206526458262,0.9982529129475355
1789030859714031600,4.159031494140625,-0.4553264777138829,0.14169804293215274,0.5862848077058792
1789030859724035600,4.16903564453125,-0.29890666646808384,0.6040075114011764,0.7138537875205277
1789030859734039600,4.17903955078125,0.12438947299569844,0.6557756925612688,0.7390665547102689
1789030859744044500,4.18904443359375,0.12252981660366058,0.691206486904621,0.7812754648864269
1789030859754048500,4.199048583984375,-0.006064999127388,0.3905710969477892,0.524447067952156
1789030859764053500,4.209053466796875,0.09018953562155366,0.0027361469656229016,0.25759938130676746
1789030859774057700,4.2190576171875,0.33367665881514547,0.0017348609685897826,0.3438949782297015
1789030859784061700,4.229061767578125,0.07363309922665358,0.23828970068097113,0.7203121698796748
1789030859794066700,4.239066650390625,0.03623568098545074,0.3819306943744421,0.7904629799485207
1789030859804070400,4.2490703125,-0.0084298285625875,0.45854164036810396,0.6973880981490016
1789030859814075400,4.259075439453125,-0.5290025392994284,0.398285032325983,0.46011868042647835
1789030859824079600,4.26907958984375,-1.068952589070797,0.17808803769648074,0.37532559702098367
1789030859834083600,4.27908349609375,-1.322691057165712,-0.010909516549110413,0.38660423914343117
1789030859844088600,4.289088623046875,-1.4449965634942055,-0.05822890160679817,0.37491087874025103
1789030859854092500,4.299092529296875,-1.4527417707934975,-0.1316308224260807,0.353174263228476
1789030859864097500,4.30909765625,-1.3444319104611873,-0.2313672079414129,0.4684916642352938
1789030859874101800,4.319101806640625,-1.0507657749950885,-0.2824766329318285,0.43935558612197634
1789030859884105700,4.329105712890625,-1.055811660207808,-0.1824818887412548,0.3928314430952072
1789030859894110700,4.33911083984375,-1.196987140570581,-0.1647615231335163,0.5177484470963478
1789030859904114400,4.349114501953125,-1.0397450531564651,-0.17944763561189173,0.6837631851613521
1789030859914118700,4.35911865234375,-0.8687491656780243,-0.07936229052841663,0.7633715594053267
1789030859924123600,4.36912353515625,-0.8470163495585322,0.08772446068227291,0.8209303066655993
1789030859934127600,4.379127685546875,-0.7664695254206657,0.19076105678677557,0.7705849979154765
1789030859944132600,4.389132568359375,-0.529967584939301,0.22050796027481553,0.6751914639100433
1789030859954136600,4.399136474609375,-0.40025720918178553,0.23665245486795902,0.7711059530496597
1789030859964140500,4.409140625,-0.23383096770644188,0.16933716048598288,0.7651958522230387
1789030859974145500,4.4191455078125,-0.13549553503021597,0.21346622506976126,0.8182776001997292
1789030859984149800,4.429149658203125,-0.11841507476121187,0.40025019491910935,0.9401683882474898
1789030859994154800,4.43915478515625,-0.04757189851403236,0.6540829171687365,0.9835312907643615
1789030860004158500,4.449158447265625,0.03500365497246384,0.8458470135182142,0.7988194510139525
1789030860014162400,4.459162353515625,0.09726590374857187,0.9168395351082086,0.6294461963012814
1789030860024167400,4.46916748046875,0.013978548730909824,0.6023094753116369,0.582108544934541
1789030860034171600,4.479171630859375,-0.07092588609457015,0.2733972544193268,0.691779318356514
1789030860044176600,4.4891767578125,0.07203501638025045,0.026696868267655372,0.45253699312582607
1789030860054180600,4.4991806640625,0.3324804347679019,-0.041838907819986344,0.17398571694418788
1789030860064184600,4.5091845703125,0.32576237855926155,-0.10513678325414658,-0.06705211340114474
1789030860074189600,4.519189453125,0.1716216181613505,-0.5163058470726013,-0.3641214814394712
1789030860084193800,4.52919384765625,0.2336779691018164,-0.664908262565732,-0.39370618010312314
1789030860094198800,4.53919873046875,0.7453621477231382,-0.8262357195973395,-0.49092970601469277
1789030860104202500,4.549202392578125,0.5173483418628573,-0.4221194968998432,-0.48644496181607244
1789030860114206500,4.55920654296875,0.25296003106832504,0.43221068280339237,-0.47307139324098824
1789030860124211500,4.56921142578125,0.24832594152688978,0.5722060134708881,-0.5399877514332533
1789030860134215700,4.579215576171875,0.4443232915319502,0.22307927206754682,-0.5311144168868661
1789030860144219600,4.5892197265625,0.5252241898044944,-0.01938800655901432,-0.2957033403821289
1789030860154224600,4.599224609375,0.649544396956265,-0.3565717967122793,-0.23444836895242332
1789030860164228600,4.609228515625,0.9267162014782429,-0.7764882306098938,-0.1682091793693602
1789030860174233600,4.619233642578125,1.0663749936677516,-1.005016415733099,-0.12157748431488871
1789030860184237600,4.629237548828125,1.0577589948832988,-0.7537871539801358,0.05372749853432178
1789030860194241500,4.639241455078125,0.8022045634075998,0.08253799795508385,0.21813494753316043
1789030860204246500,4.64924658203125,0.2518716513097286,0.7007856316328048,0.4304175157763064
1789030860214250500,4.65925048828125,-0.2326253913089633,0.7341045483887195,0.6540642124682664
1789030860224255500,4.66925537109375,-0.7316358201876282,0.43232057291865345,0.776115744035691
1789030860234259700,4.679259765625,-0.6884194865345955,0.6434902114838361,0.891536167025566
1789030860244263700,4.689263671875,-0.40825215345844623,1.0420534762293099,0.48545624303966756
1789030860254268700,4.6992685546875,-0.330829744951427,1.2822533944457768,0.309462255012989
1789030860264272600,4.709272705078125,-0.5471437606677413,1.190142096981406,0.4749715277738869
1789030860274277600,4.719277587890625,-0.7743968112885952,0.9946025737464428,0.5202143988184631
1789030860284281600,4.729281494140625,-1.0786790333151817,0.8605933317512273,0.6960251392327249
1789030860294285600,4.73928564453125,-0.8670192731454968,0.8043681711822748,0.8918738745473325
1789030860304290600,4.74929052734375,-0.5915932893775403,0.7687433155715465,0.6722811294212937
1789030860314294500,4.75929443359375,-0.4923217448949814,0.7836012774854898,0.422382824011147
1789030860324299500,4.769299560546875,-0.2657648598447442,0.8182932361602783,0.06604308248907327
1789030860334303700,4.7793037109375,-0.2725122882783413,0.7935100925594568,-0.08109452114850282
1789030860344307700,4.7893076171875,-0.6293725465431809,0.4754185408890247,-0.05728343745023012
1789030860354312700,4.799312744140625,-0.740140613682568,0.16549743619263171,-0.1247097909912467
1789030860364316700,4.809316650390625,-0.9109162825390696,-0.17852701363563536,-0.030426702445745465
1789030860374321700,4.81932177734375,-1.0124467118643223,-0.2807154684782028,0.2499266547217965
1789030860384325600,4.82932568359375,-0.93132807918787,-0.015623685589432716,0.48087476046830413
1789030860394329600,4.83932958984375,-0.763868256881088,0.3650023559272289,0.473114647860825
1789030860404334600,4.84933447265625,-0.6424222899913787,0.7162485737025738,0.3939002413704991
1789030860414338600,4.859338623046875,-0.6221322200261056,0.9051870912373066,0.17222177601158617
1789030860424343600,4.869343505859375,-0.7412400993570685,0.9532628476202487,0.04245674745738506
1789030860434347500,4.879347412109375,-0.6937113093324005,0.9179635707020759,0.05138765740990638
1789030860444351700,4.889351806640625,-0.7274288700170815,0.7084446219533681,0.4209218115478754
1789030860454356700,4.899356689453125,-0.77960051741153,0.4338257167845964,0.8509124802142382
1789030860464360400,4.9093603515625,-0.8197793830648065,0.146000124040246,1.0390496182382105
1789030860474364400,4.919364501953125,-0.47706192418187854,-0.22707915535867212,0.7973807965129613
1789030860484369400,4.929369384765625,-0.15512655656486748,-0.5850999818354845,0.47782092585563657
1789030860494373600,4.93937353515625,-0.16547580888271332,-0.874708366343379,0.5166437007248401
1789030860504378600,4.949378662109375,-0.16314239749908446,-0.9754992293477058,0.7521575069516897
1789030860514382600,4.959382568359375,-0.0931777576521039,-0.9057739512145518,0.9678139355421066
1789030860524386600,4.969386474609375,-0.050265375381708145,-0.8373457271546125,0.990661434905231
1789030860534391600,4.9793916015625,0.07945990568399429,-0.8930436489790677,0.8037716665938496
1789030860544395800,4.989395751953125,0.07084288398623466,-0.7923901486188173,0.5337178773835302
1789030860554400800,4.99940087890625,0.016902911745011805,-0.8888742543399334,0.1796180237427354
1789030860564404700,5.00940478515625,0.034289369223266836,-0.8728244522929192,0.18998276589065788
1789030860574408700,5.01940869140625,-0.1842797319434583,-0.8588754219174385,0.486007447181642
1789030860584413700,5.02941357421875,-0.3149376176841557,-1.0047843605428934,0.6749094320982694
1789030860594417700,5.039417724609375,-0.24344196887761352,-1.1909849775463341,0.6264715644046663
1789030860604422700,5.049422607421875,-0.27407296172380446,-1.3749340162307022,0.37464082962721584
1789030860614426600,5.059426513671875,-0.19156331308037042,-1.293005090084672,0.19063801492899654
1789030860624430600,5.0694306640625,-0.17421937956959008,-1.1215443615734577,0.40968291691392655
1789030860634435600,5.079435546875,-0.01426847158819437,-0.9015665626525878,0.758069069083035
1789030860644439800,5.089439697265625,0.23127309991717337,-0.7458926013380288,0.6590320640087127
1789030860654444800,5.09944482421875,0.5395265636622906,-0.2757224824965,0.2378898877084255
1789030860664448800,5.10944873046875,0.7378890353634953,0.24773148276507853,-0.2744882645264268
1789030860674452700,5.11945263671875,0.6800862502142787,0.5223047952264547,-0.6943602747604251
1789030860684457700,5.129457763671875,0.5071253462731838,0.48007075060904025,-0.7788000146836042
1789030860694461700,5.139461669921875,0.643447541385889,0.1892442224830389,-0.756694565859437
1789030860704466700,5.149466796875,0.8997340865284204,-0.05001110835969448,-0.8101771497219801
1789030860714470700,5.159470703125,0.8679799348711967,-0.24095979667305945,-1.0194435850143433
1789030860724474600,5.169474609375,1.0222224020779132,0.008225392031669616,-1.3129872631445527
1789030860734479600,5.179479736328125,0.8484010819151997,0.719601391261816,-1.46195938873291
1789030860744483600,5.189483642578125,0.7129848957315087,1.24425771805048,-1.4639116918444632
1789030860754488800,5.19948876953125,0.6075856621488929,1.3142185585051773,-1.2082114221572875
1789030860764492800,5.209492919921875,0.3246048790872097,1.0728712238192557,-0.6406523577094078
1789030860774496500,5.21949658203125,-0.09139496588855982,0.3268868525445461,-0.3234679840117693
1789030860784501800,5.229501708984375,-0.03660889821201563,-0.7084837849199771,-0.36417642649710175
1789030860794505500,5.23950537109375,0.20311229657679794,-1.2462848399639128,-0.4566638637974858
1789030860804510700,5.2495107421875,0.17931348783820866,-0.9957903222262858,-0.3617024375990033
1789030860814514700,5.2595146484375,0.16327888336032628,-0.41701778984665866,-0.11929478020519017
1789030860824518700,5.2695185546875,0.15194383487552404,0.07572714889645576,0.20601766262948512
1789030860834523600,5.279523681640625,-0.05213935256004333,0.30427170063257214,0.4794534954935312
1789030860844527600,5.289527587890625,-0.3085539079964161,0.16095628563165665,0.5981935644254088
1789030860854532600,5.29953271484375,-0.420275330337882,-0.15189678086340427,0.5430304801300168
1789030860864536800,5.309536865234375,-0.6131731068924069,-0.4362181648790836,0.48064270527809855
1789030860874540500,5.31954052734375,-0.6402750488296151,-0.6746838066488504,0.5065551451697945
1789030860884545500,5.329545654296875,-0.5756102689564228,-0.6692717184722423,0.5135992184624075
1789030860894549500,5.339549560546875,-0.5285267384812236,-0.4183656973242759,0.49678398500084875
1789030860904554500,5.349554443359375,-0.42541357000917196,-0.34411797333061694,0.539380433189869
1789030860914558700,5.359558837890625,-0.29731092170923945,-0.2583078218370676,0.4732292141512036
1789030860924562700,5.369562744140625,-0.5145882294997572,-0.20326631809473036,0.6825707605063915
1789030860934567700,5.379567626953125,-0.4008966761291027,-0.28759879825115203,0.8846957996115088
1789030860944571600,5.389571533203125,-0.2724132118180394,-0.19162322657406328,0.8448021806403994
1789030860954576600,5.39957666015625,-0.14294716621041298,-0.028650924944877622,0.8033610399663448
1789030860964580900,5.409580810546875,0.02317249353379011,0.11388649142086506,0.5508803168475628
1789030860974584600,5.41958447265625,-0.17587679138779638,0.2925666497915983,0.6802215670317411
1789030860984589600,5.429589599609375,-0.19374065711945293,0.1959749920427799,0.8136641150549053
1789030860994593500,5.439593505859375,-0.1924623077467084,0.051426820376515386,0.8378411094561219
1789030861004598500,5.4495986328125,-0.5252630605101585,-0.08158055109977722,0.92394264511168
1789030861014602800,5.459602783203125,-0.27795886324644087,-0.17858429678082466,0.4667576800495386
1789030861024606700,5.469606689453125,-0.27106618112325664,-0.15418343049585817,0.2840799764752388
1789030861034611700,5.47961181640625,-0.1693149486541748,-0.04149345538318157,0.3322504254043102
1789030861044615700,5.48961572265625,0.21026333737522362,0.22565935168862342,0.6234665373697876
1789030861054620700,5.49962060546875,0.5696095672369003,0.39272447558939455,0.8840995872840285
1789030861064625000,5.509625,0.5171940280839801,0.3999152638763189,1.0194035452648997
1789030861074628600,5.519628662109375,0.5381938537538051,0.26368483870029447,1.0351029264390468
1789030861084633600,5.529633544921875,0.6521712383285164,0.08927402821183204,0.8726797831252217
1789030861094637600,5.539637451171875,0.6233075474157929,0.11956804418861865,0.8299991637840867
1789030861104642600,5.549642578125,0.48006812026053663,0.27140754190683364,0.705104663875699
1789030861114646800,5.559646728515625,0.270069571301341,0.4069529074281454,0.6481339456364512
1789030861124650800,5.569650634765625,0.1643827529489994,0.4468471109211445,0.7006015072375535
1789030861134655700,5.57965576171875,0.2845113536298275,0.39784021116793156,0.5152133756607771
1789030861144659700,5.58965966796875,0.25752397798299786,0.2180839479982853,0.3242942057028413
1789030861154664700,5.599664794921875,0.08055997588038444,-0.08124854266643523,0.3547212004095316
1789030861164668700,5.609668701171875,-0.08703618615716695,-0.3597013269096613,0.3679474694684148
1789030861174672600,5.619672607421875,-0.0829448251903057,-0.6326140126824379,0.38548663329035043
1789030861184677600,5.629677734375,-0.3588920563533902,-0.8465607147455215,0.37876024764478206
1789030861194681600,5.639681640625,-0.4395069772914052,-0.9900234292626381,0.07224310617297887
1789030861204686600,5.6496865234375,0.11967851882576942,-1.1878566163927315,0.007173544891178608
1789030861214690600,5.659690673828125,0.253711726218462,-1.2275783859282732,0.2664204011440277
1789030861224694800,5.66969482421875,0.0032590017959475514,-0.6703308721363544,0.2493292733505368
1789030861234699800,5.67969970703125,0.5107599033832549,-0.28155250382423397,-0.4983125097423792
1789030861244703700,5.689703857421875,0.4177288607254624,-0.1682259843736887,-0.8130544587239623
1789030861254708700,5.699708740234375,0.32883681756854055,-0.26410101828575133,-0.8388339198857545
1789030861264712400,5.70971240234375,0.6273927709028124,-0.42124096049964427,-0.925841172209382
1789030861274717700,5.7197177734375,0.8153310253538191,-0.27244389921724793,-0.9563014846637844
1789030861284721700,5.7297216796875,0.6759038499630987,0.24396131657660006,-0.8013330412700772
1789030861294725600,5.7397255859375,0.40380876418352124,0.811896813121438,-0.6718062053859234
1789030861304730600,5.749730712890625,0.15635609835982323,1.2412784099787473,-0.44703181983828544
1789030861314734600,5.759734619140625,-0.07529138782769441,1.4460042792320251,-0.06765811647027731
1789030861324739600,5.769739501953125,-0.3845172037363052,1.6057465128988027,0.41852994797527787
1789030861334743800,5.779743896484375,-0.2953587647281587,1.9026409627616405,0.6293769304573535
1789030861344747800,5.789747802734375,0.12526421000361443,2.2214304335683583,0.7064727373585105
1789030861354752800,5.799752685546875,-0.19786153644174337,2.0722551866233347,1.0120487985879183
1789030861364756500,5.809756591796875,-0.37479426662325854,1.628400243255496,1.2540014056906104
1789030861374761500,5.819761474609375,-0.38826837296336886,1.1824930435329675,1.5318288976423442
1789030861384765700,5.829765625,-0.3104202863901853,0.9180898274302483,1.6506202583700418
1789030861394769700,5.839769775390625,-0.013507131826877593,0.7603209396630525,1.3680027556627987
1789030861404774700,5.849774658203125,-0.025555589278042315,0.6925017874121665,0.9740709501102566
1789030861414778600,5.859778564453125,-0.14779972080811857,0.5007575648069381,0.4978156661361456
1789030861424783600,5.86978369140625,-0.12791194803342223,0.38256314705908295,0.31272096454799175
1789030861434787800,5.879787841796875,-0.440128324060142,0.17164777551591395,0.3340115898579359
1789030861444791600,5.88979150390625,-0.3691933778762817,-0.11827040559351444,0.18624913232028484
1789030861454796800,5.899796875,-0.23772417575269936,-0.24255495691001414,0.1177794072061777
1789030861464800500,5.909800537109375,-0.677170655028522,-0.49744215664863584,0.10219020840823649
1789030861474805500,5.919805419921875,-0.37731238692402835,-0.6724275521546602,-0.09334785352200269
1789030861484809700,5.929809814453125,-0.10818214229941367,-0.5225625693798065,0.02168459306359291
1789030861494813700,5.939813720703125,-0.10487228709906339,-0.3641092064797878,0.07102233220636844
1789030861504818700,5.949818603515625,0.2617310742840171,-0.1798240677088499,0.08335545181781052
1789030861514822700,5.95982275390625,0.09839987621456384,0.07062427279949188,0.40005145747661586
1789030861524827600,5.96982763671875,0.19749737930446862,0.3312877178519964,0.3883919993430376
1789030861534831900,5.979831787109375,0.02035655933022499,0.36443361612856384,0.49978550490438933
1789030861544835600,5.989835693359375,-0.1829376696847379,0.3098468704164028,0.5740256301134824
1789030861554840600,5.999840576171875,-0.08366144902706146,0.18943711470663546,0.44113457849323745
1789030861564845000,6.009844970703125,-0.02835048069357872,0.003558569264411926,0.30072277597934005
1789030861574850000,6.01985009765625,-0.32036694925650955,-0.16876432903409003,0.45497576458007094
1789030861584854000,6.02985400390625,-0.6197950092501938,-0.45375323704779147,0.5221405445754528
1789030861594859000,6.03985888671875,-0.7900304337501526,-0.7601444140523672,0.5185214772954583
1789030861604863200,6.04986328125,-0.7826596127212048,-1.116536178022623,0.3157242380172014
1789030861614867000,6.059866943359375,-0.80472209918648,-1.3485270708203314,0.3022743893355131
1789030861624872200,6.0698720703125,-0.8369359773099422,-1.3361895672947168,0.3245914350837469
1789030861634876000,6.0798759765625,-0.8046344209030271,-1.01008714312613,0.4212085195347666
1789030861644881000,6.089880859375,-0.6564768265679478,-0.414042573428154,0.7042538922652601
1789030861654885000,6.099885009765625,-0.42980975914150477,0.10305939245820045,0.5764353216037154
1789030861664889000,6.10988916015625,-0.1934380209110677,0.587758387389779,0.35049481488615275
1789030861674894000,6.11989404296875,-0.06772592100948095,1.038494906964898,0.2516144616782665
1789030861684898000,6.12989794921875,0.005044716168940067,1.3078361639916896,0.2224357134670019
1789030861694903000,6.139903076171875,0.16057883062139153,1.251674716308713,0.09512100067436695
1789030861704907300,6.1499072265625,0.3003472206652164,0.8714525794178247,-0.09483750755786895
1789030861714911000,6.159910888671875,0.44453240423798557,0.3427408397585153,-0.26918518968224525
1789030861724916000,6.169916015625,0.3687935649037361,-0.2888333084821701,-0.0357581266015768
1789030861734920000,6.179919921875,0.22087679358720777,-1.0001385805636644,0.2330608601167798
1789030861744925000,6.189925048828125,0.4339335610732436,-1.4743465766191481,-0.05266045382469892
1789030861754929200,6.19992919921875,0.5353764582455158,-1.5121528679221867,-0.6429378382980823
1789030861764934100,6.20993408203125,0.5060965877473355,-1.1934241873919964,-1.0486550664514303
1789030861774938000,6.219938232421875,0.5098384046241641,-0.691672935372591,-1.2051172555342315
1789030861784942000,6.229942138671875,0.2711041750460863,-0.13802724546492098,-1.1305179416239262
1789030861794947000,6.239947021484375,0.10964783093780278,0.2576227621823549,-1.0064385574907064
1789030861804951300,6.249951416015625,0.039360535007715226,0.36478140665292735,-0.7790338234394788
1789030861814956300,6.259956298828125,0.18483078995496033,0.13508885392546652,-0.5820812185361981
1789030861824960000,6.2699599609375,0.35878538110852237,-0.2076823809713125,-0.600586012519896
1789030861834964000,6.2799638671875,0.3230994429603219,-0.43772272422313685,-0.32306203355938196
1789030861844969000,6.289968994140625,0.2780105934336781,-0.49901393601000305,-0.019948855312168598
1789030861854973200,6.29997314453125,0.31208237438350916,-0.39124329712092876,0.09657529113590717
1789030861864978200,6.309978271484375,0.4535504079520702,-0.3069751143723726,0.08462211075276135
1789030861874982100,6.319982177734375,0.5840051723361015,-0.01000467666387558,0.03120470108091831
1789030861884986000,6.329986083984375,0.1554857452660799,0.31429157486557957,-0.04970014271438122
1789030861894991000,6.3399912109375,-0.33145839824378487,0.22632979829609393,0.007303308750689029
1789030861904995300,6.349995361328125,-0.4601683647871017,0.04271159900128841,0.11526654760241507
1789030861915000300,6.360000244140625,-0.6006640461921692,-0.13430968624651432,0.057633858323097226
1789030861925004000,6.370004150390625,-0.6594742548182606,-0.31272388715744015,-0.003602700667083263
1789030861935009000,6.380009033203125,-0.6422647613421082,-0.3349053238272667,-0.04538490986377001
1789030861945013000,6.390012939453125,-0.8700295608773827,-0.31261048991084095,0.15022300243228673
1789030861955017200,6.400017333984375,-0.9478897762797772,-0.20259061079025267,0.196883046798408
1789030861965022200,6.410022216796875,-1.0877705406568945,0.027310616251826285,0.21833470788896084
1789030861975026200,6.420026123046875,-1.1768446623824536,0.1993774939626455,0.3603589140355587
1789030861985031200,6.43003125,-1.2196807645462453,0.33526889644265173,0.22259148855060337
1789030861995035100,6.44003515625,-1.3993334212109445,0.2935907321423292,0.3106961807221174
1789030862005039000,6.4500390625,-1.383806473994255,0.016744214051961897,0.20353841303437947
1789030862015044000,6.460044189453125,-1.3624658720627427,-0.31680326542556286,-0.0007256839260458946
1789030862025048000,6.470048095703125,-1.0471309256240724,-0.6161322489589453,0.015934358973801136
1789030862035053000,6.480052978515625,-0.5523717244490981,-0.7110019052207469,0.18891776700764892
1789030862045057000,6.49005712890625,-0.2871463783085346,-0.5674211172819137,0.33785394449979067
1789030862055062000,6.50006201171875,-0.23179683153033256,-0.2869856347888708,0.46241059075593943
1789030862065066000,6.51006591796875,-0.15315584101378918,-0.05701718772947788,0.3524666994810104
1789030862075070200,6.5200703125,-0.19099837267398834,0.15555354980528355,0.3331038273632526
1789030862085075200,6.5300751953125,-0.2952002131655812,0.1359837569385767,0.46997225818186994
1789030862095079200,6.5400791015625,-0.12569938655048607,0.031208792734146118,0.5121662630498409
1789030862105084200,6.550084228515625,0.04778671030849218,0.06359247446656227,0.4462190421506762
1789030862115088000,6.560087890625,0.06410013172775507,0.04614566510319709,0.25602292577028274
1789030862125092000,6.570092041015625,0.1816226415634155,0.15797639303803443,0.3118248924911022
1789030862135097000,6.58009716796875,0.17901830428391693,0.24784429548978804,0.4373375242978334
1789030862145101000,6.59010107421875,0.134892162309587,0.3300502850115299,0.6348676368281245
1789030862155106000,6.60010595703125,-0.14149346027076243,0.3340595206528902,0.8109986952379346
1789030862165110000,6.610110107421875,-0.23190321451425552,0.10860241353809832,0.637742607742548
1789030862175115000,6.620114990234375,-0.12862170373797416,-0.296196530726552,0.5808583987429737
1789030862185119200,6.630119140625,-0.06665040073245763,-0.6737947488546371,0.4717763849943876
1789030862195123200,6.640123291015625,0.14539835875481366,-0.8878735528647899,0.25411884571462867
1789030862205128200,6.650128173828125,0.07598316948413848,-0.6484750141590834,0.266777836279571
1789030862215132000,6.6601318359375,0.02819265978336334,-0.4160936607390642,-0.08895400247722864
1789030862225137000,6.670136962890625,0.10643091471791266,-0.25901041714847084,-0.3861474352866411
1789030862235141000,6.68014111328125,-0.08972294102311133,-0.165075411388278,-0.23207857108116148
1789030862245145000,6.69014501953125,-0.013088321892917155,-0.26189912432730195,-0.3044239685848355
1789030862255150000,6.700150146484375,0.22308131789416075,0.10067512767016887,-0.7500240020543336
1789030862265154000,6.710154052734375,0.3268491508826613,0.6218354290366173,-1.179308568277955
1789030862275159000,6.720158935546875,0.2786179116770625,0.8316179971575737,-1.2347358564674853
1789030862285163300,6.730163330078125,0.09755056590884924,0.43916181711554525,-0.7186088730931282
1789030862295168300,6.740168212890625,0.23489012137055396,-0.1798018558770418,-0.25271599317938087
1789030862305172200,6.750172119140625,0.6672817136988043,-0.5225076243221759,-0.10693564936965703
1789030862315176000,6.760176025390625,0.8372960427939892,-0.46700317924320695,-0.26172698263078925
1789030862325181000,6.770180908203125,0.8321995964378118,-0.14280454286932945,-0.6140154029354453
1789030862335185200,6.78018505859375,0.742216250912845,0.3885661868661642,-0.6597603782832622
1789030862345190100,6.790190185546875,0.48618455731421706,0.7735024927973747,-0.4062961970850825
1789030862355194000,6.800194091796875,0.24873159971833228,0.4470417567104101,-0.08196165937185287
1789030862365198000,6.810197998046875,-0.037269992469251154,-0.19641396798193453,0.19455664967745542
1789030862375203000,6.820203125,-0.13164222060292957,-0.6669879914492368,0.1774848111063242
1789030862385207300,6.830207275390625,-0.14262480238825082,-0.7420891174018382,0.031922493961453434
1789030862395212300,6.84021240234375,-0.09145780199170112,-0.18504209461808205,-0.2616501180022955
1789030862405216000,6.850216064453125,-0.17179478277117013,0.4465671249359846,-0.5327765048801899
1789030862415221000,6.860220947265625,-0.23665566973835228,0.6509720916718245,-0.5580483087807894
1789030862425225000,6.870224853515625,0.12060644732564688,0.8205506596982478,-0.7693637855574488
1789030862435229200,6.880229248046875,0.12078648006767034,1.0625000519305468,-0.9077014121457934
1789030862445234200,6.890234130859375,-0.13367109608203173,0.8752630776166915,-0.7861834029331802
1789030862455238100,6.900238037109375,-0.27491555002778767,0.5003969148010016,-0.42812195218503474
1789030862465243100,6.9102431640625,-0.2362622865065932,0.18297347165048122,0.05281652116924524
1789030862475247000,6.9202470703125,-0.04654255546629429,-0.33057109401524065,0.17553133895099163
1789030862485252000,6.930252197265625,0.054658349643647665,-0.7532289355754852,0.1933338298842311
1789030862495256000,6.940256103515625,0.1308273970887065,-0.8586229084610939,0.02100099471360445
1789030862505260000,6.950260009765625,0.1428083422616124,-0.766077311232686,-0.26754794386923314
1789030862515265000,6.96026513671875,0.021510405540466307,-0.9118599931299686,-0.1981844847857952
1789030862525269000,6.97026904296875,0.11073971782773732,-0.9898691154837608,-0.2351151622980833
1789030862535274000,6.98027392578125,0.16182605420351026,-0.8613140472412109,-0.2947472087010741
1789030862545278000,6.99027783203125,0.15323679729551076,-0.6400847869545221,-0.4990452079311013
1789030862555282200,7.0002822265625,0.17615473154634237,-0.4331248750388622,-0.6505468519970774
1789030862565287200,7.010287109375,0.0684404990196228,-0.2780325130045414,-0.6837628929004073
1789030862575291100,7.020291015625,-0.18481150073260066,-0.370061977404356,-0.6564829640477895
1789030862585296100,7.030296142578125,-0.22960341313928365,-0.48206747738420963,-0.5592459941327571
1789030862595299800,7.0402998046875,-0.11912176172584295,-0.3376221815705299,-0.4467445273295045
1789030862605304000,7.050303955078125,-0.05181552743315696,-0.029694296517968177,-0.44266222645193337
1789030862615309000,7.06030908203125,-0.06932517289966345,0.39540392393171786,-0.4518570480376482
1789030862625313000,7.07031298828125,-0.04794014730453491,0.49705637220144266,-0.5520274410560727
1789030862635318000,7.080318115234375,-0.03577127834409475,0.3818032686024904,-0.5916249996900558
1789030862645322000,7.090322021484375,-0.0430430229127407,0.17727730583548545,-0.4706292607858777
1789030862655327000,7.100326904296875,0.03614771044105291,0.003362169909477234,-0.26118016240298747
1789030862665331200,7.110331298828125,0.1181216447725892,-0.1807990502208471,-0.10458704041689634
1789030862675335000,7.1203349609375,0.38792408957034347,-0.1576157430320978,-0.11904957327246665
1789030862685340200,7.130340087890625,0.49103404317200183,0.28421675459742546,-0.40931817525476216
1789030862695343900,7.14034375,0.3907879545688629,0.08769991076290606,-0.44112171901166436
1789030862705348900,7.150348876953125,0.4333011083886027,-0.17391455140411852,-0.39370530332028864
1789030862715353000,7.16035302734375,0.42949587088674307,-0.32301731763482094,-0.3572171088784933
1789030862725358000,7.170358154296875,0.36094577401280403,-0.3604699731945991,-0.30485359217375513
1789030862735362000,7.180362060546875,0.29081016151309014,-0.33121173000633714,-0.24827625716626642
1789030862745366000,7.190365966796875,0.15103256524950265,-0.11681085443496704,-0.15320026467740536
1789030862755371000,7.20037109375,-0.11232143406122923,-0.35342999155521393,-0.09977467169910668
1789030862765375200,7.210375244140625,-0.25593729331344367,-0.5071037189632653,-0.0270791455835104
1789030862775380200,7.220380126953125,-0.11680968539118766,-0.456919007602334,-0.02095510974526405
1789030862785384000,7.230384033203125,-0.26382629299759863,-0.517723897176981,-0.07024199548363685
1789030862795388000,7.240387939453125,-0.41158582792580123,-0.6796276927918196,-0.14363748656213282
1789030862805393000,7.250392822265625,-0.39634295834749933,-0.6622007571727037,0.025042379058897495
1789030862815397000,7.260397216796875,-0.28270255064219235,-0.4889274262815714,0.039700726747512814
1789030862825402000,7.270402099609375,-0.21827625569999218,-0.2238993562787771,0.011450783818960189
1789030862835406000,7.280406005859375,-0.14776128849387168,-0.07997954564392566,-0.15832359904050827
1789030862845411000,7.2904111328125,-0.13534370546936988,-0.05842179383039474,-0.341288595123589
1789030862855415000,7.3004150390625,-0.3604299334451556,-0.35033845528066154,-0.29906156476885076
1789030862865419300,7.310419189453125,-0.33073914405852556,-0.7039490640997886,-0.13508008609712124
1789030862875424300,7.32042431640625,-0.20748218222409487,-0.7083318092286587,0.0585281768143177
1789030862885428000,7.330427978515625,-0.010170388619601727,-0.33635376906991005,-0.025628654514253137
1789030862895433000,7.340432861328125,0.2777119027480483,0.08919687132239341,-0.2747916313871741
1789030862905437000,7.35043701171875,0.3317477365791797,0.24884967314004897,-0.34944939748644827
1789030862915441200,7.360441162109375,0.3899181859970093,0.05870002624988556,-0.496899135813117
1789030862925446100,7.370446044921875,0.5000628605410457,0.02554360657930374,-0.6943629051089286
1789030862935450000,7.3804501953125,0.5399345599412918,0.24479016861617564,-0.7069593518316746
1789030862945455000,7.390455078125,0.5121583720043301,0.3919248496443033,-0.6890951938390731
1789030862955459000,7.400458984375,0.39062721104919906,0.7490057649224996,-0.6042211541518568
1789030862965464000,7.410464111328125,0.23558570241928098,0.5107236630260944,-0.47601124608516693
1789030862975468000,7.420468017578125,0.2435071430683136,0.35369711805880066,-0.23828853163719177
1789030862985472000,7.430471923828125,0.20070611221790313,0.4960276136755943,-0.18439765923470258
1789030862995477000,7.44047705078125,-0.11831161438673735,0.31807401601374147,0.0017947744622826575
1789030863005481000,7.45048095703125,-0.1835235067486763,-0.08073007175028324,-0.057660454069077965
1789030863015486000,7.46048583984375,-0.0657692339837551,-0.3713344815582037,0.14734130951613186
1789030863025490000,7.470489990234375,0.05150777665823698,-0.1856529199928045,0.14058394421041012
1789030863035495200,7.4804951171875,0.02616319978237152,-0.17454875765442848,-0.03005056260973215
1789030863045499100,7.4904990234375,-0.04538461760282516,-0.13087971179783345,-0.06877835267186165
1789030863055503000,7.500503173828125,0.14586422270089386,0.020918284866213797,-0.2642781284183264
1789030863065508000,7.510508056640625,0.31442016968131065,0.19268705641329287,-0.4109408080205321
1789030863075511800,7.52051171875,0.2894546552509069,0.07666530652940273,-0.2887909306451678
1789030863085517000,7.53051708984375,0.22084026096910236,-0.1159235502064228,-0.22776742988377807
1789030863095521000,7.54052099609375,-0.020807810229063032,-0.3250654823362827,0.08817045088410377
1789030863105525000,7.55052490234375,-0.026329788520932196,-0.6086462771177291,0.3869698575854301
1789030863115530000,7.560530029296875,0.11367197188735008,-0.5374088408559561,0.34612580602169035
1789030863125534000,7.570533935546875,0.09468319377899169,-0.2948679124712944,0.2106365546017885
1789030863135539000,7.5805390625,0.17209405797868965,-0.026848259437084198,0.010821838265657423
1789030863145543200,7.590543212890625,0.20921441284418105,0.2724012291193008,-0.2618389185726642
1789030863155548200,7.600548095703125,0.04065729681998491,0.54762160731256,-0.3714814888134598
1789030863165552000,7.61055224609375,0.020732699166238308,0.605102905422449,-0.4294233901724219
1789030863175555800,7.620555908203125,0.036759120337665076,0.516101264411211,-0.3654316872552037
1789030863185560800,7.630560791015625,-0.05135638548880815,0.30513094781041145,-0.25366847159862516
1789030863195565000,7.64056494140625,0.041567689663171765,0.1706049884647131,-0.2413604864284396
1789030863205570000,7.650570068359375,0.07245762570649385,0.14866086768209932,-0.18568214608728884
1789030863215574000,7.660573974609375,0.03718085288107395,0.035299276918172834,-0.11480331400483847
1789030863225579000,7.6705791015625,0.042296588459610936,-0.0841390034109354,-0.11347498801052569
1789030863235583000,7.6805830078125,0.042103988496959205,-0.14357611176371574,-0.12024784314632415
1789030863245587200,7.690587158203125,0.08824147029370069,-0.21221534822583196,-0.1845227469190955
1789030863255592200,7.70059228515625,0.17387889556884764,-0.15788053144812583,-0.403919238820672
1789030863265596200,7.71059619140625,0.24164105693548915,0.03796411221325397,-0.5428229748591781
1789030863275601200,7.72060107421875,0.43509909772127864,0.2971820346325636,-0.42689474847763775
1789030863285604900,7.73060498046875,0.37842999277710915,0.4240414048731327,-0.14389087680131196
1789030863295609900,7.74060986328125,0.06589841332137585,0.41532384541034695,0.20157032783180473
1789030863305614000,7.750614013671875,-0.012121814948320387,0.3285737827181816,0.4265639090880751
1789030863315618000,7.7606181640625,0.10458733267784118,0.19291501995027063,0.483140951834619
1789030863325623000,7.770623046875,0.2733820568501949,0.004303250151872635,0.5207207409054041
1789030863335627000,7.780626953125,0.3816872410073876,-0.26707272757291795,0.443263407215476
1789030863345632000,7.790632080078125,0.3616647359371185,-0.48709670372307295,0.4528969124794006
1789030863355636200,7.80063623046875,-0.0738236533626914,-0.7489923209190368,0.5686231865480542
1789030863365640200,7.81064013671875,-0.23193682452291248,-1.3441641994357107,-0.31725773119479417
1789030863375645200,7.820645263671875,0.6319008959770203,-1.6318617818862198,-1.0310805390551685
1789030863385649000,7.83064892578125,1.185884731797874,-1.5033873776644466,-1.0934113230228424
1789030863395654000,7.84065380859375,0.7605068176239729,-1.3870727823138236,-1.0530582698464392
1789030863405658000,7.850658203125,0.6021501930966973,-0.9430097491532564,-0.6709536802098155
1789030863415663000,7.8606630859375,-0.8618237503290176,-0.36235973246395586,0.034897418119013306
1789030863425667000,7.8706669921875,-1.5181097304999827,0.03274550078213215,0.7906812988743186
1789030863435671000,7.880671142578125,-1.1351096533283591,-0.09575579144656658,0.8719190278857946
1789030863445676000,7.890676025390625,-0.8832035152271389,-0.4173310935795307,0.8548536190554499
1789030863455680300,7.90068017578125,-0.5627005185008048,-0.5838812536954879,0.8305486143603921
1789030863465685200,7.910685302734375,-0.4008981374338269,-0.44467268949151034,0.9990797191604971
1789030863475689000,7.92068896484375,-0.6740761961445212,-0.149551094520092,1.287404201337695
1789030863485694000,7.93069384765625,-0.5646390853479504,-0.09527765254080295,0.9841986686319112
1789030863495698000,7.940697998046875,0.18186200327724217,-0.048286184263229365,0.23704145418554542
1789030863505702100,7.9507021484375,0.7797744126737117,0.05200315895974636,-0.21149697082340715
1789030863515707100,7.96070703125,1.1636010037973523,0.12087561965584755,-0.6506926902085542
1789030863525711000,7.970711181640625,1.4284572243645786,0.2782417718410492,-1.1022235750317573
1789030863535716000,7.980716064453125,1.3913517748072743,0.49978258229494094,-1.3870911947533489
1789030863545720000,7.990719970703125,1.2049755089759826,0.6139402918726206,-1.6715923192501068
1789030863555724000,8.00072412109375,1.0715431900858878,0.5084083718210458,-1.911550829926133
1789030863565728500,8.010728515625,0.6851496710836887,0.2528711837410927,-1.7656269859924911
1789030863575732500,8.020732421875,0.323561799775064,-0.26679274158775806,-1.2307643224880098
1789030863585737500,8.030737548828125,0.267689982688427,-0.7990262256324291,-0.6167486272916197
1789030863595741400,8.040741455078125,0.14070026406645775,-1.267577218839526,0.10690145483911037
1789030863605746400,8.050746337890626,0.11696662951856851,-1.4095523251473903,0.5144140419766307
1789030863615750400,8.06075048828125,0.28200696959346533,-1.1831231581300496,0.6050555591493845
1789030863625754400,8.07075439453125,0.2100613850623369,-0.7752408608973026,0.8379428162649274
1789030863635759400,8.08075927734375,-0.00429039067029953,-0.46956046251058575,1.0710247191697357
1789030863645763300,8.090763427734375,-0.2082905759975314,-0.31904958304762837,1.2522262127116321
1789030863655768300,8.100768310546876,-0.2700347922489047,-0.3881447465837002,1.2812097306117414
1789030863665772500,8.1107724609375,-0.06836568021774292,-0.3683277009576559,1.0264856124803423
1789030863675776500,8.120776611328125,0.0724950351074338,-0.33466099367737767,0.6753571758657694
1789030863685781500,8.130781494140624,0.4019935314550996,-0.16071195548176764,0.2832937945336103
1789030863695785500,8.140785400390625,0.47568625191450115,0.028099136281013487,0.11454086367636919
1789030863705790500,8.15079052734375,0.36494068886786696,-0.02329845800101757,0.08463263214677572
1789030863715794400,8.16079443359375,0.44040129578262566,-0.16595862396359443,-0.2527276836171746
1789030863725799400,8.17079931640625,0.5467901249244809,-0.22081483426690102,-0.48351183097362516
1789030863735803400,8.180803466796876,0.5742167687714099,0.02731295433938503,-0.3198132608965039
1789030863745807400,8.190807373046875,0.44857992606312036,0.21594635144770144,-0.16918430801182985
1789030863755812400,8.200812255859375,0.24260142640024424,0.35584348243772984,0.020053776991367338
1789030863765816600,8.210816650390624,0.14930910245776174,0.3837397896230221,0.002342471472918987
1789030863775821600,8.220821533203125,0.08102291721701621,0.513762592330575,-0.006527940464019775
1789030863785825500,8.230825439453126,0.006266074657440186,0.6116185709267854,-0.0331941213324666
1789030863795830500,8.24083056640625,0.0025590368330478666,0.5575321759521961,-0.17906623507887123
1789030863805834500,8.25083447265625,0.04695435113757848,0.4396253429740667,-0.19940350518673658
1789030863815838500,8.26083837890625,0.07275690091401338,0.2279863333314657,-0.1842670185923576
1789030863825843500,8.270843505859375,0.20253245086222885,0.18244915551543234,-0.2041407628417015
1789030863835847400,8.280847412109376,0.06598842969238758,0.3180757695794105,-0.15419453641176223
1789030863845852400,8.290852294921875,-0.02195201182812452,0.298641585791111,-0.31093758826255796
1789030863855856400,8.3008564453125,0.19255992290228605,0.32434827397763727,-0.4277423052176833
1789030863865861400,8.310861328125,-0.017997428983449935,0.3458054880261421,-0.1469350668027997
1789030863875865300,8.320865234375,-0.12943857307881115,0.2990677022486925,0.0033262218132615088
1789030863885869600,8.33086962890625,-0.19483283627033232,0.26483050160408017,0.07050736842155456
1789030863895874600,8.34087451171875,-0.34554596030712126,0.11743629285693168,0.26366759530454875
1789030863905878300,8.350878173828125,-0.6136170512676239,-0.3016822686612606,0.5948647122636437
1789030863915883500,8.360883544921874,-0.5853682773828506,-0.7809592385441064,0.7853057433158159
1789030863925887200,8.37088720703125,-0.5305620437011123,-0.9696236153125762,1.0119622893482445
1789030863935891500,8.380891357421875,-0.45586073072105643,-0.8865198001682758,1.1132625631794333
1789030863945896400,8.390896484375,-0.7143968083560467,-0.7270978844970464,1.124274078798294
1789030863955900400,8.400900390625,-1.0883014326632021,-0.7857423811674118,1.0946735980436206
1789030863965905400,8.410905517578126,-0.9573723287656902,-0.9742816702514886,0.91594170948565
1789030863975909400,8.420909423828125,-0.3616504151508212,-0.8292448382854462,0.7183809095561504
1789030863985914400,8.430914306640625,0.07769143470674753,-0.3342448140919208,0.3117471510797739
1789030863995918600,8.440918701171874,0.15050795685350893,0.1989431941986084,0.09337444926798343
1789030864005922300,8.45092236328125,0.09832973358780145,0.5232388612061739,0.027264439022541043
1789030864015927300,8.46092724609375,0.044451136144995684,0.7127391042768955,-0.07784311813712119
1789030864025931300,8.47093115234375,-0.20299597672075032,0.8065589592248201,-0.0072808046579360955
1789030864035936300,8.480936279296875,-0.4009250254407525,0.6643851154744624,0.19302403328269718
1789030864045940500,8.4909404296875,-0.2827346993461251,0.4493330825179815,0.3654614978715777
1789030864055944400,8.5009443359375,-0.1981026517212391,0.41275253361761566,0.4084036907583475
1789030864065949400,8.510949462890625,-0.2760579980611801,0.43191549924910067,0.4309071989893913
1789030864075953400,8.520953369140624,-0.19117343697994946,0.39566403617262835,0.44822307544946666
1789030864085958400,8.53095849609375,-0.2783528310000896,0.25079963816404344,0.5944137536257506
1789030864095962600,8.540962646484376,-0.31717589813023805,-0.0008902268379926681,0.5925184413984418
1789030864105967600,8.550967529296875,-0.32149785298258066,-0.22846914841234683,0.7367562319412827
1789030864115971300,8.560971435546875,-0.2683411400735378,-0.4331652070492506,1.01086134236902
1789030864125975300,8.570975341796874,-0.33713410579264164,-0.4794955810695886,1.1837521036833525
1789030864135980300,8.580980224609375,-0.25142653789073227,-0.3677577921152115,1.019380748911202
1789030864145984500,8.590984619140626,-0.2564639475360513,-0.11631050369739532,0.7320935008272528
1789030864155989500,8.600989501953125,-0.2388862052693963,0.05970131224691867,0.5508280021384359
1789030864165993500,8.610993408203125,-0.12480214544981717,0.18838731339275835,0.5779863504379987
1789030864175997400,8.62099755859375,-0.13383768482059238,0.15141805743575096,0.5949392388045788
1789030864186002400,8.63100244140625,0.027983693207800385,0.0060404492080211635,0.4964814949229359
1789030864196006700,8.641006591796875,0.31702479922175403,-0.13324819449484349,0.22557868766784667
1789030864206011600,8.65101171875,0.4706961885422468,-0.28250410546064375,-0.03824789759069681
1789030864216015400,8.661015380859375,0.6169955877900123,-0.2557669051826,-0.1385322723776102
1789030864226020400,8.671020263671876,0.717126525580883,-0.13480419176518915,-0.22332447900027036
1789030864236024300,8.6810244140625,0.8364414717912674,-0.04169453091323375,-0.1911325204476714
1789030864246028500,8.691028564453125,0.8075473857402801,-0.12141980953514575,-0.2021095492750406
1789030864256033500,8.701033447265624,0.8605354640841484,0.07108838317990303,-0.2926671875566244
1789030864266037500,8.71103759765625,0.9332558323800563,0.3027145343184471,-0.3488958552569151
1789030864276042500,8.72104248046875,0.8661541807487606,0.4269160835266113,-0.380662574134767
1789030864286046500,8.73104638671875,0.556553101786971,0.4896048871517181,-0.5135407662734389
1789030864296050400,8.741050537109375,0.25428105053901673,0.6703326257020235,-0.473954021294415
1789030864306055400,8.751055419921874,0.012903612975776194,0.5540636230587959,-0.5627104553729295
1789030864316059400,8.761059326171875,0.04068272352218628,0.15404899046123027,-0.8435282151818275
1789030864326064400,8.771064453125,0.4457689602956176,0.045448915010690684,-1.017075394578278
1789030864336068400,8.781068359375,0.6932359469056129,0.27245266704559323,-0.9683169166281819
1789030864346073300,8.7910732421875,0.35333763709664345,0.6308166078716516,-0.7251692545220255
1789030864356077300,8.801077392578126,-0.20952888562083244,0.8543775259763002,-0.3582672024533152
1789030864366081500,8.81108154296875,-0.478004757989943,0.745133307403326,-0.08545856157690286
1789030864376086500,8.82108642578125,-0.36704233732223507,0.4861152914702892,-0.08160890041142702
1789030864386090500,8.831090576171874,-0.3205139565117657,0.2494453009456396,-0.0045364743858575815
1789030864396095500,8.841095458984375,-0.04796002104878425,0.26469313896000385,0.018947569315135478
1789030864406099200,8.85109912109375,0.30740356891751286,0.5354086069494486,0.03275309956669807
1789030864416104200,8.861104248046875,0.02639116331934929,0.4894184246689081,0.5332596122220158
1789030864426108400,8.8711083984375,-0.1381657771527767,0.031087796702980994,0.861498463897407
1789030864436112400,8.8811123046875,-0.27664368899464603,-0.37652562046051025,1.0279083387598396
1789030864446117400,8.891117431640625,-0.7153484099924564,-0.67557987870574,1.2919795464292168
1789030864456121300,8.901121337890626,-0.6725041245222091,-0.6804097830802202,0.9726721892282366
1789030864466126300,8.911126220703125,-0.8613216460257768,-0.4169727816611528,0.651411067610979
1789030864476130600,8.921130615234375,-1.2235804023332892,-0.43985096842348576,0.5897767414748668
1789030864486134500,8.931134521484376,-0.6605950755417347,-0.3002782470822334,0.28664953470230103
1789030864496139500,8.941139404296875,-0.28637510167509317,-0.18911095149219034,-0.018863105902075766
1789030864506143200,8.951143310546875,-0.44518575358018275,-0.24256021760702132,0.004264379446208477
1789030864516148200,8.961148193359374,-0.6793667037680745,-0.3140694565474987,0.2065764655560255
1789030864526152400,8.97115234375,-0.7018778107836842,-0.438283865237236,0.4694716151833534
1789030864536157400,8.981157470703126,-0.4809959026299417,-0.48422553220093245,0.6558271304875611
1789030864546161400,8.991161376953125,-0.3928160993956029,-0.3047802346765995,0.8280594278931617
1789030864556165400,9.001165283203125,0.015028057783842086,-0.08360942657887935,0.4649667049795389
1789030864566171400,9.01117138671875,-0.043326223768293856,0.26473113288283345,0.35349311991930005
1789030864576175400,9.02117529296875,-0.5575156632088124,0.4562777870893478,0.3976964187830686
1789030864586180400,9.031180419921874,-0.4232207361400127,0.6171867264479398,0.23066315132528542
1789030864596184600,9.0411845703125,-0.19791443567276,0.8379407704383134,0.11075286957025528
1789030864606188500,9.0511884765625,-0.30802301599010823,0.8076268807172775,0.0894391556456685
1789030864616193500,9.061193603515624,-0.4446012316904962,0.6370967110544443,0.12984335448741913
1789030864626197200,9.071197265625,-0.49301951790079473,0.5373392827510833,0.2564201083943248
1789030864636202200,9.0812021484375,-0.6587167144492269,0.5542617759793996,0.7228399347916244
1789030864646206500,9.09120654296875,-0.5591501325428485,0.4826993455469608,0.8646361774012445
1789030864656211500,9.10121142578125,-0.46480230819806456,0.4091530478209257,0.5452081164300442
1789030864666215400,9.11121533203125,-0.5637015122368931,0.42314533281624317,0.32683570687919855
1789030864676219400,9.121219482421875,-0.5176856109932064,0.4494651844650507,0.24687340463101862
1789030864686224400,9.131224365234376,-0.27358634725064035,0.4886994627445936,0.27377719364762304
1789030864696228600,9.141228515625,-0.2500735158465803,0.4258750500410795,0.2796191976740956
1789030864706233600,9.151233642578125,-0.3338496772944927,0.25815759971141816,0.20625643982142208
1789030864716237300,9.1612373046875,-0.40360418152213096,0.10290624772310257,0.06580342851430178
1789030864726241300,9.1712412109375,-0.4714706800460815,-0.11699907048344611,0.2715396438539028
1789030864736246300,9.181246337890625,-0.49301995629221196,-0.3206342218905687,0.5567293351367115
1789030864746250500,9.19125048828125,-0.5812804235473275,-0.42454350917637346,0.6270683612540364
1789030864756255500,9.20125537109375,-0.6608323914289475,-0.34428806920051575,0.5918342585265636
1789030864766259500,9.211259521484376,-0.8244494207024574,-0.1594891356885433,0.472006978879869
1789030864776264400,9.221264404296875,-0.9593912673726678,-0.05466916329860687,0.2795063849493861
1789030864786268400,9.231268310546875,-0.763128690560162,-0.01104161849617958,0.13533990607708693
1789030864796272600,9.241272705078124,-0.5116460385680198,0.07582651761770248,0.017224106523394584
1789030864806277600,9.251277587890625,-0.3288470467016101,0.14560907889604568,-0.1553817003697157
1789030864816281300,9.26128125,-0.35624767932444806,0.13294132050275803,-0.008812836530804634
1789030864826286300,9.271286376953125,-0.40631197917610407,-0.040648236730694766,0.37934973797053095
1789030864836290300,9.281290283203125,-0.03165069128274917,-0.36077684718668457,0.522792871004343
1789030864846294500,9.29129443359375,0.4186307780012488,-0.5597270556479692,0.00797901605516672
1789030864856299500,9.301299560546875,0.6527937541410327,-0.43359716872572895,-0.370369728179276
1789030864866303500,9.311303466796875,0.42457916501164433,-0.22746260171830654,-0.23914105681329964
1789030864876308500,9.32130859375,0.41778322126120326,-0.2076747821867466,-0.009111527216434477
1789030864886312400,9.3313125,0.5656666748300194,-0.2730260830193758,0.4052335362896323
1789030864896316400,9.34131640625,0.5603960409507155,-0.42157647606432436,0.9530532965227961
1789030864906321400,9.3513212890625,0.7572372944340109,-0.4807008652061224,0.8212213985666632
1789030864916325400,9.361325439453125,0.9097291185811162,-0.09597498715519905,0.2171139339223504
1789030864926330400,9.371330322265624,0.9356912428334355,0.4116624002933502,-0.36799510800242424
1789030864936334300,9.381334228515625,0.7440040111124515,0.47759179327487944,-0.6041627019628882
1789030864946339300,9.39133935546875,0.516841561384499,0.11160334891974925,-0.6723711457923054
1789030864956343300,9.40134326171875,0.30501550473719835,-0.3932049525827169,-0.6557438361182808
1789030864966347500,9.411347412109375,0.3358332523271441,-0.8761562270641327,-0.6516434150621294
1789030864976352500,9.4213525390625,0.3380325159370899,-1.2229220845550297,-0.5541866649165749
1789030864986356500,9.4313564453125,0.3623898353412747,-1.4673252996802328,-0.5713666400372982
1789030864996361500,9.441361572265626,0.4094461855486035,-1.4632400761932134,-0.7984618697479366
1789030865006365400,9.451365478515624,0.4210428075790405,-1.2395540704041719,-0.8864902818128466
1789030865016369400,9.461369384765625,0.49172816291600463,-0.9353595266610384,-0.6540107287153601
1789030865026374400,9.47137451171875,0.47259851503223177,-0.4876064068108797,-0.3689817809522152
1789030865036378400,9.48137841796875,0.2134098187074065,-0.24352643229067325,-0.3713330202534795
1789030865046383400,9.49138330078125,0.1022854854762554,-0.11249065314829348,-0.35565059021413326
1789030865056387300,9.50138720703125,0.29345249271541834,0.24089316117763518,0.04506546865105629
1789030865066391600,9.5113916015625,0.04727963756918907,0.36746319308280945,0.3672758538171649
1789030865076396500,9.521396484375,-0.25276450849622484,-0.027907997623085976,0.5295139959529042
1789030865086400500,9.531400390625,-0.2846080920025706,-0.3708686176121235,0.7211001053869723
1789030865096405500,9.541405517578125,-0.21181202812194824,-0.5167337170958519,0.7954737938478589
1789030865106409200,9.5514091796875,-0.03739887954592704,-0.32841829989552496,0.6284291282132267
1789030865116414200,9.561414306640625,-0.08336275834143161,0.12085633043348788,0.7371703657001256
1789030865126418400,9.57141845703125,-0.17968085984587667,0.47340077132582664,1.0940586810156703
1789030865136422400,9.58142236328125,-0.08030629338026046,0.5854308212250471,1.0748071603178977
1789030865146427400,9.591427490234375,-0.10895634154230356,0.6543114652276039,0.9210545224547385
1789030865156431400,9.601431396484376,0.12939444167613984,0.47130350678563115,0.658404872021079
1789030865166436400,9.611436279296875,0.2392535772770643,0.24669746354222297,0.40702977205663915
1789030865176440600,9.621440673828126,0.23187632650732992,0.10708441019058226,0.3859104116603732
1789030865186444500,9.631444580078124,0.33807343246936794,0.13428630537092684,0.28712504325956106
1789030865196449500,9.641449462890625,0.44500119079351425,0.2635918997198343,0.11824468663036823
1789030865206453200,9.651453369140626,0.5562608408421278,0.40387013898193835,-0.12629822922647
1789030865216458200,9.661458251953125,0.5652060715809464,0.5413181232541799,-0.17231763760149477
1789030865226462500,9.67146240234375,0.36772125949710605,0.5088917714238167,0.015457681372761725
1789030865236466400,9.681466552734374,0.306526786082983,0.2565086634606123,0.0670505059659481
1789030865246471400,9.691471435546875,0.4799532617092132,0.0738911656409502,0.005595043528079986
1789030865256475400,9.701475341796876,0.28045155684500933,-0.04379237997531891,0.11112404097020626
1789030865266480400,9.71148046875,0.2575397600740194,-0.22700375203490256,0.21752631411552428
1789030865276484600,9.721484619140625,0.07263269001245498,-0.4548433703720569,0.36934330774098634
1789030865286489600,9.731489501953124,0.14986585955768822,-0.5859533837944269,0.6200064600437879
1789030865296493600,9.74149365234375,0.36410803743600845,-0.5443284109860659,0.8626479261934756
1789030865306497300,9.751497314453125,0.277663971953094,-0.4407920486658811,1.0090113305881618
1789030865316502300,9.761502197265624,0.06572802519053221,-0.4659299970537424,0.7358259653538465
1789030865326506500,9.771506591796875,-0.15830255625247955,-0.6156073483020067,0.5204150359570979
1789030865336511500,9.781511474609376,0.05259703319966793,-0.6734750153809785,0.41730858948677774
1789030865346515500,9.791515380859375,0.23265754001289604,-0.4448872090250253,0.6095505324810743
1789030865356519400,9.80151953125,0.012736731976270675,-0.24877719242572782,0.9413266183719038
1789030865366524400,9.8115244140625,-0.36408611786514516,-0.26699849329292774,0.9086027448996901
1789030865376528400,9.8215283203125,-0.29441403122395277,-0.2718868498563766,0.5691355199843645
1789030865386533400,9.831533447265626,-0.10971242060661315,-0.2126420492053032,0.39170974558889865
1789030865396537300,9.841537353515625,-0.113263683347404,-0.1871446198552847,0.4414452518776059
1789030865406541300,9.851541259765625,-0.08361556405872106,-0.23543489577174184,0.5145975818499923
1789030865416546300,9.86154638671875,0.16583645888864992,-0.11744622972905636,0.5058674551665783
1789030865426550300,9.87155029296875,0.4486033069387078,0.16532500223517416,0.1839285804182291
1789030865436555300,9.88155517578125,0.38383097503781316,0.5487029728084802,-0.08313421028256415
1789030865446559500,9.8915595703125,0.0021229835033416745,0.7886638215720653,-0.008937339693307875
1789030865456563500,9.9015634765625,-0.029153613770008087,0.7169155131787062,0.3415937155500054
1789030865466568400,9.911568359375,0.09845102187991142,0.5029167886674404,0.5103147899642586
1789030865476572400,9.921572509765625,0.33227789793312545,0.3572077565282583,0.6170481947600841
1789030865486577400,9.931577392578125,0.421830743086338,0.24395839396715163,0.6415668422058224
1789030865496581400,9.941581298828124,0.500058476626873,0.1450070213496685,0.4319090695083141
1789030865506586400,9.95158642578125,0.8656476925313472,0.21978256860971448,0.24323300230205058
1789030865516590300,9.96159033203125,1.1472890436828136,0.1574234353303909,-0.03409837669581175
1789030865526594300,9.97159423828125,1.3655007097139953,0.008946107521653176,-0.29007395619302984
1789030865536599300,9.981599365234375,1.2346610376656055,-0.03469721937179565,-0.36924072414934633
1789030865546603500,9.991603515625,0.7714218871310353,-0.03950608095824718,-0.23405688541680572
1789030865556607500,10.001607421875,0.2883297428742051,-0.14259820664227008,-0.09613368484824895
1789030865566612700,10.01161279296875,0.2004723034620285,-0.41324177843928334,-0.17131722838729618
1789030865576616700,10.02161669921875,0.25871201872378585,-0.7031634666800498,-0.1773877804726362
1789030865586621700,10.03162158203125,0.2032739168792963,-0.8004945446193218,0.030878537866473196
1789030865596625700,10.041625732421876,0.19123364273458718,-0.7298784551262855,0.23033903393745422
1789030865606630700,10.051630615234375,0.16953589792847631,-0.3312409561008215,0.339140184918046
1789030865616634600,10.061634521484375,0.0648632250547409,0.08622691560089588,0.3298433642625809
1789030865626638600,10.071638671875,-0.2897849101185799,0.3810106569200754,0.36711423351466654
1789030865636643600,10.0816435546875,-0.4293924105122685,0.5237473952502012,0.38683717111647126
1789030865646647800,10.091647705078126,0.11496259621977806,0.5883610294580459,0.006245908652245998
1789030865656652800,10.10165283203125,0.27568156596422194,0.6073562373071909,-0.1883949121773243
1789030865666656800,10.11165673828125,0.12363660880178212,0.571163810941577,-0.2260439670920372
1789030865676660700,10.12166064453125,-0.03982318408340216,0.6569780540883541,-0.21094401311576366
1789030865686665700,10.131665771484375,-0.24022213004827497,0.6538204668402672,0.06734422821551561
1789030865696669700,10.141669677734376,0.13181757716983555,0.8006108644753694,0.1168795357570052
1789030865706674700,10.1516748046875,0.44659810459613797,1.1472633247196673,-0.08155687796324491
1789030865716678700,10.1616787109375,0.07782207534909248,1.3685311634510755,0.03928922333717346
1789030865726682600,10.1716826171875,-0.3954346113309264,1.1642179666519163,0.25795564739853144
1789030865736687600,10.1816875,-0.6114461369693279,0.8545593122839927,0.5245207177102565
1789030865746691600,10.191691650390625,-0.6069418112874031,0.6053443129628896,0.8804641533911227
1789030865756696600,10.201696533203124,-0.5197682624861598,0.39024785634279247,0.9077271311089395
1789030865766700800,10.21170068359375,-0.4363467596948147,0.17934651332497595,0.7714309472203255
1789030865776704800,10.221704833984376,-0.4536345791041851,-0.01600830099284649,0.8028753022760152
1789030865786709800,10.231709716796875,-0.6384849505424499,-0.1921370213150978,0.8239569610103964
1789030865796713500,10.24171337890625,-0.4959668233990669,-0.24676351451575754,0.6136553374513983
1789030865806718500,10.251718505859374,-0.5363157849222421,-0.08131342459619045,0.5309869911149144
1789030865816722700,10.26172265625,-0.5834463694095611,0.07817921822369098,0.5056660873755813
1789030865826726700,10.2717265625,-0.4040940108656883,0.061008303192257876,0.3102294399932027
1789030865836731600,10.281731689453125,-0.02020662946552038,-0.015307459247112274,0.047316754709184165
1789030865846735600,10.291735595703125,-0.034896249075233934,-0.1017243444621563,0.13941548495292663
1789030865856740600,10.30174072265625,-0.17850655536949633,-0.2511053431123495,0.16010960567444563
1789030865866744800,10.311744873046875,-0.19778087242096662,-0.39216333457529545,0.2929708466783166
1789030865876748500,10.32174853515625,0.08040478531867265,-0.5140075070023536,0.2637149415776133
1789030865886753500,10.33175341796875,0.5015957691967488,-0.44115679032504557,0.061462476700544354
1789030865896757500,10.341757568359375,0.6611223142862319,-0.127169166842103,-0.12514847466945647
1789030865906762500,10.351762451171876,0.2902504818037152,0.25448797128796574,-0.009866437236964702
1789030865916766700,10.3617666015625,0.013361001354455946,0.2575333303332329,0.14357757306843996
1789030865926770700,10.371770751953125,-0.07702449523061514,0.011452537384629249,0.36906186045110223
1789030865936775700,10.381775634765624,0.04695025948435068,-0.3641583063185215,0.5904360821664333
1789030865946779600,10.391779541015625,0.14215046287477015,-0.6232973182827234,0.47639907635897394
1789030865956784600,10.40178466796875,0.022806875091791152,-0.680374711766839,0.4068523696631193
1789030865966788900,10.411788818359375,-0.23857962353825568,-0.747244600468874,0.5379176671609283
1789030865976792600,10.42179248046875,-0.435482544080913,-0.8161474563032388,0.8563052791684865
1789030865986797600,10.431797607421874,-0.5155199573919177,-0.929901261255145,1.0879805301457643
1789030865996801500,10.441801513671875,-0.5025716284915804,-0.9586100538671016,0.9559715220570564
1789030866006806500,10.451806640625,-0.4725336331024766,-0.6698498106211423,0.5468325027614832
1789030866016810800,10.461810791015624,-0.4663792021259665,-0.27948037372529505,0.19733722030669448
1789030866026814700,10.471814697265625,-0.35501258457154033,-0.1266945350676775,0.11891717906445264
1789030866036819700,10.48181982421875,-0.2894762825608253,-0.2928717702180147,0.19994184984713792
1789030866046823700,10.49182373046875,0.1865060296908021,-0.42277006976306436,0.2273597258657217
1789030866056828700,10.50182861328125,0.5204162050008774,-0.33428339253664013,0.19443886851668357
1789030866066833000,10.5118330078125,0.7869929657503962,-0.19266250649392605,-0.18786475082337856
1789030866076836600,10.521836669921875,0.8134484264776111,-0.03226969996392727,-0.2171139339223504
1789030866086841600,10.531841552734376,1.0030883702799678,0.07916589117348194,-0.3277385009378195
1789030866096845600,10.541845458984374,1.1904860881134867,0.09546411502361297,-0.2904378210693598
1789030866106850600,10.5518505859375,1.1911857608154415,-0.0063625207692384715,-0.3402528223350644
1789030866116854800,10.561854736328126,1.208404314380884,-0.1800023468852043,-0.4049029891610145
1789030866126858800,10.571858642578125,1.3212068099573253,-0.39338381628096103,-0.6747527802318334
1789030866136863700,10.58186376953125,1.3722875933751464,-0.3960328694850206,-1.0669038398474455
1789030866146867700,10.59186767578125,1.1613982330560684,-0.29585692350864407,-0.9336252502143383
1789030866156872700,10.601872802734375,0.7403206464245915,-0.4333949241518974,-0.4132829872325062
1789030866166876700,10.611876708984376,0.5608721340298652,-0.8166700188726186,-0.18315262760967016
1789030866176880600,10.621880615234375,0.4157520076945424,-0.9576660510152578,-0.06941898866295815
1789030866186885600,10.6318857421875,0.22729396715313194,-0.8701116862028837,0.16267653355300427
1789030866196889600,10.6418896484375,0.1032271502405405,-0.7385732182353735,0.2627598328098655
1789030866206894600,10.65189453125,0.18288257849663495,-0.42193478798270223,0.09877192439734934
1789030866216898600,10.661898681640626,0.45206776817888017,0.06583002426028252,-0.18737375243604182
1789030866226902800,10.67190283203125,0.6583037497341633,0.6514449698805809,-0.3361535703226924
1789030866236907800,10.68190771484375,0.5672922302052378,0.937059316316247,-0.2678463422939181
1789030866246911700,10.691911865234376,0.0878708834156394,0.44780455777645106,-0.06174918468743562
1789030866256916700,10.701916748046875,0.044726153694093225,-0.36725393424630165,0.1079743447676301
1789030866266920400,10.71192041015625,-0.025109014554321765,-0.5718541312932968,0.1138037815734744
1789030866276924700,10.721924560546874,-0.08806172981262206,-0.55060559155941,0.01358048932403326
1789030866286929700,10.7319296875,-0.14225421551018952,-0.4805050503730774,0.16582359940707683
1789030866296933600,10.74193359375,-0.10092091912478209,-0.40146892305910586,0.399696944950521
1789030866306938600,10.751938720703125,0.16003274104595183,-0.1937707599967718,0.2325552486822009
1789030866316942600,10.761942626953125,0.2166331646680832,0.08442951079010963,-0.032439795833826064
1789030866326946800,10.77194677734375,0.33239772492051123,0.20208149222433566,-0.06610825667977333
1789030866336951800,10.781951904296875,0.5252440635487436,0.2325917813003063,-0.0023301965132355687
1789030866346955800,10.791955810546876,0.417550581549108,0.39762101545929907,0.04858399816602468
1789030866356960800,10.801960693359375,0.18891835152953862,0.4884586397260427,0.14232406587600707
1789030866366964500,10.811964599609375,0.22433248699903488,0.37704350685477256,0.12189239548295736
1789030866376968700,10.82196875,0.12057868253588676,0.26972879503965375,0.19920126061290502
1789030866386973700,10.8319736328125,0.20689502998590467,0.20535072315335273,0.11406447833627462
1789030866396977700,10.841977783203125,0.29423049135059115,0.23445523708462715,-0.0601119388744235
1789030866406982700,10.851982666015624,-0.05724047509133815,0.30322131479680536,0.0967895184084773
1789030866416986600,10.861986572265625,-0.257428700914979,0.2190899101704359,0.37107320027351376
1789030866426990800,10.871990966796876,-0.14096534474343062,0.03428863857090473,0.4535179669871926
1789030866436995800,10.881995849609375,-0.1003425347149372,0.019511340677738187,0.32712679878026246
1789030866446999800,10.891999755859375,-0.1372752580538392,0.061491118273138995,0.1384796654075384
1789030866457003500,10.90200341796875,-0.2894286440268159,-0.008481997141242027,0.34414427681565285
1789030866467008500,10.912008544921875,-0.5336524109318852,-0.4401870685100555,0.6387035617291927
1789030866477012700,10.9220126953125,-0.45928485995084045,-0.8721540056854485,0.9253767695680261
1789030866487017700,10.932017822265625,-0.3980059231236577,-1.2108727503210306,0.897315919470787
1789030866497021700,10.942021728515625,-0.05407908845096826,-1.1426695671886204,0.5305582443088293
1789030866507025700,10.952025634765626,0.33762451965808865,-0.6855792946726084,0.27269787397831674
1789030866517030700,10.96203076171875,0.3118319067537784,-0.36868075217902657,0.2761062211170792
1789030866527035000,10.972034912109375,-0.023524667972326278,-0.212841955691576,0.8591609608605504
1789030866537040000,10.982039794921874,-0.47291649494022125,-0.3096241675764322,1.1593936152353883
1789030866547043600,10.992043701171875,-0.28517244788706303,-0.4583522552758455,0.6343327992990613
1789030866557047600,11.002047607421876,0.2811070981442928,-0.26562486685216424,-0.1533741599395871
1789030866567052000,11.012052001953125,0.8749813380658626,0.01930208184123039,-0.649324032203853
1789030866577056300,11.02205615234375,0.592810702343285,0.14687047713398932,-0.25177520519793034
1789030866587061200,11.032061279296874,0.309999430629611,0.0348912806391716,0.06030979953408241
1789030866597065200,11.042065185546875,0.3980757734894752,0.022053426375985143,0.18003303428441286
1789030866607069200,11.052069091796875,0.3722583184048533,-0.037682957184314726,0.106122579421103
1789030866617074200,11.06207421875,0.552437190900743,-0.09346563468277454,-0.1118473868086934
1789030866627078400,11.072078369140625,0.7632356580659747,-0.22081483426690102,-0.14378741642683743
1789030866637083400,11.08208349609375,0.8824936133921146,-0.11000292798578738,-0.21765987736731765
1789030866647087000,11.092087158203125,0.7223986207649111,0.0992664299160242,-0.42814942471385
1789030866657091000,11.102091064453125,0.5622188724637032,0.19342355399429798,-0.5122352366328239
1789030866667096000,11.112095947265624,0.22536884430944917,0.088822777312994,-0.22309622320234773
1789030866677100300,11.122100341796875,0.2578609548524022,-0.15288988355398178,-0.19279840783327817
1789030866687104300,11.132104248046875,0.6197934018149972,-0.1344195763617754,-0.39791532223075626
1789030866697109200,11.142109130859374,0.40899756499826906,-0.07956687318980693,-0.4419496942684054
1789030866707113200,11.15211328125,0.21180852099061012,-0.16864333300292492,-0.20347966858446598
1789030866717118200,11.1621181640625,0.08062164293974637,-0.39893326710164545,-0.052691725745797155
1789030866727122400,11.172122314453125,-0.08578209444284439,-0.6201309632062911,0.13204729427248238
1789030866737126100,11.182126220703125,-0.17706541665047407,-0.9938538012057542,0.11152414620369672
1789030866747131100,11.192131103515624,-0.015799626678228377,-1.2553589577794075,-0.13900807319581507
1789030866757135000,11.202135009765625,0.5326742135494947,-0.8949667259961366,-0.5163441332563757
1789030866767140000,11.21214013671875,0.6923498117208481,-0.23475451229214667,-0.9038327540189027
1789030866777144300,11.222144287109375,0.3406935518398881,0.11126081909239291,-0.9994143579423427
1789030866787148300,11.232148193359375,-0.29787440081089733,0.09610533553659915,-0.5844505780160427
1789030866797153300,11.2421533203125,-0.4144675208419561,-0.005619593447446823,-0.2515428577467799
1789030866807157200,11.2521572265625,-0.127223235116899,0.1767044743835926,-0.2275318675622344
1789030866817162200,11.262162353515626,0.10907675305157899,0.5526239456444978,-0.3917769656062126
1789030866827166200,11.272166259765624,-0.0642293110653758,0.7269038232296705,-0.4969631409600377
1789030866837170200,11.282170166015625,-0.2999175970762968,0.6749234606236219,-0.302086173287034
1789030866847175200,11.292175048828126,-0.435667252998054,0.5953904897034168,-0.012589432460069655
1789030866857179100,11.30217919921875,-0.1283282737493515,0.6566226647794247,0.044430385617911815
1789030866867183000,11.31218310546875,-0.016617957323789595,0.8769768957972526,0.0417123588308692
1789030866877188000,11.32218798828125,0.031256723529100416,1.020149102935195,-0.06468319231271744
1789030866887192300,11.3321923828125,-0.011411036330461501,1.0426496885567902,-0.2542567928805947
1789030866897197300,11.342197265625,-0.3238312643662095,0.8123299438416958,-0.13678162931799887
1789030866907201300,11.352201171875,-0.593978284817934,0.43902562351524826,-0.008866904805600642
1789030866917205000,11.362205078125,-0.5403031009927391,0.18996026179790496,-0.015001462037861346
1789030866927210200,11.372210205078124,-0.40079263123273845,0.04044891476631164,-0.15569529636353252
1789030866937214200,11.382214111328125,-0.348252588917315,0.12512275570631026,-0.1784752834483981
1789030866947219200,11.39221923828125,-0.53237523060292,0.1571586469143629,-0.188723705740273
1789030866957223200,11.40222314453125,-0.6802525466918945,0.10907587626874446,-0.24139029704481363
1789030866967227100,11.41222705078125,-0.6824620394349098,0.12229191619455813,-0.2467936173930764
1789030866977232100,11.422232177734376,-0.6452735877692699,0.1511322262316942,-0.26803718869090076
1789030866987236400,11.432236328125,-0.45566257780045266,0.17686171077191828,-0.1304278763771057
1789030866997241300,11.442241455078126,-0.29239713844358917,0.04963233817517757,-0.12336509838402271
1789030867007245300,11.452245361328124,-0.270136791318655,-0.22110358808040617,-0.1660258439809084
1789030867017249000,11.4622490234375,-0.3735828450068831,-0.6506394987165928,-0.017556407217681407
1789030867027254000,11.47225390625,-0.4792065349951386,-1.1177537371188402,0.25130554185956716
1789030867037258200,11.48225830078125,-0.5506254653036594,-1.5167892955511808,0.5292836943283676
1789030867047262200,11.49226220703125,-0.5390004939615726,-1.7442787852764128,0.7315969494819641
1789030867057267200,11.50226708984375,-0.4135971677482128,-1.7356237696558237,0.7816656332477927
1789030867067271200,11.512271240234375,-0.24649755705595014,-1.383681386309862,0.6917214506894349
1789030867077276200,11.522276123046876,-0.2120812004521489,-0.7933879274845123,0.596031710216403
1789030867087280400,11.5322802734375,-0.27022563864588733,-0.29547639975845813,0.48384734653830525
1789030867097284400,11.542284423828125,-0.38058366367965935,0.02651566648185253,0.33781858092546463
1789030867107289300,11.552289306640626,-0.4626587202981114,0.2856616927087307,0.3133540017545223
1789030867117293000,11.56229296875,-0.45711979087144133,0.4301753775835037,0.21601532503068446
1789030867127297300,11.57229736328125,-0.44008740752786396,0.4262783701449632,-0.10773410627096891
1789030867137302300,11.58230224609375,-0.5231818703219294,0.34232056851983067,-0.29843408052027226
1789030867147306200,11.59230615234375,-0.5415843729749321,0.10825403849184513,-0.24208587809354065
1789030867157311200,11.602311279296876,-0.4780392447814345,-0.18584347412884233,-0.023725743502378462
1789030867167315200,11.612315185546874,-0.47343671942204235,-0.5557967304617166,0.36502281419336796
1789030867177319200,11.622319091796875,-0.022694646888971326,-0.9068933106333017,0.28610563708394765
1789030867187324200,11.63232421875,0.367342781573534,-0.9047592212140559,-0.06318447818756102
1789030867197328400,11.642328369140625,0.5348679242014884,-0.4594312826842069,-0.302114230337739
1789030867207333400,11.65233349609375,0.6512567538321018,0.03673603172302246,-0.5267421931520104
1789030867217337000,11.662337158203124,0.6807561122998594,0.3911673092752695,-0.4170370790690183
1789030867227341000,11.672341064453125,0.7829977586343884,0.5268786790132522,-0.04337912299931049
1789030867237346000,11.682345947265626,0.7679357985809445,0.4077946189492941,0.1793061813145876
1789030867247350300,11.692350341796875,0.7752697947308421,0.0709147801786661,-0.1342792911082506
1789030867257354200,11.702354248046875,0.7878104196131229,-0.20683131709992886,-0.6006853812411427
1789030867267359200,11.712359130859374,0.6065268007457256,-0.4866811086595058,-0.8366182896628975
1789030867277363200,11.72236328125,0.6195110777422785,-0.7636907083570956,-0.914373144994676
1789030867287368200,11.7323681640625,0.665715779556334,-0.8254267413020133,-0.8922557134717702
1789030867297372200,11.7423720703125,0.48357174446731804,-0.5140770651072264,-0.8329735034197568
1789030867307376000,11.752376220703125,0.19562427890896797,-0.2799865696817636,-0.9142141550406813
1789030867317381000,11.762381103515626,0.14229893143475056,-0.26934417963623997,-0.9222828952059149
1789030867327385000,11.772385009765625,0.11391425621062516,-0.40414369522631166,-0.7751751021847129
1789030867337390000,11.78239013671875,0.22770780865103005,-0.6125158120274543,-0.5825707556188107
1789030867347394300,11.792394287109374,0.24385581037551163,-0.6644184332221746,-0.35132629727423187
1789030867357398300,11.802398193359375,0.08277005314528942,-0.7449234640449285,-0.18852029212266205
1789030867367403300,11.8124033203125,-0.26622984700798985,-1.0518617535382508,-0.15931787077486514
1789030867377407200,11.8224072265625,-0.19195903439968823,-1.3235656480431557,0.042237259487807745
1789030867387411200,11.8324111328125,-0.12557839051932096,-1.238977731820941,0.40700580665916203
1789030867397416200,11.842416259765624,0.117577454893291,-0.859519565039873,0.3299576382920146
1789030867407420200,11.852420166015625,0.22904724056124687,-0.11894377481043338,0.20657938816547392
1789030867417425200,11.862425048828126,-0.09765461080521344,0.3239379396110773,0.23848902264535426
1789030867427429000,11.87242919921875,0.13350450734347105,0.5596142429232597,0.1854725949898362
1789030867437433300,11.882433349609375,0.23532471339553593,0.8320826920598745,0.1532329979032278
1789030867447438300,11.892438232421876,0.33465076454430814,0.9407932421475649,-0.06370791753977537
1789030867457442300,11.9024423828125,0.26201924357563255,0.982196096637845,-0.16678367661088703
1789030867467446300,11.9124462890625,0.05176496628969907,0.7562059055596589,-0.18360446303039787
1789030867477451300,11.922451171875,0.21647095984369516,0.4686474393188953,-0.32091450013667344
1789030867487455200,11.932455322265625,0.23955139117985963,0.38590076704919335,-0.3623208617582917
1789030867497460200,11.942460205078126,0.25364450620114803,0.32937866936028004,-0.2805316363438964
1789030867507464200,11.952464111328124,0.24826105959713457,0.3111749041497707,-0.09110299720466136
1789030867517468200,11.96246826171875,0.05698883841782808,0.23151392293572423,0.059841597500443454
1789030867527473200,11.97247314453125,0.006268120484054088,0.12692717477977275,0.11382511662244796
1789030867537477400,11.982477294921875,-0.055364159825444216,0.032791678011417386,0.1314540045544505
1789030867547481300,11.9924814453125,-0.16060791058540344,0.0720002373278141,0.2211220005199313
1789030867557486300,12.002486328125,-0.519700750207901,0.0017313538372516631,0.5746177507877349
1789030867567490300,12.012490234375,-0.5384194792032242,-0.35289807663559913,0.7482406257688998
1789030867577495300,12.022495361328126,-0.23419015640765428,-0.6112678577929734,0.6113146195441485
1789030867587499300,12.032499267578125,0.05170680636167526,-0.7874550303041935,0.3862435891374945
1789030867597503500,12.04250341796875,-0.07325462130308151,-0.9634884735584258,0.5934414014622569
1789030867607508500,12.052508544921874,-0.2061141087412834,-1.217224165174365,0.8696724180027842
1789030867617512200,12.06251220703125,-0.2723600203260779,-1.3356085525363683,1.0414610632941126
1789030867627516200,12.07251611328125,-0.1681476584404707,-1.0612240406453608,0.8158458430081605
1789030867637521200,12.082521240234374,0.17212562216073274,-0.36226503991782666,0.3969619670286774
1789030867647525400,12.092525390625,0.14111644365191459,0.17231471499204634,0.32577187703996896
1789030867657530400,12.1025302734375,0.27278964391499755,0.29611645122766495,0.36790099997818465
1789030867667534300,12.112534423828125,0.4066843196198344,0.17587445330023765,0.30049919635653494
1789030867677538300,12.122538330078125,0.5683227422967553,0.1437777718156576,0.24162089093029498
1789030867687543300,12.132543212890624,0.46435237247347827,0.25348610076904293,0.30513708529025313
1789030867697547500,12.142547607421875,0.2801820922538638,0.3407657402932644,0.3428825863167643
1789030867707551200,12.15255126953125,0.10291939946562051,0.45707215233743187,0.4065168540984392
1789030867717556200,12.16255615234375,0.08643120600134134,0.4278630089879036,0.18633564155995844
1789030867727560200,12.172560302734375,0.49542643291205163,0.39405426288843154,-0.06709785223901271
1789030867737565200,12.182565185546874,0.9441001747384666,0.48379415504634377,-0.1684495639964938
1789030867747569400,12.1925693359375,0.9725485628485679,0.587100215741992,-0.2078855023279786
1789030867757573400,12.202573486328125,0.46991818990707396,0.45254269221425053,0.022895137897133825
1789030867767578400,12.212578369140624,-0.026031390096247196,0.1512502996534109,0.39765141059756276
1789030867777582300,12.222582275390625,-0.08077361863106489,-0.29082302099466323,0.49815439657121896
1789030867787586600,12.232586669921876,0.1822328824162483,-0.6432809526473283,0.32415304366648195
1789030867797591600,12.242591552734375,0.4849664136961102,-0.6761246531069278,-0.016217852090299127
1789030867807595300,12.25259521484375,0.8986290478959679,-0.4826519992738962,-0.28957418997734785
1789030867817599200,12.26259912109375,0.985952234300971,-0.17332184620797633,-0.407518724617362
1789030867827604200,12.272604248046875,0.634941286586225,-0.01677110205888748,-0.36859219711273905
1789030867837608400,12.2826083984375,0.3012739801213145,-0.14956979922056196,-0.30964462584257124
1789030867847613400,12.292613525390625,0.10474632263183593,-0.4219681057304144,-0.21999971849173305
1789030867857617400,12.302617431640625,0.4866591890886426,-0.6405354533314704,-0.38516836112141606
1789030867867621400,12.312621337890626,0.7335892923429608,-0.541918427234888,-0.45362756484150885
1789030867877626400,12.32262646484375,0.8652186534643173,-0.22986206407546997,-0.6612672757148742
1789030867887630300,12.33263037109375,0.7141907643899321,0.31910745071470736,-0.3420736080214381
1789030867897634300,12.34263427734375,-0.3597755611896515,0.5129845936954022,0.05732055459022522
1789030867907639300,12.352639404296875,-1.0485530673816799,0.287518718752265,0.2085997880771756
1789030867917643300,12.362643310546876,-0.9106418495118618,-0.060553545162081716,0.15607903498411177
1789030867927648300,12.372648193359375,-0.267881998129189,-0.31241993577480315,-0.18866525355130434
1789030867937652200,12.38265234375,0.2000578774422407,-0.0826098941475153,-0.6015937282577156
1789030867947656400,12.392656494140626,0.06808510971069336,0.45673371416330333,-0.6787734140500425
1789030867957661400,12.402661376953125,-0.05041121359318494,0.8606763338595628,-0.4793310381576419
