time,seconds_elapsed,z,y,x
1789030855555948300,0.0009482421875,0.05618976801633835,0.03798360005021095,-0.01529027335345745
1789030855565953300,0.010953369140625,0.07071597874164581,0.029938723891973495,-0.016811471432447433
1789030855575957200,0.020957275390625,0.08297131210565567,0.028849491849541664,-0.015087073668837547
1789030855585961200,0.030961181640625,0.09574224054813385,0.032585375010967255,-0.012480637989938259
1789030855595966500,0.040966552734375,0.10306273400783539,0.035650137811899185,-0.01197037659585476
1789030855605970400,0.050970458984375,0.11128684133291245,0.03828027844429016,-0.013636982999742031
1789030855615975400,0.060975341796875,0.12127689272165298,0.05016196891665459,-0.002966495230793953
1789030855625979400,0.0709794921875,0.13107599318027496,0.06575664132833481,0.017018398270010948
1789030855635984400,0.080984375,0.14482510089874268,0.07977285981178284,0.03477182984352112
1789030855645988400,0.09098828125,0.1532670557498932,0.08690027892589569,0.04817977920174599
1789030855655993300,0.100993408203125,0.16118542850017548,0.08695460855960846,0.05157211422920227
1789030855665997300,0.110997314453125,0.16841191053390503,0.0833074077963829,0.043112050741910934
1789030855676002300,0.121002197265625,0.1755174994468689,0.09143777191638947,0.02895548567175865
1789030855686006300,0.13100634765625,0.17934764921665192,0.10115963965654373,0.013948040083050728
1789030855696011300,0.14101123046875,0.17649966478347778,0.09520454704761505,0.0046365633606910706
1789030855706015200,0.15101513671875,0.17786267399787903,0.09049154818058014,0.013322995975613594
1789030855716019500,0.16101953125,0.1844145804643631,0.08313962817192078,0.036373186856508255
1789030855726024400,0.1710244140625,0.18521060049533844,0.06416380405426025,0.05318465828895569
1789030855736028400,0.1810283203125,0.18348753452301025,0.04033197835087776,0.05626966431736946
1789030855746033400,0.191033447265625,0.18389473855495453,-0.008898153901100159,0.045224204659461975
1789030855756037000,0.201037109375,0.18662980198860168,-0.07080626487731934,0.01648390106856823
1789030855766042000,0.2110419921875,0.20045825839042664,-0.12612012028694153,0.0067726848646998405
1789030855776046300,0.22104638671875,0.24639859795570374,-0.20196294784545898,0.0005070658517070115
1789030855786051300,0.23105126953125,0.27209144830703735,-0.2903045415878296,-0.046423159539699554
1789030855796055300,0.24105517578125,0.3026251196861267,-0.37966397404670715,-0.01672731526196003
1789030855806060300,0.251060302734375,0.3091503977775574,-0.467132568359375,-0.04322150722146034
1789030855816064300,0.261064208984375,0.3473510444164276,-0.5419154763221741,-0.0998682752251625
1789030855826069200,0.2710693359375,0.3674408495426178,-0.5433056354522705,-0.14807549118995667
1789030855836073500,0.281073486328125,0.3776913583278656,-0.5049521327018738,-0.1646011918783188
1789030855846077400,0.291077392578125,0.34886929392814636,-0.3874760866165161,-0.16637273132801056
1789030855856082400,0.30108251953125,0.31045427918434143,-0.26803916692733765,-0.20602133870124817
1789030855866086100,0.311086181640625,0.27636873722076416,-0.17029477655887604,-0.26284733414649963
1789030855876091100,0.321091064453125,0.26676803827285767,-0.13706330955028534,-0.3441896140575409
1789030855886095400,0.331095458984375,0.27877411246299744,-0.12279143184423447,-0.381545752286911
1789030855896100400,0.341100341796875,0.29364120960235596,-0.06897027790546417,-0.3720491826534271
1789030855906104300,0.351104248046875,0.31598061323165894,-0.0006420881254598498,-0.3556302785873413
1789030855916109300,0.361109375,0.32896217703819275,0.043287552893161774,-0.3551059067249298
1789030855926113300,0.37111328125,0.32088056206703186,0.057207364588975906,-0.3702172040939331
1789030855936118300,0.3811181640625,0.2865518629550934,0.08353723585605621,-0.3737054169178009
1789030855946122500,0.39112255859375,0.24294421076774597,0.09843016415834427,-0.38544541597366333
1789030855956126500,0.40112646484375,0.1918671727180481,0.12025104463100433,-0.38613811135292053
1789030855966131500,0.41113134765625,0.1541762501001358,0.12942856550216675,-0.3647342920303345
1789030855976135200,0.42113525390625,0.14390283823013306,0.15783783793449402,-0.3268263339996338
1789030855986140200,0.43114013671875,0.16545048356056213,0.18965035676956177,-0.2585902810096741
1789030855996144400,0.441144287109375,0.2216770052909851,0.179805189371109,-0.1548721343278885
1789030856006149400,0.4511494140625,0.26888179779052734,0.1987418532371521,-0.05904015153646469
1789030856016153300,0.4611533203125,0.2876669466495514,0.22333268821239471,0.0065314024686813354
1789030856026158300,0.471158447265625,0.2855856716632843,0.23859445750713348,0.0070584421046078205
1789030856036162300,0.481162353515625,0.26792171597480774,0.25821423530578613,-0.016267653554677963
1789030856046167300,0.491167236328125,0.24388164281845093,0.3040829300880432,-0.011521633714437485
1789030856056171500,0.501171630859375,0.24313542246818542,0.3365335464477539,0.01944800093770027
1789030856066176500,0.511176513671875,0.23967304825782776,0.3461161255836487,0.0480964221060276
1789030856076180200,0.52118017578125,0.2248629331588745,0.37481915950775146,0.06416300684213638
1789030856086184200,0.53118408203125,0.21183422207832336,0.3867059051990509,0.09826931357383728
1789030856096189200,0.541189208984375,0.20038023591041565,0.41356441378593445,0.16132737696170807
1789030856106193400,0.551193359375,0.1739901751279831,0.4618525803089142,0.2421061098575592
1789030856116198400,0.561198486328125,0.13470588624477386,0.5419167876243591,0.3755115568637848
1789030856126202400,0.571202392578125,0.1040038987994194,0.5475376844406128,0.4896456003189087
1789030856136207400,0.581207275390625,0.08145145326852798,0.49828463792800903,0.5678394436836243
1789030856146211300,0.59121142578125,0.09142019599676132,0.47052037715911865,0.6020685434341431
1789030856156216300,0.60121630859375,0.0989295095205307,0.4493543803691864,0.6573139429092407
1789030856166220500,0.611220458984375,0.1166219562292099,0.41003093123435974,0.6883874535560608
1789030856176224300,0.621224365234375,0.10021048784255981,0.33547306060791016,0.7131636142730713
1789030856186229200,0.631229248046875,0.04267049953341484,0.2847510278224945,0.7184156775474548
1789030856196233200,0.641233154296875,0.005329518113285303,0.22356145083904266,0.7450770735740662
1789030856206238200,0.65123828125,-0.0353902131319046,0.21796774864196777,0.7635024189949036
1789030856216242400,0.661242431640625,-0.24234072864055634,0.20603466033935547,0.7395622134208679
1789030856226247400,0.671247314453125,-0.29403215646743774,-0.574880838394165,0.20160795748233795
1789030856236251400,0.68125146484375,-0.018195781856775284,-0.33898845314979553,0.6002259254455566
1789030856246256400,0.69125634765625,0.004378236830234528,-0.12523141503334045,0.5307499170303345
1789030856256260400,0.70126025390625,0.017431721091270447,-0.013739514164626598,0.25743764638900757
1789030856266265300,0.711265380859375,0.053337790071964264,-0.06783603876829147,0.2548389434814453
1789030856276269300,0.721269287109375,0.049975283443927765,-0.06846641004085541,0.2630891501903534
1789030856286273300,0.731273193359375,0.01543434988707304,-0.03771036118268967,0.2515030801296234
1789030856296278300,0.7412783203125,-0.02732003852725029,-0.032996565103530884,0.24674586951732635
1789030856306282200,0.7512822265625,-0.03484533354640007,-0.04609692096710205,0.19967955350875854
1789030856316287200,0.761287353515625,-0.052133508026599884,-0.056649696081876755,0.06509697437286377
1789030856326291200,0.771291259765625,-0.09308813512325287,-0.06278109550476074,-0.013952034525573254
1789030856336296200,0.781296142578125,-0.14411216974258423,-0.0997694730758667,-0.0739530548453331
1789030856346300400,0.791300537109375,-0.1804930716753006,-0.0983223095536232,-0.11458676308393478
1789030856356304400,0.801304443359375,-0.18333573639392853,-0.031678035855293274,-0.11044981330633163
1789030856366309400,0.811309326171875,-0.10449738055467606,-0.021439244970679283,-0.028728051111102104
1789030856376313300,0.821313232421875,-0.04480928182601929,-0.09021857380867004,-0.004995557479560375
1789030856386318300,0.831318359375,-0.006705306936055422,-0.14362160861492157,-0.05384672060608864
1789030856396322300,0.841322265625,-0.010702445171773434,-0.17546743154525757,-0.17190252244472504
1789030856406327300,0.851327392578125,-0.043651074171066284,-0.13762524724006653,-0.21665534377098083
1789030856416331300,0.861331298828125,-0.060448162257671356,-0.060622867196798325,-0.09757529199123383
1789030856426336300,0.871336181640625,-0.06729914247989655,-0.022913571447134018,-0.010015882551670074
1789030856436340200,0.88134033203125,-0.024638233706355095,0.007721036672592163,-0.0019347865600138903
1789030856446344400,0.891344482421875,0.02016598917543888,0.03850611299276352,0.09429693967103958
1789030856456349400,0.901349365234375,0.06063671410083771,0.05983084440231323,0.18634217977523804
1789030856466353400,0.911353515625,0.09298346936702728,0.07689238339662552,0.19150951504707336
1789030856476358400,0.9213583984375,0.1240985095500946,0.11827418208122253,0.19482940435409546
1789030856486362400,0.9313623046875,0.122284896671772,0.15803730487823486,0.2285948246717453
1789030856496367400,0.941367431640625,0.053161755204200745,0.2973557710647583,0.21769210696220398
1789030856506371300,0.951371337890625,0.027030551806092262,0.33161336183547974,0.23152776062488556
1789030856516375300,0.961375244140625,0.06310919672250748,0.3126993179321289,0.2430502027273178
1789030856526380300,0.97138037109375,0.15509077906608582,0.27466699481010437,0.2659134268760681
1789030856536384300,0.98138427734375,0.22424322366714478,0.25559741258621216,0.2946467995643616
1789030856546389200,0.99138916015625,0.24826733767986298,0.21948495507240295,0.29002222418785095
1789030856556393500,1.0013935546875,0.2493584305047989,0.2099926471710205,0.2084679901599884
1789030856566398500,1.0113984375,0.24079184234142303,0.16809819638729095,0.21176950633525848
1789030856576402400,1.02140234375,0.21805483102798462,0.06538699567317963,0.2529749870300293
1789030856586406400,1.031406494140625,0.21839198470115662,-0.04990071430802345,0.21641325950622559
1789030856596411400,1.041411376953125,0.19451329112052917,-0.1242750808596611,0.18418368697166443
1789030856606415600,1.05141552734375,0.12196984887123108,-0.020738834515213966,0.09778594970703125
1789030856616420600,1.061420654296875,0.027303792536258698,0.10870198160409927,-0.044137898832559586
1789030856626424300,1.07142431640625,-0.003852528752759099,0.07127124816179276,-0.03750742971897125
1789030856636429300,1.08142919921875,0.02239185757935047,-0.0013198626693338156,0.06877586990594864
1789030856646433300,1.091433349609375,0.05441317334771156,-0.050453584641218185,0.13161875307559967
1789030856656438300,1.101438232421875,0.08480144292116165,-0.08079711347818375,0.1700417697429657
1789030856666442500,1.1114423828125,0.11958418786525726,-0.13401319086551666,0.23173841834068298
1789030856676446500,1.121446533203125,0.14407435059547424,-0.14882676303386688,0.29447025060653687
1789030856686451500,1.131451416015625,0.18862344324588776,-0.19026048481464386,0.3666065037250519
1789030856696455400,1.141455322265625,0.2026021033525467,-0.16218118369579315,0.4417087137699127
1789030856706460400,1.15146044921875,0.1860673427581787,-0.12090777605772018,0.46261265873908997
1789030856716464600,1.161464599609375,0.18586601316928864,-0.1310432404279709,0.4699043929576874
1789030856726469600,1.1714697265625,0.1974949687719345,-0.1695280522108078,0.48721545934677124
1789030856736473300,1.181473388671875,0.20721417665481567,-0.21435649693012238,0.4907550811767578
1789030856746477300,1.191477294921875,0.20590415596961975,-0.23549747467041016,0.4992486834526062
1789030856756482300,1.201482421875,0.19162508845329285,-0.2368604838848114,0.5176633596420288
1789030856766486500,1.211486572265625,0.16579268872737885,-0.20314539968967438,0.5170183777809143
1789030856776491500,1.221491455078125,0.12526418268680573,-0.16910088062286377,0.5191164016723633
1789030856786495500,1.23149560546875,0.09530920535326004,-0.14150546491146088,0.5238317847251892
1789030856796499500,1.24149951171875,0.07066218554973602,-0.11088576912879944,0.5219915509223938
1789030856806504400,1.25150439453125,0.047449808567762375,-0.09299279004335403,0.528100311756134
1789030856816508400,1.26150830078125,0.034392859786748886,-0.10627450793981552,0.5319004058837891
1789030856826513400,1.271513427734375,0.021037906408309937,-0.12842614948749542,0.5287858247756958
1789030856836517400,1.281517333984375,0.003599262097850442,-0.14060291647911072,0.5021254420280457
1789030856846522400,1.2915224609375,-0.013804761692881584,-0.1457073986530304,0.46282145380973816
1789030856856526300,1.3015263671875,-0.021686919033527374,-0.1599332094192505,0.4214351177215576
1789030856866530300,1.3115302734375,-0.043296076357364655,-0.14888934791088104,0.3854084014892578
1789030856876535300,1.321535400390625,-0.0659680962562561,-0.14216938614845276,0.356401264667511
1789030856886539500,1.33153955078125,-0.08462779968976974,-0.11823423206806183,0.3267733156681061
1789030856896544500,1.34154443359375,-0.1154288575053215,-0.08630453050136566,0.2930326759815216
1789030856906548500,1.351548583984375,-0.1546231359243393,-0.05889420956373215,0.248007670044899
1789030856916553500,1.361553466796875,-0.1897856444120407,-0.055989231914281845,0.21653097867965698
1789030856926557400,1.371557373046875,-0.19825449585914612,-0.07215248793363571,0.19194360077381134
1789030856936561400,1.3815615234375,-0.19974346458911896,-0.09930101782083511,0.163760706782341
1789030856946566400,1.39156640625,-0.19077740609645844,-0.1220521405339241,0.13717809319496155
1789030856956570400,1.4015703125,-0.1879880130290985,-0.14313079416751862,0.11442138254642487
1789030856966575400,1.411575439453125,-0.18978351354599,-0.17539818584918976,0.09950555115938187
1789030856976579300,1.421579345703125,-0.19750908017158508,-0.19868139922618866,0.10761221498250961
1789030856986583600,1.43158349609375,-0.1953181028366089,-0.21389257907867432,0.12604475021362305
1789030856996588500,1.441588623046875,-0.18088003993034363,-0.23584209382534027,0.1344749927520752
1789030857006592500,1.451592529296875,-0.16713839769363403,-0.2731529772281647,0.14004819095134735
1789030857016597500,1.461597412109375,-0.13980956375598907,-0.30947184562683105,0.1527187079191208
1789030857026601200,1.471601318359375,-0.11754313856363297,-0.32765430212020874,0.16188237071037292
1789030857036606200,1.481606201171875,-0.09976866841316223,-0.3059852123260498,0.15329581499099731
1789030857046610400,1.4916103515625,-0.08089964091777802,-0.2706456184387207,0.14894793927669525
1789030857056614400,1.501614501953125,-0.06184206157922745,-0.22252574563026428,0.16148130595684052
1789030857066619400,1.511619384765625,-0.01678830198943615,-0.21734750270843506,0.17498326301574707
1789030857076623400,1.521623291015625,0.02646596170961857,-0.21804338693618774,0.18047310411930084
1789030857086628400,1.53162841796875,0.03556571528315544,-0.17816387116909027,0.1869182139635086
1789030857096632600,1.541632568359375,0.020079169422388077,-0.13674746453762054,0.1914898008108139
1789030857106636500,1.551636474609375,-0.0046301716938614845,-0.11729174107313156,0.18417836725711823
1789030857116641500,1.5616416015625,-0.023088008165359497,-0.14861103892326355,0.17204180359840393
1789030857126645200,1.571645263671875,-0.08197981864213943,-0.08906489610671997,0.1422540843486786
1789030857136650200,1.581650146484375,-0.14887389540672302,-0.049739591777324677,0.11579291522502899
1789030857146654500,1.591654541015625,-0.21001023054122925,-0.02834402397274971,0.09689059108495712
1789030857156658400,1.601658447265625,-0.23510253429412842,-0.02275351621210575,0.07519328594207764
1789030857166663400,1.611663330078125,-0.2163458913564682,-0.020421119406819344,0.056716009974479675
1789030857176667400,1.62166748046875,-0.18148350715637207,-0.011516573838889599,0.07133569568395615
1789030857186672400,1.63167236328125,-0.13899463415145874,0.013281450606882572,0.10026082396507263
1789030857196676600,1.641676513671875,-0.09984882920980453,0.06654200702905655,0.12443460524082184
1789030857206681600,1.651681640625,-0.06489377468824387,0.12205666303634644,0.1799260973930359
1789030857216685600,1.661685546875,-0.046366699039936066,0.12402314692735672,0.2563580274581909
1789030857226689300,1.671689208984375,-0.039925578981637955,0.09590841829776764,0.312357634305954
1789030857236694300,1.6816943359375,-0.056477125734090805,0.04549691081047058,0.31238454580307007
1789030857246698500,1.691698486328125,-0.10933181643486023,-0.04367770627140999,0.26813822984695435
1789030857256703500,1.701703369140625,-0.1753893941640854,-0.1581539511680603,0.18247845768928528
1789030857266707500,1.71170751953125,-0.2272331565618515,-0.26194027066230774,0.058815646916627884
1789030857276711400,1.72171142578125,-0.25345277786254883,-0.34806662797927856,-0.08727498352527618
1789030857286716400,1.73171630859375,-0.2630350887775421,-0.4008643329143524,-0.22110947966575623
1789030857296720400,1.741720458984375,-0.2887548506259918,-0.3996067941188812,-0.3448684513568878
1789030857306725400,1.751725341796875,-0.35064777731895447,-0.3568603992462158,-0.4680369794368744
1789030857316729300,1.761729248046875,-0.43433839082717896,-0.22614072263240814,-0.5886943936347961
1789030857326733300,1.7717333984375,-0.5078539252281189,-0.07839653640985489,-0.6861786246299744
1789030857336738300,1.78173828125,-0.5376184582710266,0.039140745997428894,-0.7270126342773438
1789030857346742300,1.7917421875,-0.5358991026878357,0.10936777293682098,-0.7016398906707764
1789030857356747300,1.801747314453125,-0.5165414214134216,0.2531140148639679,-0.641217827796936
1789030857366751500,1.81175146484375,-0.47425520420074463,0.35644200444221497,-0.5698517560958862
1789030857376756500,1.821756591796875,-0.43083953857421875,0.44047513604164124,-0.5021954774856567
1789030857386760400,1.831760498046875,-0.37286439538002014,0.43838295340538025,-0.41641587018966675
1789030857396764400,1.841764404296875,-0.3155025541782379,0.3783166706562042,-0.3444085121154785
1789030857406769400,1.851769287109375,-0.2517768442630768,0.3082771301269531,-0.29114848375320435
1789030857416773400,1.8617734375,-0.1985682249069214,0.2938401401042938,-0.25957271456718445
1789030857426778400,1.8717783203125,-0.15125982463359833,0.32339751720428467,-0.2369459718465805
1789030857436782300,1.8817822265625,-0.09957985579967499,0.3848286271095276,-0.2162899523973465
1789030857446786300,1.891786376953125,-0.08367252349853516,0.47529488801956177,-0.1748703420162201
1789030857456791300,1.901791259765625,-0.06769648939371109,0.5244643092155457,-0.14985500276088715
1789030857466795500,1.91179541015625,-0.04153279587626457,0.5113328099250793,-0.1580306440591812
1789030857476800500,1.921800537109375,-0.012182364240288734,0.42325645685195923,-0.19596152007579803
1789030857486804500,1.931804443359375,-0.027402063831686974,0.29240548610687256,-0.279109388589859
1789030857496808400,1.941808349609375,-0.09421704709529877,0.19473566114902496,-0.3826240599155426
1789030857506813400,1.9518134765625,-0.17938600480556488,0.17473691701889038,-0.4371400475502014
1789030857516817400,1.9618173828125,-0.27302247285842896,0.21961012482643127,-0.4191325604915619
1789030857526822400,1.971822509765625,-0.3571549355983734,0.2545792758464813,-0.371827632188797
1789030857536826400,1.981826416015625,-0.4116019308567047,0.2237183153629303,-0.3564065992832184
1789030857546830300,1.991830322265625,-0.3936634063720703,0.10916643589735031,-0.36674097180366516
1789030857556835000,2.0018349609375,-0.3059527277946472,-0.04231629893183708,-0.3955470621585846
1789030857566839300,2.01183935546875,-0.21211838722229004,-0.11812930554151535,-0.4179200232028961
1789030857576844300,2.02184423828125,-0.1884884238243103,-0.11345811933279037,-0.3588921129703522
1789030857586848300,2.03184814453125,-0.2435135841369629,-0.03996099904179573,-0.2627546489238739
1789030857596852200,2.041852294921875,-0.33869096636772156,0.04948686063289642,-0.18813182413578033
1789030857606857200,2.051857177734375,-0.40853211283683777,0.1299838274717331,-0.13418710231781006
1789030857616861200,2.061861083984375,-0.40577733516693115,0.16630321741104126,-0.13469070196151733
1789030857626866200,2.0718662109375,-0.36560460925102234,0.16165201365947723,-0.13821832835674286
1789030857636870100,2.0818701171875,-0.34710124135017395,0.14160028100013733,-0.13628274202346802
1789030857646874000,2.0918740234375,-0.3604271709918976,0.12578855454921722,-0.1501479595899582
1789030857656879000,2.101879150390625,-0.3689974844455719,0.11493883281946182,-0.1675165593624115
1789030857666883300,2.11188330078125,-0.3332842290401459,0.12721467018127441,-0.14559315145015717
1789030857676888300,2.121888427734375,-0.27009299397468567,0.18213491141796112,-0.12005982547998428
1789030857686892300,2.131892333984375,-0.1994989961385727,0.23191098868846893,-0.1185130625963211
1789030857696896300,2.141896240234375,-0.1714516431093216,0.2590358257293701,-0.12650413811206818
1789030857706901200,2.1519013671875,-0.14498035609722137,0.2496820092201233,-0.15344494581222534
1789030857716905200,2.1619052734375,-0.11882998049259186,0.2570589482784271,-0.16979968547821045
1789030857726910200,2.17191015625,-0.08121762424707413,0.3000120222568512,-0.1909390538930893
1789030857736914200,2.1819140625,-0.03044392541050911,0.3758828043937683,-0.2113649696111679
1789030857746918100,2.191918212890625,-0.020355338230729103,0.4391597807407379,-0.23908448219299316
1789030857756923100,2.201923095703125,-0.05838155001401901,0.4800710082054138,-0.26732492446899414
1789030857766927400,2.21192724609375,-0.09874735027551651,0.5115871429443359,-0.2885338068008423
1789030857776932400,2.221932373046875,-0.10835710167884827,0.5132603645324707,-0.28411826491355896
1789030857786936300,2.231936279296875,-0.0850488469004631,0.4732311964035034,-0.2587452828884125
1789030857796941300,2.24194140625,-0.06967069208621979,0.3972136676311493,-0.24499644339084625
1789030857806945300,2.2519453125,-0.06132248044013977,0.32871103286743164,-0.20984004437923431
1789030857816949200,2.26194921875,-0.0665353536605835,0.2661086320877075,-0.1458972841501236
1789030857826954200,2.271954345703125,-0.04836646839976311,0.21267551183700562,-0.06815215945243835
1789030857836958200,2.281958251953125,-0.027395671233534813,0.18638798594474792,-0.0030778152868151665
1789030857846962200,2.291962158203125,-0.02322942204773426,0.13007943332195282,0.04310059919953346
1789030857856967200,2.30196728515625,-0.07223425060510635,0.10749583691358566,0.07951879501342773
1789030857866971100,2.31197119140625,-0.10815097391605377,0.06613161414861679,0.09650203585624695
1789030857876976000,2.32197607421875,-0.0974607765674591,0.0691271424293518,0.1093568503856659
1789030857886980400,2.33198046875,-0.04796566069126129,0.067592091858387,0.08253269642591476
1789030857896985300,2.3419853515625,-0.013961355201900005,0.06707677245140076,0.009304019622504711
1789030857906989000,2.351989013671875,-0.01582024246454239,0.09327428787946701,-0.09065613150596619
1789030857916993000,2.361992919921875,-0.035530827939510345,0.12801095843315125,-0.17448045313358307
1789030857926998000,2.371998046875,-0.04211576282978058,0.12929540872573853,-0.20065613090991974
1789030857937002200,2.382002197265625,-0.03345649316906929,0.07591313868761063,-0.18004193902015686
1789030857947006200,2.392006103515625,-0.029699837788939476,0.003865045728161931,-0.17633268237113953
1789030857957011200,2.40201123046875,-0.03657452389597893,-0.10804204642772675,-0.15977954864501953
1789030857967015200,2.41201513671875,-0.06842406839132309,-0.2036316841840744,-0.1309838443994522
1789030857977020200,2.422020263671875,-0.13373222947120667,-0.2600683271884918,-0.08471142500638962
1789030857987024400,2.4320244140625,-0.202689990401268,-0.2849912643432617,-0.05501265078783035
1789030857997029400,2.442029296875,-0.24962927401065826,-0.2390485405921936,-0.04358183220028877
1789030858007033000,2.452033203125,-0.2654188871383667,-0.1910482496023178,-0.022586535662412643
1789030858017037000,2.462037109375,-0.35585638880729675,-0.01613369584083557,-0.016595754772424698
1789030858027042000,2.4720419921875,-0.4661194980144501,0.010221744887530804,0.057921357452869415
1789030858037046300,2.48204638671875,-0.5245029330253601,0.11387889832258224,0.11973784863948822
1789030858047050200,2.49205029296875,-0.43153542280197144,0.05512477084994316,0.1366068422794342
1789030858057055200,2.50205517578125,-0.23563915491104126,0.04691930487751961,0.1207815483212471
1789030858067059200,2.51205908203125,-0.05047941952943802,-0.0321776419878006,0.10324329882860184
1789030858077064200,2.522064208984375,-0.012521384283900261,-0.19016887247562408,0.11312682181596756
1789030858087068400,2.532068359375,-0.1359993815422058,-0.012916863895952702,0.07802822440862656
1789030858097073400,2.542073486328125,-0.33116087317466736,0.4664531946182251,-0.06523173302412033
1789030858107077000,2.5520771484375,-0.32597437500953674,0.48226863145828247,-0.11190549284219742
1789030858117081000,2.5620810546875,-0.17108359932899475,0.17717930674552917,0.011689678765833378
1789030858127086000,2.572086181640625,-0.1248931959271431,0.09249770641326904,0.17069877684116364
1789030858137090300,2.58209033203125,-0.11446958780288696,0.12787140905857086,0.2561180591583252
1789030858147094300,2.59209423828125,-0.10482015460729599,0.06443198770284653,0.30044931173324585
1789030858157099300,2.602099365234375,-0.10227230936288834,-0.006157760974019766,0.28563201427459717
1789030858167103200,2.612103271484375,-0.09743601083755493,-0.044704619795084,0.23863175511360168
1789030858177108200,2.622108154296875,-0.092640720307827,-0.08008631318807602,0.21799597144126892
1789030858187112400,2.632112548828125,-0.032883912324905396,-0.08476602286100388,0.22689786553382874
1789030858197117400,2.642117431640625,0.027907265350222588,-0.057986069470644,0.24348163604736328
1789030858207121200,2.65212109375,0.035772912204265594,-0.06113366037607193,0.22052811086177826
1789030858217125000,2.662125,0.0724896490573883,-0.13616076111793518,0.18980322778224945
1789030858227130000,2.672130126953125,0.1784815937280655,-0.24218814074993134,0.19554074108600616
1789030858237134300,2.68213427734375,0.274960458278656,-0.3362610936164856,0.22403310239315033
1789030858247138300,2.69213818359375,0.30135878920555115,-0.4105854034423828,0.2568131387233734
1789030858257143300,2.702143310546875,0.2649272680282593,-0.4561459720134735,0.2900983989238739
1789030858267147300,2.712147216796875,0.215318962931633,-0.516599178314209,0.37462687492370605
1789030858277152300,2.72215234375,0.19784517586231232,-0.5976501107215881,0.4694841504096985
1789030858287156200,2.73215625,0.2218967080116272,-0.6509969234466553,0.5286635756492615
1789030858297160200,2.74216015625,0.22244904935359955,-0.656395673751831,0.5257247686386108
1789030858307165200,2.752165283203125,0.171643927693367,-0.6022283434867859,0.4354651868343353
1789030858317169200,2.762169189453125,0.14651939272880554,-0.5342772603034973,0.3468535542488098
1789030858327174100,2.772174072265625,0.18364758789539337,-0.46433064341545105,0.3066507577896118
1789030858337178000,2.78217822265625,0.2426786869764328,-0.44356971979141235,0.2626793086528778
1789030858347182300,2.792182373046875,0.28209081292152405,-0.4855818748474121,0.18637147545814514
1789030858357187300,2.802187255859375,0.2621251046657562,-0.5141541361808777,0.05939009040594101
1789030858367191300,2.81219140625,0.22638067603111267,-0.5419809818267822,-0.04604312404990196
1789030858377196300,2.8221962890625,0.20693959295749664,-0.6052947044372559,-0.09251128882169724
1789030858387200000,2.832199951171875,0.21537595987319946,-0.7287085056304932,-0.11140801757574081
1789030858397204200,2.842204345703125,0.23015651106834412,-0.9281520843505859,-0.09168970584869385
1789030858407209200,2.852209228515625,0.25140348076820374,-1.0793153047561646,0.054194796830415726
1789030858417213200,2.862213134765625,0.18599995970726013,-0.8661758303642273,0.28852102160453796
1789030858427218200,2.87221826171875,0.14007268846035004,-0.5720938444137573,0.3624253273010254
1789030858437222100,2.88222216796875,0.17615345120429993,-0.374368280172348,0.3071836531162262
1789030858447226400,2.892226318359375,0.18315596878528595,-0.2698991298675537,0.29306381940841675
1789030858457231400,2.9022314453125,0.14878708124160767,-0.14668184518814087,0.26047366857528687
1789030858467235300,2.9122353515625,0.12493661046028137,-0.029460420832037926,0.28667330741882324
1789030858477240300,2.922240234375,0.12701201438903809,0.013890781439840794,0.3589259386062622
1789030858487244000,2.932244140625,0.1741076111793518,0.0739852786064148,0.38817304372787476
1789030858497248300,2.942248291015625,0.22092944383621216,0.12522609531879425,0.3908958435058594
1789030858507253200,2.952253173828125,0.2848575711250305,0.11441686004400253,0.4412223994731903
1789030858517257200,2.96225732421875,0.3015207052230835,0.1334984004497528,0.4752860963344574
1789030858527262200,2.97226220703125,0.3206259608268738,0.14013206958770752,0.4645721912384033
1789030858537266200,2.98226611328125,0.33557507395744324,0.08890190720558167,0.4494084417819977
1789030858547270400,2.9922705078125,0.3864893913269043,-0.04643221199512482,0.457232266664505
1789030858557275400,3.002275390625,0.4082772433757782,-0.11024155467748642,0.4424269497394562
1789030858567279400,3.012279296875,0.4247707426548004,-0.1745273321866989,0.4422258734703064
1789030858577284400,3.022284423828125,0.4334332048892975,-0.21877974271774292,0.4232247769832611
1789030858587288300,3.032288330078125,0.42184391617774963,-0.24147653579711914,0.39122048020362854
1789030858597292300,3.042292236328125,0.39876654744148254,-0.2058253288269043,0.3381844460964203
1789030858607297300,3.05229736328125,0.34718725085258484,-0.15974439680576324,0.2978713810443878
1789030858617301200,3.06230126953125,0.28480297327041626,-0.11911413818597794,0.24335646629333496
1789030858627306200,3.07230615234375,0.24805694818496704,-0.08528347313404083,0.1867392510175705
1789030858637310200,3.082310302734375,0.19903454184532166,-0.08042480051517487,0.18232347071170807
1789030858647314400,3.092314453125,0.13102325797080994,-0.0997241958975792,0.15491421520709991
1789030858657319400,3.1023193359375,0.07047896087169647,-0.1098031997680664,0.11998366564512253
1789030858667323400,3.112323486328125,0.04446999728679657,-0.09425593167543411,0.1366012543439865
1789030858677328400,3.122328369140625,0.031807199120521545,-0.043424174189567566,0.17927788197994232
1789030858687332400,3.132332275390625,0.018266621977090836,-0.019467175006866455,0.16397109627723694
1789030858697336300,3.14233642578125,-0.007905594073235989,0.01570652425289154,0.10340974479913712
1789030858707341300,3.15234130859375,-0.025320537388324738,0.021675733849406242,0.05495139956474304
1789030858717345300,3.16234521484375,-0.04904317483305931,0.00803422462195158,0.03723125904798508
1789030858727349200,3.172349365234375,-0.08631224930286407,0.061654042452573776,0.07156233489513397
1789030858737354200,3.182354248046875,-0.12973348796367645,0.10983622074127197,0.1448783576488495
1789030858747358200,3.192358154296875,-0.13308560848236084,0.15483857691287994,0.22629225254058838
1789030858757363200,3.20236328125,-0.10182783007621765,0.1438642293214798,0.30217504501342773
1789030858767367400,3.212367431640625,-0.05205920711159706,0.09542452543973923,0.3802559971809387
1789030858777371400,3.222371337890625,-0.01119459792971611,0.0019856528379023075,0.43330270051956177
1789030858787376400,3.23237646484375,0.021985193714499474,-0.11790985614061356,0.4540923833847046
1789030858797380000,3.242380126953125,0.014117683283984661,-0.25593671202659607,0.4545709788799286
1789030858807385000,3.252385009765625,-0.012293950654566288,-0.3654562830924988,0.4703398048877716
1789030858817389300,3.262389404296875,-0.056597765535116196,-0.3996959924697876,0.5443064570426941
1789030858827393300,3.272393310546875,-0.12221192568540573,-0.36379367113113403,0.6122849583625793
1789030858837398300,3.282398193359375,-0.16721323132514954,-0.27186399698257446,0.6139765977859497
1789030858847402200,3.29240234375,-0.20614704489707947,-0.1568540632724762,0.5331451296806335
1789030858857407200,3.3024072265625,-0.21669715642929077,-0.12775397300720215,0.40969085693359375
1789030858867411500,3.312411376953125,-0.1945772022008896,-0.14529354870319366,0.34689536690711975
1789030858877415200,3.322415283203125,-0.17798039317131042,-0.1668555587530136,0.3035164773464203
1789030858887420400,3.33242041015625,-0.15936702489852905,-0.16672053933143616,0.13905082643032074
1789030858897424100,3.342424072265625,-0.15037672221660614,-0.07838242501020432,-0.15362843871116638
1789030858907428400,3.352428466796875,-0.17941422760486603,0.0762803927063942,-0.49589788913726807
1789030858917433300,3.362433349609375,-0.24512720108032227,0.159745991230011,-0.7986670732498169
1789030858927437300,3.372437255859375,-0.32186806201934814,0.19846488535404205,-0.9793798923492432
1789030858937442300,3.3824423828125,-0.35891127586364746,0.2436842918395996,-1.0448232889175415
1789030858947446300,3.3924462890625,-0.34820324182510376,0.2959387004375458,-0.9959987998008728
1789030858957450500,3.402450439453125,-0.32669663429260254,0.3026599884033203,-0.9126453399658203
1789030858967455500,3.41245556640625,-0.26938754320144653,0.25206634402275085,-0.830781877040863
1789030858977459200,3.422459228515625,-0.21644601225852966,0.18207472562789917,-0.7769634127616882
1789030858987464200,3.432464111328125,-0.20133523643016815,0.10220013558864594,-0.7206961512565613
1789030858997468200,3.44246826171875,-0.25187885761260986,0.0963401198387146,-0.6137382388114929
1789030859007472400,3.452472412109375,-0.34223484992980957,0.029987992718815804,-0.46005120873451233
1789030859017477400,3.462477294921875,-0.43217962980270386,0.06133206561207771,-0.3272143304347992
1789030859027481300,3.4724814453125,-0.46591922640800476,0.10510777682065964,-0.22156807780265808
1789030859037486300,3.482486328125,-0.4910490810871124,0.19148634374141693,-0.17480483651161194
1789030859047490300,3.492490234375,-0.4749870300292969,0.22771811485290527,-0.1542031466960907
1789030859057494500,3.50249462890625,-0.3742542862892151,0.2897508442401886,-0.13806386291980743
1789030859067499500,3.51249951171875,-0.29131653904914856,0.3483598530292511,-0.16573570668697357
1789030859077503200,3.522503173828125,-0.24224379658699036,0.3668339252471924,-0.24919331073760986
1789030859087507200,3.532507080078125,-0.14043301343917847,0.3721756935119629,-0.30764755606651306
1789030859097512200,3.54251220703125,-0.05832375958561897,0.4050692021846771,-0.2983773648738861
1789030859107516400,3.552516357421875,-0.011659852229058743,0.375680148601532,-0.30500492453575134
1789030859117521400,3.562521484375,0.03063300997018814,0.3171481192111969,-0.32087868452072144
1789030859127525400,3.572525390625,0.07425691932439804,0.2969547212123871,-0.2800194025039673
1789030859137529300,3.582529296875,0.09222366660833359,0.2895415425300598,-0.18875740468502045
1789030859147534300,3.592534423828125,0.09956147521734238,0.24671417474746704,-0.1251448690891266
1789030859157538300,3.602538330078125,0.10895098745822906,0.15654966235160828,-0.1126631647348404
1789030859167543300,3.612543212890625,0.10968202352523804,0.09385325759649277,-0.13114869594573975
1789030859177547300,3.62254736328125,0.10164939612150192,0.027102191001176834,-0.17990931868553162
1789030859187551200,3.63255126953125,0.07027469575405121,-0.05300276353955269,-0.273202508687973
1789030859197556200,3.64255615234375,0.012537362985312939,-0.0921991690993309,-0.3848576545715332
1789030859207560200,3.652560302734375,-0.056899234652519226,-0.0717567428946495,-0.4623905420303345
1789030859217564400,3.662564453125,-0.12614941596984863,-0.009159409441053867,-0.4930368661880493
1789030859227569400,3.6725693359375,-0.20262980461120605,0.036004871129989624,-0.5085955858230591
1789030859237573400,3.682573486328125,-0.25394678115844727,0.09428895264863968,-0.46729767322540283
1789030859247578400,3.692578369140625,-0.28338804841041565,0.1214771643280983,-0.3539540767669678
1789030859257582000,3.70258203125,-0.2699151039123535,0.07318579405546188,-0.22905182838439941
1789030859267586300,3.71258642578125,-0.22119736671447754,-0.014284397475421429,-0.11962307244539261
1789030859277591300,3.72259130859375,-0.18974676728248596,-0.0733242779970169,-0.06118106469511986
1789030859287595300,3.73259521484375,-0.20384180545806885,-0.022967899218201637,-0.03592977300286293
1789030859297600300,3.742600341796875,-0.25047534704208374,0.08584007620811462,0.0017915084026753902
1789030859307604200,3.752604248046875,-0.2679257094860077,0.13872139155864716,0.06522427499294281
1789030859317608400,3.7626083984375,-0.22735965251922607,0.07826124876737595,0.14529913663864136
1789030859327613400,3.772613525390625,-0.15061107277870178,-0.010454771108925343,0.20403489470481873
1789030859337617400,3.782617431640625,-0.08522248268127441,-0.07418128848075867,0.2108302116394043
1789030859347622400,3.792622314453125,-0.04862213134765625,-0.07867909967899323,0.17815960943698883
1789030859357626000,3.802626220703125,-0.03760143741965294,-0.03283784165978432,0.10324063152074814
1789030859367630300,3.81263037109375,-0.06472626328468323,0.04747217893600464,-0.002302302746102214
1789030859377635300,3.82263525390625,-0.10882528126239777,0.18682581186294556,-0.08556976169347763
1789030859387639300,3.832639404296875,-0.12313231825828552,0.30388957262039185,-0.08217556029558182
1789030859397643300,3.842643310546875,-0.09537552297115326,0.34405991435050964,0.010026535019278526
1789030859407648300,3.852648193359375,-0.07785964757204056,0.325208455324173,0.06691724807024002
1789030859417652500,3.862652587890625,-0.07736989110708237,0.3256015479564667,0.0323835052549839
1789030859427657500,3.872657470703125,-0.08422087132930756,0.3569487929344177,-0.03351588174700737
1789030859437661400,3.882661376953125,-0.07847936451435089,0.44488611817359924,-0.10252264887094498
1789030859447665200,3.8926650390625,-0.1005828008055687,0.5223031640052795,-0.15840668976306915
1789030859457670100,3.902670166015625,-0.08879698067903519,0.5609416365623474,-0.20419441163539886
1789030859467674400,3.91267431640625,-0.06701552122831345,0.5259007811546326,-0.2605210542678833
1789030859477679400,3.922679443359375,-0.10597303509712219,0.4822808802127838,-0.3443046510219574
1789030859487683300,3.932683349609375,-0.16307760775089264,0.45905545353889465,-0.4285114109516144
1789030859497687300,3.942687255859375,-0.22056272625923157,0.4931865334510803,-0.4680148661136627
1789030859507692300,3.9526923828125,-0.2621690332889557,0.4762970507144928,-0.44237449765205383
1789030859517696300,3.9626962890625,-0.19503633677959442,0.3885117769241333,-0.35006585717201233
1789030859527701500,3.972701416015625,-0.11365865170955658,0.3081754148006439,-0.2608233392238617
1789030859537705200,3.982705322265625,-0.03431563079357147,0.20623520016670227,-0.21581006050109863
1789030859547709200,3.992709228515625,0.04956568777561188,0.10737146437168121,-0.216364786028862
1789030859557713400,4.00271337890625,0.10055084526538849,0.04183666408061981,-0.2517845630645752
1789030859567717600,4.012717529296875,0.10554373264312744,0.028246551752090454,-0.29143503308296204
1789030859577721600,4.0227216796875,0.05908435955643654,0.05235428363084793,-0.29979684948921204
1789030859587726600,4.0327265625,-0.02875787764787674,0.09073549509048462,-0.28264766931533813
1789030859597730600,4.04273046875,-0.10546570271253586,0.09650257229804993,-0.2641189992427826
1789030859607735600,4.052735595703125,-0.12114373594522476,0.06126442179083824,-0.2973642945289612
1789030859617739800,4.06273974609375,-0.10111650079488754,-0.040469661355018616,-0.41557615995407104
1789030859627743500,4.072743408203125,-0.060799166560173035,-0.12555766105651855,-0.5246121287345886
1789030859637748500,4.08274853515625,-0.046413570642471313,-0.14643870294094086,-0.5120773911476135
1789030859647752400,4.09275244140625,-0.03380829840898514,-0.12815450131893158,-0.35342809557914734
1789030859657757400,4.10275732421875,-0.026866234838962555,-0.07469900697469711,-0.14212651550769806
1789030859667761700,4.11276171875,-0.019410716369748116,-0.0636274442076683,-0.08417985588312149
1789030859677765600,4.122765625,-0.018612034618854523,-0.14514334499835968,-0.12442128360271454
1789030859687770600,4.1327705078125,-0.05191486328840256,-0.1825181394815445,-0.16626007854938507
1789030859697774600,4.142774658203125,-0.022485600784420967,-0.21669182181358337,-0.18022756278514862
1789030859707779600,4.152779541015625,0.011958392336964607,-0.2620662450790405,-0.14998602867126465
1789030859717783800,4.16278369140625,0.005831523798406124,-0.3189537525177002,-0.10243822634220123
1789030859727787500,4.17278759765625,0.004356931429356337,-0.32935604453086853,-0.05928729102015495
1789030859737792500,4.18279248046875,-0.006016613449901342,-0.3249730169773102,-0.0641651377081871
1789030859747796500,4.19279638671875,0.00824115239083767,-0.3080076277256012,-0.08494099229574203
1789030859757800700,4.20280078125,0.03395343944430351,-0.3344389796257019,-0.08176171034574509
1789030859767805700,4.2128056640625,0.049544382840394974,-0.3506925106048584,-0.02635703794658184
1789030859777809700,4.2228095703125,0.03063380904495716,-0.31107771396636963,0.031024228781461716
1789030859787814700,4.232814697265625,0.022764435037970543,-0.22553884983062744,0.09368787705898285
1789030859797818600,4.242818603515625,0.02713707834482193,-0.12744423747062683,0.1571110635995865
1789030859807822600,4.252822509765625,0.07740797102451324,-0.055257394909858704,0.1484544575214386
1789030859817827600,4.26282763671875,0.1379259079694748,-0.019051454961299896,0.06832446157932281
1789030859827831600,4.27283154296875,0.19370661675930023,-0.0033870083279907703,0.011158378794789314
1789030859837836500,4.28283642578125,0.22950881719589233,-0.012338691391050816,0.006299707572907209
1789030859847840500,4.292840576171875,0.24561455845832825,-0.03189215436577797,0.010416688397526741
1789030859857844500,4.302844482421875,0.259197473526001,-0.09726317226886749,0.019594207406044006
1789030859867849500,4.312849365234375,0.28391188383102417,-0.1553187519311905,0.06496195495128632
1789030859877853700,4.322853759765625,0.2976173162460327,-0.2005498707294464,0.098271444439888
1789030859887858700,4.332858642578125,0.29099562764167786,-0.23422794044017792,0.08405335992574692
1789030859897862700,4.342862548828125,0.28024497628211975,-0.30082401633262634,0.07187125831842422
1789030859907866400,4.352866455078125,0.2654596269130707,-0.3396446406841278,0.085784412920475
1789030859917871400,4.362871337890625,0.22713914513587952,-0.301520973443985,0.08680147677659988
1789030859927875600,4.37287548828125,0.18609556555747986,-0.26561543345451355,0.08482594043016434
1789030859937879600,4.382879638671875,0.1494520753622055,-0.24283288419246674,0.0737495869398117
1789030859947884500,4.392884521484375,0.0965486466884613,-0.23058980703353882,0.04090588912367821
1789030859957888500,4.402888427734375,0.0450923778116703,-0.19906702637672424,-0.0021433120127767324
1789030859967893500,4.4128935546875,0.0012892362428829074,-0.18533337116241455,-0.018818162381649017
1789030859977897700,4.422897705078125,-0.03278271481394768,-0.1931566745042801,0.004916994366794825
1789030859987901700,4.432901611328125,-0.0497201532125473,-0.23389078676700592,0.05765557289123535
1789030859997906700,4.44290673828125,-0.035588089376688004,-0.2723422944545746,0.11114303022623062
1789030860007910400,4.452910400390625,0.0010295780375599861,-0.3079322576522827,0.15386731922626495
1789030860017915400,4.462915283203125,0.04532620310783386,-0.34697073698043823,0.17380747199058533
1789030860027919600,4.472919677734375,0.06202422082424164,-0.3739014267921448,0.16607019305229187
1789030860037923600,4.482923583984375,0.06614945828914642,-0.3735637366771698,0.16150712966918945
1789030860047928600,4.492928466796875,0.05940127372741699,-0.3443957269191742,0.19334709644317627
1789030860057932500,4.5029326171875,0.042299784719944,-0.3183468282222748,0.23647139966487885
1789030860067937500,4.5129375,0.04134637489914894,-0.3360975980758667,0.28343090415000916
1789030860077941800,4.522941650390625,0.032213594764471054,-0.3500136733055115,0.3223154544830322
1789030860087945700,4.53294580078125,0.008124505169689655,-0.3915672302246094,0.3871266841888428
1789030860097950700,4.54295068359375,-0.036002207547426224,-0.43670010566711426,0.4320124089717865
1789030860107954400,4.552954345703125,-0.08921270072460175,-0.337571918964386,0.386738657951355
1789030860117959400,4.56295947265625,-0.10979440808296204,-0.23179754614830017,0.2991206645965576
1789030860127963600,4.572963623046875,-0.09857610613107681,-0.13473038375377655,0.2171911746263504
1789030860137967600,4.582967529296875,-0.09532012790441513,-0.09550654888153076,0.1602858155965805
1789030860147972600,4.59297265625,-0.09676568955183029,-0.05385870486497879,0.11980043351650238
1789030860157976600,4.6029765625,-0.10719676315784454,0.00048602689639665186,0.09404820203781128
1789030860167980500,4.61298046875,-0.09878596663475037,0.008404137566685677,0.10284887999296188
1789030860177985800,4.62298583984375,-0.08497294783592224,-0.015077220275998116,0.14415371417999268
1789030860187989500,4.632989501953125,-0.07649184763431549,-0.005407548509538174,0.17919771373271942
1789030860197994500,4.642994384765625,-0.07118895649909973,-0.006911968346685171,0.17864245176315308
1789030860207998500,4.65299853515625,-0.07504148781299591,-0.020923390984535217,0.13916268944740295
1789030860218002400,4.66300244140625,-0.05722174420952797,-0.028670793399214745,0.07291442155838013
1789030860228007700,4.673007568359375,-0.05519667640328407,0.031198931857943535,0.02533837966620922
1789030860238011600,4.68301171875,-0.031188545748591423,0.07975075393915176,0.03241892531514168
1789030860248016600,4.6930166015625,-0.011711517348885536,0.1172800213098526,0.0274494681507349
1789030860258020600,4.7030205078125,-0.025359684601426125,0.13705000281333923,-0.021038971841335297
1789030860268024600,4.713024658203125,-0.06653241813182831,0.17502561211585999,-0.07154129445552826
1789030860278029600,4.723029541015625,-0.11209804564714432,0.20715904235839844,-0.131802499294281
1789030860288033500,4.733033447265625,-0.1426040232181549,0.24187414348125458,-0.15089097619056702
1789030860298038500,4.74303857421875,-0.151078999042511,0.2934310734272003,-0.13397644460201263
1789030860308042500,4.75304248046875,-0.15914970636367798,0.3282782733440399,-0.10061316192150116
1789030860318046500,4.76304638671875,-0.14437076449394226,0.3463776409626007,-0.055088020861148834
1789030860328051500,4.773051513671875,-0.12304363399744034,0.3524453938007355,-0.03551964461803436
1789030860338055700,4.7830556640625,-0.1067831739783287,0.3537237048149109,-0.07295143604278564
1789030860348060700,4.793060791015625,-0.08423817902803421,0.35055428743362427,-0.13144510984420776
1789030860358064600,4.803064697265625,-0.06749062985181808,0.32902368903160095,-0.20788155496120453
1789030860368068600,4.813068603515625,-0.07623990625143051,0.3032722473144531,-0.29827457666397095
1789030860378073600,4.823073486328125,-0.10432001203298569,0.2961520254611969,-0.37379488348960876
1789030860388077600,4.83307763671875,-0.12102895230054855,0.28373584151268005,-0.3862779438495636
1789030860398082600,4.84308251953125,-0.12496776878833771,0.2599194645881653,-0.3275262117385864
1789030860408086500,4.85308642578125,-0.09971700608730316,0.24389788508415222,-0.22898603975772858
1789030860418090500,4.863090576171875,-0.05783427134156227,0.22693514823913574,-0.14197231829166412
1789030860428095500,4.873095458984375,-0.011959990486502647,0.21114100515842438,-0.08214813470840454
1789030860438099700,4.883099609375,0.009941846132278442,0.1675703525543213,-0.06417951732873917
1789030860448104700,4.893104736328125,-0.02190583199262619,0.22197474539279938,-0.10835044085979462
1789030860458108700,4.903108642578125,-0.08874398469924927,0.269430935382843,-0.1828228086233139
1789030860468112600,4.913112548828125,-0.13088025152683258,0.29708734154701233,-0.21445024013519287
1789030860478117600,4.92311767578125,-0.13497166335582733,0.2935386598110199,-0.17944085597991943
1789030860488121600,4.93312158203125,-0.1478792130947113,0.24502120912075043,-0.12589187920093536
1789030860498125600,4.94312548828125,-0.18921199440956116,0.18663007020950317,-0.08654847741127014
1789030860508130600,4.953130615234375,-0.2424461990594864,0.15161189436912537,-0.08401021361351013
1789030860518134500,4.963134521484375,-0.2845587730407715,0.13997042179107666,-0.12498108297586441
1789030860528139500,4.973139404296875,-0.2824402153491974,0.14486877620220184,-0.18430300056934357
1789030860538143700,4.983143798828125,-0.2683270573616028,0.1870439201593399,-0.2607541084289551
1789030860548147700,4.993147705078125,-0.2301730215549469,0.16743026673793793,-0.3235466480255127
1789030860558152700,5.003152587890625,-0.22199605405330658,0.15411899983882904,-0.3559996485710144
1789030860568156700,5.01315673828125,-0.26721492409706116,0.14702965319156647,-0.3786647617816925
1789030860578161700,5.02316162109375,-0.32798027992248535,0.15378209948539734,-0.4018086791038513
1789030860588166000,5.033165771484375,-0.3669223487377167,0.20987306535243988,-0.4181594252586365
1789030860598169600,5.043169677734375,-0.3651300370693207,0.24415861070156097,-0.4198417365550995
1789030860608174600,5.053174560546875,-0.3293089270591736,0.25133341550827026,-0.4017508924007416
1789030860618178600,5.063178466796875,-0.3040544390678406,0.2397920936346054,-0.3803121745586395
1789030860628183600,5.07318359375,-0.3114769160747528,0.23185506463050842,-0.3566470742225647
1789030860638187500,5.0831875,-0.2756938934326172,0.15496908128261566,-0.3314186632633209
1789030860648191700,5.093191650390625,-0.20646342635154724,0.1172560527920723,-0.3118921220302582
1789030860658196700,5.10319677734375,-0.15543699264526367,0.0885157510638237,-0.2784918248653412
1789030860668200700,5.11320068359375,-0.11728854477405548,0.06515849381685257,-0.2317884862422943
1789030860678205700,5.123205810546875,-0.09620402753353119,0.03236459568142891,-0.20035439729690552
1789030860688209700,5.133209716796875,-0.08043865114450455,-0.010435863398015499,-0.17670632898807526
1789030860698213600,5.143213623046875,-0.07366729527711868,0.023077622056007385,-0.16572585701942444
1789030860708218600,5.153218505859375,-0.05024026706814766,-0.05368240177631378,-0.1674334704875946
1789030860718222600,5.16322265625,-0.011444135569036007,-0.06953167170286179,-0.15371206402778625
1789030860728227600,5.1732275390625,0.01468546874821186,-0.04394322261214256,-0.1302671879529953
1789030860738231600,5.1832314453125,0.04122307151556015,-0.006370014976710081,-0.09193365275859833
1789030860748235800,5.19323583984375,0.06815481930971146,-0.002883670851588249,-0.05122457072138786
1789030860758240800,5.20324072265625,0.06520536541938782,0.02678127959370613,-0.0515526719391346
1789030860768244700,5.21324462890625,0.03922862932085991,0.06644480675458908,-0.09712202101945877
1789030860778249700,5.223249755859375,0.03586292639374733,0.06367937475442886,-0.1439308077096939
1789030860788253700,5.233253662109375,0.06841101497411728,0.029809826985001564,-0.16372714936733246
1789030860798257700,5.243257568359375,0.09697262197732925,0.005450691562145948,-0.1802070587873459
1789030860808262700,5.2532626953125,0.11384613811969757,-0.0037020600866526365,-0.18429501354694366
1789030860818266600,5.2632666015625,0.11310045421123505,-0.0022152173332870007,-0.1464190036058426
1789030860828271600,5.273271728515625,0.10067441314458847,0.0013848437229171395,-0.08526615798473358
1789030860838275600,5.283275634765625,0.09118956327438354,-0.010892062447965145,-0.04814781993627548
1789030860848279800,5.29327978515625,0.10435622930526733,-0.021617943421006203,-0.02442598156630993
1789030860858284800,5.303284912109375,0.12186385691165924,-0.016820525750517845,-0.014341388829052448
1789030860868288800,5.313288818359375,0.13543878495693207,-0.02431013248860836,-0.016702281311154366
1789030860878293800,5.323293701171875,0.13845375180244446,0.000660463934764266,-0.02864016592502594
1789030860888297500,5.33329736328125,0.13065095245838165,0.02623772993683815,-0.04367770627140999
1789030860898301700,5.3433017578125,0.13029569387435913,0.00606295233592391,-0.03814072906970978
1789030860908306700,5.353306640625,0.13434875011444092,0.004797684494405985,-0.027591148391366005
1789030860918310700,5.363310546875,0.12246013432741165,-0.03449619188904762,-0.03886617347598076
1789030860928315600,5.373315673828125,0.11624165624380112,-0.09538723528385162,-0.024234233424067497
1789030860938319600,5.383319580078125,0.1140056625008583,-0.10873926430940628,-0.008525843732059002
1789030860948323800,5.39332373046875,0.12342286854982376,-0.11227327585220337,0.001555552356876433
1789030860958328800,5.403328857421875,0.1521109789609909,-0.11977353692054749,0.02328321896493435
1789030860968332800,5.413332763671875,0.15657256543636322,-0.13891661167144775,0.02455780655145645
1789030860978337800,5.423337890625,0.1504342406988144,-0.16880473494529724,0.024230504408478737
1789030860988341500,5.433341552734375,0.13707822561264038,-0.19038139283657074,0.013907826505601406
1789030860998345700,5.443345703125,0.11924303323030472,-0.23387427628040314,-0.034165158867836
1789030861008350700,5.453350830078125,0.13617302477359772,-0.2780632972717285,-0.05379665270447731
1789030861018354700,5.463354736328125,0.16443447768688202,-0.3947257399559021,-0.06083911657333374
1789030861028359700,5.473359619140625,0.184925377368927,-0.49375590682029724,-0.054715707898139954
1789030861038363600,5.48336376953125,0.1681450605392456,-0.5160937309265137,-0.03696227818727493
1789030861048367600,5.49336767578125,0.11480487883090973,-0.4942004084587097,0.0006072007236070931
1789030861058372600,5.50337255859375,0.06076508015394211,-0.44694021344184875,0.015238340944051743
1789030861068376800,5.513376953125,0.012330702506005764,-0.4152059853076935,0.03435824066400528
1789030861078381800,5.5233818359375,-0.010101369582116604,-0.4070527255535126,0.07911745458841324
1789030861088385500,5.533385498046875,-0.03170040622353554,-0.388755738735199,0.13696157932281494
1789030861098389500,5.543389404296875,-0.04616430029273033,-0.3647574484348297,0.19786220788955688
1789030861108394500,5.55339453125,-0.06640512496232986,-0.342464417219162,0.24639885127544403
1789030861118398700,5.563398681640625,-0.09203218668699265,-0.3271839916706085,0.29074767231941223
1789030861128403700,5.57340380859375,-0.09858116507530212,-0.3254167139530182,0.3405831456184387
1789030861138407700,5.58340771484375,-0.09811218827962875,-0.3079506456851959,0.37279409170150757
1789030861148411600,5.59341162109375,-0.10280653834342957,-0.2731865346431732,0.3668496310710907
1789030861158416600,5.603416748046875,-0.09527432173490524,-0.27244749665260315,0.34443461894989014
1789030861168420600,5.613420654296875,-0.06839796900749207,-0.24926388263702393,0.3330482542514801
1789030861178425900,5.62342578125,-0.040162865072488785,-0.25659850239753723,0.35678794980049133
1789030861188429600,5.6334296875,0.01543381717056036,-0.29923731088638306,0.3964213728904724
1789030861198433500,5.64343359375,0.06570444256067276,-0.36580008268356323,0.4727771282196045
1789030861208438500,5.6534384765625,0.06416700035333633,-0.4240679144859314,0.5669031143188477
1789030861218442800,5.66344287109375,0.034263964742422104,-0.3262942135334015,0.5365582704544067
1789030861228447700,5.67344775390625,0.0753573402762413,-0.24855469167232513,0.4989064633846283
1789030861238451700,5.68345166015625,0.14567837119102478,-0.25837960839271545,0.45916837453842163
1789030861248456700,5.693456787109375,0.20237255096435547,-0.2781376242637634,0.419092059135437
1789030861258460700,5.703460693359375,0.2366895079612732,-0.27584701776504517,0.39819878339767456
1789030861268464600,5.713464599609375,0.24413330852985382,-0.28418830037117004,0.4092508852481842
1789030861278469600,5.7234697265625,0.2236490696668625,-0.2754342257976532,0.43443506956100464
1789030861288473600,5.7334736328125,0.19117288291454315,-0.25949227809906006,0.4461391270160675
1789030861298477600,5.7434775390625,0.15820375084877014,-0.21963542699813843,0.4230063855648041
1789030861308482600,5.753482666015625,0.12251792848110199,-0.1674872636795044,0.3698720633983612
1789030861318486800,5.76348681640625,0.07611341029405594,-0.1414514034986496,0.2831456959247589
1789030861328491800,5.77349169921875,0.05385364592075348,-0.1422327756881714,0.2165653258562088
1789030861338495700,5.783495849609375,0.04626576602458954,-0.16296468675136566,0.1966499388217926
1789030861348500700,5.793500732421875,0.03262585401535034,-0.23212777078151703,0.16203391551971436
1789030861358504700,5.803504638671875,-0.009124255739152431,-0.22294093668460846,0.056412674486637115
1789030861368508700,5.8135087890625,-0.061879612505435944,-0.23422129452228546,-0.07524042576551437
1789030861378513700,5.823513671875,-0.09788022190332413,-0.23539653420448303,-0.19132734835147858
1789030861388517600,5.833517578125,-0.10932515561580658,-0.20913803577423096,-0.2551550567150116
1789030861398522600,5.843522705078125,-0.11756817251443863,-0.19354310631752014,-0.2987672686576843
1789030861408526600,5.853526611328125,-0.1037391796708107,-0.18096871674060822,-0.33735141158103943
1789030861418530800,5.86353076171875,-0.10786841064691544,-0.1448860764503479,-0.3567296266555786
1789030861428535800,5.873535888671875,-0.14319151639938354,-0.1388164758682251,-0.3593701422214508
1789030861438539800,5.883539794921875,-0.1806613951921463,-0.09882964193820953,-0.32278284430503845
1789030861448544800,5.893544677734375,-0.21293304860591888,-0.04512380063533783,-0.2470979392528534
1789030861458548700,5.903548828125,-0.23042282462120056,-0.011680358089506626,-0.21602949500083923
1789030861468552700,5.913552734375,-0.20570042729377747,0.07311895489692688,-0.20425060391426086
1789030861478557700,5.9235576171875,-0.18275916576385498,0.12901391088962555,-0.18431231379508972
1789030861488561700,5.933561767578125,-0.1595582365989685,0.1750756800174713,-0.18371577560901642
1789030861498566700,5.943566650390625,-0.12560772895812988,0.27407097816467285,-0.14862994849681854
1789030861508570600,5.953570556640625,-0.13626062870025635,0.3242020308971405,-0.1096055880188942
1789030861518574600,5.96357470703125,-0.16033561527729034,0.36901000142097473,-0.06445568799972534
1789030861528579600,5.97357958984375,-0.18670117855072021,0.36112624406814575,-0.019875969737768173
1789030861538583800,5.983583740234375,-0.2057126760482788,0.36759719252586365,0.015373097732663155
1789030861548588800,5.9935888671875,-0.20894469320774078,0.40253520011901855,0.061464425176382065
1789030861558592500,6.003592529296875,-0.18720823526382446,0.43571552634239197,0.09872231632471085
1789030861568598000,6.013597900390625,-0.18548651039600372,0.4654827415943146,0.08522488176822662
1789030861578602000,6.02360205078125,-0.2071681022644043,0.5083074569702148,0.03477609157562256
1789030861588606200,6.033606201171875,-0.2532692849636078,0.5496402382850647,-0.026549851521849632
1789030861598611200,6.043611083984375,-0.28120851516723633,0.5746843218803406,-0.057970624417066574
1789030861608615200,6.053615234375,-0.28851649165153503,0.5635296702384949,-0.06479417532682419
1789030861618620200,6.0636201171875,-0.2861923575401306,0.556274950504303,-0.07405158877372742
1789030861628624100,6.0736240234375,-0.28158000111579895,0.5448774099349976,-0.09586340934038162
1789030861638628000,6.083628173828125,-0.3068923056125641,0.5343025326728821,-0.1404186338186264
1789030861648633000,6.093633056640625,-0.31100502610206604,0.5196878910064697,-0.18243958055973053
1789030861658637000,6.103636962890625,-0.2832772433757782,0.4808332026004791,-0.19253642857074738
1789030861668642000,6.11364208984375,-0.2402980923652649,0.40660423040390015,-0.17632123827934265
1789030861678646000,6.12364599609375,-0.20728927850723267,0.32174980640411377,-0.13862791657447815
1789030861688650200,6.133650146484375,-0.17060981690883636,0.2530713975429535,-0.09454222023487091
1789030861698655200,6.1436552734375,-0.11841559410095215,0.20699019730091095,-0.05530080571770668
1789030861708659200,6.1536591796875,-0.06962328404188156,0.1861051619052887,-0.04215650632977486
1789030861718664200,6.163664306640625,-0.05983137711882591,0.1480930596590042,-0.07669424265623093
1789030861728668000,6.17366796875,-0.0789981484413147,0.07285050302743912,-0.1492198407649994
1789030861738672000,6.183672119140625,-0.06545250862836838,0.013916880823671818,-0.21346114575862885
1789030861748677000,6.193677001953125,-0.02901407517492771,-0.013189571909606457,-0.26315972208976746
1789030861758681000,6.20368115234375,-0.017962489277124405,-0.046130478382110596,-0.29500874876976013
1789030861768686000,6.21368603515625,-0.036021649837493896,-0.03188416361808777,-0.2992543578147888
1789030861778690000,6.22368994140625,-0.06945976614952087,0.026762105524539948,-0.27514633536338806
1789030861788695000,6.233695068359375,-0.0855894684791565,0.06802406162023544,-0.24276870489120483
1789030861798699300,6.24369921875,-0.07842769473791122,0.09027370065450668,-0.20180955529212952
1789030861808703200,6.253703125,-0.05775464326143265,0.0831364318728447,-0.12127210199832916
1789030861818708200,6.263708251953125,-0.014702779240906239,0.047449275851249695,-0.03388259932398796
1789030861828712000,6.2737119140625,0.01233629509806633,0.00538384635001421,-0.002868224401026964
1789030861838717000,6.283717041015625,0.018855713307857513,-0.01583116129040718,-0.020250676199793816
1789030861848721200,6.29372119140625,0.009984723292291164,-0.00938950665295124,-0.020959610119462013
1789030861858725000,6.30372509765625,0.007465639617294073,-0.010076602920889854,0.006148439832031727
1789030861868730000,6.313730224609375,0.009677927009761333,0.03893354907631874,0.07535813748836517
1789030861878734000,6.323734130859375,0.009821205399930477,0.1098729744553566,0.12957130372524261
1789030861888739000,6.333739013671875,0.005585980135947466,0.11860201507806778,0.13893498480319977
1789030861898743000,6.343742919921875,0.0008234494016505778,0.13401399552822113,0.1250750869512558
1789030861908748000,6.353748046875,0.012536032125353813,0.1704833209514618,0.0913219228386879
1789030861918752300,6.363752197265625,0.05718099698424339,0.17820808291435242,0.056713346391916275
1789030861928756000,6.373755859375,0.1308688074350357,0.19982069730758667,0.03666027635335922
1789030861938761000,6.383760986328125,0.18248246610164642,0.19686245918273926,-0.01091842819005251
1789030861948765000,6.393764892578125,0.23366069793701172,0.14764831960201263,-0.049254097044467926
1789030861958770000,6.40377001953125,0.26390886306762695,0.08845769613981247,-0.08715833723545074
1789030861968774100,6.413774169921875,0.2716837227344513,0.00902891531586647,-0.09996335208415985
1789030861978778000,6.423778076171875,0.2839078903198242,-0.02322329767048359,-0.08780362457036972
1789030861988783000,6.433783203125,0.27459293603897095,-0.09380398690700531,-0.05985081568360329
1789030861998787000,6.443787109375,0.2730445861816406,-0.15164890885353088,-0.03752740100026131
1789030862008792000,6.4537919921875,0.27609843015670776,-0.21228136122226715,-0.07339964807033539
1789030862018796300,6.46379638671875,0.26985517144203186,-0.2755013406276703,-0.14293985068798065
1789030862028801300,6.47380126953125,0.2507461905479431,-0.3325156271457672,-0.17019090056419373
1789030862038805000,6.483804931640625,0.21796588599681854,-0.3488437533378601,-0.1581275910139084
1789030862048809000,6.49380908203125,0.18119482696056366,-0.3486136496067047,-0.1299433559179306
1789030862058814000,6.50381396484375,0.16451597213745117,-0.32890546321868896,-0.08464457839727402
1789030862068818200,6.513818115234375,0.13863138854503632,-0.29305052757263184,-0.04439063370227814
1789030862078823200,6.5238232421875,0.10945458710193634,-0.26726633310317993,-0.030107302591204643
1789030862088827100,6.5338271484375,0.07761303335428238,-0.22663021087646484,-0.03446103632450104
1789030862098831000,6.5438310546875,0.05859540402889252,-0.18863463401794434,-0.027719778940081596
1789030862108836000,6.553836181640625,0.07000544667243958,-0.16649870574474335,-0.013797304593026638
1789030862118840000,6.563840087890625,0.08959592878818512,-0.18396183848381042,0.018319884315133095
1789030862128845000,6.573844970703125,0.12214908003807068,-0.2259516417980194,0.055937834084033966
1789030862138849000,6.58384912109375,0.13014468550682068,-0.24341292679309845,0.07077829539775848
1789030862148853000,6.59385302734375,0.11015260219573975,-0.2713814377784729,0.05824865773320198
1789030862158858000,6.60385791015625,0.10536769777536392,-0.2680990993976593,0.03261972963809967
1789030862168862200,6.6138623046875,0.09165934473276138,-0.27291780710220337,0.026450516656041145
1789030862178867200,6.6238671875,0.0737631693482399,-0.29019346833229065,0.03256513178348541
1789030862188871200,6.63387109375,0.07738054543733597,-0.2963232696056366,0.07245849072933197
1789030862198876200,6.643876220703125,0.052500493824481964,-0.2949030101299286,0.10472268611192703
1789030862208880000,6.653880126953125,0.04645698145031929,-0.2726230025291443,0.10310214757919312
1789030862218884000,6.663884033203125,0.059062253683805466,-0.25797855854034424,0.08250073343515396
1789030862228889000,6.67388916015625,0.028311798349022865,-0.22024661302566528,0.01121883187443018
1789030862238893000,6.68389306640625,-0.02809235453605652,-0.19434817135334015,-0.05704650655388832
1789030862248898000,6.69389794921875,-0.050513505935668945,-0.16668592393398285,-0.08157742023468018
1789030862258902000,6.703902099609375,-0.04999658837914467,-0.09021031856536865,-0.04886208102107048
1789030862268906200,6.71390625,-0.04634379595518112,-0.009890447370707989,0.005709284916520119
1789030862278911200,6.7239111328125,-0.08027699589729309,0.05138702318072319,0.02064082957804203
1789030862288915200,6.733915283203125,-0.12815584242343903,0.10107122361660004,-0.014451377093791962
1789030862298920200,6.743920166015625,-0.15315945446491241,0.14443840086460114,-0.03957777097821236
1789030862308924200,6.753924072265625,-0.15494483709335327,0.19240166246891022,-0.0488775260746479
1789030862318929200,6.76392919921875,-0.11801744997501373,0.21898934245109558,-0.031066572293639183
1789030862328933000,6.77393310546875,-0.08676445484161377,0.21094979345798492,-0.011993812397122383
1789030862338937000,6.78393701171875,-0.09526393562555313,0.1930307149887085,-0.020381703972816467
1789030862348942000,6.793942138671875,-0.12473846971988678,0.18094314634799957,-0.06834470480680466
1789030862358946000,6.803946044921875,-0.15304601192474365,0.1626344472169876,-0.1440591663122177
1789030862368951000,6.813950927734375,-0.16021816432476044,0.16116918623447418,-0.18534988164901733
1789030862378955000,6.823955078125,-0.15787671506404877,0.1756647676229477,-0.1953929364681244
1789030862388959200,6.833959228515625,-0.14244583249092102,0.18880480527877808,-0.1721898764371872
1789030862398964200,6.843964111328125,-0.10518660396337509,0.1734178513288498,-0.16258998215198517
1789030862408968000,6.853968017578125,-0.07550168037414551,0.14256194233894348,-0.1862979680299759
1789030862418973200,6.86397314453125,-0.0332663431763649,0.15192002058029175,-0.16579562425613403
1789030862428977000,6.873976806640625,-0.0028634308837354183,0.15796273946762085,-0.12385563552379608
1789030862438982000,6.88398193359375,0.00920574925839901,0.15529638528823853,-0.12224175781011581
1789030862448986000,6.893986083984375,0.012385562993586063,0.13986362516880035,-0.1654912233352661
1789030862458990000,6.903989990234375,-0.01625247299671173,0.13592347502708435,-0.22024714946746826
1789030862468995000,6.9139951171875,-0.051421113312244415,0.14305010437965393,-0.24403157830238342
1789030862478999000,6.9239990234375,-0.0854661613702774,0.16925294697284698,-0.23640401661396027
1789030862489004000,6.934004150390625,-0.10228855162858963,0.19419610500335693,-0.19220831990242004
1789030862499008300,6.94400830078125,-0.08089032024145126,0.18304438889026642,-0.14023859798908234
1789030862509012000,6.954011962890625,-0.0685308575630188,0.18212266266345978,-0.12179061770439148
1789030862519017000,6.964016845703125,-0.036260802298784256,0.16751469671726227,-0.10308191180229187
1789030862529021000,6.97402099609375,0.0033047166652977467,0.16250582039356232,-0.07642393559217453
1789030862539026000,6.98402587890625,0.050454918295145035,0.1487410068511963,-0.027727501466870308
1789030862549030100,6.994030029296875,0.10116789489984512,0.13771125674247742,0.0299065001308918
1789030862559035100,7.00403515625,0.13929317891597748,0.13376206159591675,0.06342131644487381
1789030862569039000,7.0140390625,0.1480054408311844,0.13193459808826447,0.03958336263895035
1789030862579043000,7.02404296875,0.13497087359428406,0.13884443044662476,-0.011795672588050365
1789030862589048000,7.034048095703125,0.12322872132062912,0.15446467697620392,-0.03847042843699455
1789030862599052000,7.044052001953125,0.09976600855588913,0.16169382631778717,-0.01864825189113617
1789030862609057000,7.05405712890625,0.09701203554868698,0.16827209293842316,0.024705613031983376
1789030862619061000,7.06406103515625,0.10429950803518295,0.17211396992206573,0.0680413693189621
1789030862629066000,7.07406591796875,0.1241360604763031,0.17408470809459686,0.06830155849456787
1789030862639070000,7.084070068359375,0.11870161443948746,0.16715490818023682,0.018881812691688538
1789030862649074200,7.09407421875,0.11194197833538055,0.17492280900478363,-0.04301351308822632
1789030862659079200,7.1040791015625,0.08343257755041122,0.16585581004619598,-0.08086821436882019
1789030862669083100,7.114083251953125,0.059005796909332275,0.1581273227930069,-0.049911633133888245
1789030862679088000,7.124088134765625,0.046667635440826416,0.1858319193124771,-0.010418020188808441
1789030862689092000,7.134092041015625,0.04723808541893959,0.18566040694713593,0.03676147758960724
1789030862699096000,7.144095947265625,0.0557122640311718,0.19803079962730408,0.045705169439315796
1789030862709101000,7.15410107421875,0.04969938099384308,0.20438936352729797,-0.0008463526028208435
1789030862719105000,7.16410498046875,0.047558464109897614,0.2076123207807541,-0.05602598562836647
1789030862729110000,7.174110107421875,0.03471430391073227,0.20381517708301544,-0.07434693723917007
1789030862739114000,7.184114013671875,0.036439500749111176,0.1962536722421646,-0.05600787699222565
1789030862749119000,7.194118896484375,0.03266526758670807,0.19642864167690277,-0.038112763315439224
1789030862759123200,7.204123291015625,0.03862142935395241,0.18742609024047852,-0.04436453431844711
1789030862769127200,7.214127197265625,0.047392550855875015,0.1917704939842224,-0.04920669272542
1789030862779132200,7.224132080078125,0.07286328822374344,0.1755012422800064,-0.06513159722089767
1789030862789136000,7.234135986328125,0.10294875502586365,0.1665692776441574,-0.10530165582895279
1789030862799140900,7.244140869140625,0.0961635485291481,0.15773770213127136,-0.12122203409671783
1789030862809145000,7.25414501953125,0.11083836853504181,0.13959971070289612,-0.10910198837518692
1789030862819150000,7.264150146484375,0.12362819910049438,0.12201778590679169,-0.05613517388701439
1789030862829154000,7.274154052734375,0.14991280436515808,0.09839075058698654,0.01907009817659855
1789030862839158000,7.284157958984375,0.17643575370311737,0.07069973647594452,0.07537784427404404
1789030862849163000,7.2941630859375,0.1793508529663086,0.06694041937589645,0.04721997678279877
1789030862859167000,7.3041669921875,0.154590904712677,0.0772806704044342,-0.019242137670516968
1789030862869172200,7.314172119140625,0.114738829433918,0.06124791130423546,-0.06668049097061157
1789030862879176200,7.32417626953125,0.11436732113361359,0.03665867820382118,-0.06723523139953613
1789030862889180000,7.334179931640625,0.12438719719648361,0.01671905815601349,0.005440571811050177
1789030862899185000,7.344184814453125,0.12460824102163315,-0.00691969133913517,0.05951578915119171
1789030862909188900,7.35418896484375,0.11989711225032806,0.0030546458438038826,0.06858838349580765
1789030862919193900,7.36419384765625,0.11847498267889023,0.031433556228876114,0.05395857244729996
1789030862929198000,7.374197998046875,0.10557729005813599,0.04728548973798752,0.05627312511205673
1789030862939203000,7.384203125,0.09398108720779419,0.04488864541053772,0.09443435817956924
1789030862949207000,7.39420703125,0.08147754520177841,0.054911185055971146,0.11346504092216492
1789030862959211000,7.4042109375,0.0678032785654068,0.05169462040066719,0.10909852385520935
1789030862969216000,7.414216064453125,0.04953612759709358,0.058526162058115005,0.08300434052944183
1789030862979220200,7.42422021484375,0.02924230694770813,0.07003793865442276,0.030978422611951828
1789030862989225200,7.43422509765625,0.0026253440883010626,0.05350983142852783,-0.031256455928087234
1789030862999229000,7.44422900390625,-0.015225824899971485,0.034389663487672806,-0.0959310531616211
1789030863009234000,7.45423388671875,-0.03869359940290451,0.01949913240969181,-0.12449505925178528
1789030863019238000,7.46423779296875,-0.05928809195756912,0.020367855206131935,-0.14506398141384125
1789030863029242000,7.4742421875,-0.05458894371986389,0.005949501879513264,-0.11800679564476013
1789030863039247000,7.4842470703125,-0.0417567677795887,-0.012503274716436863,-0.08926835656166077
1789030863049251000,7.4942509765625,-0.01606418751180172,-0.03706827387213707,-0.04205584153532982
1789030863059256000,7.504256103515625,0.012791162356734276,-0.04983040690422058,-0.002341983839869499
1789030863069260000,7.514260009765625,0.02851473167538643,-0.04614618793129921,0.015243401750922203
1789030863079264300,7.52426416015625,0.032825324684381485,-0.03249003365635872,0.023019831627607346
1789030863089269200,7.534269287109375,0.012345349416136742,-0.023431822657585144,-0.010551177896559238
1789030863099273000,7.54427294921875,-0.020671989768743515,-0.02165336348116398,-0.03481683507561684
1789030863109278000,7.55427783203125,-0.0478985495865345,-0.027168238535523415,-0.04063744097948074
1789030863119282000,7.564281982421875,-0.06295792758464813,-0.049852244555950165,-0.02684546262025833
1789030863129287000,7.574286865234375,-0.06580298393964767,-0.07382841408252716,0.012102202512323856
1789030863139291100,7.584291015625,-0.04219698905944824,-0.08837459981441498,0.050647199153900146
1789030863149295000,7.594295166015625,-0.015066567808389664,-0.10197030752897263,0.05908675491809845
1789030863159300000,7.604300048828125,0.01762906089425087,-0.10645720362663269,0.045644182711839676
1789030863169304000,7.614303955078125,0.03520592302083969,-0.10544680058956146,0.02574850618839264
1789030863179309000,7.62430908203125,0.03626852482557297,-0.11215023696422577,0.011660384014248848
1789030863189313000,7.63431298828125,0.04073411226272583,-0.11829974502325058,0.026625219732522964
1789030863199318000,7.644318115234375,0.029993584379553795,-0.13411253690719604,0.04298075661063194
1789030863209322000,7.654322021484375,0.003198722843080759,-0.1266048103570938,0.030111828818917274
1789030863219326000,7.664325927734375,-0.032401349395513535,-0.11393828690052032,-0.0051686628721654415
1789030863229331000,7.6743310546875,-0.07767561823129654,-0.09061884880065918,-0.03960493206977844
1789030863239335200,7.684335205078125,-0.10905804485082626,-0.05582251772284508,-0.06264474242925644
1789030863249340200,7.694340087890625,-0.11196381598711014,-0.03741608187556267,-0.07492323964834213
1789030863259344100,7.70434423828125,-0.09506872296333313,-0.025949042290449142,-0.0843319222331047
1789030863269348000,7.71434814453125,-0.07949376106262207,-0.027304857969284058,-0.08686619251966476
1789030863279353000,7.72435302734375,-0.07365131378173828,-0.04462818801403046,-0.08903719484806061
1789030863289357000,7.734357177734375,-0.0861564576625824,-0.04971775412559509,-0.12904798984527588
1789030863299362000,7.744362060546875,-0.0909661278128624,-0.07390458136796951,-0.16222192347049713
1789030863309366000,7.754365966796875,-0.07014526426792145,-0.1168975904583931,-0.16058169305324554
1789030863319371000,7.76437109375,-0.042094457894563675,-0.14054246246814728,-0.1431710124015808
1789030863329375000,7.774375,-0.013371998444199562,-0.11937513202428818,-0.11822517961263657
1789030863339379200,7.784379150390625,-0.015778429806232452,-0.0723988339304924,-0.10082727670669556
1789030863349384200,7.79438427734375,-0.06992822140455246,-0.07794060558080673,-0.09480613470077515
1789030863359388200,7.80438818359375,-0.038492266088724136,-0.032888442277908325,-0.12049046158790588
1789030863369393200,7.81439306640625,0.04478318244218826,0.04531554877758026,-0.09741443395614624
1789030863379397000,7.824397216796875,0.07851877808570862,0.030735274776816368,-0.02053084224462509
1789030863389400800,7.83440087890625,0.07794832438230515,0.011606855317950249,0.020311396569013596
1789030863399406000,7.844406005859375,0.05800284817814827,-0.0011171960504725575,0.060625262558460236
1789030863409410000,7.85441015625,0.02719513513147831,-0.005937517620623112,0.01829831302165985
1789030863419415000,7.8644150390625,-0.04129231348633766,0.058223623782396317,-0.08658522367477417
1789030863429419000,7.8744189453125,-0.08236970752477646,0.031624238938093185,-0.16155533492565155
1789030863439424000,7.884424072265625,-0.08639214932918549,0.02930569089949131,-0.21260787546634674
1789030863449428000,7.894427978515625,-0.05861244723200798,0.06305566430091858,-0.22576920688152313
1789030863459432200,7.90443212890625,-0.030961377546191216,0.07703059911727905,-0.19392526149749756
1789030863469437200,7.914437255859375,-0.042144257575273514,0.03940067067742348,-0.17333024740219116
1789030863479441200,7.924441162109375,-0.04494323953986168,0.013244166038930416,-0.18737441301345825
1789030863489446100,7.934446044921875,-0.033422138541936874,0.03133128955960274,-0.2143104374408722
1789030863499449900,7.944449951171875,-0.03250361606478691,-0.04411179944872856,-0.2191624492406845
1789030863509454800,7.954454833984375,-0.05193430557847023,-0.11743208765983582,-0.19584114849567413
1789030863519459000,7.964458984375,-0.06798917055130005,-0.07322840392589569,-0.1680832803249359
1789030863529463000,7.974463134765625,-0.08910644054412842,0.043896619230508804,-0.15421779453754425
1789030863539468000,7.984468017578125,-0.08269274979829788,0.18017616868019104,-0.14834658801555634
1789030863549472000,7.994471923828125,-0.04634140059351921,0.3537213206291199,-0.13030047714710236
1789030863559477000,8.00447705078125,-0.020204870030283928,0.4975453317165375,-0.10623136162757874
1789030863569480400,8.01448046875,-0.026559172198176384,0.5780327320098877,-0.08795168995857239
1789030863579485400,8.0244853515625,-0.0557149276137352,0.6538662314414978,-0.07823328673839569
1789030863589489400,8.034489501953125,-0.07366356998682022,0.6644434928894043,-0.06835509091615677
1789030863599493400,8.044493408203126,-0.057614292949438095,0.6394516229629517,-0.05901458486914635
1789030863609498600,8.05449853515625,-0.004606469534337521,0.5829944610595703,-0.05349411815404892
1789030863619502300,8.06450244140625,0.02845321223139763,0.46297138929367065,-0.07586919516324997
1789030863629507300,8.07450732421875,0.01683916710317135,0.3445850908756256,-0.14186899363994598
1789030863639511300,8.08451123046875,-0.02027038484811783,0.29477784037590027,-0.2149202972650528
1789030863649515300,8.094515380859375,-0.06798411160707474,0.2513915002346039,-0.2455170899629593
1789030863659520500,8.1045205078125,-0.10768997669219971,0.25600355863571167,-0.22602540254592896
1789030863669524500,8.1145244140625,-0.10324915498495102,0.19925132393836975,-0.17352305352687836
1789030863679529500,8.124529541015624,-0.08984946459531784,0.1605587899684906,-0.11749280989170074
1789030863689533400,8.134533447265625,-0.07919202744960785,0.12059778720140457,-0.09153977036476135
1789030863699538400,8.144538330078126,-0.06927680969238281,0.08703476935625076,-0.08333110809326172
1789030863709542400,8.15454248046875,-0.04008723050355911,0.06345460563898087,-0.06852526217699051
1789030863719546400,8.16454638671875,0.02304992452263832,0.01233602873980999,-0.04562634229660034
1789030863729551400,8.17455126953125,0.0452529639005661,-0.004507932811975479,-0.0484282523393631
1789030863739555300,8.184555419921875,0.04471314325928688,-0.013577594421803951,-0.0546930730342865
1789030863749560300,8.194560302734375,0.027230555191636086,-0.041671548038721085,-0.07397782057523727
1789030863759564300,8.204564208984374,0.030309969559311867,-0.08645392954349518,-0.09854254871606827
1789030863769568500,8.214568603515625,0.01335735060274601,-0.1191713958978653,-0.09060180187225342
1789030863779573500,8.224573486328126,-0.000577107013668865,-0.15979072451591492,-0.04300445690751076
1789030863789577500,8.234577392578124,0.004118045791983604,-0.23278850317001343,-0.021820077672600746
1789030863799582500,8.24458251953125,-0.00043755737715400755,-0.28422772884368896,-0.017404023557901382
1789030863809586400,8.25458642578125,-0.008140484802424908,-0.310411661863327,0.008010256104171276
1789030863819591400,8.26459130859375,-0.0073652383871376514,-0.30793651938438416,0.06789649277925491
1789030863829595400,8.274595458984376,-0.01968076080083847,-0.27741697430610657,0.13174551725387573
1789030863839599400,8.284599365234374,-0.00914422981441021,-0.2392168492078781,0.18785591423511505
1789030863849604400,8.294604248046875,0.010068613104522228,-0.19741587340831757,0.2615988552570343
1789030863859608300,8.3046083984375,0.010271280072629452,-0.16644889116287231,0.31671324372291565
1789030863869613300,8.31461328125,0.011904862709343433,-0.1078961044549942,0.3403943181037903
1789030863879617500,8.324617431640625,0.03211665898561478,-0.04054209962487221,0.36344611644744873
1789030863889622500,8.33462255859375,0.05585287883877754,-0.014417555183172226,0.39041247963905334
1789030863899626500,8.34462646484375,0.0832405611872673,-0.043648410588502884,0.3794538378715515
1789030863909630500,8.35463037109375,0.12569214403629303,-0.0817105770111084,0.3279813230037689
1789030863919635500,8.364635498046875,0.16265869140625,-0.1491900235414505,0.264570415019989
1789030863929639400,8.374639404296875,0.2064429223537445,-0.20552119612693787,0.24220837652683258
1789030863939644400,8.38464453125,0.2259971797466278,-0.2454204112291336,0.21579541265964508
1789030863949648400,8.3946484375,0.2364886999130249,-0.3621518313884735,0.1584828495979309
1789030863959652400,8.40465234375,0.27812430262565613,-0.4954212009906769,0.12552037835121155
1789030863969657300,8.4146572265625,0.2977004051208496,-0.5317786931991577,0.14638730883598328
1789030863979661600,8.42466162109375,0.2845779359340668,-0.47749412059783936,0.20846877992153168
1789030863989666600,8.43466650390625,0.2529475688934326,-0.39800435304641724,0.26806819438934326
1789030863999670500,8.44467041015625,0.21842235326766968,-0.31823471188545227,0.3101256489753723
1789030864009675500,8.454675537109376,0.19193321466445923,-0.20655398070812225,0.3143174648284912
1789030864019679200,8.46467919921875,0.164584681391716,-0.10180332511663437,0.26847726106643677
1789030864029683500,8.474683349609375,0.14778786897659302,-0.04025794193148613,0.20348627865314484
1789030864039688400,8.4846884765625,0.14180932939052582,0.0019797938875854015,0.15922613441944122
1789030864049692400,8.4946923828125,0.13869769871234894,0.04772704094648361,0.15407851338386536
1789030864059697400,8.504697509765625,0.14156325161457062,0.09848076850175858,0.16826944053173065
1789030864069701400,8.514701416015624,0.15043610334396362,0.1532558649778366,0.1934027522802353
1789030864079706400,8.524706298828125,0.15255092084407806,0.1658736616373062,0.19666805863380432
1789030864089710600,8.534710693359376,0.16937944293022156,0.15749268233776093,0.15579412877559662
1789030864099714600,8.544714599609375,0.17220957577228546,0.113805390894413,0.09265616536140442
1789030864109719600,8.554719482421875,0.16274577379226685,0.049310293048620224,0.068263478577137
1789030864119723300,8.56472314453125,0.1406090408563614,0.005422462243586779,0.08096276223659515
1789030864129728300,8.574728271484375,0.12111204117536545,0.035302065312862396,0.13144537806510925
1789030864139732500,8.584732421875,0.11099735647439957,0.06993620842695236,0.17730101943016052
1789030864149736400,8.594736328125,0.10885031521320343,0.052138302475214005,0.2040087878704071
1789030864159741400,8.604741455078125,0.09966134279966354,0.022043250501155853,0.2166537493467331
1789030864169745400,8.614745361328126,0.09785225987434387,-0.011886753141880035,0.21819624304771423
1789030864179750400,8.62475048828125,0.09217147529125214,-0.038109567016363144,0.2124885618686676
1789030864189754400,8.63475439453125,0.10475943237543106,-0.058276623487472534,0.214997798204422
1789030864199759400,8.64475927734375,0.1417960226535797,-0.07963277399539948,0.2103487104177475
1789030864209763600,8.654763671875,0.16986572742462158,-0.06954019516706467,0.21011914312839508
1789030864219767300,8.664767333984376,0.1792491227388382,-0.042746663093566895,0.21880264580249786
1789030864229772300,8.674772216796875,0.16881857812404633,-0.02321583963930607,0.25040823221206665
1789030864239776300,8.6847763671875,0.14555133879184723,-0.054489873349666595,0.2921980321407318
1789030864249781200,8.69478125,0.10850384086370468,-0.08815622329711914,0.30552929639816284
1789030864259785500,8.704785400390625,0.05818953737616539,-0.0935794860124588,0.289752721786499
1789030864269789400,8.71478955078125,0.0011318434262648225,-0.09202073514461517,0.2745809555053711
1789030864279794400,8.72479443359375,-0.04264812916517258,-0.10644841194152832,0.2679286599159241
1789030864289798400,8.73479833984375,-0.07247473299503326,-0.08605445921421051,0.24210824072360992
1789030864299803400,8.744803466796874,-0.07754432410001755,-0.09158424288034439,0.19154520332813263
1789030864309807600,8.7548076171875,-0.055564992129802704,-0.12786129117012024,0.11401525139808655
1789030864319812600,8.7648125,-0.04590410739183426,-0.16029833257198334,0.06540803611278534
1789030864329816300,8.77481640625,-0.06431267410516739,-0.16706381738185883,0.08010948449373245
1789030864339820300,8.7848203125,-0.11338142305612564,-0.10614720731973648,0.08862573653459549
1789030864349825300,8.7948251953125,-0.17498965561389923,-0.034152112901210785,0.060332316905260086
1789030864359829500,8.80482958984375,-0.21341267228126526,0.028414331376552582,0.010815363377332687
1789030864369834500,8.81483447265625,-0.20868290960788727,0.09969889372587204,-0.04162893444299698
1789030864379838500,8.82483837890625,-0.18148404359817505,0.12169820815324783,-0.09182659536600113
1789030864389842400,8.834842529296875,-0.13194791972637177,0.16154655814170837,-0.1125960499048233
1789030864399847400,8.844847412109376,-0.0715671256184578,0.1978965699672699,-0.08945690840482712
1789030864409851400,8.854851318359374,-0.02550589293241501,0.16915759444236755,-0.08548533916473389
1789030864419856400,8.8648564453125,0.011049455031752586,0.15539811551570892,-0.11088177561759949
1789030864429860400,8.8748603515625,0.03949148207902908,0.16873762011528015,-0.157242089509964
1789030864439865300,8.884865234375,0.04568040370941162,0.1636350005865097,-0.22346878051757812
1789030864449869300,8.894869384765625,0.07888815551996231,0.19269302487373352,-0.26570942997932434
1789030864459873500,8.90487353515625,0.1082412526011467,0.17258481681346893,-0.2863854169845581
1789030864469878500,8.91487841796875,0.1302269846200943,0.1128208264708519,-0.3144460916519165
1789030864479882500,8.924882568359376,0.14979508519172668,0.1149929016828537,-0.28568127751350403
1789030864489887500,8.934887451171875,0.16610269248485565,0.124021016061306,-0.21025124192237854
1789030864499891500,8.944891357421875,0.1640419363975525,0.17072300612926483,-0.1631321907043457
1789030864509895400,8.9548955078125,0.14737240970134735,0.22582700848579407,-0.1541498899459839
1789030864519900400,8.964900390625,0.11578226089477539,0.25862810015678406,-0.16062669456005096
1789030864529904400,8.974904296875,0.10768251866102219,0.2727803885936737,-0.14204075932502747
1789030864539909400,8.984909423828125,0.10002859681844711,0.27956318855285645,-0.12360981851816177
1789030864549913300,8.994913330078125,0.12527988851070404,0.30667683482170105,-0.08139313012361526
1789030864559918300,9.00491845703125,0.13916108012199402,0.31941846013069153,-0.052077580243349075
1789030864569923300,9.01492333984375,0.131633922457695,0.29073649644851685,-0.07327155023813248
1789030864579927600,9.024927490234376,0.12797154486179352,0.31661415100097656,-0.0788322314620018
1789030864589932500,9.0349326171875,0.13331304490566254,0.3453017473220825,-0.05001682788133621
1789030864599936500,9.0449365234375,0.1367434710264206,0.3537956178188324,-0.005605687852948904
1789030864609941500,9.05494140625,0.1434519737958908,0.36353161931037903,0.01775875687599182
1789030864619945500,9.064945556640625,0.13608379662036896,0.3551463782787323,0.0026849990244954824
1789030864629949400,9.074949462890626,0.08108233660459518,0.317249596118927,-0.04573766142129898
1789030864639954400,9.084954345703125,0.019591543823480606,0.32047387957572937,-0.05343126505613327
1789030864649958400,9.09495849609375,0.0019739349372684956,0.3305307924747467,-0.014385596849024296
1789030864659963400,9.10496337890625,0.00800359807908535,0.29246941208839417,0.023508520796895027
1789030864669967400,9.11496728515625,0.008833172731101513,0.2544221580028534,0.026919765397906303
1789030864679972400,9.124972412109376,-0.009042230434715748,0.2504463195800781,0.0065290057100355625
1789030864689976600,9.1349765625,-0.048458345234394073,0.23155705630779266,-0.00788801722228527
1789030864699980500,9.14498046875,-0.09214750677347183,0.2181941121816635,-0.01031761895865202
1789030864709985500,9.154985595703126,-0.11041811853647232,0.1937473714351654,-0.01098713744431734
1789030864719989500,9.164989501953125,-0.12225933372974396,0.1439065784215927,-0.02575569786131382
1789030864729994500,9.174994384765625,-0.14401336014270782,0.11510102450847626,-0.052627790719270706
1789030864739998500,9.18499853515625,-0.16238518059253693,0.1427992284297943,-0.09600535780191422
1789030864750002400,9.19500244140625,-0.1793076992034912,0.2054855078458786,-0.14830158650875092
1789030864760007400,9.20500732421875,-0.19867554306983948,0.2270512580871582,-0.19110338389873505
1789030864770011400,9.215011474609375,-0.20313660800457,0.1764429360628128,-0.2170438915491104
1789030864780016400,9.225016357421875,-0.19039498269557953,0.12725462019443512,-0.19678816199302673
1789030864790020400,9.235020263671874,-0.16626007854938507,0.08127141743898392,-0.14958976209163666
1789030864800025300,9.245025390625,-0.1374577283859253,0.06821287423372269,-0.12345908582210541
1789030864810029600,9.255029541015626,-0.1267843097448349,0.06084364280104637,-0.14253078401088715
1789030864820033300,9.265033203125,-0.1477961242198944,0.05694850534200668,-0.19590185582637787
1789030864830038300,9.275038330078125,-0.1889408975839615,0.07020758092403412,-0.2185232788324356
1789030864840042200,9.285042236328126,-0.1951894611120224,0.052024852484464645,-0.20566634833812714
1789030864850047200,9.295047119140625,-0.18651820719242096,0.022294387221336365,-0.16850832104682922
1789030864860051500,9.305051513671875,-0.23188942670822144,-0.032286301255226135,-0.17151476442813873
1789030864870055400,9.315055419921874,-0.31734466552734375,-0.051185689866542816,-0.2017642855644226
1789030864880060400,9.325060302734375,-0.4070705473423004,-0.0022024342324584723,-0.23782454431056976
1789030864890064400,9.335064453125,-0.476063996553421,-0.01961604505777359,-0.2583785653114319
1789030864900069400,9.3450693359375,-0.4437668025493622,-0.08287171274423599,-0.2247638702392578
1789030864910073600,9.355073486328125,-0.3464578092098236,-0.16033880412578583,-0.1500084102153778
1789030864920078600,9.36507861328125,-0.2450137436389923,-0.2177024930715561,-0.08363950252532959
1789030864930082300,9.375082275390625,-0.17480403184890747,-0.26822957396507263,-0.07325370609760284
1789030864940086300,9.385086181640625,-0.13894030451774597,-0.28151795268058777,-0.12537017464637756
1789030864950091300,9.39509130859375,-0.1447979360818863,-0.2644044756889343,-0.20173898339271545
1789030864960095500,9.405095458984375,-0.16874560713768005,-0.2281452864408493,-0.24616903066635132
1789030864970100500,9.4151005859375,-0.203062042593956,-0.2052125334739685,-0.2536434531211853
1789030864980104400,9.4251044921875,-0.21435117721557617,-0.22946195304393768,-0.23839633166790009
1789030864990108400,9.4351083984375,-0.18233278393745422,-0.28577983379364014,-0.22720199823379517
1789030865000113400,9.445113525390624,-0.12782107293605804,-0.32309016585350037,-0.25063008069992065
1789030865010117600,9.45511767578125,-0.07152798026800156,-0.3159014880657196,-0.23117490112781525
1789030865020122600,9.46512255859375,-0.027727235108613968,-0.2724453806877136,-0.14386609196662903
1789030865030126300,9.475126220703125,0.02149091102182865,-0.2541257441043854,-0.06017811968922615
1789030865040130300,9.48513037109375,0.07692833989858627,-0.2634710371494293,-0.0011914982460439205
1789030865050135300,9.49513525390625,0.08817646652460098,-0.2178758680820465,0.07647107541561127
1789030865060139500,9.505139404296875,0.0677361711859703,-0.1622174084186554,0.12584660947322845
1789030865070144500,9.51514453125,0.0646279975771904,-0.17568926513195038,0.1111595407128334
1789030865080148500,9.5251484375,0.06129291653633118,-0.15695925056934357,0.06769063323736191
1789030865090153500,9.535153564453125,0.06511855125427246,-0.13562600314617157,0.04177567735314369
1789030865100157400,9.545157470703124,0.09501919150352478,-0.1429949700832367,0.060987185686826706
1789030865110161400,9.555161376953125,0.1156589537858963,-0.1756535768508911,0.08392126858234406
1789030865120166700,9.565166748046876,0.12314856052398682,-0.2489648163318634,0.10825350135564804
1789030865130170400,9.57517041015625,0.15638747811317444,-0.31759873032569885,0.14425598084926605
1789030865140175400,9.58517529296875,0.17601338028907776,-0.35856321454048157,0.13866573572158813
1789030865150179300,9.595179443359376,0.18626521527767181,-0.39443254470825195,0.11560835689306259
1789030865160183600,9.60518359375,0.18344944715499878,-0.42684799432754517,0.08334948122501373
1789030865170188500,9.6151884765625,0.1753273457288742,-0.4298669397830963,0.04657735675573349
1789030865180192500,9.625192626953124,0.16791203618049622,-0.39581578969955444,0.032410405576229095
1789030865190197500,9.635197509765625,0.15829242765903473,-0.3511497676372528,0.040831051766872406
1789030865200201500,9.645201416015626,0.15194904804229736,-0.3090158998966217,0.0661124438047409
1789030865210205400,9.655205322265624,0.12554514408111572,-0.25609490275382996,0.07869454473257065
1789030865220210400,9.66521044921875,0.0831817090511322,-0.2157573252916336,0.05848648026585579
1789030865230214400,9.67521435546875,0.061471883207559586,-0.1707291305065155,0.022359900176525116
1789030865240219400,9.685219482421875,0.06359868496656418,-0.10751234740018845,0.021770808845758438
1789030865250223400,9.695223388671875,0.06810501962900162,-0.0696491152048111,0.030911043286323547
1789030865260228400,9.705228271484375,0.06989280134439468,-0.05335696414113045,0.05024665966629982
1789030865270232300,9.715232421875,0.06930264085531235,-0.07041184604167938,0.03561285510659218
1789030865280236500,9.725236572265626,0.06190251559019089,-0.1026933565735817,-0.0033065807074308395
1789030865290241500,9.735241455078125,0.05320809409022331,-0.12050244212150574,-0.01079645473510027
1789030865300245500,9.74524560546875,0.04060042276978493,-0.09719259291887283,0.007425958290696144
1789030865310250500,9.75525048828125,0.0466173030436039,-0.06983580440282822,0.025535719469189644
1789030865320254200,9.765254150390625,0.059065982699394226,-0.09852923452854156,0.0146489841863513
1789030865330258400,9.775258544921876,0.06971223652362823,-0.1193639412522316,-0.009433715604245663
1789030865340263400,9.785263427734375,0.05416097119450569,-0.11806751787662506,-0.02268693596124649
1789030865350267400,9.795267333984375,0.012350942008197308,-0.0958370491862297,-0.02641190029680729
1789030865360272400,9.8052724609375,-0.0028993834275752306,-0.04971828684210777,-0.04132959619164467
1789030865370276400,9.8152763671875,0.018663965165615082,-0.0020415792241692543,-0.038660842925310135
1789030865380280600,9.825280517578125,0.05668804794549942,0.006452839355915785,-0.0020485036075115204
1789030865390285600,9.83528564453125,0.07059800624847412,-0.02683507651090622,0.0235881507396698
1789030865400289500,9.84528955078125,0.06905869394540787,-0.0830802395939827,0.026795927435159683
1789030865410294500,9.85529443359375,0.06275579333305359,-0.14641553163528442,0.0481821745634079
1789030865420298200,9.86529833984375,0.07505373656749725,-0.18218179047107697,0.09836544841527939
1789030865430302500,9.875302490234375,0.08845183253288269,-0.19771307706832886,0.15092960000038147
1789030865440307500,9.885307373046874,0.07648598402738571,-0.21433067321777344,0.16170953214168549
1789030865450311400,9.8953115234375,0.022958045825362206,-0.24512585997581482,0.15461194515228271
1789030865460316400,9.90531640625,-0.03400164097547531,-0.3038315176963806,0.12609800696372986
1789030865470320400,9.9153203125,-0.09419254213571548,-0.3559810221195221,0.1075056865811348
1789030865480324600,9.92532470703125,-0.15220125019550323,-0.3614753782749176,0.1110125407576561
1789030865490329600,9.93532958984375,-0.18837763369083405,-0.3200043737888336,0.12028646469116211
1789030865500333300,9.945333251953125,-0.2143367975950241,-0.2684924304485321,0.1568564623594284
1789030865510338300,9.95533837890625,-0.21534347534179688,-0.24615304172039032,0.21082594990730286
1789030865520342300,9.96534228515625,-0.19872960448265076,-0.21350163221359253,0.2804066240787506
1789030865530346500,9.975346435546875,-0.16708911955356598,-0.18850652873516083,0.3476399779319763
1789030865540351500,9.9853515625,-0.14476117491722107,-0.17274168133735657,0.38367947936058044
1789030865550355500,9.99535546875,-0.12676407396793365,-0.1280631572008133,0.34974440932273865
1789030865560360400,10.0053603515625,-0.09229104965925217,-0.05648857727646828,0.2778710424900055
1789030865570364700,10.01536474609375,-0.06247109919786453,-0.014749119058251381,0.2037147730588913
1789030865580369700,10.02536962890625,-0.06820622086524963,0.009340505115687847,0.12796835601329803
1789030865590373600,10.03537353515625,-0.08598840981721878,0.031553398817777634,0.07816963642835617
1789030865600377600,10.045377685546875,-0.11320485174655914,0.03982437774538994,0.04830548167228699
1789030865610382600,10.055382568359375,-0.13222195208072662,0.03561978042125702,0.04225078225135803
1789030865620386600,10.065386474609374,-0.14119893312454224,0.01625780016183853,0.022165756672620773
1789030865630391600,10.0753916015625,-0.1447252333164215,0.021530592814087868,-0.011025752872228622
1789030865640395500,10.0853955078125,-0.119594044983387,0.06919664889574051,0.006929545197635889
1789030865650399700,10.095399658203124,-0.08853359520435333,0.08967369049787521,0.045219141989946365
1789030865660404700,10.10540478515625,-0.06822512298822403,0.10488434135913849,0.039676837623119354
1789030865670408700,10.11540869140625,-0.058277420699596405,0.13952940702438354,0.0011848403373733163
1789030865680413700,10.12541357421875,-0.07291734963655472,0.1598232239484787,-0.056472331285476685
1789030865690417700,10.135417724609376,-0.08098699152469635,0.19057446718215942,-0.06515290588140488
1789030865700421600,10.145421630859374,-0.06271637976169586,0.22502751648426056,-0.028782645240426064
1789030865710426600,10.155426513671875,-0.05108795315027237,0.2474319040775299,-0.024948759004473686
1789030865720430600,10.1654306640625,-0.042155176401138306,0.2697625160217285,-0.08847074210643768
1789030865730435600,10.175435546875,-0.043168243020772934,0.2785743772983551,-0.17810794711112976
1789030865740439600,10.185439453125,-0.06915643066167831,0.27795812487602234,-0.2513534128665924
1789030865750443800,10.19544384765625,-0.07874620705842972,0.2737836241722107,-0.27193617820739746
1789030865760448800,10.20544873046875,-0.06448817998170853,0.2505251467227936,-0.2433074563741684
1789030865770452700,10.21545263671875,-0.0574028380215168,0.2086445540189743,-0.18620476126670837
1789030865780457700,10.225457763671875,-0.0699005201458931,0.1708305925130844,-0.1493346244096756
1789030865790461700,10.235461669921875,-0.055031824856996536,0.13864603638648987,-0.10885857045650482
1789030865800465700,10.245465576171876,-0.01998782344162464,0.10962716490030289,-0.08828059583902359
1789030865810470700,10.255470703125,0.01110431645065546,0.08618415147066116,-0.08507521450519562
1789030865820474600,10.265474609375,0.0487225316464901,0.05235881358385086,-0.07570354640483856
1789030865830479600,10.275479736328125,0.09260983020067215,0.03688904270529747,-0.03563842177391052
1789030865840483600,10.285483642578125,0.09366949647665024,-0.004539624322205782,0.009006012231111526
1789030865850487800,10.29548779296875,0.06551189720630646,-0.01823865808546543,0.02857651747763157
1789030865860492800,10.305492919921875,0.007475493010133505,-0.01786155439913273,0.047034088522195816
1789030865870496800,10.315496826171875,-0.055878978222608566,0.0037004624027758837,0.09217360615730286
1789030865880501800,10.325501708984374,-0.08384136855602264,0.05426669865846634,0.14883820712566376
1789030865890505700,10.335505615234375,-0.09220343083143234,0.09225057065486908,0.16765904426574707
1789030865900509700,10.345509765625,-0.12739497423171997,0.09824693948030472,0.10085337609052658
1789030865910514700,10.3555146484375,-0.1860596239566803,0.09149689227342606,-0.015912920236587524
1789030865920518700,10.3655185546875,-0.24232502281665802,0.08955252170562744,-0.11687655001878738
1789030865930523600,10.375523681640624,-0.28327512741088867,0.10240546613931656,-0.15904398262500763
1789030865940527600,10.385527587890625,-0.29618212580680847,0.16559189558029175,-0.15396693348884583
1789030865950531800,10.39553173828125,-0.2937919497489929,0.2400549352169037,-0.13887585699558258
1789030865960536800,10.405536865234374,-0.28855109214782715,0.2304060459136963,-0.12525779008865356
1789030865970540800,10.415540771484375,-0.28963369131088257,0.22736391425132751,-0.1330595165491104
1789030865980545800,10.4255458984375,-0.30595672130584717,0.2553923428058624,-0.16297560930252075
1789030865990549500,10.435549560546875,-0.2976681590080261,0.28542882204055786,-0.19960738718509674
1789030866000553700,10.4455537109375,-0.2708496153354645,0.3476991057395935,-0.24288135766983032
1789030866010558700,10.455558837890624,-0.24500656127929688,0.37023743987083435,-0.2672780454158783
1789030866020562700,10.465562744140625,-0.23582184314727783,0.33525070548057556,-0.2588115930557251
1789030866030567700,10.475567626953126,-0.22392098605632782,0.1943465769290924,-0.23244602978229523
1789030866040571600,10.485571533203125,-0.19259953498840332,0.14225061237812042,-0.20206815004348755
1789030866050575600,10.49557568359375,-0.18536213040351868,0.11185276508331299,-0.1856934279203415
1789030866060580600,10.50558056640625,-0.16714371740818024,0.08358011394739151,-0.17627356946468353
1789030866070584800,10.515584716796875,-0.16482622921466827,0.035462651401758194,-0.1732543408870697
1789030866080589800,10.52558984375,-0.15777365863323212,-0.030290527269244194,-0.15618906915187836
1789030866090593500,10.535593505859374,-0.15459942817687988,-0.08254946768283844,-0.12191019207239151
1789030866100597500,10.545597412109375,-0.14800597727298737,-0.12068913131952286,-0.10523667186498642
1789030866110602500,10.5556025390625,-0.14858920872211456,-0.18796031177043915,-0.10305421054363251
1789030866120606700,10.565606689453125,-0.1209258884191513,-0.3031841218471527,-0.0997910425066948
1789030866130611700,10.57561181640625,-0.06682989746332169,-0.357003390789032,-0.08754263073205948
1789030866140615700,10.58561572265625,-0.04048537462949753,-0.3377191722393036,-0.07686415314674377
1789030866150619600,10.59561962890625,-0.061581071466207504,-0.27747979760169983,-0.08152628690004349
1789030866160624600,10.605624755859376,-0.07813315093517303,-0.2254408448934555,-0.09069900959730148
1789030866170628900,10.61562890625,-0.09377815574407578,-0.1781577467918396,-0.11573512107133865
1789030866180633900,10.6256337890625,-0.11648799479007721,-0.17025429010391235,-0.14203676581382751
1789030866190637600,10.635637451171876,-0.11446798592805862,-0.19845770299434662,-0.17164099216461182
1789030866200641500,10.6456416015625,-0.08086635172367096,-0.2758116126060486,-0.1878359466791153
1789030866210646500,10.655646484375,-0.018692728132009506,-0.3250686228275299,-0.16751043498516083
1789030866220650800,10.665650634765624,0.03856177255511284,-0.2929101586341858,-0.08800549060106277
1789030866230655700,10.67565576171875,0.057130396366119385,-0.23501890897750854,0.02082325704395771
1789030866240659700,10.68565966796875,0.05650615319609642,-0.2685214579105377,0.07288512587547302
1789030866250663700,10.69566357421875,0.06950531154870987,-0.3027404248714447,0.06892820447683334
1789030866260668700,10.705668701171875,0.06953620165586472,-0.2709540128707886,0.033617615699768066
1789030866270672600,10.715672607421874,0.0747179165482521,-0.26320821046829224,0.01776088774204254
1789030866280677600,10.725677734375,0.08862999826669693,-0.2724544405937195,0.025644376873970032
1789030866290681600,10.735681640625,0.08243735134601593,-0.24799461662769318,0.03582324460148811
1789030866300685600,10.745685546875,0.0775134339928627,-0.19237451255321503,0.07369685918092728
1789030866310690600,10.755690673828125,0.08543713390827179,-0.15142413973808289,0.0970168262720108
1789030866320694800,10.76569482421875,0.09068089723587036,-0.13709527254104614,0.11164237558841705
1789030866330699800,10.77569970703125,0.10035642981529236,-0.1459241807460785,0.15178154408931732
1789030866340703700,10.785703857421876,0.10640500485897064,-0.11991655081510544,0.16330742835998535
1789030866350707700,10.795707763671874,0.09744133800268173,-0.06890822947025299,0.14303171634674072
1789030866360712700,10.805712646484375,0.08381713926792145,-0.028271585702896118,0.14223995804786682
1789030866370716700,10.815716552734376,0.06564585864543915,-0.023011310026049614,0.14094114303588867
1789030866380721700,10.8257216796875,0.059182364493608475,-0.0049763829447329044,0.12927782535552979
1789030866390725600,10.8357255859375,0.06609299778938293,0.033604566007852554,0.12113148719072342
1789030866400729600,10.8457294921875,0.05649736523628235,0.04108458757400513,0.10237697511911392
1789030866410734600,10.855734619140625,0.023960459977388382,0.028793564066290855,0.07696056365966797
1789030866420738800,10.86573876953125,0.003936418332159519,0.007474960293620825,0.06459630280733109
1789030866430743800,10.875743896484375,0.009954363107681274,-0.0007957525085657835,0.05598044395446777
1789030866440747800,10.885747802734375,0.031066305935382843,0.015793077647686005,0.04795154556632042
1789030866450751700,10.895751708984376,0.025611886754631996,0.01878167688846588,0.038955654948949814
1789030866460756700,10.9057568359375,0.01564420759677887,-0.0025510420091450214,-0.002444781828671694
1789030866470760700,10.9157607421875,-0.026499517261981964,-0.013107546605169773,-0.06779316067695618
1789030866480764700,10.9257646484375,-0.04626842960715294,-0.027583956718444824,-0.12468946725130081
1789030866490769700,10.935769775390625,-0.01324017159640789,-0.09017356485128403,-0.11162745952606201
1789030866500773600,10.945773681640626,0.027425765991210938,-0.12279516458511353,-0.018853049725294113
1789030866510778600,10.955778564453125,0.0507875457406044,-0.1606040596961975,0.0852363333106041
1789030866520782600,10.965782470703125,-0.000055660068028373644,-0.1356281340122223,0.12489452958106995
1789030866530786800,10.975786865234374,-0.07246514409780502,-0.12179221212863922,0.07227339595556259
1789030866540791800,10.985791748046875,-0.09075680375099182,-0.11576788127422333,0.030699322000145912
1789030866550795500,10.99579541015625,-0.048405349254608154,-0.14716681838035583,0.07068029791116714
1789030866560800800,11.00580078125,0.0009552759001962841,-0.14658251404762268,0.17889304459095
1789030866570804200,11.01580419921875,-0.01956491358578205,-0.14363892376422882,0.2161826342344284
1789030866580808200,11.02580810546875,-0.0520421601831913,-0.15012718737125397,0.19322457909584045
1789030866590813200,11.035813232421875,-0.08167116343975067,-0.16131485998630524,0.18102490901947021
1789030866600817200,11.045817138671875,-0.10171757638454437,-0.1757529228925705,0.16720204055309296
1789030866610822100,11.055822265625,-0.10139000415802002,-0.1670084297657013,0.14942491054534912
1789030866620826400,11.065826416015625,-0.10884898900985718,-0.18563084304332733,0.15301936864852905
1789030866630830300,11.075830322265626,-0.12604102492332458,-0.20565861463546753,0.18959257006645203
1789030866640835300,11.08583544921875,-0.13293088972568512,-0.2174665480852127,0.21483667194843292
1789030866650839300,11.09583935546875,-0.1428687423467636,-0.1766035258769989,0.20239783823490143
1789030866660844300,11.10584423828125,-0.17478379607200623,-0.165665403008461,0.14971545338630676
1789030866670848300,11.11584814453125,-0.1905539631843567,-0.17636358737945557,0.09697262197732925
1789030866680852200,11.125852294921875,-0.17566369473934174,-0.1760178953409195,0.09873297065496445
1789030866690857200,11.135857177734374,-0.14775671064853668,-0.17276272177696228,0.10910118371248245
1789030866700861200,11.145861083984375,-0.13095802068710327,-0.12980353832244873,0.133014515042305
1789030866710865200,11.155865234375,-0.12476003915071487,-0.06922434270381927,0.17320773005485535
1789030866720870100,11.1658701171875,-0.12624555826187134,-0.036315131932497025,0.20344020426273346
1789030866730874400,11.175874267578125,-0.11137206107378006,-0.02515355683863163,0.2205725908279419
1789030866740879400,11.18587939453125,-0.08178407698869705,-0.029272668063640594,0.2264760136604309
1789030866750883000,11.195883056640625,-0.026675818488001823,0.001609614584594965,0.25489166378974915
1789030866760887000,11.205886962890625,0.047018639743328094,0.05078248679637909,0.30180618166923523
1789030866770892000,11.21589208984375,0.09562958776950836,0.0904017984867096,0.3076568841934204
1789030866780896300,11.225896240234375,0.08689708262681961,0.10906949639320374,0.22849681973457336
1789030866790901200,11.2359013671875,0.05922763794660568,0.1599838137626648,0.11950269341468811
1789030866800905200,11.2459052734375,0.030785609036684036,0.19698309898376465,0.052206747233867645
1789030866810909200,11.2559091796875,0.04697549715638161,0.2501629590988159,0.05167411267757416
1789030866820914200,11.2659140625,0.0802205353975296,0.2745535373687744,0.06435582041740417
1789030866830918400,11.27591845703125,0.09125028550624847,0.3171555995941162,0.028676118701696396
1789030866840923400,11.28592333984375,0.07966899871826172,0.3599400818347931,-0.036583311855793
1789030866850927000,11.295927001953125,0.06143566220998764,0.39580830931663513,-0.06078718230128288
1789030866860931000,11.30593115234375,0.039094939827919006,0.42506712675094604,-0.06794576346874237
1789030866870936000,11.31593603515625,0.0317656509578228,0.4540702998638153,-0.04626629874110222
1789030866880940300,11.325940185546875,0.05012441799044609,0.4178079068660736,0.0006703176186420023
1789030866890944300,11.3359443359375,0.05200621113181114,0.38492876291275024,0.004716458264738321
1789030866900949200,11.34594921875,0.052811816334724426,0.3584159314632416,-0.03915086388587952
1789030866910953200,11.355953125,0.04801120236515999,0.3572028577327728,-0.09427297115325928
1789030866920958200,11.365958251953124,0.033847711980342865,0.34310463070869446,-0.13413037359714508
1789030866930962400,11.37596240234375,0.020350812003016472,0.33619266748428345,-0.13468830287456512
1789030866940966100,11.385966064453125,0.007707187905907631,0.34014904499053955,-0.11964943259954453
1789030866950971100,11.39597119140625,-0.0008261125767603517,0.3417775630950928,-0.1125640943646431
1789030866960975000,11.40597509765625,-0.0033665020018815994,0.31007611751556396,-0.09615502506494522
1789030866970980000,11.41597998046875,-0.00033209618413820863,0.25430551171302795,-0.07589635998010635
1789030866980984300,11.425984375,-0.0032501218374818563,0.21342706680297852,-0.05016623064875603
1789030866990988300,11.43598828125,0.01486150361597538,0.17878173291683197,-0.02311250939965248
1789030867000993300,11.4459931640625,0.0475534051656723,0.1745116114616394,-0.011455054394900799
1789030867010997200,11.455997314453125,0.06815162301063538,0.17645253241062164,-0.024214526638388634
1789030867021001200,11.466001220703125,0.05273005738854408,0.1693940907716751,-0.06272996217012405
1789030867031006200,11.476006103515624,0.00771810719743371,0.15632781386375427,-0.1083722785115242
1789030867041010200,11.48601025390625,-0.05498282611370087,0.14677132666110992,-0.15355467796325684
1789030867051015200,11.49601513671875,-0.11404028534889221,0.14471803605556488,-0.17845869064331055
1789030867061019100,11.50601904296875,-0.14944487810134888,0.14681926369667053,-0.17492680251598358
1789030867071023000,11.516023193359375,-0.1684579849243164,0.15124091506004333,-0.15435148775577545
1789030867081028000,11.526028076171874,-0.1682787537574768,0.14067243039608002,-0.12432941049337387
1789030867091032300,11.5360322265625,-0.1604679673910141,0.145025372505188,-0.1173708364367485
1789030867101037300,11.546037353515626,-0.14882995188236237,0.18526865541934967,-0.13743774592876434
1789030867111041300,11.556041259765625,-0.14672818779945374,0.24817119538784027,-0.1641966700553894
1789030867121045000,11.566044921875,-0.11695804446935654,0.28933221101760864,-0.160529226064682
1789030867131050000,11.576050048828124,-0.07395917922258377,0.27293485403060913,-0.1384444236755371
1789030867141054200,11.58605419921875,-0.030845263972878456,0.23114614188671112,-0.12272512167692184
1789030867151058200,11.59605810546875,-0.016804812476038933,0.2238141894340515,-0.13224191963672638
1789030867161063200,11.606063232421874,-0.04501194879412651,0.22320379316806793,-0.18506918847560883
1789030867171067100,11.616067138671875,-0.06899797916412354,0.22755566239356995,-0.2282709926366806
1789030867181072100,11.626072021484376,-0.06017199531197548,0.21701008081436157,-0.24814748764038086
1789030867191076400,11.636076416015625,-0.0652325302362442,0.18473975360393524,-0.25900545716285706
1789030867201080300,11.646080322265625,-0.08953174948692322,0.13061952590942383,-0.26564738154411316
1789030867211085300,11.656085205078124,-0.11793089658021927,0.05264776572585106,-0.25351482629776
1789030867221089000,11.666089111328125,-0.1342393010854721,0.004728975240141153,-0.21415144205093384
1789030867231094000,11.676093994140626,-0.1473657488822937,-0.021922875195741653,-0.18324385583400726
1789030867241098200,11.68609814453125,-0.10918347537517548,-0.0749240443110466,-0.16187891364097595
1789030867251102200,11.696102294921875,-0.08434311300516129,-0.07358340919017792,-0.15893211960792542
1789030867261107200,11.706107177734374,-0.07059267908334732,-0.10639754682779312,-0.16831150650978088
1789030867271111200,11.716111083984375,-0.054233942180871964,-0.14455585181713104,-0.18461298942565918
1789030867281115400,11.726115478515625,-0.038071487098932266,-0.142131045460701,-0.18148936331272125
1789030867291120400,11.736120361328124,-0.04061799868941307,-0.08054650574922562,-0.17013178765773773
1789030867301124000,11.7461240234375,-0.026019083335995674,-0.022070948034524918,-0.15858031809329987
1789030867311129300,11.75612939453125,0.0032650355715304613,-0.01034584827721119,-0.15733397006988525
1789030867321133000,11.766133056640625,0.026973826810717583,-0.040414001792669296,-0.1456243097782135
1789030867331137300,11.77613720703125,0.05928249657154083,-0.0746457427740097,-0.10753125697374344
1789030867341142300,11.786142333984374,0.09095973521471024,-0.08640546351671219,-0.08040642738342285
1789030867351146200,11.796146240234375,0.1274956464767456,-0.0774037092924118,-0.06880968809127808
1789030867361150200,11.806150146484375,0.15851055085659027,-0.11603526026010513,-0.08416840434074402
1789030867371155200,11.8161552734375,0.16811737418174744,-0.17633508145809174,-0.11629385501146317
1789030867381159400,11.826159423828125,0.14383253455162048,-0.22147592902183533,-0.1295689046382904
1789030867391164400,11.836164306640624,0.1581249237060547,-0.25537291169166565,-0.1063259094953537
1789030867401168100,11.846168212890625,0.1873089075088501,-0.22883424162864685,-0.05483049154281616
1789030867411172000,11.856172119140625,0.20026224851608276,-0.23405270278453827,-0.04719254747033119
1789030867421177000,11.866177001953124,0.20805999636650085,-0.24778848886489868,-0.02876640111207962
1789030867431181300,11.876181396484375,0.18773475289344788,-0.24254073202610016,-0.0029984530992805958
1789030867441185300,11.886185302734376,0.16973283886909485,-0.2337150275707245,0.029382655397057533
1789030867451190300,11.896190185546875,0.15224839746952057,-0.188887357711792,0.04785061255097389
1789030867461194200,11.9061943359375,0.1345367729663849,-0.16049939393997192,0.037568945437669754
1789030867471199200,11.91619921875,0.1305055469274521,-0.1315327286720276,0.021260282024741173
1789030867481203200,11.926203125,0.12558695673942566,-0.1269579529762268,-0.005501291714608669
1789030867491207200,11.936207275390625,0.11533990502357483,-0.1379229873418808,-0.01835477165877819
1789030867501212200,11.946212158203124,0.10051169246435165,-0.1509101539850235,-0.0002402171230642125
1789030867511216000,11.956216064453125,0.09078370034694672,-0.14966513216495514,0.007436344865709543
1789030867521220000,11.96622021484375,0.09303274005651474,-0.13613440096378326,-0.0012567456578835845
1789030867531225000,11.97622509765625,0.11114196479320526,-0.10143900662660599,-0.015022625215351582
1789030867541229300,11.986229248046875,0.10887827724218369,-0.050398726016283035,-0.030164826661348343
1789030867551234300,11.996234375,0.07761436700820923,-0.044387172907590866,-0.0566297248005867
1789030867561238300,12.00623828125,0.0508330874145031,-0.0563301183283329,-0.09521067142486572
1789030867571242200,12.0162421875,0.055084023624658585,-0.07135353982448578,-0.12813612818717957
1789030867581247200,12.026247314453125,0.0718156024813652,-0.07458129525184631,-0.13524463772773743
1789030867591251500,12.03625146484375,0.05627365782856941,-0.10539726167917252,-0.1476224809885025
1789030867601256400,12.04625634765625,0.03195686638355255,-0.1307111382484436,-0.1759457290172577
1789030867611260400,12.056260498046875,0.013391172513365746,-0.17604292929172516,-0.19079391658306122
1789030867621264400,12.066264404296875,0.027185015380382538,-0.2157892882823944,-0.163460835814476
1789030867631269400,12.076269287109374,0.07956353574991226,-0.20406019687652588,-0.07232745736837387
1789030867641273300,12.0862734375,0.09624610841274261,-0.2007347047328949,0.004525776021182537
1789030867651277300,12.09627734375,0.07011543959379196,-0.18678133189678192,0.02082032710313797
1789030867661282300,12.1062822265625,0.024926388636231422,-0.1836870014667511,-0.027298998087644577
1789030867671286300,12.116286376953125,-0.016049273312091827,-0.17426954209804535,-0.06548207253217697
1789030867681290500,12.12629052734375,-0.043586891144514084,-0.16849367320537567,-0.052985720336437225
1789030867691295500,12.13629541015625,-0.053472813218832016,-0.13412770628929138,0.0013275857781991363
1789030867701299500,12.146299560546876,-0.06500376760959625,-0.12111710011959076,0.06239679828286171
1789030867711304400,12.156304443359375,-0.0671292394399643,-0.12983575463294983,0.09311582893133163
1789030867721308200,12.16630810546875,-0.07448914647102356,-0.17343303561210632,0.10713071376085281
1789030867731312400,12.1763125,-0.09438002854585648,-0.21538075804710388,0.12531238794326782
1789030867741317400,12.1863173828125,-0.1185801774263382,-0.22248153388500214,0.14510579407215118
