time,seconds_elapsed,z,y,x
1790096691391517184,0.149517333984375,0.0,0.0,0.0
1790096691401517312,0.159517333984375,-0.241080023796613,0.19972780751269317,-0.15249627317522416
1790096691411517184,0.16951733398437502,-0.30910896789950726,0.2616902668562743,-0.037540515521432685
1790096691421517312,0.17951733398437503,-0.27787296336858924,0.22727380491464483,0.11515678889774181
1790096691431517184,0.18951733398437504,-0.46305642948922804,0.0779592856502728,0.35374563263180775
1790096691441517312,0.19951733398437504,-0.5430884883319117,-0.06599300096460438,0.4748841010964418
1790096691451517184,0.20951733398437505,-0.6349012929827424,-0.08745050196887089,0.40824106724117454
1790096691461517312,0.21951733398437506,-0.6243975586310562,-0.044752694364379106,0.21133075480558702
1790096691471517184,0.22951733398437507,-0.3089312389149481,-0.01611909347629028,0.08278355117413472
1790096691481517312,0.23951733398437508,-0.1670488087817874,0.01504946525650852,0.0353538834224303
1790096691491517184,0.2495173339843751,-0.19746926194622574,-0.005316939571681313,0.04528136793409723
1790096691501517312,0.2595173339843751,-0.3792789263603037,-0.25393305996235893,0.07698581406904069
1790096691511517184,0.2695173339843751,-0.34127176050632035,-0.5653482015686841,0.04252792563471682
1790096691521517312,0.2795173339843751,-0.2878581732530816,-0.4963838948141087,-0.3147159351122889
1790096691531517184,0.2895173339843751,-0.32701409124272196,-0.11766914521063399,-0.8843532040124809
1790096691541517312,0.29951733398437513,0.0005341330288234358,0.04159309211386651,-1.037796779369777
1790096691551517184,0.30951733398437514,0.5399732926879344,0.29778183497656746,-0.7315018098763698
1790096691561517312,0.31951733398437515,0.5745877333091655,0.3434668310211746,-0.3896542643160041
1790096691571517184,0.32951733398437516,0.15375832777756618,0.07270566133352081,-0.04941717386244786
1790096691581517312,0.33951733398437517,-0.04270570444713384,-0.12909444111013396,0.4327465121488613
1790096691591517184,0.3495173339843752,-0.18053027066317404,-0.1749933399520562,0.1767257554235199
1790096691601517312,0.3595173339843752,-0.1477127602297355,-0.30797426109640663,0.3345579415389928
1790096691611517184,0.3695173339843752,-0.11146157086126887,-0.7716898093536176,0.3299732005201016
1790096691621517312,0.3795173339843752,-0.2955962354762972,-1.170022398958226,0.3017115428948717
1790096691631517184,0.3895173339843752,-0.7448303570434955,-0.8754848808984024,-0.2856425578692835
1790096691641517312,0.3995173339843752,-0.7486101922640582,-0.43259973422259396,-0.6557949652390249
1790096691651517184,0.40951733398437523,-0.7160010765771477,-0.12716302805875762,-0.6377423804565646
1790096691661517312,0.41951733398437524,-0.8265282924358692,0.03176000912984443,-0.6080194399907043
1790096691671517184,0.42951733398437525,-0.9661662993792987,0.06542781434260452,-0.5163212551180756
1790096691681517312,0.43951733398437526,-1.219603588976985,-0.09405974028454324,-0.25605051143468954
1790096691691517184,0.44951733398437527,-1.2831196662707205,-0.16423141854441134,-0.0804971170391415
1790096691701517312,0.4595173339843753,-1.1692193676479945,-0.2775720058096386,0.007424311003703318
1790096691711517184,0.4695173339843753,-0.6368359678367564,-0.7865838778510023,0.23763746977223615
1790096691721517312,0.4795173339843753,-0.41332811697933136,-0.23477084500836734,-0.6569557026410932
1790096691731517184,0.4895173339843753,0.35634469251115203,-0.12130076458702871,-1.3303197049919273
1790096691741517312,0.4995173339843753,1.206798672274694,-0.45256196520730746,-1.4633281524858757
1790096691751517184,0.5095173339843753,0.7269607690664267,-0.4784831479064364,-1.3489343867342563
1790096691761517312,0.5195173339843753,0.15443236332165156,-0.2706007737497543,-0.9155985445803759
1790096691771517184,0.5295173339843753,-0.22801542208004386,-0.062019803992700344,-0.6741057232960106
1790096691781517312,0.5395173339843753,-0.32231513262505107,0.0518668430039108,-0.6503374425862677
1790096691791517184,0.5495173339843753,-0.24776738306858753,0.24621846725891522,-0.6574796113100911
1790096691801517312,0.5595173339843753,0.06585672492656555,0.5979464869337554,-0.5840609254444262
1790096691811517184,0.5695173339843753,0.6745980371020301,0.9700908703127193,-0.2553496903363238
1790096691821517312,0.5795173339843753,1.3112765636755515,0.9409645215367595,0.38757857929640743
1790096691831517184,0.5895173339843753,1.6745507580664105,0.4325469238589285,1.0925177588607566
1790096691841517312,0.5995173339843753,1.7455164419224238,-0.11862727830565578,1.253858332969407
1790096691851517184,0.6095173339843754,1.816194103234054,-0.31321182985807516,0.5966084025369605
1790096691861517312,0.6195173339843754,1.5749326519199078,-0.2661920650855618,0.05481311260679783
1790096691871517184,0.6295173339843754,0.8719175160602469,-0.0755355583271764,-0.3955474630646375
1790096691881517312,0.6395173339843754,-0.05529723335750547,0.11600205354957306,-0.7236927137647686
1790096691891517184,0.6495173339843754,-0.3730533410101622,-0.2373416574719657,-0.15377822346908704
1790096691901517312,0.6595173339843754,-0.08475509582397514,-0.18074447415047076,0.047663615229464135
1790096691911517184,0.6695173339843754,0.052270373627697736,0.022035134996820263,0.3053525062537196
1790096691921517312,0.6795173339843754,-0.7031428531488387,0.25298040069407945,0.011100283542174932
1790096691931517184,0.6895173339843754,-2.4347027809971387,0.6847190682792901,-0.7348408107419812
1790096691941517312,0.6995173339843754,-3.349123188684216,0.7942874031590332,-0.35837044528311524
1790096691951517184,0.7095173339843754,-2.9474704317834983,0.276297775607907,0.25805282510802513
1790096691961517312,0.7195173339843755,-2.210198874511704,0.06547164104336156,0.46413365262099104
1790096691971517184,0.7295173339843755,-1.777488849287162,0.23156510422002263,0.28495573196284735
1790096691981517312,0.7395173339843755,-1.5027412982768507,0.00941103123298509,0.42712183541181653
1790096691991517184,0.7495173339843755,-1.2675712688819418,-0.4690375508128586,0.5782801992409734
1790096692001517312,0.7595173339843755,-1.2112247595729007,-0.8265697710256705,0.709475327841029
1790096692011517184,0.7695173339843755,-1.3425680772880804,-0.9572677714504403,0.783224995832085
1790096692021517312,0.7795173339843755,-0.5363316162729346,-1.1318100689421509,0.7259413441053074
1790096692031517184,0.7895173339843755,0.20530891126998474,-1.8274357517344622,0.8582804347900151
1790096692041517312,0.7995173339843755,0.6079779940887486,-2.1663930367631963,0.9927619007282293
1790096692051517184,0.8095173339843755,0.1766552649078225,-2.207845156847796,0.9104816829931007
1790096692061517312,0.8195173339843755,0.34517476707558165,-2.4325475395119596,1.4955087939835645
1790096692071517184,0.8295173339843755,-0.29898200784398327,-2.680097458273605,1.8927352167595595
1790096692081517312,0.8395173339843756,-0.8632400452499437,-2.8667017142192095,1.9629647149211822
1790096692091517184,0.8495173339843756,-0.9449866023215234,-2.8679552188839064,1.7250018112432877
1790096692101517312,0.8595173339843756,-2.1326289489153525,-2.882062108947153,2.526143872889364
1790096692111517184,0.8695173339843756,-4.398071518094502,-3.7540299250187705,4.944643331275613
1790096692121517312,0.8795173339843756,-2.1893568635678857,-3.2689345737136115,3.59323304810515
1790096692131517184,0.8895173339843756,-0.09152331005563069,-0.5524867328099416,-0.728790384421186
1790096692141517312,0.8995173339843756,-0.8953724014175954,1.3939959888167168,-3.1151276128399497
1790096692151517184,0.9095173339843756,-1.2318040229779623,0.8277315977476537,-3.7050008176553337
1790096692161517312,0.9195173339843756,-0.5815689956679021,-1.0654828752091066,-2.7847315833396475
1790096692171517184,0.9295173339843756,-0.7148638292163348,-3.415984520184292,-0.9371795668004199
1790096692181517312,0.9395173339843756,-1.2865216083566966,-4.938679606898108,-0.059907864127427046
1790096692191517184,0.9495173339843757,0.11437696910416961,-4.715909896530435,0.5236036687464545
1790096692201517312,0.9595173339843757,0.047846892830353205,-3.2184595367630138,1.0832762778222513
1790096692211517184,0.9695173339843757,0.5647343046419999,-1.4701020982597788,1.3423086691422825
1790096692221517312,0.9795173339843757,0.6635664733511525,-0.6051323393548491,1.9516443961829872
1790096692231517184,0.9895173339843757,2.3839158197207806,-0.8078774132865356,2.625923259024451
1790096692241517312,0.9995173339843757,2.956038172953358,-1.6900583600418133,3.022673546604069
1790096692251517184,1.0095173339843757,3.2854940610107732,-2.6017891458798648,2.72356326403005
1790096692261517312,1.0195173339843757,2.2817701166696844,-3.237985936553688,2.764412447764627
1790096692271517184,1.0295173339843757,1.6994508591996293,-3.7114148764744943,2.4905274918399405
1790096692281517312,1.0395173339843757,0.37544299376125795,-3.4507774801335205,1.6441133170138118
1790096692291517184,1.0495173339843757,-0.09325643699639663,-2.6588245576323177,0.30748637636667997
1790096692301517312,1.0595173339843758,0.40143704926274576,-1.820257674156128,-1.8434412169608578
1790096692311517184,1.0695173339843758,1.37088424333403,-2.1500454542165914,-2.397615797632179
1790096692321517312,1.0795173339843758,2.042734208895367,-3.9851518943473376,-1.3193045918141388
1790096692331517184,1.0895173339843758,2.974125158351514,-5.129109990698708,-0.5619225728761452
1790096692341517312,1.0995173339843758,3.8631015514408,-4.451560596986162,-0.8921082828243623
1790096692351517184,1.1095173339843758,4.42747378667941,-3.1722705181568256,-1.619950455181776
1790096692361517312,1.1195173339843758,4.203353059705859,-2.4539302302121455,-1.607526004198626
1790096692371517184,1.1295173339843758,3.601364425697657,-2.282882163500534,-0.6868044853209572
1790096692381517312,1.1395173339843758,2.3878878619625805,-2.122612383043868,0.6147246746102296
1790096692391517184,1.1495173339843758,0.8773659776139526,-1.4486878235021448,1.1415705630828412
1790096692401517312,1.1595173339843758,-0.2777107237114258,0.3365750526096438,0.05712160027565019
1790096692411517184,1.1695173339843759,0.2864541055255015,-0.567562170851418,-1.5428163373573465
1790096692421517312,1.1795173339843759,1.1251925144131179,-2.9203983785328957,-2.8206823760010735
1790096692431517184,1.1895173339843759,0.9178189608368131,-4.095422351130865,-3.7654993646416455
1790096692441517312,1.1995173339843759,0.5279113425827483,-3.3346744843387777,-5.425546716526242
1790096692451517184,1.2095173339843759,0.7578220115113992,-1.8979257876420148,-6.9323020187760465
1790096692461517312,1.219517333984376,3.532187540622317,-1.1203345990125684,-7.673982114922841
1790096692471517184,1.229517333984376,12.504404064141113,-0.3348993429831033,-9.499710008512297
1790096692481517312,1.239517333984376,16.400354596666674,1.439550978002147,-9.02174594067655
1790096692491517184,1.249517333984376,9.47677379630051,1.6212852495193357,-5.591440395418106
1790096692501517312,1.259517333984376,3.394978917899123,0.4109426491767303,-2.5593241250096685
1790096692511517184,1.269517333984376,-1.293582669381808,-0.6878987987621012,-2.404459974488575
1790096692521517312,1.279517333984376,-4.729054847731776,-1.9142119530856423,-1.6471658956907502
1790096692531517184,1.289517333984376,-1.922495228034368,-3.4045470023527726,-1.366912122990377
1790096692541517312,1.299517333984376,-1.3201345298858638,-0.8144182526549573,-3.867158691736824
1790096692551517184,1.309517333984376,-1.0338153103212482,-0.7892645821279352,-4.715568618583792
1790096692561517312,1.319517333984376,-1.546891578581949,-1.586025071261354,-5.450712918889577
1790096692571517184,1.329517333984376,-1.728292351339192,-0.919657688540501,-6.748057744204737
1790096692581517312,1.339517333984376,-1.8381667475784358,-1.0468141656564356,-7.121048089871943
1790096692591517184,1.349517333984376,0.2694494600900802,-1.9784190718110346,-7.678032328198944
1790096692601517312,1.359517333984376,4.156794267847291,-0.9451670879223275,-7.874665393526381
1790096692611517184,1.369517333984376,2.4092893494861385,0.4878166206881386,-5.779499039319879
1790096692621517312,1.379517333984376,-0.028671648365370395,1.1150701474416314,-5.515406484500467
1790096692631517184,1.389517333984376,6.676425600179916,1.9038778354603674,-7.970082959032487
1790096692641517312,1.399517333984376,7.013874216481763,1.6294135398241743,-7.927459735470081
1790096692651517184,1.409517333984376,-3.838905123232559,2.9418487896124184,-7.273082042407933
1790096692661517312,1.419517333984376,5.211645048045185,4.2625561694783585,-7.2117970378187115
1790096692671517184,1.429517333984376,8.963071577235928,3.8452919594615906,-5.019798875067754
1790096692681517312,1.439517333984376,4.392047092517527,5.559168610361492,-5.3126043995246235
1790096692691517184,1.449517333984376,4.897331853630601,6.14300373223621,-5.148179148059183
1790096692701517312,1.459517333984376,6.615615337878881,6.529889284406649,-4.195113054676524
1790096692711517184,1.4695173339843761,6.243684262964987,7.898747870478071,-4.315173480931174
1790096692721517312,1.4795173339843761,5.400672187998711,7.570753052529178,-3.754171174347235
1790096692731517184,1.4895173339843761,4.269495360624454,6.572999668553325,-3.0864713179142838
1790096692741517312,1.4995173339843761,2.5303728427455723,4.6592028436435795,-4.133949675074891
1790096692751517184,1.5095173339843762,1.2532451770567747,4.641022963112518,-6.928900009059347
1790096692761517312,1.5195173339843762,-0.17710251043713837,3.8876289777942192,-8.477011030122972
1790096692771517184,1.5295173339843762,-2.0719619016524837,2.337356125818575,-4.741788995111682
1790096692781517312,1.5395173339843762,-3.821080431725849,3.2377102437522556,-4.04009334557549
1790096692791517184,1.5495173339843762,-3.5785381634106477,3.0759859862623924,-4.524880783043728
1790096692801517312,1.5595173339843762,-1.8688306845274456,2.0176988380654306,-4.685798893911551
1790096692811517184,1.5695173339843762,-0.00838015695792671,1.3685910804439774,-3.3641141386272215
1790096692821517312,1.5795173339843762,0.9559052586648754,2.967394889744403,-4.689216771492962
1790096692831517184,1.5895173339843762,-0.22691417996509,-0.03277484538504094,-2.9561105144745863
1790096692841517312,1.5995173339843762,1.4292431589159262,-1.343415112389365,0.4625884288863915
1790096692851517184,1.6095173339843762,1.630516346544087,0.6617871517194629,2.8125668153728878
1790096692861517312,1.6195173339843763,-0.12899612513479108,-0.7768969882620613,4.4534712105088285
1790096692871517184,1.6295173339843763,-2.7384848129420165,-5.0884073379037345,7.415043420701034
1790096692881517312,1.6395173339843763,0.6044011087120851,2.5699915565804754,1.0845075025616395
1790096692891517184,1.6495173339843763,-5.033981180154079,-1.784011724358919,5.4969114672363535
1790096692901517312,1.6595173339843763,-4.844155878900203,-1.411513436284629,5.967926254774838
1790096692911517184,1.6695173339843763,-1.7086937000454412,-0.9134264364794411,5.915983689915137
1790096692921517312,1.6795173339843763,-2.070549630295185,-5.013217396934064,6.020502768590502
1790096692931517184,1.6895173339843763,-2.0841718432381953,-6.785528911836482,4.158499492100459
1790096692941517312,1.6995173339843763,1.0294206348307164,-5.861408641862462,1.5118652392653615
1790096692951517184,1.7095173339843763,-0.5368419092224617,-5.502055585311876,0.0581770995738603
1790096692961517312,1.7195173339843763,-2.845601528982942,-4.2630873866350445,-0.26196568341366366
1790096692971517184,1.7295173339843763,-0.29738827639133714,-3.9600418970422604,-0.3986408273236345
1790096692981517312,1.7395173339843764,0.9197361641932837,-4.929374592263807,0.6393401142083939
1790096692991517184,1.7495173339843764,0.5224160894646231,-6.276756041867136,0.9129816642173838
1790096693001517312,1.7595173339843764,0.1408247817028529,-6.232744415039081,-0.7505977200834928
1790096693011517184,1.7695173339843764,0.33138383517671566,-5.665722658480408,-3.290525062851092
1790096693021517312,1.7795173339843764,0.6503772585793388,-6.200451282813916,-3.978658771685375
1790096693031517184,1.7895173339843764,0.3555663972810833,-6.66352130506591,-5.03346042237364
1790096693041517312,1.7995173339843764,0.5451694402715929,-6.494434955857371,-5.404666330823517
1790096693051517184,1.8095173339843764,1.418069311560516,-5.813594939862384,-4.179717476767279
1790096693061517312,1.8195173339843764,2.181650927127902,-5.136062065649011,-2.6985866486607173
1790096693071517184,1.8295173339843764,1.8199095064647264,-3.8929089633369287,-1.103959419994514
1790096693081517312,1.8395173339843764,0.94815255245114,-1.6136522109689042,0.23777614503106853
1790096693091517184,1.8495173339843765,-0.2995088762647951,0.8244002788870226,0.4693317463224731
1790096693101517312,1.8595173339843765,-1.771319786026383,2.9544584411987,0.5309725733526146
1790096693111517184,1.8695173339843765,-2.4710500620091675,2.544747336112557,0.45854202054134213
1790096693121517312,1.8795173339843765,-2.7512152510715637,0.7342602358404424,0.5981278350332706
1790096693131517184,1.8895173339843765,-2.4128591758541034,-2.591795231141213,-0.06173276828399721
1790096693141517312,1.8995173339843765,0.6219141568775872,-3.0927974835788348,-2.375309657717501
1790096693151517184,1.9095173339843765,2.102389682382576,0.13720349327675097,-3.576404795804442
1790096693161517312,1.9195173339843765,1.7263214570256835,1.7494263211547572,-3.229094207252779
1790096693171517184,1.9295173339843765,0.6568334047854595,0.9236149351190184,-1.150637238721032
1790096693181517312,1.9395173339843765,1.8553622191624843,0.489698009901432,-0.5293365663860637
1790096693191517184,1.9495173339843765,4.003732906268775,-0.6188920717604289,-0.12957437515746534
1790096693201517312,1.9595173339843766,4.28332925650497,-2.861639223158539,0.3086836764245718
1790096693211517184,1.9695173339843766,2.3507236803913782,-5.812261600218021,0.7798381328769253
1790096693221517312,1.9795173339843766,1.4505839775407263,-7.406765822094163,1.5076353175987043
1790096693231517184,1.9895173339843766,-0.4038718807238143,-7.231755577903265,1.4372152883626061
1790096693241517312,1.9995173339843766,-0.6879628150160607,-5.455024712667437,0.344483033930567
1790096693251517184,2.009517333984377,-1.0502494998749554,-2.8594765251884606,-0.21097544387540113
1790096693261517312,2.0195173339843766,-4.081291784496047,0.28676957128275427,-0.7515619676431349
1790096693271517184,2.029517333984377,-6.961139240392146,4.111691586501129,-1.4933104435292868
1790096693281517312,2.0395173339843766,-7.0219344970505055,7.00348876561916,-1.8352610604376196
1790096693291517184,2.049517333984377,-4.054313662458298,8.843892310833589,-1.7870668944531445
1790096693301517312,2.0595173339843766,0.06975174817265772,7.735595098645845,-1.1531336141596276
1790096693311517184,2.069517333984377,2.5406583211363793,4.849391045911912,-0.7413330528223909
1790096693321517312,2.0795173339843767,3.75501093166288,1.8199433943965597,-0.6692666254564958
1790096693331517184,2.089517333984377,4.321202474577896,-1.1811041512602674,-1.0398380601385466
1790096693341517312,2.0995173339843767,4.123996943557987,-3.370921601486251,-2.248919726319879
1790096693351517184,2.109517333984377,1.2201548092855008,-3.019074616094529,-3.6662756557057654
1790096693361517312,2.1195173339843767,-1.3234369161080457,-1.0856402528109033,-4.196349141524415
1790096693371517184,2.129517333984377,-1.0186391574340188,0.47974291383322054,-2.881374639739384
1790096693381517312,2.1395173339843767,-1.4216409937362582,1.2655535387995567,-2.0679966781167542
1790096693391517184,2.149517333984377,-2.076060584005841,1.6662598815274339,-1.4567179351471415
1790096693401517312,2.1595173339843767,-1.4972079145383166,1.1524395966767589,-0.32493802593981086
1790096693411517184,2.169517333984377,0.023554185300812658,-0.06309473350918289,1.0877986022828317
1790096693421517312,2.179517333984377,0.2155552061691407,-0.37461661913342414,1.4731957534399966
1790096693431517184,2.189517333984377,-0.42883953218241555,-1.1570056302596254,1.6641240472837429
1790096693441517312,2.1995173339843768,-0.47944423361876576,-1.3900137652284386,0.6167832867498996
1790096693451517184,2.209517333984377,0.45167189093977556,-0.8861991813285683,-0.7389624435092299
1790096693461517312,2.2195173339843772,0.9396416466274685,0.37059493298333124,-1.3871940859549112
1790096693471517184,2.229517333984377,0.9227993115020616,-0.5123422964742711,-0.5128969054398929
1790096693481517312,2.239517333984377,0.6609620789361932,-2.8653227358157425,0.6876238225502823
1790096693491517184,2.249517333984377,0.018723678218207973,-3.272990006185204,0.6662732758072937
1790096693501517312,2.2595173339843773,0.061677871580061494,-1.8823903861515237,-0.04419197081896331
1790096693511517184,2.269517333984377,0.40784946684707635,-1.8534828432296562,0.36442789716518154
1790096693521517312,2.279517333984377,-0.03313004999274127,-0.22746501014228193,0.4011329853277466
1790096693531517184,2.289517333984377,0.47174337284372536,-1.6227307518349627,0.8532950405701608
1790096693541517312,2.2995173339843773,-0.022786200168538155,-1.8672235856266584,0.31558613139975156
1790096693551517184,2.309517333984377,-0.181808849602393,-1.6896161085310135,-0.7613449912795522
1790096693561517312,2.319517333984377,-0.2897313882111224,-1.549526734821441,-0.9657814227625051
1790096693571517184,2.329517333984377,-0.8305289683767434,-1.0181516418675784,-0.9081667116178652
1790096693581517312,2.3395173339843773,-2.0964230601636142,-0.3967729855681531,-0.2587643791064652
1790096693591517184,2.349517333984377,-2.202387955537599,-0.052355811733584515,0.36114252837242433
1790096693601517312,2.359517333984377,-1.5155477816252196,0.4918352050214142,0.44830256443318506
1790096693611517184,2.369517333984377,-0.6154436326833914,1.258069060652174,0.49860920646106777
1790096693621517312,2.3795173339843774,-0.7721592671742193,0.4357240375507776,0.9247496916595388
1790096693631517184,2.389517333984377,-1.9720690065765556,-0.8820291802787408,1.0403037758881133
1790096693641517312,2.399517333984377,-2.729778706930271,-1.619510593353646,0.6808534877622663
1790096693651517184,2.409517333984377,-2.4258179843933916,-1.7965010423945644,0.6740988546627258
1790096693661517312,2.4195173339843774,-0.6902037212615624,-0.9635093374405196,0.27736027485270726
1790096693671517184,2.429517333984377,0.77865767422779,0.10544092698347562,0.16301458336854555
1790096693681517312,2.439517333984377,0.8130440263666403,1.0482498207409907,0.5199483174544888
1790096693691517184,2.449517333984377,-0.7417287988828027,2.3903205064432087,0.16448370427106837
1790096693701517312,2.4595173339843774,-3.3792752778707777,1.9035104276507844,0.8999537203603417
1790096693711517184,2.4695173339843772,-3.750656289398621,1.2009601545914639,1.0557077524929879
1790096693721517312,2.479517333984377,-1.9371165502830212,0.1706077300584174,0.5889466502926063
1790096693731517184,2.4895173339843772,-0.01893144872946545,-1.6256259400703683,0.3947485324373529
1790096693741517312,2.4995173339843775,0.6081904913961755,-0.8678059577940878,-0.7304927676492913
1790096693751517184,2.5095173339843773,-1.0983391383872936,-0.2541240401662148,-1.0746886385996925
1790096693761517312,2.519517333984377,-3.01748927465593,0.46653312749756815,-1.0640425428630778
1790096693771517184,2.5295173339843773,-2.5185609733867307,0.7056781684061239,-1.2814289391364582
1790096693781517312,2.5395173339843775,-1.337174754376094,1.243016173360599,-1.2951078826297624
1790096693791517184,2.5495173339843773,0.10143450467541615,0.8622366473055947,0.0790298647311023
1790096693801517312,2.559517333984377,1.0058773806971633,0.07178850408282672,1.28802482368615
1790096693811517184,2.5695173339843773,0.04363890709358831,0.9085197715217879,0.7871129293199819
1790096693821517312,2.5795173339843775,-1.7456435132887709,1.08748812571912,0.270310034664494
1790096693831517184,2.5895173339843773,-2.116051599171086,1.5308654350774014,-0.7694391993718466
1790096693841517312,2.599517333984377,-2.119618823507357,0.4193187382699961,-0.5229779422820925
1790096693851517184,2.6095173339843774,-1.5422396989350196,1.333774385005447,-0.9715969896601768
1790096693861517312,2.6195173339843776,-0.314849333711879,2.2108050607421323,-2.075688948234557
1790096693871517184,2.6295173339843774,-2.1184665933235953,0.9558905655255996,0.08997034531935652
1790096693881517312,2.639517333984377,-3.804755269564592,1.314799852962309,0.516120358336217
1790096693891517184,2.6495173339843774,-4.202338208387152,1.842023341051598,2.246283955908135
1790096693901517312,2.6595173339843776,1.090262022796935,2.267501097521765,4.687142576112551
1790096693911517184,2.6695173339843774,1.080558752301799,3.1351674986214175,4.505024632044484
1790096693921517312,2.679517333984377,-0.6853665574686338,2.2462041153315657,3.1557033746090335
1790096693931517184,2.6895173339843774,-1.4217258842395455,0.5162044929727629,0.8489780393788063
1790096693941517312,2.6995173339843777,-0.0404981103303752,-1.1776729306004659,-0.048968793944008826
1790096693951517184,2.7095173339843774,-0.08713505410782418,-2.2182737427902923,1.6265832303943346
1790096693961517312,2.7195173339843772,-0.6503429416793274,-2.0536673609252065,3.8417458345596325
1790096693971517184,2.7295173339843775,-0.27511669497721164,-1.5693820036727464,4.247624835198799
1790096693981517312,2.7395173339843777,-0.530198135267431,-1.1766504314209305,2.542985209032423
1790096693991517184,2.7495173339843775,-0.6832248879966123,-1.7646052339498122,-0.5851257576929436
1790096694001517312,2.7595173339843773,-0.11999339197790371,-3.5797962657565874,-1.568743434912057
1790096694011517184,2.7695173339843775,0.20015895685925403,-3.549416317491384,-1.858402921195787
1790096694021517312,2.7795173339843777,-0.6477427055534765,-2.6238612914941837,-4.525900204765405
1790096694031517184,2.7895173339843775,0.8299798555422249,-1.8322920281182067,-0.6880866552725441
1790096694041517312,2.7995173339843773,1.1614456301982126,-0.7052002494990846,0.4160007096308073
1790096694051517184,2.8095173339843775,-0.8344891018090873,-2.169378223862564,2.893601892809819
1790096694061517312,2.8195173339843778,-0.5426316002298945,-0.25887080764038234,1.3183085559827108
1790096694071517184,2.8295173339843775,0.5000188234216113,-0.30058130821535023,0.15155301452212677
1790096694081517312,2.8395173339843773,0.7922483398620325,-0.6024604921823646,-0.21135979132114496
1790096694091517184,2.8495173339843776,0.8708934485539332,-0.7943805569605251,-1.9632678632049434
1790096694101517312,2.859517333984378,1.8649830210561023,0.1843497372460683,-5.368267779955553
1790096694111517184,2.8695173339843776,1.1152204261843806,-1.3626395099630324,-4.793722099541457
1790096694121517312,2.8795173339843774,-2.1958187876887756,-2.3303750177882283,-1.491321318663483
1790096694131517184,2.8895173339843776,-3.5020018968828297,-0.541874754122814,1.2142279973405459
1790096694141517312,2.899517333984378,-2.516665436645588,1.1058019875540233,3.2770506475893213
1790096694151517184,2.9095173339843776,-1.981303544922545,2.0114923813591,4.802529780959567
1790096694161517312,2.9195173339843774,0.739343920325428,1.6210712892715544,3.3438732918845373
1790096694171517184,2.9295173339843776,0.8225210154940695,0.5077367317899066,1.4991707419692193
1790096694181517312,2.939517333984378,0.4942723580265412,-0.7320673920092187,0.0879665602703914
1790096694191517184,2.9495173339843777,1.042001973665996,0.2941696943940814,-1.7956140064690316
1790096694201517312,2.9595173339843774,2.2239723328573917,1.6312212705669338,-0.4783645787831866
1790096694211517184,2.9695173339843777,2.149668454438015,0.45527197461374,2.487957960217748
1790096694221517312,2.979517333984378,0.7702739523901845,2.3697900101918705,3.0493442736461827
1790096694231517184,2.9895173339843777,0.22746986255840723,2.580697534436583,3.3788325209392323
1790096694241517312,2.9995173339843775,-0.6646779607967686,1.8347681491246504,2.8148970886758673
1790096694251517184,3.0095173339843777,-0.8035708642073606,1.640282942822028,2.5944955603381223
1790096694261517312,3.019517333984378,-0.7747655548415965,1.210979627840203,2.9483891450443034
1790096694271517184,3.0295173339843777,-0.5560224590089216,0.6615599586232483,2.9699590987926427
1790096694281517312,3.0395173339843775,0.3515976191866794,-0.15772044290041387,2.5197926896619425
1790096694291517184,3.0495173339843777,1.5131537453250208,-1.5917644499872232,1.4345701421825248
1790096694301517312,3.059517333984378,2.630126470742989,-2.9864136848760015,0.08566955970770584
1790096694311517184,3.0695173339843778,4.029773614701489,-3.9748419287873453,-1.2057303654703035
1790096694321517312,3.0795173339843775,4.42587355376836,-4.156510572598963,-2.1182028682145515
1790096694331517184,3.089517333984378,3.109433023856901,-3.9473474704857328,-2.4139037031116484
1790096694341517312,3.099517333984378,1.5951063744917053,-3.577061689410259,-2.214980714128212
1790096694351517184,3.109517333984378,0.7406805254826205,-2.155206135251053,-1.0907987462331978
1790096694361517312,3.1195173339843776,0.8822394018823725,-1.8794570667097599,-0.0054220545493835134
1790096694371517184,3.129517333984378,0.8799748688217414,-1.3349612287151393,0.542003014037788
1790096694381517312,3.139517333984378,0.44082119282741833,-1.1847558495803174,0.9061317287985412
1790096694391517184,3.149517333984378,-0.20103932093905916,-2.044472390955577,0.5230123604923642
1790096694401517312,3.1595173339843776,0.028351298826149146,-3.4327649885559115,-0.9468739848472676
1790096694411517184,3.169517333984378,0.8129091873424713,-3.904854445015328,-1.6064680811561425
1790096694421517312,3.179517333984378,1.6160181019845645,-2.9168584573636815,-0.9319266592703117
1790096694431517184,3.189517333984378,1.9573045183122086,-0.9127952785065849,-0.3875234785877164
1790096694441517312,3.1995173339843777,2.159223732371621,0.7978557349181027,-0.4254521041422047
1790096694451517184,3.209517333984378,1.902594705654116,1.5174143701290965,-0.7652179687081833
1790096694461517312,3.219517333984378,2.1117131351583778,2.093187009727446,-1.2472694816715437
1790096694471517184,3.229517333984378,1.579254862861187,2.614111464858133,-1.2284534216414251
1790096694481517312,3.2395173339843777,0.5894824146697041,2.0742211067374887,-0.3836131795084198
1790096694491517184,3.249517333984378,0.3813577617321269,0.27060268545708466,0.412384034734819
1790096694501517312,3.259517333984378,0.5805281652462317,-0.6765156493335597,0.3031050334433332
1790096694511517184,3.269517333984378,0.6972143270835766,-0.6590701097183234,0.45952099989175305
1790096694521517312,3.2795173339843777,0.08911288003781542,-0.7360086696933095,0.5375972330615971
1790096694531517184,3.289517333984378,-0.23610329349491618,-0.38250537954705816,0.3212564238863109
1790096694541517312,3.299517333984378,-0.2892064602378934,-0.031225815920843475,0.12014580631272175
1790096694551517184,3.309517333984378,-0.21188157644030553,0.24781754226208288,-0.07227182555029599
1790096694561517312,3.3195173339843778,-0.31596114484856785,-0.0663918704248799,0.10093190613275355
1790096694571517184,3.329517333984378,-0.19070887728617542,-0.6387238467674696,0.4148628238383417
1790096694581517312,3.3395173339843782,0.09301481345994975,-0.5557359623901066,0.45088515994540346
1790096694591517184,3.349517333984378,0.13441971398740646,-0.3460008181056932,0.23519602355412417
1790096694601517312,3.359517333984378,0.21636383070964976,0.08005074286403153,0.14825513526528553
1790096694611517184,3.369517333984378,-0.07537720714659082,0.13495708507957602,0.41953721802056254
1790096694621517312,3.3795173339843783,-0.46999021197697655,0.06149073071937567,0.5933041636606273
1790096694631517184,3.389517333984378,-0.46402351174086676,0.24302696068377663,0.43574038812413385
1790096694641517312,3.399517333984378,-0.235564353206104,0.496265406634341,0.24900270081431392
1790096694651517184,3.409517333984378,-0.24426985083384056,0.5253239330911037,0.4079671259085905
1790096694661517312,3.4195173339843783,-0.1721218608408388,0.3736348680140278,0.6245014030230318
1790096694671517184,3.429517333984378,0.2684760910278699,0.24343604147353134,0.5239554281340546
1790096694681517312,3.439517333984378,0.8968672074715137,-0.004261862750402686,0.34417897547280785
1790096694691517184,3.449517333984378,1.6383830386413332,-0.3584264742528967,-0.00991067232421485
1790096694701517312,3.4595173339843783,2.3651034198363816,-0.5648279822035311,-0.22822981566932915
1790096694711517184,3.469517333984378,2.606979534694521,-0.946883111764715,-0.48483543045269134
1790096694721517312,3.479517333984378,2.4824737365305123,-1.4808876328072893,-1.038823283395018
1790096694731517184,3.489517333984378,2.194056840866469,-1.796355999613182,-1.6630422646988225
1790096694741517312,3.4995173339843784,1.8245671416279228,-1.7907702496741429,-1.8678662963308914
1790096694751517184,3.509517333984378,1.52866686066627,-1.4383416308110875,-1.4763669698479442
1790096694761517312,3.519517333984378,0.9290144131476248,-1.25825543225654,-1.0704044793052514
1790096694771517184,3.529517333984378,0.20182164687911175,-1.1926974867884994,-0.7265111823921798
1790096694781517312,3.5395173339843784,-0.3248995416090321,-1.0475147851693685,-0.44819021922766966
1790096694791517184,3.549517333984378,-0.6618951674108845,-0.6894574742215712,-0.3374554999224599
1790096694801517312,3.559517333984378,-0.9682812602062146,-0.27290342296833914,-0.1255977042564637
1790096694811517184,3.569517333984378,-1.1195817591828792,0.1311434885716413,-0.12213464021623378
1790096694821517312,3.5795173339843784,-0.944458147063349,0.37307831209126263,-0.16373615610828812
1790096694831517184,3.5895173339843782,-0.730555579676393,0.39510974643447067,0.026710622389569644
1790096694841517312,3.599517333984378,-0.39610511367570883,0.3046772191072235,0.16726597740721297
1790096694851517184,3.6095173339843782,-0.18149013222885296,0.035365726440723895,0.11264910573500571
1790096694861517312,3.6195173339843785,-0.18938074312008393,-0.24703027740790756,-0.2334145171383803
1790096694871517184,3.6295173339843783,-0.11584120760053361,-0.4432062080010275,-0.9769736202480047
1790096694881517312,3.639517333984378,0.0102741482584102,-0.2327149791030303,-1.59761499432924
1790096694891517184,3.6495173339843783,-0.12181649290816388,0.11230388852307209,-1.7720325197527926
1790096694901517312,3.6595173339843785,-0.12668838684747158,0.3752332879946147,-1.835357352802934
1790096694911517184,3.6695173339843783,-0.135623830638744,0.4078678203165839,-1.875356470609233
1790096694921517312,3.679517333984378,-0.41458949175760584,0.20996326477029953,-2.0082883388506962
1790096694931517184,3.6895173339843783,-0.7831297768880484,-0.1323504744595421,-2.087143111338243
1790096694941517312,3.6995173339843785,-1.0472190213494412,-0.5040720851951743,-2.060304308690962
1790096694951517184,3.7095173339843783,-1.065028512357431,-0.7514124842513205,-1.8452972870790894
1790096694961517312,3.719517333984378,-0.7815847187633395,-0.8411206876565734,-1.4320141229660421
1790096694971517184,3.7295173339843783,-0.25833762294094736,-0.844157937801242,-0.9748052527204565
1790096694981517312,3.7395173339843786,0.3816586156565458,-0.5682286829740855,-0.7688154661342143
1790096694991517184,3.7495173339843784,-0.028424134954912417,-0.5326188667670877,-1.0779717138598541
1790096695001517312,3.759517333984378,-0.6010699996614168,-0.49753888772885646,-1.3806586266429428
1790096695011517184,3.7695173339843784,-0.6392591768933041,-0.29746361116078274,-1.6162151882431173
1790096695021517312,3.7795173339843786,-0.8242306852065474,-0.24021468864557954,-1.5488803360502148
1790096695031517184,3.7895173339843784,-1.1966165304740166,-0.25604166284278473,-0.814321775369446
1790096695041517312,3.799517333984378,-1.2355051194650166,0.5043173533697209,-0.1671485359525605
1790096695051517184,3.8095173339843784,-0.742213572144831,0.9541675650239592,0.0006428323563022961
1790096695061517312,3.8195173339843786,0.3094441553933518,0.9571932743755529,-0.24343823541865806
1790096695071517184,3.8295173339843784,1.2596977373198435,0.489669911325865,-0.8125583732171149
1790096695081517312,3.8395173339843782,1.818353888698906,-0.1152734852496439,-1.5220782015720506
1790096695091517184,3.8495173339843785,1.887113150004007,-0.9044906968315104,-1.8750073669921195
1790096695101517312,3.8595173339843787,1.8219011353891914,-1.7335319592901477,-1.9454286414187725
1790096695111517184,3.8695173339843785,1.6163239897731976,-2.2441919669374957,-2.0346484445470128
1790096695121517312,3.8795173339843783,1.0201066838923745,-2.5483899641396137,-1.7093621958291298
1790096695131517184,3.8895173339843785,-0.025478608341468423,-2.533319771374686,-1.038716071471632
1790096695141517312,3.8995173339843787,-1.3435169868849732,-2.1760925221954146,-0.47408998701658583
1790096695151517184,3.9095173339843785,-2.455046753598431,-1.7766986820246298,-0.11242337211110226
1790096695161517312,3.9195173339843783,-3.0818302881784825,-1.099700693456027,0.21984304541402433
1790096695171517184,3.9295173339843785,-3.1191724520183004,-0.3904067808633606,0.6514599735253477
1790096695181517312,3.9395173339843788,-2.576619581680654,0.4169683355445912,1.1555351117460966
1790096695191517184,3.9495173339843785,-1.8048753351597728,0.9690127103477802,1.5210298131395708
1790096695201517312,3.9595173339843783,-1.604348131201602,0.5998576839900223,1.4492157038689826
1790096695211517184,3.9695173339843786,-1.446614250029048,-0.10313805718725495,1.2711714896473179
1790096695221517312,3.979517333984379,-1.604644000491669,-0.41235782116014125,0.897545481286103
1790096695231517184,3.9895173339843786,-1.700703922643689,-0.27143100815865867,0.41387035067147737
1790096695241517312,3.9995173339843784,-1.9871756915074008,-0.134758032153735,0.26160896198642747
1790096695251517184,4.009517333984379,-2.146206557766076,-0.07675554788209366,0.2725075117528762
1790096695261517312,4.019517333984378,-1.459193336935455,-0.08875099703283659,0.6834874429626914
1790096695271517184,4.029517333984378,-0.3155920653103713,0.16700164721342253,0.5860832834127749
1790096695281517312,4.039517333984378,0.027510308235004124,0.10716760575974393,0.41395560604064563
1790096695291517184,4.049517333984379,-0.2500318152274005,0.0019975825144555245,0.6195116112869786
1790096695301517312,4.059517333984378,-0.5256588806494575,0.0065859019256165816,0.7334073866413313
1790096695311517184,4.069517333984378,-0.695027490466214,0.029922386428856168,0.6791563875561917
1790096695321517312,4.079517333984378,-1.0664337504501091,0.07240360791404918,0.30364557334672176
1790096695331517184,4.089517333984379,-1.171013900390109,-0.026970895144644902,-0.1664882422501895
1790096695341517312,4.0995173339843785,-1.3972288703773903,-0.4577012411612225,-0.33383106285003006
1790096695351517184,4.109517333984378,-2.3063912844056964,-0.6214403916157568,0.781682041312358
1790096695361517312,4.119517333984378,-1.6861097386693258,0.10846747792917466,1.677722783979204
1790096695371517184,4.129517333984379,-0.20248216269699035,0.6716425254903222,1.7625848555569448
1790096695381517312,4.1395173339843785,0.10117519782007006,0.871692221285842,1.1441769529364243
1790096695391517184,4.149517333984378,-0.9501629139786534,0.7684832076166559,0.7104890180073886
1790096695401517312,4.159517333984378,-1.1590317018430258,0.7089321351883484,0.5897588267057222
1790096695411517184,4.169517333984378,-0.6438509315781028,0.3895651417370194,0.5062886034271051
1790096695421517312,4.1795173339843785,-0.2980843270610013,0.029894593249236157,0.6382004457962817
1790096695431517184,4.189517333984378,-0.05127647392284976,-0.39979425874108,1.0391839649050565
1790096695441517312,4.199517333984378,0.10087708478393938,-0.6649709674028645,1.3405527003254862
1790096695451517184,4.209517333984379,-1.1335915425913874,-0.28916969198890125,1.2810707554745655
1790096695461517312,4.219517333984379,-0.21274193850358403,-0.2504777967027386,1.3136245799787545
1790096695471517184,4.229517333984378,-1.4867645538592151,-0.1981389732179531,1.277136345003503
1790096695481517312,4.239517333984378,-3.2537588465545912,0.04714446814138354,1.0741910807485293
1790096695491517184,4.249517333984378,-4.116404861157952,0.19034636626667578,1.098155408781214
1790096695501517312,4.259517333984379,-4.290684530692169,0.10085426948976142,1.1950449134182113
1790096695511517184,4.269517333984378,-3.4832637998786327,-0.0650837793896163,2.1386947524270066
1790096695521517312,4.279517333984378,-1.8492060948607818,-0.01876612119797695,2.994016524779687
1790096695531517184,4.289517333984379,-0.8402892147061163,0.4616954470973474,3.2943965584400856
1790096695541517312,4.299517333984379,-0.35574317293422514,0.9346676226942813,2.8550421192804
1790096695551517184,4.309517333984378,-1.4178214766042472,1.2040130259592439,2.2697412348090222
1790096695561517312,4.319517333984378,-2.0061212783710665,1.2705653637747563,1.7693895768637085
1790096695571517184,4.329517333984378,-1.8873411925689485,1.1456780489571017,1.6187921444165077
1790096695581517312,4.339517333984379,-1.3016316320138763,1.2644297044502655,1.4060904008030068
1790096695591517184,4.3495173339843785,0.22114906244419097,1.5149707197309936,0.9818019316744753
1790096695601517312,4.359517333984378,1.4779723108708,1.5492385672894153,0.48673470828180404
1790096695611517184,4.369517333984379,1.1347429911291989,1.2284833378260167,0.33071824709575176
1790096695621517312,4.379517333984379,0.5024299534139272,0.6485352760154527,0.27620445876417477
1790096695631517184,4.3895173339843785,0.8859325575758399,0.12319972463777218,0.2522829889445321
1790096695641517312,4.399517333984378,1.7595844394035358,-0.2021871868333578,-0.2913265123789364
1790096695651517184,4.409517333984378,1.699486609105398,-0.8164930925072612,-0.9171665053948928
1790096695661517312,4.419517333984379,0.3984007206268996,-1.374838096890075,-1.3699426901647869
1790096695671517184,4.4295173339843785,-0.6509378547341637,-1.935362360756154,-1.4786127089093866
1790096695681517312,4.439517333984378,-0.4135432876905729,-2.505603253424708,-0.9904242071329319
1790096695691517184,4.449517333984379,-0.05982540534914634,-2.842786194150675,-0.40638039545498705
1790096695701517312,4.459517333984379,-0.05079895736836022,-2.874809308337273,0.2115101017503544
1790096695711517184,4.469517333984379,-0.3063561412467914,-2.6954918361518696,0.3796315648588694
1790096695721517312,4.479517333984378,-0.3200739979814293,-2.598955163496465,0.897905857129778
1790096695731517184,4.489517333984378,-0.19049541549463947,-2.482647483640879,1.0284641696517003
1790096695741517312,4.499517333984379,-0.3490246122164634,-2.2684087643502426,0.9645030839490135
1790096695751517184,4.509517333984379,-0.9111056400689759,-1.8631110534252717,0.8616688368515385
1790096695761517312,4.519517333984378,-1.2465466963939311,-1.1903027965130177,0.8168276667255142
1790096695771517184,4.529517333984379,-0.4682990493844832,-0.20216778004588076,0.6836514839582799
1790096695781517312,4.539517333984379,1.3943355975768414,0.683899550807507,0.43972064068627137
1790096695791517184,4.549517333984379,3.213980652736441,1.1726133346559096,0.1495396797472469
1790096695801517312,4.559517333984378,3.6839858982779634,0.9955298344402195,-0.4770723558869719
1790096695811517184,4.569517333984378,2.2229704147354106,-0.0497931759770569,-1.2438098797063322
1790096695821517312,4.579517333984379,0.7950426537426658,-0.9366214927650477,-1.1099753504930645
1790096695831517184,4.589517333984379,-0.3428937223593931,-1.3483602344479935,-1.099159375770809
1790096695841517312,4.5995173339843785,-0.5670096616544864,-1.2077451626048952,-0.690784060385825
1790096695851517184,4.609517333984379,-0.2822781602817429,-0.7759484614522348,-0.20555875179096797
1790096695861517312,4.619517333984379,0.1287396261156349,-0.10135455413095074,-0.1916983186317792
1790096695871517184,4.629517333984379,0.35650446374818906,0.23473881377177971,-0.03272817844988212
1790096695881517312,4.6395173339843785,0.674361004536,0.1659460265107497,0.0018059258546832824
1790096695891517184,4.649517333984378,1.2279714047702486,-0.19037872642887343,0.34411070683957834
1790096695901517312,4.659517333984379,1.7935348124788504,-0.6033131756097136,1.0251653629450797
1790096695911517184,4.669517333984379,2.1530952963686554,-0.9925063664876913,1.425040093899464
1790096695921517312,4.6795173339843785,2.3474149054842077,-1.1769744649801024,1.4390248998518098
1790096695931517184,4.689517333984379,2.3719487415629867,-1.3257197520137958,1.5550423497621924
1790096695941517312,4.699517333984379,2.263990949837171,-1.3201425493951757,1.3292068493330438
1790096695951517184,4.709517333984379,1.9780473720097347,-1.1342978186740948,0.8538162804554678
1790096695961517312,4.719517333984379,1.7275708217491175,-0.8253741882201386,0.7921881180370948
1790096695971517184,4.729517333984378,1.1849785352746252,-0.43610818788257233,0.7788081100707035
1790096695981517312,4.739517333984379,0.8049675827397316,-0.20724400298477472,0.685105950179788
1790096695991517184,4.749517333984379,0.5502489324573231,-0.30096280205823767,0.8809787982727486
1790096696001517312,4.759517333984379,0.29702320182854886,-0.14834902821900947,0.69230638912577
1790096696011517184,4.769517333984379,0.1781647190715565,-0.03880206473201302,0.9037788535132629
1790096696021517312,4.779517333984379,-0.11725220025661716,-0.1641947758257043,1.0544891051878829
1790096696031517184,4.789517333984379,0.47181015777914415,-0.28811421857477804,0.6542571143762113
1790096696041517312,4.799517333984379,1.0041993127662128,-0.37486159248501133,0.5430214814106682
1790096696051517184,4.809517333984378,0.6836208632496293,-0.6643106158242529,0.8167099462523153
1790096696061517312,4.819517333984379,0.24718974680811281,-0.9973641285900925,0.9204865476869598
1790096696071517184,4.829517333984379,-0.10305869789593361,-1.0371551656812532,0.9362464777353721
1790096696081517312,4.839517333984379,-0.36758893600131937,-0.7687324092535649,0.8963730071869427
1790096696091517184,4.849517333984379,-0.7035250956093396,-0.5504301371849729,0.9372356815393605
1790096696101517312,4.859517333984379,-0.8450051149843932,-0.38783886602454115,0.8945411641125997
1790096696111517184,4.869517333984379,-0.7276791854893306,-0.3067947167616497,0.6619845221739933
1790096696121517312,4.879517333984379,-0.37530723214981776,-0.3204087303180706,0.37637454594731257
1790096696131517184,4.8895173339843785,-0.15583476307656888,-0.38492463764459134,0.2722720017676247
1790096696141517312,4.899517333984379,0.09785892646640687,-0.8483110561610177,0.2193666288254111
1790096696151517184,4.909517333984379,0.7847224407356445,-1.534780136117464,0.16250875193233938
1790096696161517312,4.919517333984379,1.4100645619793644,-1.944061410161925,0.27273638204178174
1790096696171517184,4.929517333984379,1.8962384507373509,-2.0705853631044167,0.5848529083685221
1790096696181517312,4.939517333984379,2.033225556686934,-1.8603887854755143,0.9209551127641415
1790096696191517184,4.949517333984379,1.798267189570576,-1.6441638805194245,1.046100041351786
1790096696201517312,4.959517333984379,1.5597535739503594,-1.4156026469705802,0.9308241953104908
1790096696211517184,4.969517333984379,1.408332653048617,-0.9707944636520439,0.8890590952401536
1790096696221517312,4.979517333984379,1.474290753930025,-0.5378398867846338,0.7423239358375987
1790096696231517184,4.989517333984379,1.9414776001533016,-0.5492931357321975,0.2917377140444977
1790096696241517312,4.999517333984379,2.7303206501515005,-0.8495842122530822,-0.2530653682783405
1790096696251517184,5.0095173339843795,3.2364844267865602,-1.5099442686268612,-0.5063888252908727
1790096696261517312,5.019517333984379,3.3114239549426525,-1.8259132097249844,-0.5930507559135776
1790096696271517184,5.029517333984379,2.7746435268676235,-1.779726092368093,-0.3353295863968137
1790096696281517312,5.039517333984379,1.5857105448400748,-1.569670046860824,0.2639446283371154
1790096696291517184,5.049517333984379,0.9834666374527461,-0.9010258844832237,0.4001599613820912
1790096696301517312,5.059517333984379,0.8858959035223634,-0.05343240371329394,-0.026774284080922195
1790096696311517184,5.069517333984379,-0.05699287427927524,0.1602388504224455,-0.195719715265175
1790096696321517312,5.079517333984379,-0.9928271141239591,-0.35757950321141563,0.10789695878462736
1790096696331517184,5.0895173339843796,-0.8472967139547913,-0.5895598155978068,0.6655824748894068
1790096696341517312,5.099517333984379,0.04871454573846782,-0.11431887354131852,0.7799589316614075
1790096696351517184,5.109517333984379,0.5994522010422958,-0.055068481490082734,0.7577210696026524
1790096696361517312,5.119517333984379,0.4962607936678223,-0.4109283625756137,0.681395532522264
1790096696371517184,5.129517333984379,-0.08327834834838119,-0.9086343267761189,0.4687668031345701
1790096696381517312,5.139517333984379,-0.2176838985747349,-0.8736405235404443,0.4334377906005591
1790096696391517184,5.149517333984379,0.24289723124899543,-0.17720094636428146,0.27303358595122545
1790096696401517312,5.159517333984379,0.9769451980848483,0.6186192687560286,-0.3295045846218103
1790096696411517184,5.16951733398438,1.1703773319354256,0.6929834223887319,-0.8343207579201621
1790096696421517312,5.179517333984379,0.8525021674887092,0.18894340717212899,-0.7527875024252456
1790096696431517184,5.189517333984379,0.5422325362006111,-0.09632015858114416,-0.5553089111007697
1790096696441517312,5.199517333984379,0.19842204609401093,-0.06937026809570279,-0.4577256272440281
1790096696451517184,5.209517333984379,-0.21564874531983141,-0.0577595984760743,-0.36617646601069637
1790096696461517312,5.2195173339843794,-0.5317498613253049,-0.1357475515506677,-0.4101789743885653
1790096696471517184,5.229517333984379,-0.7217954075998896,-0.32014320240603955,-0.37163120001052635
1790096696481517312,5.239517333984379,-0.6414205549418046,-0.5086008191449085,-0.12866186255825307
1790096696491517184,5.24951733398438,-0.22413000769371505,-0.5156607581063237,-0.23552303925398702
1790096696501517312,5.2595173339843795,0.3920366720721102,-0.5560779711212581,-0.25092404892159276
1790096696511517184,5.269517333984379,0.6730695530877578,-0.5548356765973959,-0.40922581176866984
1790096696521517312,5.279517333984379,0.8081031933781749,-0.761000769068781,0.012952869648835644
1790096696531517184,5.289517333984379,1.0073609061506685,-0.7873962865372509,0.15478031725869446
1790096696541517312,5.2995173339843795,0.9200125537427176,-0.6338264960508384,0.036667411316819755
1790096696551517184,5.309517333984379,0.6350901179842545,-0.5106109168794072,-0.09787255922961643
1790096696561517312,5.319517333984379,0.4715916381830027,-0.38287673847704246,-0.32337719463108894
1790096696571517184,5.32951733398438,0.3550558837143074,-0.25450486636658765,-0.67241993217221
1790096696581517312,5.3395173339843796,0.06163252860373214,-0.35107586757420606,-0.920717080162509
1790096696591517184,5.349517333984379,-0.24044423460393832,-0.5814949678015381,-1.0201943328619467
1790096696601517312,5.359517333984379,-0.454367725937544,-0.7269073796995209,-1.0655490220195203
1790096696611517184,5.369517333984379,-0.5739297094920728,-0.8487644807890713,-1.1780185304188457
1790096696621517312,5.37951733398438,-0.3503808866537497,-1.0890308557599044,-1.3189770435367478
1790096696631517184,5.389517333984379,-0.4166976131883384,-1.3369421059713962,-1.4741545225295754
1790096696641517312,5.399517333984379,-0.5195198812704717,-1.3985223064439074,-1.3224742686622124
1790096696651517184,5.40951733398438,-1.1700152308950558,-1.456377154235094,-0.6515549936968468
1790096696661517312,5.41951733398438,-1.4989305122256515,-0.9229116495391245,-0.05781957553574254
1790096696671517184,5.429517333984379,-1.79517984674319,-0.233886333957837,0.472211253603135
1790096696681517312,5.439517333984379,-1.9001547947713122,0.3114177785761132,0.9133022396451843
1790096696691517184,5.449517333984379,-1.788009739477923,0.6200764265154988,1.0446232503389126
1790096696701517312,5.45951733398438,-1.8149160861968108,0.5122449044025107,1.0933984841360522
1790096696711517184,5.4695173339843794,-1.68922440241031,0.401434848025275,0.880103133888285
1790096696721517312,5.479517333984379,-1.7149246670798035,0.21562480412435586,0.6189250150852469
1790096696731517184,5.48951733398438,-1.7407870836205284,0.04584209066292047,0.6360476585658875
1790096696741517312,5.49951733398438,-1.8821385613689539,-0.17466739210041238,0.7946827646828776
1790096696751517184,5.5095173339843795,-2.45517137395849,-0.44708949100703976,0.9045474789560569
1790096696761517312,5.519517333984379,-2.525722489866566,-0.508480419895584,0.9440176424506763
1790096696771517184,5.529517333984379,-2.2247958410529183,-0.25121376140985985,0.8527962018157995
1790096696781517312,5.53951733398438,-2.1156592538769665,-0.05250340588683097,0.7317963509076225
1790096696791517184,5.5495173339843795,-2.350167993615183,0.16487477999107206,0.8953067255470777
1790096696801517312,5.559517333984379,-2.280836063442754,0.20664445026856798,0.7570398848465341
1790096696811517184,5.56951733398438,-1.055391428627967,1.1162194849399434,0.7152864951369556
1790096696821517312,5.57951733398438,-0.5391190656077319,1.0387699735745242,0.06601064677533033
1790096696831517184,5.5895173339843796,-0.9757254739669395,0.4498553805121288,-0.4704458053711332
1790096696841517312,5.599517333984379,-1.8438295154057198,0.08650118027835517,-0.6239295190123847
1790096696851517184,5.609517333984379,-1.5389977273856306,-0.1717893803924261,-0.6794599344619736
1790096696861517312,5.61951733398438,-0.48617841680488677,-0.05149509529153702,-0.603825128396392
1790096696871517184,5.62951733398438,0.8757889444553553,0.19063459060516136,-0.5728569307898922
1790096696881517312,5.639517333984379,1.0078516771201458,0.27422439932685283,-0.9219402421276277
1790096696891517184,5.64951733398438,-1.1031902626693249,0.05185229174592322,-1.2341401912949481
1790096696901517312,5.65951733398438,-3.708140934678652,-0.06834851722125886,-0.9180579975394845
1790096696911517184,5.66951733398438,-3.9888791211716113,-0.07780738650134965,-0.028830997051220164
1790096696921517312,5.679517333984379,-1.8706432495164107,0.2503341192412321,0.9480527644333305
1790096696931517184,5.689517333984379,0.13161027756689303,0.714136042651059,1.591170472428238
1790096696941517312,5.69951733398438,0.4456984433259987,0.9298099073111484,1.5388125630462413
1790096696951517184,5.70951733398438,-0.970450113278063,1.0620312001569323,1.002355072594364
1790096696961517312,5.7195173339843794,-2.320243372123981,1.0306083273537239,0.18610390792023013
1790096696971517184,5.72951733398438,-2.8283065641771397,0.6745488103636447,-0.18478654929021265
1790096696981517312,5.73951733398438,-2.4020796898078642,0.3779224086689967,0.04286377025830252
1790096696991517184,5.74951733398438,-1.2755863438175854,0.20413510931436749,0.5755173500587809
1790096697001517312,5.7595173339843795,-0.2345921249822728,0.1736835452170133,0.9695308709089475
1790096697011517184,5.769517333984379,-0.5492466989072049,0.17849882054876004,0.8154722047324724
1790096697021517312,5.77951733398438,-1.9182618676929124,0.22615570645507516,0.23427136344489105
1790096697031517184,5.78951733398438,-3.0911187560333597,0.21213419593289443,-0.09577830204490256
1790096697041517312,5.7995173339843795,-2.931556056095546,0.3461696220515138,-0.1480014696079908
1790096697051517184,5.80951733398438,-1.613334914131582,0.6596163319568937,0.14335870242322088
1790096697061517312,5.81951733398438,-0.15186726407786943,1.1116516830947725,0.6420247697795582
1790096697071517184,5.82951733398438,0.6026150075800085,1.4636641631440033,1.0416872585602583
1790096697081517312,5.8395173339843796,0.38133152972052514,1.6844674737221847,1.1127793762911824
1790096697091517184,5.849517333984379,-0.6096455937874674,1.668562249611156,0.7739272464650377
1790096697101517312,5.85951733398438,-1.774299596795318,1.532825444325,0.15035637455194217
1790096697111517184,5.86951733398438,-2.120039263885635,1.2212007091439534,-0.3024636484744142
1790096697121517312,5.87951733398438,-1.1945691773874916,0.7174745198696865,-0.25710667667220277
1790096697131517184,5.88951733398438,0.9419351778243463,0.3040591526697409,0.012630929177383121
1790096697141517312,5.89951733398438,2.3449094014529988,0.27385663255988907,-0.34538775976721425
1790096697151517184,5.90951733398438,0.9750086217394593,-0.07220564428536189,-0.9253482251536788
1790096697161517312,5.91951733398438,-0.8877895442666138,-0.6538225826780727,-1.3624715709339754
1790096697171517184,5.929517333984379,-1.3564848833271612,-1.5675902235108965,-1.1464900821140322
1790096697181517312,5.93951733398438,-0.943110963884634,-2.0805517151886805,-0.7084832717394955
1790096697191517184,5.94951733398438,-0.0859792240292016,-2.015885363740079,-0.543049786918921
1790096697201517312,5.95951733398438,0.18215522031510298,-1.4529664940867923,-0.5275269278792158
1790096697211517184,5.96951733398438,0.6156080263761858,-1.0588307591862434,-0.5980982202473332
1790096697221517312,5.97951733398438,1.9437156374430211,-0.9985462720145096,-1.0079482648388922
1790096697231517184,5.98951733398438,2.729134962699487,-1.0920219215197589,-1.4016949472124638
1790096697241517312,5.99951733398438,1.980563684412023,-1.3639725674623484,-1.5226321526742428
1790096697251517184,6.0095173339843795,0.8839854344379169,-1.7063110762289397,-1.704489308886456
1790096697261517312,6.01951733398438,0.4170724827770954,-1.8930830647000527,-1.5521239294407732
1790096697271517184,6.02951733398438,0.4081882064313827,-1.8502137799177303,-1.0547972737798308
1790096697281517312,6.03951733398438,0.4779062508246471,-1.3060732420117018,-0.6617293838216742
1790096697291517184,6.04951733398438,-0.20081753527041135,-0.7334453191509596,-0.6096972120762219
1790096697301517312,6.05951733398438,-1.3272049803170325,-0.48440950117954595,-0.5969537868283307
1790096697311517184,6.06951733398438,-1.4036790219157422,-0.5587765528420027,-0.5958727558358918
1790096697321517312,6.07951733398438,-1.1489113014136878,-0.456070114081535,-0.11762310056241415
1790096697331517184,6.0895173339843796,-0.7041422931743221,0.13715049480128658,0.25086927216343885
1790096697341517312,6.09951733398438,-0.9870960879162038,0.7341839133445114,0.3166634936432035
1790096697351517184,6.10951733398438,-1.4015419226729056,1.139030120574806,0.21592113900632084
1790096697361517312,6.11951733398438,-1.3735242676159043,1.3431063220032071,0.21663801386642814
1790096697371517184,6.1295173339843805,-0.9729454920664491,1.2298430058192176,0.15994554074308487
1790096697381517312,6.13951733398438,-0.4551340408070621,0.9347321278007765,0.017612123063300254
1790096697391517184,6.14951733398438,-0.015339776992676774,0.42862981264030137,-0.064422466756905
1790096697401517312,6.15951733398438,0.45666967827706834,-0.15913028894909126,-0.4787047829664377
1790096697411517184,6.16951733398438,0.7210467013754878,-0.9059604031721007,-0.6959667022781947
1790096697421517312,6.17951733398438,1.6406882892064583,-1.8312550403232923,-1.431407034544402
1790096697431517184,6.18951733398438,2.4677800278668256,-2.4079205361883065,-1.941883580384505
1790096697441517312,6.19951733398438,2.5305339524568327,-2.6762979296933085,-1.800513910174552
1790096697451517184,6.2095173339843805,2.2431939306437494,-2.552651570212406,-1.659188596909965
1790096697461517312,6.21951733398438,1.731596256179658,-1.962721190674193,-1.4456807387704897
1790096697471517184,6.22951733398438,0.9170426892847058,-1.3844780641092118,-1.5880377148011566
1790096697481517312,6.23951733398438,0.0751530885950644,-0.7854105915756899,-1.1571025627384834
1790096697491517184,6.24951733398438,0.2810006871098068,-0.055120731654787924,-0.32591044564368016
1790096697501517312,6.25951733398438,0.5369937868942942,0.16662394550296453,0.07372003131444155
1790096697511517184,6.26951733398438,0.9969844272244466,0.08662617173829859,0.038845255337121014
1790096697521517312,6.27951733398438,1.5462225317329463,-0.4959397728365128,-0.10824978183933268
1790096697531517184,6.289517333984381,1.675941529010874,-1.6581405324479621,-0.04581888142532614
1790096697541517312,6.29951733398438,1.6706109606904567,-2.233590864320624,-0.3111803478358626
1790096697551517184,6.30951733398438,1.7442630536505004,-1.9324207990718114,-0.5808427444672473
1790096697561517312,6.31951733398438,1.686760847385056,-1.3423182755604972,-0.2764039671317378
1790096697571517184,6.32951733398438,1.2819708032221477,-0.716830693559604,-0.04977950564673614
1790096697581517312,6.33951733398438,0.4512680649474413,-0.3100676763800211,0.06570310735917875
1790096697591517184,6.34951733398438,0.013952015163073594,0.15199938442905933,-0.09141659925603121
1790096697601517312,6.35951733398438,-0.3521517507187534,0.6235973947073576,-0.14820597272377053
1790096697611517184,6.369517333984381,-0.9661969650230996,0.944607358953417,0.09979961898424553
1790096697621517312,6.3795173339843805,-1.4540288348359802,1.0586689710154433,0.381860719076419
1790096697631517184,6.38951733398438,-1.9188312244491899,1.0568283309284392,0.6599527254898994
1790096697641517312,6.39951733398438,-1.729358567548854,1.4508756020646465,0.46539637204411993
1790096697651517184,6.40951733398438,-1.3516514106785524,1.6413270878068789,0.4760302182400839
1790096697661517312,6.4195173339843805,-1.259735110237778,1.532939534472694,0.6265081974536043
1790096697671517184,6.42951733398438,-1.2494056693508542,1.4129405521844918,0.4169048238557814
1790096697681517312,6.43951733398438,-1.0359898037130932,1.1327775265075255,-0.047140118063958986
1790096697691517184,6.449517333984381,-0.545030578236156,0.7435958998600454,-0.4497796016133524
1790096697701517312,6.4595173339843805,0.05931301387455695,0.12744310326377611,-0.598268779155942
1790096697711517184,6.46951733398438,0.8444815884539651,-0.5404180416697438,-0.6377822294842908
1790096697721517312,6.47951733398438,1.522590492398712,-0.9877980008895164,-0.7797084675238195
1790096697731517184,6.48951733398438,2.0423338823881334,-1.2121094312918228,-0.9389485678812673
1790096697741517312,6.499517333984381,2.379475911911315,-1.3444115971502963,-1.0863483057529721
1790096697751517184,6.50951733398438,2.6578754975617636,-1.3508617642073204,-1.0859978562467898
1790096697761517312,6.51951733398438,2.6544163253015904,-1.4569542106771538,-0.9281248186017111
1790096697771517184,6.529517333984381,2.1689893529543127,-1.548422031621975,-0.7670424568948284
1790096697781517312,6.539517333984381,1.2054633002731152,-1.6736049965545763,-0.4564816118118425
1790096697791517184,6.54951733398438,0.08175708860405728,-1.6191221281174402,-0.06045697542398759
1790096697801517312,6.55951733398438,-0.7348379194909039,-1.0201480736787125,0.2242625247009307
1790096697811517184,6.56951733398438,-1.259598841490646,-0.33911221822074733,0.3215322936023006
1790096697821517312,6.579517333984381,-1.3988929826340573,0.16910815976246754,0.39185359917050616
1790096697831517184,6.58951733398438,-1.1959089743273417,0.004074495807810025,0.5124993533681472
1790096697841517312,6.59951733398438,-0.2013439348130503,-0.4241707341842714,0.4747089413315825
1790096697851517184,6.609517333984381,0.9299262936520818,-0.907876031085951,0.11491405280300057
1790096697861517312,6.619517333984381,1.8273469748863012,-1.3857689034479108,-0.11242603670886028
1790096697871517184,6.6295173339843805,2.3301636291397574,-1.8583403528062667,-0.30081918592827095
1790096697881517312,6.63951733398438,2.444112177050728,-2.01645090511441,-0.8697867807905074
1790096697891517184,6.64951733398438,2.123955214945556,-1.8346875120657005,-1.6258204309423687
1790096697901517312,6.659517333984381,1.3823269930747675,-1.6206263162038443,-2.0714545950190715
1790096697911517184,6.6695173339843805,0.5942210975742971,-1.1705279364974341,-1.8861847543137369
1790096697921517312,6.67951733398438,-0.2698957144616828,-0.5874715307465372,-1.7276356297865414
1790096697931517184,6.689517333984381,-0.8958366885209356,-0.34543473797730473,-1.3382095307270987
1790096697941517312,6.699517333984381,-1.5309392262207753,-0.5854115512206157,-0.7375311714037933
1790096697951517184,6.7095173339843805,-1.8649557018306215,-0.6947123640901136,-0.3054158330054232
1790096697961517312,6.71951733398438,-2.1567622287507855,-0.6373513045133993,0.04500392904204831
1790096697971517184,6.72951733398438,-2.091710719059124,-0.5136231410814602,0.10685532617924261
1790096697981517312,6.739517333984381,-1.4668694956226191,-0.4182557540543192,0.05556496274834073
1790096697991517184,6.749517333984381,-0.3507455802826898,-0.527085535935812,0.09296877413229643
1790096698001517312,6.75951733398438,1.0723560554079954,-0.6526079257760231,0.3169533959633828
1790096698011517184,6.769517333984381,2.547933731513502,-0.4392281981064021,-0.04641621494293019
1790096698021517312,6.779517333984381,3.382147316857473,-0.4195509063738319,-0.5402751702223041
1790096698031517184,6.789517333984381,3.3677710731709776,-0.6308552980048148,-1.110920670723938
1790096698041517312,6.79951733398438,2.9244684203647733,-0.9110217086394963,-1.7316554784747378
1790096698051517184,6.80951733398438,2.2181678834803638,-1.234034310477657,-2.1901522345985525
1790096698061517312,6.819517333984381,1.1667763934471616,-1.4548997882610422,-2.5346992577537644
1790096698071517184,6.829517333984381,0.2548142035983346,-1.5928959514526966,-2.734194464431643
1790096698081517312,6.83951733398438,-0.3998707311560659,-1.596225069943041,-2.4196617054371012
1790096698091517184,6.849517333984381,-1.2531795913343653,-1.216919659345267,-1.5994460487631468
1790096698101517312,6.859517333984381,-2.088285849758136,-0.8385308444774124,-0.5394419333406313
1790096698111517184,6.869517333984381,-2.4595562790225443,-0.4907721075533365,0.40114270277310493
1790096698121517312,6.8795173339843805,-2.081565587948285,-0.005047621210479081,1.1954770305561808
1790096698131517184,6.88951733398438,-1.65042863655068,0.7956691994441408,1.6550979022243075
1790096698141517312,6.899517333984381,-2.2219908775674853,0.7958279304771815,2.059161514786242
1790096698151517184,6.909517333984381,-2.3013820795904785,0.7914591372968309,1.8756931692376055
1790096698161517312,6.9195173339843805,-2.2924616355469074,0.7144800343558702,1.7979887900220008
1790096698171517184,6.929517333984381,-1.7449659910692077,0.6540223754276859,1.6769260991701471
1790096698181517312,6.939517333984381,-0.6444903396953497,0.7697167267639825,1.3102256108242265
1790096698191517184,6.949517333984381,0.4848788259195037,0.7978655596015852,0.9305549537569725
1790096698201517312,6.9595173339843805,0.9156936064806245,0.25347088518283745,0.5689578864630105
1790096698211517184,6.96951733398438,-0.38723930192143574,-0.5416606955375562,0.07208729279651882
1790096698221517312,6.979517333984381,-3.2235718815061407,-0.9925966746570976,-0.09280795758329992
1790096698231517184,6.989517333984381,-4.764458974618615,-0.5783958807388401,0.09206217725787444
1790096698241517312,6.999517333984381,-4.492763878797948,0.32084846474641254,0.3883537684767431
1790096698251517184,7.009517333984381,-3.6750336967266155,0.35914913752273003,0.8297830000117747
1790096698261517312,7.019517333984381,-2.5310485710601562,1.1450737908212587,1.2888829761270604
1790096698271517184,7.029517333984381,-0.9650559644435341,1.661042703708053,1.7373191283981195
1790096698281517312,7.039517333984381,0.9393344485330832,1.620026931333714,1.0302554020624735
1790096698291517184,7.04951733398438,0.016733939014689315,0.35263035841308693,0.31107877925435923
1790096698301517312,7.059517333984381,-2.397454804245948,-0.2039120267947543,-0.2811895731849729
1790096698311517184,7.069517333984381,-3.062607231436754,-0.34063550784490293,-0.5956773820024585
1790096698321517312,7.079517333984381,-1.8515685596068896,-0.17534994910521232,-0.34692764643469176
1790096698331517184,7.089517333984381,-1.1206603328108555,0.06467650104809483,-0.1682375811194335
1790096698341517312,7.099517333984381,-0.9414306844152015,0.4117466013103058,0.28613269205609804
1790096698351517184,7.109517333984381,-0.2952582709491557,0.9939213822153757,0.6420667016633745
1790096698361517312,7.119517333984381,0.10384602743027288,1.4361635993874071,0.10438393415648817
1790096698371517184,7.1295173339843805,-0.2521073379902435,1.1519182841782158,-0.7177578567257656
1790096698381517312,7.139517333984381,-1.523981872684998,0.6349166786060978,-0.9333674493975439
1790096698391517184,7.149517333984381,-2.3723699429403493,0.4121303473658133,-0.4686286072564936
1790096698401517312,7.159517333984381,-1.1626847130125262,0.3814628234047789,-0.19710869820801108
1790096698411517184,7.169517333984381,-0.5190071272188375,0.12131257069959678,-0.247096471062835
1790096698421517312,7.179517333984381,-1.3878517179785301,-0.2329915843303995,0.3496149586913633
1790096698431517184,7.189517333984381,-1.9845674043678818,-0.08256788544266269,1.1244942104012694
1790096698441517312,7.199517333984381,-1.2100022905072654,0.2181761558356914,1.3585846545813882
1790096698451517184,7.2095173339843805,-1.208447924576702,0.10914441527039284,0.8364977229042626
1790096698461517312,7.219517333984381,-2.8029954800246677,-0.1476362210055665,0.3798365822205873
1790096698471517184,7.229517333984381,-3.8919148109197486,-0.41297590255835515,0.509729457672412
1790096698481517312,7.239517333984381,-3.5738137423751994,-0.13994270986391352,0.8191913108634234
1790096698491517184,7.2495173339843815,-2.0046438212557702,0.4936057471119848,1.0905433737251922
1790096698501517312,7.259517333984381,-0.4112947592871756,1.2035459147651495,1.601054533214508
1790096698511517184,7.269517333984381,0.44169326565873906,1.6419924192929192,2.0841027222160697
1790096698521517312,7.279517333984381,0.18996927696060495,1.9963932232832589,2.0100491085064025
1790096698531517184,7.289517333984381,-0.8629646080948516,2.1593512845884,1.2137035171988328
1790096698541517312,7.299517333984381,-1.7128180954011794,1.7439564989807916,0.39238967979751826
1790096698551517184,7.309517333984381,-1.9648610623540954,1.1504808199525973,-0.07014451567509342
1790096698561517312,7.319517333984381,-1.4700071431907002,0.7672411785072439,-0.23691716023727752
1790096698571517184,7.3295173339843815,-0.7604428710884485,0.3465173679640056,-0.22480358875890305
1790096698581517312,7.339517333984381,0.28372147122260793,-0.03561359074309922,-0.29477255366629146
1790096698591517184,7.349517333984381,1.3706355681051954,-0.7158889618791837,-0.5781363537572373
1790096698601517312,7.359517333984381,1.5924048896664833,-0.8017086779994717,-1.055482605490797
1790096698611517184,7.369517333984381,0.3697941538761693,-0.7450381287018932,-1.593556625884729
1790096698621517312,7.379517333984381,-0.49437293936158794,-1.0213830558975547,-1.6108357975996017
1790096698631517184,7.389517333984381,0.16153740044369114,-1.319746684824572,-1.3126773444766826
1790096698641517312,7.399517333984381,1.2002255418862857,-1.703003736844964,-1.1077609369296288
1790096698651517184,7.409517333984382,1.248362789805291,-1.4806989628362095,-1.236451181251653
1790096698661517312,7.419517333984381,-0.07631329785519597,-1.1019875531936165,-1.6083060649817111
1790096698671517184,7.429517333984381,-1.130809030590472,-1.2191386505550263,-1.8621758234311452
1790096698681517312,7.439517333984381,-1.4044162750243103,-1.518094036314279,-1.437025785445744
1790096698691517184,7.449517333984381,-1.172224680697774,-1.404438918273119,-0.6535560941600942
1790096698701517312,7.459517333984381,-0.869833181065379,-0.9542830575037361,0.1417878319337726
1790096698711517184,7.469517333984381,-0.460230362720675,-0.42462330013905436,0.5631976268231438
1790096698721517312,7.479517333984381,0.18250252518894156,0.004829685586147603,0.5211979093619311
1790096698731517184,7.489517333984382,0.4587396917118536,0.1636831546873768,0.20526883497757792
1790096698741517312,7.4995173339843815,0.26975596120875683,0.023260789311360913,-0.10151991192110434
1790096698751517184,7.509517333984381,0.3605611804310477,-0.2349678744538829,-0.3208409090749075
1790096698761517312,7.519517333984381,0.923644673259673,-0.457877196033211,-0.5016253751907953
1790096698771517184,7.529517333984381,1.2434565271852702,-0.46026945571099503,-0.6286569243560723
1790096698781517312,7.5395173339843815,0.7706269768348826,-0.34385968539041006,-0.8787504366352886
1790096698791517184,7.549517333984381,0.13970007014961722,-0.5244391294821823,-0.8610930770157363
1790096698801517312,7.559517333984381,0.04950528081899597,-0.8167237152125416,-0.8141332278070814
1790096698811517184,7.569517333984382,0.8899469021779577,-1.130339005767416,-0.9038722758100424
1790096698821517312,7.5795173339843815,1.944773116478793,-1.3314624866406097,-0.7796233335571886
1790096698831517184,7.589517333984381,2.0506984474432453,-1.4822642429233366,-0.40473706689525213
1790096698841517312,7.599517333984381,1.583179530725768,-1.8661152539844788,-0.5061163412653569
1790096698851517184,7.609517333984381,1.478686258775038,-2.174819853589277,-0.7224017785946919
1790096698861517312,7.619517333984382,1.3207553375693188,-2.0947218138143078,-0.6067024691862988
1790096698871517184,7.629517333984381,0.7932513411581288,-1.7719181909088868,-0.828813184937846
1790096698881517312,7.639517333984381,0.5233682879694902,-1.2114143002309952,-0.9491126447166781
1790096698891517184,7.649517333984382,0.6145962816151815,-0.5269376665635439,-0.7079567511246301
1790096698901517312,7.659517333984382,0.5977486324104575,-0.005257781733742584,-0.3181097580341549
1790096698911517184,7.669517333984381,0.415294875687504,0.1446392769759591,0.44350716935074613
1790096698921517312,7.679517333984381,0.13206062382581168,0.10556101615604031,0.46524694374760306
1790096698931517184,7.689517333984381,-0.45953697434446794,0.12053935365827617,0.14488558944704055
1790096698941517312,7.699517333984382,-0.731103049016617,0.23811592847382423,-0.01607189300992795
1790096698951517184,7.709517333984381,-0.12047033940968362,0.5784426618011288,-0.06255272853175821
1790096698961517312,7.719517333984381,0.7619776751463583,0.5229197052602678,0.21707807075964328
1790096698971517184,7.729517333984382,1.5989902058405985,-0.020711140631922018,0.7190205536489238
1790096698981517312,7.739517333984382,1.852684674962771,-0.8512942674836297,0.4056145394638937
1790096698991517184,7.7495173339843815,1.5926423035885315,-1.7230091902545333,0.038586910003443775
1790096699001517312,7.759517333984381,1.2756749220815569,-1.7070279410756746,-0.2920742660011739
1790096699011517184,7.769517333984381,1.2762027886485385,-0.7945261231667469,-0.11609642188031288
1790096699021517312,7.779517333984382,1.1649310623291227,0.1754381282813688,0.10384841264143915
1790096699031517184,7.7895173339843815,0.7778215592832638,0.6900164767210781,0.06559379784371464
1790096699041517312,7.799517333984381,0.2679968743067905,0.8637714486521237,0.03684402419926459
1790096699051517184,7.809517333984382,-0.1558294877956369,0.9377779957422192,-0.04214058569518327
1790096699061517312,7.819517333984382,-0.42072002952394877,0.9545687196007988,-0.12871809072926962
1790096699071517184,7.8295173339843815,-0.3552633511898444,0.592595489615736,-0.18571241597878813
1790096699081517312,7.839517333984381,-0.25972621029007303,-0.021864390997339778,-0.02075865055035253
1790096699091517184,7.849517333984381,-0.011805673243025533,-0.5981293184418828,0.22467357873555505
1790096699101517312,7.859517333984382,0.4698363107528134,-0.8810489506588552,0.5280247675698477
1790096699111517184,7.869517333984382,1.1110239740936287,-1.0655599308847505,0.49989168440598564
1790096699121517312,7.879517333984381,1.588812106633387,-1.3748713070604608,0.377758490912507
1790096699131517184,7.889517333984382,1.8715588354421744,-1.5360105472361418,0.10218933583989649
1790096699141517312,7.899517333984382,1.6462027259018244,-1.4149068932184379,-0.018216003935765442
1790096699151517184,7.909517333984382,1.088070416519327,-1.1235879241701001,-0.12597793343159636
1790096699161517312,7.919517333984381,0.634503539440092,-0.6137408658150876,-0.25837159138289256
1790096699171517184,7.929517333984381,0.1530367380220243,0.026162340677717333,-0.3696198152216828
1790096699181517312,7.939517333984382,-0.5021686926447398,0.3738539249718472,-0.2688152351197072
1790096699191517184,7.949517333984382,-0.7895504437836336,0.5563866405097562,-0.2948647217812031
1790096699201517312,7.959517333984381,-0.687944530162404,0.4245101386539525,-0.3803201001285263
1790096699211517184,7.969517333984382,-0.35826334959079836,-0.21284563919580496,-0.24586948017921292
1790096699221517312,7.979517333984382,0.18043645946739395,-0.918915731578211,0.0721324281045446
1790096699231517184,7.989517333984382,0.5351389630383685,-1.6192069292511952,0.3906068138973442
1790096699241517312,7.9995173339843815,0.37130408409423,-2.2741435385738358,0.4178513626929763
1790096699251517184,8.009517333984382,0.14147418532692482,-2.2712503898824865,0.3239474983728323
1790096699261517312,8.019517333984382,0.3945732456329337,-1.3721506167426014,-0.13000547754405273
1790096699271517184,8.029517333984382,1.2001845442481385,-0.3510852719999199,-0.9152273835308409
1790096699281517312,8.039517333984382,1.7545867433085558,-0.3082457765465715,-1.0927735357942907
1790096699291517184,8.049517333984383,2.3813400852224813,-0.8199742393527554,-0.9199226797195873
1790096699301517312,8.059517333984383,2.8491474620704405,-1.3220352727734668,-0.6647092689644909
1790096699311517184,8.069517333984383,2.67917307041262,-1.6848307612521787,-0.698439771547148
1790096699321517312,8.079517333984382,1.9208804751261381,-1.6106658079190062,-1.3216407075450138
1790096699331517184,8.089517333984382,0.9134645491917059,-1.415980127363967,-2.0780119479730566
1790096699341517312,8.099517333984382,0.06054992265710196,-1.1501287188623552,-2.109923386616412
1790096699351517184,8.109517333984382,-0.5052121509126676,-0.7983198953867134,-1.5226744892089286
1790096699361517312,8.119517333984382,-0.5568672160166964,-0.5593754061452479,-0.9375465933253345
1790096699371517184,8.129517333984383,-0.2668791333492453,-0.6306687067037938,-0.058117994215530044
1790096699381517312,8.139517333984383,-0.21647486412165706,-0.48495113912295285,0.1864106043095341
1790096699391517184,8.149517333984383,-0.7413485948676444,-0.3381916485434924,0.1475868590104621
1790096699401517312,8.159517333984383,-1.3381825544185824,-0.162125769137803,-0.051857497525658464
1790096699411517184,8.169517333984382,-1.3484672403124485,0.018447146827101968,-0.13889698052279212
1790096699421517312,8.179517333984382,-0.6297755962880314,0.20498288918346166,-0.2833222301166268
1790096699431517184,8.189517333984382,0.5309317399502784,0.16635417048974677,-0.20060845978559094
1790096699441517312,8.199517333984383,1.643870118750945,0.04372189955141139,-0.019611802585259384
1790096699451517184,8.209517333984383,2.1360160437658218,-0.12742859792535222,-0.031137105378775325
1790096699461517312,8.219517333984383,1.7573320796395988,-0.3130638319661478,-0.2332526407815682
1790096699471517184,8.229517333984383,0.36349170079223087,-0.658896604017293,-0.6348200730939211
1790096699481517312,8.239517333984383,-1.0487743826743343,-1.0921080031320114,-1.033836368858675
1790096699491517184,8.249517333984382,-1.8095486692552367,-1.417228442083239,-0.9239465808470595
1790096699501517312,8.259517333984382,-1.380739880217638,-1.305787873288118,-0.6186844764843543
1790096699511517184,8.269517333984384,-0.40139645630967574,-0.5886577087210871,-0.548854452752978
1790096699521517312,8.279517333984383,0.5052005986973711,0.3436515916592794,-0.7324416786307374
1790096699531517184,8.289517333984383,0.5108162749274576,0.8118102305789932,-0.8631825277638985
1790096699541517312,8.299517333984383,-0.3522216291059932,0.7076148023111728,-0.5023535707120443
1790096699551517184,8.309517333984383,-1.3471867772589805,0.7011035197098717,0.009072175791176973
1790096699561517312,8.319517333984383,-1.8282142582104854,0.7015782767890449,0.3342187689921921
1790096699571517184,8.329517333984382,-1.6908041682625894,0.9054020539461946,0.534766984420145
1790096699581517312,8.339517333984382,-1.3660799195065834,0.8284369708356913,0.7564843416030262
1790096699591517184,8.349517333984382,-0.9348692309819685,0.4602567069718195,1.0372624348373247
1790096699601517312,8.359517333984384,-1.136109626390043,0.131950306978264,1.0131080865476694
1790096699611517184,8.369517333984383,-1.7908103056875158,-0.1733889867884614,0.7717303645386976
1790096699621517312,8.379517333984383,-1.7135483367873703,-0.13252016956334972,0.2681542398818513
1790096699631517184,8.389517333984383,-1.0965626763787948,-0.4187007238462308,0.3273285917530476
1790096699641517312,8.399517333984383,-0.8533395844380468,-0.7158121981588492,0.27472836384500254
1790096699651517184,8.409517333984383,-1.6164984779647673,-0.7761913652833026,0.23603782418261085
1790096699661517312,8.419517333984382,-3.0780146977847664,-0.40798375116386254,0.6163544941062261
1790096699671517184,8.429517333984384,-3.411248185342531,0.19133374582318494,0.9677772394241688
1790096699681517312,8.439517333984384,-2.4928151258118376,0.43299125754360124,1.1998617119815858
1790096699691517184,8.449517333984383,-1.2772486327372623,0.047503652867997015,1.2854658235571021
1790096699701517312,8.459517333984383,-0.49431169190177193,-0.3883398750648134,1.2784211090935624
1790096699711517184,8.469517333984383,-0.8928220713340642,-0.7666731189122618,0.8406030506824007
1790096699721517312,8.479517333984383,-2.258099201488827,-0.18749644675095234,0.3388146473785284
1790096699731517184,8.489517333984383,-4.239695741563012,-0.12096203388703805,0.6154445905912657
1790096699741517312,8.499517333984382,-3.4721877804935746,0.05790515481814029,1.2334634351297782
1790096699751517184,8.509517333984382,-1.7479515958703007,0.09131585957316533,1.4655640936985728
1790096699761517312,8.519517333984384,-1.1005644442591667,0.2104708435190153,1.4570528265108829
1790096699771517184,8.529517333984383,-1.6390561983390746,0.48052629065733066,1.5194853868307883
1790096699781517312,8.539517333984383,-1.1812571371872969,1.0512175880286458,2.0996654490013777
1790096699791517184,8.549517333984383,-0.14539335750154178,1.3892697816590875,1.3277527963914475
1790096699801517312,8.559517333984383,1.030791494481924,1.2275997669928838,0.6510328609962748
1790096699811517184,8.569517333984383,-0.045845034703715426,0.8313043136819646,0.3368639947528164
1790096699821517312,8.579517333984382,-1.4878441982775445,0.7601925204962375,0.3294558291667295
1790096699831517184,8.589517333984384,-2.1677097016747497,0.6269688798393833,0.13787841890712604
1790096699841517312,8.599517333984384,-2.525564617616871,0.25917369742541424,0.08159099522705797
1790096699851517184,8.609517333984384,-2.6734665705421174,0.11592061603053103,0.4579324048905751
1790096699861517312,8.619517333984383,-2.249342029797166,0.10031880481330063,0.982154161325027
1790096699871517184,8.629517333984383,-1.8548301318492522,0.3186239033754558,1.400651980576724
1790096699881517312,8.639517333984383,-1.9135813542890818,0.6749049845772042,1.609511803135811
1790096699891517184,8.649517333984383,-2.0890968296769876,1.2110320748967203,1.5800279196443805
1790096699901517312,8.659517333984383,-1.0652675564925358,1.3791483500744421,1.863291596471246
1790096699911517184,8.669517333984382,0.14704509768198548,1.5838253612227995,1.8479519900613048
1790096699921517312,8.679517333984384,0.6590439299977824,1.760153521036769,1.6528419655116455
1790096699931517184,8.689517333984384,0.9228001828950513,1.9275490812582494,1.3810534176599232
1790096699941517312,8.699517333984383,1.0724614324992934,1.9714396420531717,1.0236163694984135
1790096699951517184,8.709517333984383,0.40759115738397783,1.74907057864579,0.49396649927659897
1790096699961517312,8.719517333984383,-1.6498162132517828,0.7678296282385667,0.16286476566750446
1790096699971517184,8.729517333984383,-2.7500666539054723,0.26990889750776303,0.05051449295545242
1790096699981517312,8.739517333984383,-1.622061925356069,-0.13603046997075852,0.29406771509441393
1790096699991517184,8.749517333984384,1.1732542383300275,-0.5195606969547747,0.6029746953891211
1790096700001517312,8.759517333984384,3.4655881083905324,-0.4903739564682722,0.9494952836639508
1790096700011517184,8.769517333984384,3.240992263502687,-0.4484009208523143,0.6599753211923056
1790096700021517312,8.779517333984383,2.064393220968222,-0.8751176669639531,-0.801140207849427
1790096700031517184,8.789517333984383,1.6881023142337004,-1.5350617102629323,-1.8288389900731663
1790096700041517312,8.799517333984383,1.2968473806922531,-2.0522341781194924,-1.965312544986521
1790096700051517184,8.809517333984383,0.44062866279034874,-2.173669104179692,-1.7253713542206093
1790096700061517312,8.819517333984383,0.07759836214129778,-2.0940594566015958,-1.4684918394249877
1790096700071517184,8.829517333984382,0.09215453488014014,-1.8658084787686884,-1.4211095968326446
1790096700081517312,8.839517333984384,-0.4268267166493498,-1.799260895681192,-1.2562952142465478
1790096700091517184,8.849517333984384,-0.9679301714660595,-1.7750385766077337,-0.9636119259725902
1790096700101517312,8.859517333984384,-0.4949136655747315,-1.6077381931196255,-0.6159499876728323
1790096700111517184,8.869517333984383,0.18496741497618782,-1.3017489897153895,0.12820285282436614
1790096700121517312,8.879517333984383,-0.2452138486261227,-0.8145602344395829,0.8393799154759979
1790096700131517184,8.889517333984383,-1.1694877390233804,-0.17383694700564684,1.1494763278614537
1790096700141517312,8.899517333984383,-1.379251018048086,0.4165171994724072,0.9893208653712824
1790096700151517184,8.909517333984384,-0.8544003460543437,0.7946102444842428,0.7254416458260942
1790096700161517312,8.919517333984384,-0.5854144622861459,0.9150559028915533,0.5890037640361179
1790096700171517184,8.929517333984384,-1.1298493555754128,0.746164590248158,0.4519285366774798
1790096700181517312,8.939517333984384,-1.4201250624402073,0.499641747842448,0.16170109843262226
1790096700191517184,8.949517333984383,-0.5314862063302285,0.30061423635871015,-0.25511023859358856
1790096700201517312,8.959517333984383,0.5703597673594364,0.014130805291768828,-0.5121373696503527
1790096700211517184,8.969517333984383,1.1253362557829847,-0.4211510725823358,-0.4265766158926022
1790096700221517312,8.979517333984383,1.6640137534355224,-0.8841956063155387,-0.5705490301572179
1790096700231517184,8.989517333984383,2.6747279897236007,-1.1588397611735566,-0.6762736317618286
1790096700241517312,8.999517333984384,3.353550361420428,-1.6028890893180414,-0.7730072171539005
1790096700251517184,9.009517333984384,3.384985000178342,-2.380497250469681,-0.9229533194681993
1790096700261517312,9.019517333984384,3.1152525420879065,-2.9464782837114862,-1.47568315644604
1790096700271517184,9.029517333984383,2.0663268570319264,-2.5932404904305706,-1.368365230139482
1790096700281517312,9.039517333984383,0.8410850188725807,-2.1565822063101585,-1.0114132549073331
1790096700291517184,9.049517333984383,0.252270865587063,-2.1390212317834187,-1.3298492972652343
1790096700301517312,9.059517333984383,0.9571257560382447,-1.632395380007427,-1.2285566306851605
1790096700311517184,9.069517333984384,1.9454372834183187,-0.7129197987641069,0.2021732851016338
1790096700321517312,9.079517333984384,1.7035010747190815,-0.758236143354855,1.351718711638336
1790096700331517184,9.089517333984384,1.2684227634913308,-1.2292464553926643,1.058382407594663
1790096700341517312,9.099517333984384,1.1307114551487012,-1.1043588835407523,0.2931677244756209
1790096700351517184,9.109517333984384,0.9133257339157405,-0.27293635122252824,0.2677634640477206
1790096700361517312,9.119517333984383,0.3718114305800907,0.6249391888562144,0.6816744279246606
1790096700371517184,9.129517333984383,-0.011125235251549695,1.158120360005855,0.8811190079233799
1790096700381517312,9.139517333984383,0.23159016793491188,1.4307359930952668,0.6140469628518248
1790096700391517184,9.149517333984383,0.5409589618392434,1.548028253885355,0.3716073318083328
1790096700401517312,9.159517333984384,-0.06961166545980979,1.1062703323561132,0.6350035179334771
1790096700411517184,9.169517333984384,-0.7526543468259015,0.2691731967452302,0.6692858776039075
1790096700421517312,9.179517333984384,-0.6424155407206591,-0.362018171269153,0.3293941933719497
1790096700431517184,9.189517333984384,-0.13523238314663766,-0.4678975214953597,-0.06755487046331626
1790096700441517312,9.199517333984383,0.3479608171284059,-0.3922491478579654,-0.18022423642204202
1790096700451517184,9.209517333984383,0.7104327453100604,-0.5773508299816347,-0.10364352452304364
1790096700461517312,9.219517333984383,0.8436012390709795,-0.8259894467168732,-0.28633875745504644
1790096700471517184,9.229517333984385,1.232155006421844,-0.8464172891494426,-0.6971048288477356
1790096700481517312,9.239517333984384,1.5771941952806572,-0.7580906341000504,-1.1486673887582712
1790096700491517184,9.249517333984384,1.6283069773518009,-0.6242063167338173,-1.456065089500722
1790096700501517312,9.259517333984384,1.0529651997522327,-0.616104415808615,-1.2676762861463702
1790096700511517184,9.269517333984384,0.5912344207288744,-0.46920823248097415,-1.051790800784581
1790096700521517312,9.279517333984383,0.6161563484758825,-0.12259772875462713,-0.9715740424615471
1790096700531517184,9.289517333984383,0.7085286310531944,-0.0612019620615465,-0.7273450469834102
1790096700541517312,9.299517333984383,0.8320198628067017,-0.2713731736700846,-0.2500269972525941
1790096700551517184,9.309517333984383,1.1013428573936794,-0.5025045661167227,0.06358475053430503
1790096700561517312,9.319517333984384,1.316537717129263,-0.6363195820320083,0.0806491785918462
1790096700571517184,9.329517333984384,1.43629516369976,-0.9158197492645328,-0.10428206657391735
1790096700581517312,9.339517333984384,1.5604291014956575,-1.4565868323966042,-0.47326866273587453
1790096700591517184,9.349517333984384,1.7252286393540377,-2.0049769963482476,-0.6859077469175056
1790096700601517312,9.359517333984384,1.5408442197882561,-2.3128786857683292,-0.7543905349322494
1790096700611517184,9.369517333984383,0.8822837972006634,-2.4506841247065463,-0.7299122350060921
1790096700621517312,9.379517333984383,0.10243997423371916,-2.178086147276898,-0.40266749987812234
1790096700631517184,9.389517333984385,-0.380896788259323,-1.2208689462230533,-0.15519563928710575
1790096700641517312,9.399517333984384,-0.6041760784150427,-0.37556202759263013,-0.5658880899805133
1790096700651517184,9.409517333984384,-1.317455635118775,-0.32413927380641594,-0.32615466607475907
1790096700661517312,9.419517333984384,-2.121840933461436,-0.8335496059972509,0.45071393964585754
1790096700671517184,9.429517333984384,-1.9603700593597395,-0.8185796053966703,0.7273392206394013
1790096700681517312,9.439517333984384,-1.308498020148015,-0.23929280840444955,0.08733709869707501
1790096700691517184,9.449517333984383,-1.0510412067243682,0.05261238582757011,-0.3443593874401599
1790096700701517312,9.459517333984383,-1.0249498777826769,-0.22475848483259941,-0.053771596694166146
1790096700711517184,9.469517333984383,-0.28031991003450585,-0.07952099889520947,0.14247051002036737
1790096700721517312,9.479517333984385,1.1214705232339093,0.2701646039230277,-0.07619704829102589
1790096700731517184,9.489517333984384,2.09591424395159,0.1645714200956356,-0.3040171075947746
1790096700741517312,9.499517333984384,2.5587783318982473,-0.31284622518719973,-0.5016088642195272
1790096700751517184,9.509517333984384,2.8717374109520994,-0.6715804523621607,-1.0614712851576413
1790096700761517312,9.519517333984384,2.7989113010599387,-0.9443361086599832,-1.6824894673776678
1790096700771517184,9.529517333984383,2.250181652800445,-0.9899368481019382,-2.154022193158883
1790096700781517312,9.539517333984383,1.4821372368213952,-1.1985506443790204,-2.2089135017997577
1790096700791517184,9.549517333984385,0.7908599747548177,-1.3606013425672812,-2.0554958507265977
1790096700801517312,9.559517333984385,0.4863108527693202,-1.2749921764960879,-1.9134314222253175
1790096700811517184,9.569517333984384,0.13758113214364256,-1.0561179924554087,-1.7274254825373851
1790096700821517312,9.579517333984384,-0.5729496164237166,-0.9899011553892266,-1.131389747867137
1790096700831517184,9.589517333984384,-1.0025732391701114,-0.897742639743481,-0.699114932074731
1790096700841517312,9.599517333984384,-1.1076319909165042,-0.878208207269064,-0.3956543247241955
1790096700851517184,9.609517333984384,-1.1445113461490453,-0.896991122524798,-0.07036731456026862
1790096700861517312,9.619517333984383,-0.7667031659385584,-0.6727453064526336,0.14431777100473892
1790096700871517184,9.629517333984383,-0.11440574638033502,-0.32350812941968354,0.22777044162395124
1790096700881517312,9.639517333984385,0.494926466568528,0.16104033230247577,0.34814819285783294
1790096700891517184,9.649517333984384,0.5825382090392502,0.5201010448087533,0.41186075054963805
1790096700901517312,9.659517333984384,-0.3572179981903879,0.3278051014683042,0.5096192852596034
1790096700911517184,9.669517333984384,-2.210748898469289,-0.3159421860900567,0.6560116660408082
1790096700921517312,9.679517333984384,-3.183920872022837,-0.46129948440782986,0.9438898091849169
1790096700931517184,9.689517333984384,-2.5666094094283998,0.42919281505344925,1.240694835833858
1790096700941517312,9.699517333984383,-1.9644956248359426,0.8635279868544882,1.3335108537547324
1790096700951517184,9.709517333984385,-2.076281351180163,0.9872610562516959,1.455080641918621
1790096700961517312,9.719517333984385,-2.246855655008984,1.092001524838773,1.5336779006492487
1790096700971517184,9.729517333984385,-1.9254395068142276,1.137538925510269,1.3096465789871867
1790096700981517312,9.739517333984384,-1.4723795826337942,0.8495147654442872,1.22461726418485
1790096700991517184,9.749517333984384,-1.4976439544440427,0.7641155789814585,1.2365144916556583
1790096701001517312,9.759517333984384,-1.5209762930402866,0.5000730102786974,1.196402877283356
1790096701011517184,9.769517333984384,-1.3981037708245452,0.2444402493007907,0.7371385894635394
1790096701021517312,9.779517333984383,-2.68950336459862,-0.03574589650057866,0.24569887666146684
1790096701031517184,9.789517333984383,-4.299361204268466,0.0815252160903858,0.3475390342568725
1790096701041517312,9.799517333984385,-3.641234095165758,0.35003207740884335,0.789468141717668
1790096701051517184,9.809517333984385,-1.7901130451377334,0.5035325179935604,0.9419042393552095
1790096701061517312,9.819517333984384,-1.0587222949232855,0.05867177628940495,0.7125319770379104
1790096701071517184,9.829517333984384,-1.2482727393582174,1.0424465422031437,0.7004518488255345
1790096701081517312,9.839517333984384,-2.7145460801385166,0.5291553097304221,0.5929949735581326
1790096701091517184,9.849517333984384,-2.7030232367092113,0.5451940048786624,-0.027583751371732818
1790096701101517312,9.859517333984384,-3.3801718711489417,0.4436665931963578,-0.43841736010953736
1790096701111517184,9.869517333984385,-3.959374906348844,0.09128939684883601,0.377211041581507
1790096701121517312,9.879517333984385,-3.0206590999230003,0.01580831017201026,1.5843510940825645
1790096701131517184,9.889517333984385,-0.38068914802254417,0.46080279818403075,1.7104115266732849
1790096701141517312,9.899517333984384,1.127526570534755,0.6734316752114562,1.027685425118399
1790096701151517184,9.909517333984384,0.2815303023919601,0.5364301766084966,0.45942438323666435
1790096701161517312,9.919517333984384,-1.7917272573251473,0.5242164581030639,0.22768016519044765
1790096701171517184,9.929517333984384,-2.8162530059241515,0.6425145720424142,0.12921842307309192
1790096701181517312,9.939517333984384,-2.1483505854505918,0.5636844365429137,-0.01563605950615598
1790096701191517184,9.949517333984383,-1.2056746039463402,0.24974324744935314,0.043854295224154696
1790096701201517312,9.959517333984385,-0.8798841710103116,0.15946061885852617,0.2840995771595669
1790096701211517184,9.969517333984385,-1.1241834715794208,0.22019806586771845,0.6315453267235898
1790096701221517312,9.979517333984385,-2.053622985906188,0.611494398219455,0.668206457386491
1790096701231517184,9.989517333984384,-2.0979377018943635,0.3517525551732613,0.6154750141712475
1790096701241517312,9.999517333984384,-2.1504849791419356,0.49174820762847504,0.47141236367691797
1790096701251517184,10.009517333984384,-1.9081234246857273,0.697947956843105,0.859527344433323
1790096701261517312,10.019517333984384,-0.5888032939872127,0.8433606793492884,1.1229190023906055
1790096701271517184,10.029517333984385,0.6625453265805425,1.0747272304428985,1.0006472381441283
1790096701281517312,10.039517333984385,1.1476256679971544,1.2818851127143793,0.650842599457758
1790096701291517184,10.049517333984385,1.0593069282040737,1.336243073219538,0.16502062435138534
1790096701301517312,10.059517333984385,0.7862453567149214,1.1703303656838493,-0.47516559404166014
1790096701311517184,10.069517333984384,0.4837554359170204,0.8085900542645821,-1.0408225181965325
1790096701321517312,10.079517333984384,0.03138207088747563,0.22484936769136343,-1.0557909700806818
1790096701331517184,10.089517333984384,-0.1816716887875354,-0.44766642100174847,-0.7612618555685097
1790096701341517312,10.099517333984384,0.07872966612264432,-0.8692776222423476,-0.5435701490651954
1790096701351517184,10.109517333984384,0.18070566567124624,-1.0208422491755738,-0.508398152447466
1790096701361517312,10.119517333984385,-0.268105219372598,-1.1104652860133037,-0.4274831036659279
1790096701371517184,10.129517333984385,-0.5707440317250077,-1.2349222859273152,-0.31772997933194236
1790096701381517312,10.139517333984385,-0.541805914619123,-1.3558816132950122,-0.22871760789833548
1790096701391517184,10.149517333984384,-0.7776611791133076,-1.2636874738734867,-0.19621331227993746
1790096701401517312,10.159517333984384,-1.4450506923922461,-1.1609305062400512,0.12374562298350394
1790096701411517184,10.169517333984384,-1.4404866543242536,-1.0988640272908259,0.38242820459234955
1790096701421517312,10.179517333984384,0.3517460501347921,-0.8159100573947677,0.4149947843983866
1790096701431517184,10.189517333984385,1.946427885654951,0.013610880255334398,0.1184599094817705
1790096701441517312,10.199517333984385,0.7661829235797535,0.7652018248555652,-0.12772118872393723
1790096701451517184,10.209517333984385,-1.3960171980153127,0.6658014383417417,-0.536157408734115
1790096701461517312,10.219517333984385,-1.1768051317876334,0.49629236330976173,-0.8352354957411635
1790096701471517184,10.229517333984385,0.3708340367016407,0.557785715064504,-0.41611039141659
1790096701481517312,10.239517333984384,1.4569960422781454,0.8579934216094129,0.1219758554794526
1790096701491517184,10.249517333984384,1.4586265883087046,1.0989672440009424,0.14490765910201844
1790096701501517312,10.259517333984384,1.2850527235881477,0.960362445557726,-0.3957849818580961
1790096701511517184,10.269517333984384,1.7253270095514677,0.2145311810188404,-1.140827129401046
1790096701521517312,10.279517333984385,1.9832272365835537,-1.1459148572076292,-1.4444330380097876
1790096701531517184,10.289517333984385,1.7907533627965746,-2.824879007354446,-1.3674622275690897
1790096701541517312,10.299517333984385,1.9190491975699628,-4.098911039276505,-1.3590980651680928
1790096701551517184,10.309517333984385,1.8902764568492418,-4.430537610705132,-1.2654395702572052
1790096701561517312,10.319517333984384,1.4506217532683399,-4.0686900244814925,-1.1486572742461152
1790096701571517184,10.329517333984384,1.3192557127604345,-2.9294678237089125,-1.200254999203112
1790096701581517312,10.339517333984384,1.1717492946840506,-1.6885522264660362,-1.0949215511061337
1790096701591517184,10.349517333984386,1.0698966501396276,-0.7828561167213747,-0.8192184458441623
1790096701601517312,10.359517333984385,0.5294617151557213,-0.4357761279534645,-0.63970293263603
1790096701611517184,10.369517333984385,-0.20825294318334364,-0.3178242224725392,-0.4821549857597626
1790096701621517312,10.379517333984385,-0.6148400032767445,0.030452359636819165,-0.398792579243141
1790096701631517184,10.389517333984385,-0.37782462646234216,0.588637438974194,-0.17185503689439652
1790096701641517312,10.399517333984384,-0.2918196300141904,0.9568839714909967,0.3344721118381721
1790096701651517184,10.409517333984384,-0.47465482285482785,0.9660215468579356,0.9086345387262658
1790096701661517312,10.419517333984384,-0.3448270875160191,0.976256918703571,0.8678100496270367
1790096701671517184,10.429517333984384,0.024071342347800118,1.0325510767580295,0.6791899503258693
1790096701681517312,10.439517333984385,0.16590113280447671,0.7614221665250017,0.8203667026764628
1790096701691517184,10.449517333984385,0.4082586118608875,0.30947074480531955,0.5964095976848778
1790096701701517312,10.459517333984385,0.9228120013185663,-0.1020341837604509,-0.11590545601767055
1790096701711517184,10.469517333984385,1.347998054161902,-0.39514924073854785,-0.7638501608571675
1790096701721517312,10.479517333984385,1.7333702976362215,-0.41259627766098517,-0.9670884459532613
1790096701731517184,10.489517333984384,1.6200224205297895,-0.3677042277171887,-0.7039128088386034
1790096701741517312,10.499517333984384,1.175172651470955,-0.1800135812186,-0.46293796721100605
1790096701751517184,10.509517333984386,0.37235541701674457,0.11300924014569162,-0.4659619803083468
1790096701761517312,10.519517333984385,-0.12799414773549964,0.1280644412684852,-0.43854037134335755
1790096701771517184,10.529517333984385,-0.6207201038120397,0.14081514594874894,-0.42673344247122114
1790096701781517312,10.539517333984385,-1.0692991121575486,-0.1527690381705141,0.027300129817727357
1790096701791517184,10.549517333984385,-0.8271997759374929,-0.41418776972445365,-0.0017696514892639736
1790096701801517312,10.559517333984385,-0.158921744408684,-0.5071113205921994,-0.3698832131027295
1790096701811517184,10.569517333984384,0.36406456769957996,-0.9426681015701261,-0.6391989657670963
1790096701821517312,10.579517333984384,1.3692562874177343,-1.5507566303336124,-1.0969765746515883
1790096701831517184,10.589517333984384,3.0794717457816008,-1.912244223259129,-1.9760248573733095
1790096701841517312,10.599517333984386,4.434203206132227,-2.232882018412078,-2.708074049072063
1790096701851517184,10.609517333984385,4.481812475382365,-2.618257258316045,-2.9884366083134495
1790096701861517312,10.619517333984385,3.6750254269403775,-2.5391774728885426,-2.769225591403463
1790096701871517184,10.629517333984385,2.827314435493261,-1.835374214030302,-2.4268844256093014
1790096701881517312,10.639517333984385,1.4322374273287033,-1.2790835155228524,-1.8166555364801775
1790096701891517184,10.649517333984384,-0.32141047872846307,-0.8345656544267024,-0.6782446110061207
1790096701901517312,10.659517333984384,-1.8091865482877076,-0.3569445856796932,-0.32717654321551726
1790096701911517184,10.669517333984386,-2.1015154819294937,0.26540504324438347,0.06432658064372979
1790096701921517312,10.679517333984386,-1.9817742592473604,0.47334830616220325,0.39110231571849435
1790096701931517184,10.689517333984385,-1.572896470408179,-0.041005802896103644,0.6584919634958118
1790096701941517312,10.699517333984385,-1.1482666756964683,-0.5457338214419217,0.9203847918636867
1790096701951517184,10.709517333984385,-0.5358393640050179,-0.6215393244671036,0.6405766040722802
1790096701961517312,10.719517333984385,-0.10862857939927419,-0.540379670694528,0.13042336259401416
1790096701971517184,10.729517333984385,-0.17944922683500455,-0.5453851272455418,-0.17500443737583146
1790096701981517312,10.739517333984384,-0.3930369283029529,-0.47148565241952367,-0.36910645971032513
1790096701991517184,10.749517333984384,-0.10762794131964626,-0.21235044141438114,-0.6339775403221497
1790096702001517312,10.759517333984386,0.585214614597267,0.003089504495997486,-0.8928797481846086
1790096702011517184,10.769517333984385,1.0362121423010267,-0.04370070932742222,-0.8079951623183712
1790096702021517312,10.779517333984385,1.1147135878785994,-0.19557662868438935,-0.6306443574058912
1790096702031517184,10.789517333984385,0.866123116420517,-0.3064641177485413,-0.8264590058049714
1790096702041517312,10.799517333984385,0.383882020414597,-0.3962050274186381,-1.1915441121643788
1790096702051517184,10.809517333984385,0.20463866345684678,-0.28764269559370503,-1.7129760212446432
1790096702061517312,10.819517333984384,0.36719120982043774,-0.1833957645627275,-1.8780048471571478
1790096702071517184,10.829517333984386,1.1137215542051653,-0.011575769183759637,-1.8631098256026384
1790096702081517312,10.839517333984386,1.9506281633140317,0.006754493441475211,-1.7541892780167465
1790096702091517184,10.849517333984386,2.1452657569704643,-0.24004679060456158,-1.7891685811570095
1790096702101517312,10.859517333984385,1.6650896421638208,-0.7659957282813005,-1.865353468445872
1790096702111517184,10.869517333984385,0.5444416660042335,-0.9846481489516924,-2.0896633871819192
1790096702121517312,10.879517333984385,-0.6961748068642176,-1.073441414520806,-2.159526060410791
1790096702131517184,10.889517333984385,-1.7203128508915935,-1.0917445906020984,-1.6964551161921657
1790096702141517312,10.899517333984384,-2.0679783516041397,-0.8712237660829958,-1.0096495445584242
1790096702151517184,10.909517333984384,-1.6638440463363735,-0.4667232205782996,-0.6385108478572604
1790096702161517312,10.919517333984386,-0.8864248960437464,-0.19063968536163883,-0.6829366378297093
1790096702171517184,10.929517333984386,-0.2834630259392377,-0.3446978062025533,-0.8130626517418305
1790096702181517312,10.939517333984385,-0.034794684130584286,-0.9300111226368535,-0.6526802380876615
1790096702191517184,10.949517333984385,-0.04389908987614826,-1.121179135833523,-0.47909109939727906
1790096702201517312,10.959517333984385,0.0013275564659397734,-0.9134617466684356,-0.4743920681946831
1790096702211517184,10.969517333984385,-0.34107369985617864,-0.5518687444702599,-0.5701776774121112
1790096702221517312,10.979517333984385,-0.726923102589871,-0.3544915248290813,-0.45857542696857534
1790096702231517184,10.989517333984386,-0.7707447249850684,-0.23466783919429474,-0.43287339869077207
1790096702241517312,10.999517333984386,-1.1352549142670791,-0.37675292991691967,-0.6154657330014421
1790096702251517184,11.009517333984386,-2.1338264948231727,-0.5489071512515985,-0.5706057789345472
1790096702261517312,11.019517333984385,-3.1201147946199237,-0.40005320204503214,-0.13692327883407918
1790096702271517184,11.029517333984385,-3.39759030911418,-0.17048211844751274,0.338908283323841
1790096702281517312,11.039517333984385,-2.8793996485037168,-0.08911868499303521,0.8969833863587784
1790096702291517184,11.049517333984385,-1.5329416394061945,0.3199020837356598,1.375281315985279
1790096702301517312,11.059517333984385,-0.11556000105503184,0.49594675971274554,1.420799216189885
1790096702311517184,11.069517333984384,-0.3565176547061628,0.2699306436962033,0.6558544920879081
1790096702321517312,11.079517333984386,-2.48917740385138,-0.30244045465565533,-0.2358449573075
1790096702331517184,11.089517333984386,-3.960597091623663,-0.3819170144225407,-0.887182507026124
1790096702341517312,11.099517333984386,-4.118773031234507,-0.15099461648114146,-1.2900426763942991
1790096702351517184,11.109517333984385,-4.679689578192934,-0.2897451342478594,-1.3172233722719482
1790096702361517312,11.119517333984385,-4.656922161793352,-0.12793155793290853,-0.03284618867255351
1790096702371517184,11.129517333984385,-3.798537711162552,-0.01732233698129472,1.0906533236279532
1790096702381517312,11.139517333984385,-2.8685048302442464,0.08234227233963516,1.4575539034277705
1790096702391517184,11.149517333984386,-2.942931000206578,0.4012359804133266,1.3192288850167595
1790096702401517312,11.159517333984386,-3.951745043562664,0.7040802966738582,1.9989767200806734
1790096702411517184,11.169517333984386,-2.1634831128508147,1.4288319476591536,1.9949565008490995
1790096702421517312,11.179517333984386,0.5078045265233647,1.4888227925056583,1.317808588282094
1790096702431517184,11.189517333984385,0.33763832793568305,1.4627361736541216,0.41495251422072965
1790096702441517312,11.199517333984385,-2.07883330417954,1.421781424116137,-0.0668098084204436
1790096702451517184,11.209517333984385,-2.766991505720929,1.199805334069171,-0.047289089790143096
1790096702461517312,11.219517333984385,-1.293503214625375,0.7374885167051861,-0.1881750208205316
1790096702471517184,11.229517333984385,-0.623100221850627,0.15388089187418152,-0.008499383827250045
1790096702481517312,11.239517333984386,-1.4794571674314743,-0.03846098129071554,0.3087589938486279
1790096702491517184,11.249517333984386,-2.25156201664229,0.30620233963108423,0.48779241175465304
1790096702501517312,11.259517333984386,-2.0164427075002793,0.5970261131722568,0.6093302197567373
1790096702511517184,11.269517333984385,-1.2062095180680363,0.6440837286754524,0.787975433298449
1790096702521517312,11.279517333984385,-0.5927903634463302,0.7264164806064868,0.9346814240952138
1790096702531517184,11.289517333984385,0.16869115014443486,0.7824106706343884,0.9886108851161416
1790096702541517312,11.299517333984385,-0.020606632243452327,0.8034851719855373,0.597657959148691
1790096702551517184,11.309517333984386,-1.4768278190436332,0.7614209880398273,0.010944989384635062
1790096702561517312,11.319517333984386,-2.600836056294855,0.692559464787501,-0.23325413222990088
1790096702571517184,11.329517333984386,-1.785056243130393,0.5921977814668647,-0.02161783666297235
1790096702581517312,11.339517333984386,-0.5665533848295254,-0.13856998484682134,0.18839248290674082
1790096702591517184,11.349517333984386,-0.4579790502954361,0.26109379954517503,0.18595797951748552
1790096702601517312,11.359517333984385,-0.8435099179243905,0.31287881499340736,0.26088298046362995
1790096702611517184,11.369517333984385,-0.21571071291874927,0.2675333007354057,0.33533834000036095
1790096702621517312,11.379517333984385,0.35264865486711294,0.1384596215614885,0.24104829843413644
1790096702631517184,11.389517333984385,-0.4851365903920359,-0.00020432944635098704,-0.013703167546818967
1790096702641517312,11.399517333984386,-1.525508489317589,-0.23338330162263043,-0.09651385837157136
1790096702651517184,11.409517333984386,-1.4507252178700891,-0.5810262248336511,0.0009453347360730349
1790096702661517312,11.419517333984386,-0.9300745707378764,-0.9479633051467352,0.13132347612677153
1790096702671517184,11.429517333984386,-0.5126104471932812,-1.1581701353899925,0.1402871066934536
1790096702681517312,11.439517333984385,0.3596231100454531,-1.2265062208776387,-0.11486590392142824
1790096702691517184,11.449517333984385,1.8146275571424308,-1.2013040296624777,-0.7525190488839671
1790096702701517312,11.459517333984385,2.2494993563052943,-1.3500380869266708,-1.3642172990027033
1790096702711517184,11.469517333984387,1.0034497998824856,-1.8350336493009505,-1.7422558903790801
1790096702721517312,11.479517333984386,0.5179302399943355,-2.2916919083408787,-1.6532494939439193
1790096702731517184,11.489517333984386,0.9044169986151627,-2.5028573820655775,-1.2059684908927808
1790096702741517312,11.499517333984386,0.5704740274780714,-2.5309548299437705,-0.5602628610488407
1790096702751517184,11.509517333984386,-0.09241908104682353,-2.18726698081198,-0.4140278053387042
1790096702761517312,11.519517333984385,-0.47984840162902337,-1.959856760690119,-0.36929298776716485
1790096702771517184,11.529517333984385,-0.3733766917146141,-1.5711660069952573,-0.22078304019037812
1790096702781517312,11.539517333984385,0.018841341080885338,-1.124798772693321,0.09475770585548611
1790096702791517184,11.549517333984385,0.3043011845285123,-0.7612914321519031,0.4990476984774148
1790096702801517312,11.559517333984386,0.21864388555178926,-0.5484528180304693,0.8121634189316509
1790096702811517184,11.569517333984386,0.3452772658471116,-0.30704345814233175,0.5711403652776258
1790096702821517312,11.579517333984386,0.9439127523962988,0.08912889667672588,0.1900624862936291
1790096702831517184,11.589517333984386,1.4382622358503914,0.3279740269879784,0.0015229791151799427
1790096702841517312,11.599517333984386,1.5805240524028554,0.289290923758447,-0.13261768822854375
1790096702851517184,11.609517333984385,2.1027431779629895,0.1753632573998813,-0.9283489887541462
1790096702861517312,11.619517333984385,2.6305139312672647,-0.07505562764431711,-1.6249460867533485
1790096702871517184,11.629517333984387,2.3208649187001367,-0.47126690220675216,-1.6243518023068468
1790096702881517312,11.639517333984386,1.7350259318503014,-0.852912623774787,-1.7648747080076657
1790096702891517184,11.649517333984386,1.457072268060897,-0.8579497663998472,-1.8826177317809065
1790096702901517312,11.659517333984386,1.4578147679387978,-0.5892675223186812,-1.7062132890360955
1790096702911517184,11.669517333984386,1.950171012293552,-0.3845766460237137,-0.6204046947217896
1790096702921517312,11.679517333984386,2.2578797993478834,-0.40225344140979374,0.4323381414296787
1790096702931517184,11.689517333984385,1.8005151248469817,-0.7377665208493605,0.6458432695522087
1790096702941517312,11.699517333984385,0.9801995930106937,-0.8084322038745141,0.4095805968382131
1790096702951517184,11.709517333984385,0.34840127267667226,-0.5605969776048979,0.523439048887172
1790096702961517312,11.719517333984387,0.6577402330663049,-0.03909678407111952,0.43424434210302937
1790096702971517184,11.729517333984386,1.501213052031829,0.39448423542998967,0.18599150451822938
1790096702981517312,11.739517333984386,1.9661773621619483,0.44632086320336034,0.1652941647111184
1790096702991517184,11.749517333984386,1.5981535419746207,0.15175121669354416,0.19596183626070854
1790096703001517312,11.759517333984386,1.0972551871934524,-0.32734189644899103,0.10690638626884912
1790096703011517184,11.769517333984385,1.1146698909980126,-0.49958556554875216,-0.006804892844659641
1790096703021517312,11.779517333984385,1.2993982972922429,-0.2951557236413581,0.07079138267106427
1790096703031517184,11.789517333984387,0.5734265334063654,-0.08789445993939493,0.4298747168419287
1790096703041517312,11.799517333984387,-0.2561211634914356,-0.12910714353260516,0.8542593430255072
1790096703051517184,11.809517333984386,-0.08948135504391855,0.08127426864031992,0.9086143112237288
1790096703061517312,11.819517333984386,0.3466592017683992,0.39990652290794676,0.6474413297654203
1790096703071517184,11.829517333984386,0.2479466897328836,0.31426138510897333,0.4552003967352878
1790096703081517312,11.839517333984386,-0.1335793641900091,-0.034538444661768974,0.3549771797961812
1790096703091517184,11.849517333984386,-0.2807291555354895,-0.46114230043001114,0.30386874646668277
1790096703101517312,11.859517333984385,-0.1568307489647999,-1.1126630774641493,0.33711018834401824
1790096703111517184,11.869517333984385,0.021386499409558418,-1.689949846153008,0.3107837236930172
1790096703121517312,11.879517333984387,0.5125043609863676,-1.7300203386300055,0.05915139886007029
1790096703131517184,11.889517333984386,0.9623553688248471,-1.4947892074929183,-0.27783630056637
1790096703141517312,11.899517333984386,1.0830612395655268,-1.2252729239161257,-0.36771118440196204
1790096703151517184,11.909517333984386,0.9282621381441769,-1.0152165706338867,-0.17461248442631455
1790096703161517312,11.919517333984386,0.8400031159490088,-0.7244835947982032,-0.00991342491830599
1790096703171517184,11.929517333984386,1.0400722816740136,-0.38994565282974186,0.05370531347066807
1790096703181517312,11.939517333984385,1.2594136532986147,-0.3252700328753131,-0.051975547575881506
1790096703191517184,11.949517333984387,1.4629715444512348,-0.3878410720727196,-0.4144730227321265
1790096703201517312,11.959517333984387,1.2845143681266307,-0.522655857193048,-0.493548421111344
1790096703211517184,11.969517333984387,0.8626676851958304,-0.8752345142035555,-0.1694243230783215
1790096703221517312,11.979517333984386,0.616124810890748,-1.19122176177738,0.23165955577442884
1790096703231517184,11.989517333984386,0.4937583326526973,-0.9981058867843119,-0.08081162656423695
1790096703241517312,11.999517333984386,0.4785331295676447,-0.5537077333907813,-0.42306889135392883
1790096703251517184,12.009517333984386,0.7670254609523071,-0.0773248801795873,-0.8888447046333006
1790096703261517312,12.019517333984385,1.2152279173584115,-0.03032259192714256,-1.180512969403282
1790096703271517184,12.029517333984385,1.7776271424376364,-0.4030263417133651,-1.2973526061368383
1790096703281517312,12.039517333984387,2.221629531809828,-0.961303081334647,-1.3798219703860328
1790096703291517184,12.049517333984387,2.3306173937887484,-1.4399285801338053,-1.6158265603514321
1790096703301517312,12.059517333984386,1.913453004098246,-1.7494650535606187,-1.9716101557407595
1790096703311517184,12.069517333984386,0.969975391958467,-1.730078364965964,-2.2277957778108397
1790096703321517312,12.079517333984386,-0.21909965796212244,-1.4255766553959517,-1.9607003323938605
1790096703331517184,12.089517333984386,-1.000770503269245,-0.886280471627767,-1.317293628389558
1790096703341517312,12.099517333984386,-1.2275050251155337,-0.46885941694804223,-0.6522386221215101
1790096703351517184,12.109517333984387,-0.9691548172957354,-0.4185356241324168,-0.05514716711088552
1790096703361517312,12.119517333984387,-0.22139960766151934,-0.30233844018977535,0.04447829098117653
1790096703371517184,12.129517333984387,0.27186546080202273,-0.19671229796940665,0.08906351716908506
1790096703381517312,12.139517333984386,0.11912892703939956,-0.21318369156278266,-0.12541202520743516
1790096703391517184,12.149517333984386,-0.353158053572378,-0.2307876703415097,-0.3799452631685137
1790096703401517312,12.159517333984386,0.022866760725262725,-0.18728263305883266,-0.6856367926933011
1790096703411517184,12.169517333984386,0.9166196060048662,-0.11230868691497015,-0.9568213384972664
1790096703421517312,12.179517333984386,1.296714325761222,-0.26395089008846895,-1.0505968377057664
1790096703431517184,12.189517333984385,0.9826701371550954,-0.6278203422122371,-0.8264933387608995
1790096703441517312,12.199517333984387,-0.01822846209348633,-1.0035312148922848,-0.4598888858351537
1790096703451517184,12.209517333984387,-1.3354167933308625,-1.2502782581015857,-0.12420850725108773
1790096703461517312,12.219517333984387,-2.602017485844862,-1.259052659928468,0.15661951144945946
1790096703471517184,12.229517333984386,-3.473968939348468,-0.7912955801887669,0.5777839525787061
1790096703481517312,12.239517333984386,-3.491005860841657,0.05958070168795815,0.6924941449730461
1790096703491517184,12.249517333984386,-2.780007812919528,0.6434354816937706,0.775123552223046
1790096703501517312,12.259517333984386,-1.530369782316551,0.7325639524443355,0.9061893405707806
1790096703511517184,12.269517333984387,-0.7758130340514342,0.77324940967608,1.0661035951706332
1790096703521517312,12.279517333984387,-1.1108714462598435,0.6941015169490197,1.4980457451027143
1790096703531517184,12.289517333984387,-0.8729486292053787,1.2311209929859488,2.101642914085951
1790096703541517312,12.299517333984387,-0.1502509095873058,1.3372477544290928,2.369288345589972
1790096703551517184,12.309517333984386,-1.4814662466535642,1.3145638739703844,1.7552628082776016
1790096703561517312,12.319517333984386,-4.029541405329595,0.41628656057800983,0.8670639689482048
1790096703571517184,12.329517333984386,-3.5138763607037324,0.23985160446463535,0.7440578829467824
1790096703581517312,12.339517333984386,-2.0314992883116445,-0.06604902307830363,0.7919063231063995
1790096703591517184,12.349517333984386,-1.5810209274294087,-0.31555895594611283,0.7921112949197081
1790096703601517312,12.359517333984387,-1.856179507130947,-0.029079850149734326,0.9133647791322306
1790096703611517184,12.369517333984387,-2.025212612537134,0.3662852971245303,1.258558546283343
1790096703621517312,12.379517333984387,-1.7181640471113502,0.9567090385237205,1.1838382204032798
1790096703631517184,12.389517333984386,-1.7249339159924293,1.3465861305624338,1.1482061177085074
1790096703641517312,12.399517333984386,-1.7312637177191403,1.1530959044484894,0.8273191021494579
1790096703651517184,12.409517333984386,-2.0477191061195024,0.7152989414010267,0.58813821357055
1790096703661517312,12.419517333984386,-2.9733099484066456,0.5022683329535294,0.8124401208614496
1790096703671517184,12.429517333984387,-3.3201276668518855,0.33657566145003304,1.7345296400207366
1790096703681517312,12.439517333984387,-2.43140035064768,0.36923332551294785,2.502732050009506
1790096703691517184,12.449517333984387,-0.8739404063288008,0.6234674097130195,2.8241048237108197
1790096703701517312,12.459517333984387,-0.17133890691033415,0.6859358850561162,2.5868231418224625
1790096703711517184,12.469517333984387,-1.0596007298952976,0.5204260072118062,1.9847022189825951
1790096703721517312,12.479517333984386,-2.2384009742910385,0.08557407786974641,0.8748862797003555
