time,seconds_elapsed,z,y,x
1790097079821381376,0.16638134765625,0.6184828281402588,-0.4052208065986633,0.0628409087657928
1790097079831381504,0.17638134765625002,0.6620318279073671,-0.08193356489972291,0.22949056470545454
1790097079841381376,0.18638134765625003,0.6930062174797058,-0.0326039716601371,0.3218401372432709
1790097079851381504,0.19638134765625004,0.7030670118876607,-0.0295857319061009,0.3434149677950273
1790097079861381376,0.20638134765625005,0.795227156477787,-0.052625140344239665,0.48265631546892135
1790097079871381504,0.21638134765625006,0.9416210651397704,-0.1657686680555343,0.6156576871871948
1790097079881381376,0.22638134765625006,0.9785090039483847,-0.1557083250740279,0.5977726305740017
1790097079891381504,0.23638134765625007,0.964945385607701,-0.12054435225977268,0.4739356894780883
1790097079901381376,0.24638134765625008,0.8609892129898071,-0.0967429354786872,0.3493282794952392
1790097079911381504,0.2563813476562501,0.7114218453579071,-0.1212236944834524,0.22491236813342044
1790097079921381376,0.2663813476562501,0.41156330206696723,0.115391021227632,-0.013669995259393275
1790097079931381504,0.2763813476562501,0.29839888215065,0.2795389890670776,-0.1008661538362503
1790097079941381376,0.2863813476562501,0.3212031390325441,0.5527988777523829,-0.16078324104209307
1790097079951381504,0.2963813476562501,0.4438688588863116,0.756987502388046,-0.3774457001991206
1790097079961381376,0.30638134765625014,0.4737120568752289,0.7841751575469971,-0.4282802939414978
1790097079971381504,0.31638134765625014,0.39266901438683105,0.48347756089814437,-0.3964219989939891
1790097079981381376,0.32638134765625015,0.2641148065929336,0.1675101991639072,-0.1627405841931668
1790097079991381504,0.33638134765625016,0.1243074163794517,-0.1822615563869476,0.1550788432359695
1790097080001381376,0.34638134765625017,0.1015612080608278,-0.253373384037238,0.2077542746403743
1790097080011381504,0.3563813476562502,-0.11859476452604995,-0.932324970119924,0.7024334805472345
1790097080021381376,0.3663813476562502,-0.1756185889244079,-1.0612707138061523,0.7543200254440308
1790097080031381504,0.3763813476562502,-0.18797724444760358,-1.053889876668154,0.7201620727264086
1790097080041381376,0.3863813476562502,-0.20810977007535747,-0.9052738804959277,0.5003151542770985
1790097080051381504,0.3963813476562502,-0.1860029846429824,-0.6556681990623474,0.245484247803688
1790097080061381376,0.4063813476562502,-0.1409375817938401,-0.5661042362964089,0.15421971475630436
1790097080071381504,0.41638134765625023,-0.0035760860504602116,-0.18332387063341687,-0.08204802162419975
1790097080081381376,0.42638134765625024,0.0968737236228105,0.16068429242158444,-0.2541264788476246
1790097080091381504,0.43638134765625025,0.10382709765975383,0.27101808952291084,-0.35648079667278754
1790097080101381376,0.44638134765625026,0.05713428379961617,0.2713808186490235,-0.4223351470023123
1790097080111381504,0.45638134765625027,0.0400104969739913,0.2612135708332062,-0.4349996149539947
1790097080121381376,0.4663813476562503,-0.03857463596997124,0.11671831830882015,-0.36959649603179195
1790097080131381504,0.4763813476562503,-0.15807832157200946,-0.2470473648320048,0.09933688742857566
1790097080141381376,0.4863813476562503,-0.14979739609414267,-0.36993124738380284,0.4760731415888593
1790097080151381504,0.4963813476562503,-0.14786758099723937,-0.3751240161264031,0.49635020246878825
1790097080161381376,0.5063813476562503,-0.06984376644450069,-0.4715336768171144,0.8295011342922867
1790097080171381504,0.5163813476562503,0.08366989673010163,-0.6604223829865223,1.1172918633527815
1790097080181381376,0.5263813476562503,0.1285833418369293,-0.5695387125015259,1.1019684076309204
1790097080191381504,0.5363813476562503,0.13235086594363207,-0.4923045200111706,1.0776365125415488
1790097080201381376,0.5463813476562503,0.10925199456610227,-0.11089195172809643,0.8643035289691827
1790097080211381504,0.5563813476562504,0.00578864955985554,0.199985950036902,0.4520674732632674
1790097080221381376,0.5663813476562504,-0.07841815966222881,0.09941616841938689,0.1726543318903302
1790097080231381504,0.5763813476562504,-0.16225827452514072,0.007974054525897618,-0.03993095630864171
1790097080241381376,0.5863813476562504,-0.25501638280276134,0.02279474352675024,-0.13940408441939742
1790097080251381504,0.5963813476562504,-0.2959555089473724,0.0516929477453231,-0.1570640951395034
1790097080261381376,0.6063813476562504,-0.2520858098645055,0.18037736713269426,-0.10442047458580307
1790097080271381504,0.6163813476562504,-0.08346764277062801,0.22436193638435606,-0.03322637860942245
1790097080281381376,0.6263813476562504,-0.0326803289353847,0.2190650999546051,-0.0171800795942544
1790097080291381504,0.6363813476562504,0.09918568764174629,0.03582959132452718,0.03683732461163515
1790097080301381376,0.6463813476562504,0.14039384406641486,-0.2513355139896998,0.09557540827237926
1790097080311381504,0.6563813476562504,0.10879611933077558,-0.37776803462914393,0.13030119142551333
1790097080321381376,0.6663813476562505,0.0247393138706684,-0.336805909872055,0.1019351333379745
1790097080331381504,0.6763813476562505,0.026027210065466887,-0.31233588051734346,0.1067477985880763
1790097080341381376,0.6863813476562505,0.04306753225351646,-0.0845700408360554,0.15213244379169064
1790097080351381504,0.6963813476562505,0.0754396393895149,0.0681858286261558,0.1850103586912155
1790097080361381376,0.7063813476562505,0.08962484036100075,0.11325526365386604,0.19291097828451484
1790097080371381504,0.7163813476562505,0.13800687052482472,0.2427571063306665,0.21036988315982444
1790097080381381376,0.7263813476562505,0.10684464875124847,0.25189831082032343,0.1712783704724206
1790097080391381504,0.7363813476562505,0.0265718549489974,0.2105132341384887,0.120260551571846
1790097080401381376,0.7463813476562505,-0.029292226132996417,0.15563499143187554,0.07655512307756918
1790097080411381504,0.7563813476562505,-0.12373715575929818,-0.10589570711329636,-0.02427694159697283
1790097080421381376,0.7663813476562505,-0.24958363596276922,-0.22687987369463172,-0.036021373441070884
1790097080431381504,0.7763813476562506,-0.30192187742199367,-0.24211016099101057,0.021601268893488262
1790097080441381376,0.7863813476562506,-0.3032856583595276,-0.2525089979171753,0.0377961732447147
1790097080451381504,0.7963813476562506,-0.19000787982907483,-0.3302587357458838,0.046549456359532865
1790097080461381376,0.8063813476562506,-0.10760953890398367,-0.29726119302603676,0.028854986883890547
1790097080471381504,0.8163813476562506,-0.1105259848201069,0.004855085457246666,-0.0009019530304539732
1790097080481381376,0.8263813476562506,-0.09922623975828487,0.4623727382148242,-0.05317520992603156
1790097080491381504,0.8363813476562506,-0.0077749881127068265,0.7918881945293478,-0.20291935004628955
1790097080501381376,0.8463813476562506,0.22282265751045024,1.2643842119084048,-0.6195831634176755
1790097080511381504,0.8563813476562506,0.2660239934921264,0.969261884689331,-0.7996754050254822
1790097080521381376,0.8663813476562506,0.2503607938935285,0.8352179014687042,-0.7983564075496029
1790097080531381504,0.8763813476562506,0.17666195781524208,0.3040339310373655,-0.7100924348571604
1790097080541381376,0.8863813476562507,0.066390567599968,-0.24419677133178708,-0.33607528725607216
1790097080551381504,0.8963813476562507,-0.012776834215692798,-0.4751325984983599,0.06568857684757891
1790097080561381376,0.9063813476562507,-0.0204633828252553,-0.3655157387256622,0.1709608733654022
1790097080571381504,0.9163813476562507,0.0034165751010501594,-0.19484426313274567,0.2622666049267729
1790097080581381376,0.9263813476562507,0.09215857299587579,0.13062527055701476,0.39037765216957754
1790097080591381504,0.9363813476562507,0.22863979827063063,0.39631996573019757,0.4429523649996571
1790097080601381376,0.9463813476562507,0.3559455849240991,0.5025352802544993,0.4359145416996961
1790097080611381504,0.9563813476562507,0.29927308953858106,0.563921774620348,0.27011746926972713
1790097080621381376,0.9663813476562507,0.314006844877412,0.40696699960352983,0.07110110694509084
1790097080631381504,0.9763813476562507,0.3185568451881408,0.3840702176094055,0.0487914234399795
1790097080641381376,0.9863813476562507,0.44411890064555065,0.19330584505781664,-0.07279338608433873
1790097080651381504,0.9963813476562507,0.6258934061588893,0.14147055673549033,-0.08343734097854465
1790097080661381376,1.0063813476562506,0.6323393013189819,0.19282691259602297,-0.02572407674716073
1790097080671381504,1.0163813476562509,0.6050441861152649,0.171419009566307,0.0261900760233402
1790097080681381376,1.0263813476562507,0.5843182366412887,0.15264549653717763,0.031296471655192816
1790097080691381504,1.036381347656251,0.49000724634192483,0.08981480276070304,0.03871155065172739
1790097080701381376,1.0463813476562507,0.37450551451106945,0.09233997170727057,-0.018790931179395842
1790097080711381504,1.056381347656251,0.28434274902909823,0.1605372936857568,-0.139556655033773
1790097080721381376,1.0663813476562507,0.2696890532970428,0.2184542566537857,-0.2114295065402984
1790097080731381504,1.076381347656251,0.2656512623474775,0.34837890870955235,-0.3069907943168042
1790097080741381376,1.0863813476562507,0.27244986801965265,0.7032281381874835,-0.5003956229965408
1790097080751381504,1.096381347656251,0.3232389075385108,1.214595044591178,-0.7055903761144873
1790097080761381376,1.1063813476562507,0.5245715122383046,2.3354157671752165,-1.0490036324166727
1790097080771381504,1.116381347656251,0.6305550721305228,2.9233554652742564,-1.2896404319097974
1790097080781381376,1.1263813476562508,0.6410841941833496,2.9862794876098637,-1.3256149291992188
1790097080791381504,1.136381347656251,0.6646058406349381,2.9235550242096493,-1.4370627523626673
1790097080801381376,1.1463813476562508,0.8751930600481163,2.9232402138652467,-1.330702436836129
1790097080811381504,1.156381347656251,1.0533599464447483,2.8655879326214286,-1.1379176238308892
1790097080821381376,1.1663813476562508,1.1884033679962158,2.6600871086120605,-0.997589945793152
1790097080831381504,1.176381347656251,1.1915467024559732,2.6173574052006776,-0.9851148341607043
1790097080841381376,1.1863813476562508,1.1656779142041749,2.4691584948609857,-0.9293610790319595
1790097080851381504,1.196381347656251,1.0059652405287827,2.9635673394121924,-1.0267654581277699
1790097080861381376,1.2063813476562508,0.9753702158125815,3.915716170251936,-1.3472758405586847
1790097080871381504,1.216381347656251,0.9810644415125572,4.757101776581091,-1.9274643022059794
1790097080881381376,1.2263813476562508,0.9304245349758986,5.0977712037223535,-2.562265221994707
1790097080891381504,1.236381347656251,0.6938695848690283,5.489143654312366,-2.941967048541292
1790097080901381376,1.2463813476562509,0.5470137000083923,5.712643623352051,-3.054999828338623
1790097080911381504,1.256381347656251,0.28902708582368297,5.584591477805184,-3.069266393271989
1790097080921381376,1.2663813476562509,-0.145028599576426,5.295887037009655,-3.0054545514618387
1790097080931381504,1.276381347656251,-0.9471924310158564,4.136043152141748,-2.7078437789427343
1790097080941381376,1.286381347656251,-1.5112276980581199,2.369173539905955,-2.3241972501344583
1790097080951381504,1.2963813476562511,-1.5843087434768677,2.076117038726806,-2.262731075286865
1790097080961381376,1.306381347656251,-1.9088102999804948,0.5398323043406648,-1.8519335356930662
1790097080971381504,1.3163813476562511,-1.9714367315168373,-0.4902228814927933,-1.5855837295828934
1790097080981381376,1.326381347656251,-1.267279028892517,-1.4357200860977173,-1.5687321424484253
1790097080991381504,1.3363813476562512,-1.120455056565412,-1.4779769942309164,-1.5725736751066328
1790097081001381376,1.346381347656251,-0.12462003625256969,-1.7347856162202966,-1.5932082411940562
1790097081011381504,1.3563813476562512,0.1542389392852783,-1.694108486175537,-1.5785056352615356
1790097081021381376,1.366381347656251,0.19329860194147086,-1.6804376051987011,-1.5656159616397272
1790097081031381504,1.3763813476562512,0.1961804432494575,-1.7250658620956028,-1.5279577985357256
1790097081041381376,1.386381347656251,0.0656660795211792,-1.8449877500534055,-1.511312484741211
1790097081051381504,1.3963813476562512,-0.041805379525224215,-1.8707809427707562,-1.4938099910737026
1790097081061381376,1.406381347656251,-0.26210187069495927,-1.8670313851787894,-1.437585516662081
1790097081071381504,1.4163813476562512,-0.5873284146282046,-1.5185094894179163,-1.2659030519964016
1790097081081381376,1.426381347656251,-0.8231336407565243,-0.9914148651770245,-1.0941452751843814
1790097081091381504,1.4363813476562513,-0.9028953443902996,-0.26121562459897396,-0.99328316836685
1790097081101381376,1.446381347656251,-0.9075374365316083,0.5418978940926499,-0.9192638905844056
1790097081111381504,1.4563813476562513,-0.9056574106216432,0.6864396333694458,-0.9065737128257751
1790097081121381376,1.466381347656251,-0.8925963707545171,1.2009315984420483,-0.8662547735333503
1790097081131381504,1.4763813476562513,-1.047732772233981,1.423223169275179,-0.8456546164936148
1790097081141381376,1.486381347656251,-1.478021264076233,1.0627214908599854,-1.0409600734710691
1790097081151381504,1.4963813476562513,-1.5210879731844562,1.0440087995769545,-1.073844882359121
1790097081161381376,1.506381347656251,-1.8618963015108845,0.8836334580816735,-1.3535179804125335
1790097081171381504,1.5163813476562513,-1.868963599205017,0.8220477104187012,-1.4514493942260742
1790097081181381376,1.526381347656251,-1.863365858324664,0.8280065845044371,-1.4196687206890213
1790097081191381504,1.5363813476562513,-1.543758710786262,0.7546380999121542,-0.7183334015526224
1790097081201381376,1.5463813476562511,-0.8835311115706416,0.4405025414277724,0.7634793649019054
1790097081211381504,1.5563813476562514,-0.7333984971046448,0.2227301746606826,1.2559019327163696
1790097081221381376,1.5663813476562511,-0.7136224629529655,-0.07391032957414725,1.2944652298655073
1790097081231381504,1.5763813476562514,-0.638050613363472,-0.5952044382659218,1.2033735986911123
1790097081241381376,1.5863813476562512,-0.49954814341010506,-0.6191880054816964,0.8791906297584695
1790097081251381504,1.5963813476562514,-0.4495500547099546,0.6506571675213491,0.019775576937602568
1790097081261381376,1.6063813476562512,-0.5168972178747564,1.5410845345374438,-0.5867733049927434
1790097081271381504,1.6163813476562514,-0.6618627147471486,2.2901145944953187,-0.8620010653147916
1790097081281381376,1.6263813476562512,-0.989922095814985,2.6327622389858543,-0.9752883857202332
1790097081291381504,1.6363813476562514,-1.0217183828353882,2.656421899795532,-0.983540415763855
1790097081301381376,1.6463813476562512,-1.222921884545308,2.977191550129092,-0.8325051430320706
1790097081311381504,1.6563813476562514,-1.1585413541035292,3.4539713895193107,-0.4038453852213208
1790097081321381376,1.6663813476562512,-1.1205332044122105,3.58462573775748,-0.04409175670757852
1790097081331381504,1.6763813476562515,-1.5065927693265928,2.8529349482039823,-0.10613382634480834
1790097081341381376,1.6863813476562513,-2.155055791926317,1.8051883224655305,-0.3916709136011944
1790097081351381504,1.6963813476562515,-2.568870280230875,1.523411877518806,-0.4170000711850154
1790097081361381376,1.7063813476562513,-2.59416089675859,2.354972674603784,-0.10923350921046426
1790097081371381504,1.7163813476562515,-2.5712015616772117,3.462787414489584,-0.03380088249717339
1790097081381381376,1.7263813476562513,-2.82437905577044,3.391555535424538,-0.9627464229300271
1790097081391381504,1.7363813476562515,-3.0708561818783116,2.9521163202106733,-1.8074591427142779
1790097081401381376,1.7463813476562513,-3.29063160832744,2.6582331968910964,-2.02038230325919
1790097081411381504,1.7563813476562515,-3.4921519588457905,2.15813366256364,-2.0407996017657153
1790097081421381376,1.7663813476562513,-3.5452048778533936,1.985711693763733,-2.042825937271118
1790097081431381504,1.7763813476562516,-3.4524898064011253,1.712578337505286,-2.1676153748135425
1790097081441381376,1.7863813476562513,-3.1661555849936587,1.1450780327872683,-2.36344958605352
1790097081451381504,1.7963813476562516,-3.1303632259368896,1.0767710208892822,-2.386121988296509
1790097081461381376,1.8063813476562514,-3.054871791249914,0.6662711974623717,-2.294901247497597
1790097081471381504,1.8163813476562516,-2.9419987349598156,0.6638176981194729,-2.2450805480373117
1790097081481381376,1.8263813476562514,-2.7840686765980935,0.6739986889057576,-2.42380313043879
1790097081491381504,1.8363813476562516,-2.495721346330362,0.6193929373158278,-2.7432854611324724
1790097081501381376,1.8463813476562514,-2.0311901972648467,0.22916611076830995,-3.1026607886634516
1790097081511381504,1.8563813476562516,-1.2151858551258545,0.10579501683458054,-2.903916625607539
1790097081521381376,1.8663813476562514,-0.2996205687522888,0.5312843918800354,-2.074589967727661
1790097081531381504,1.8763813476562516,-0.1786941777545175,0.487382861104517,-1.858729799163331
1790097081541381376,1.8863813476562514,0.16685499038252866,0.25575512315661153,-1.5258862465822156
1790097081551381504,1.8963813476562517,0.5005782628319233,-0.005522514035954884,-1.4862146421134108
1790097081561381376,1.9063813476562514,0.8023777333361423,-0.17734878760856443,-1.477488081282184
1790097081571381504,1.9163813476562517,1.1224865440645984,-0.3452856374553768,-1.3375815764221684
1790097081581381376,1.9263813476562515,1.419597859957641,-0.5384084057845269,-1.0099056334634582
1790097081591381504,1.9363813476562517,1.7384841293459905,-0.9128029037342751,-0.5988291868123823
1790097081601381376,1.9463813476562515,1.8016940355300903,-0.9952992796897888,-0.5180748105049133
1790097081611381504,1.9563813476562517,2.580330649364427,-1.7059937428624747,0.052387884284072816
1790097081621381376,1.9663813476562515,2.6496262550354004,-1.769242763519287,0.1031568273901939
1790097081631381504,1.9763813476562517,3.422959089279175,-2.3215250968933105,0.4666109383106231
1790097081641381376,1.9863813476562515,3.4326720980420227,-2.3347645001677697,0.4650024142588529
1790097081651381504,1.9963813476562517,3.4571147701291562,-2.4445156001096002,0.42694185996944606
1790097081661381376,2.0063813476562515,3.1050316997859366,-2.4017365621140123,0.31380732872452505
1790097081671381504,2.0163813476562518,3.008355707645009,-2.4117389606983752,0.38326173579979916
1790097081681381376,2.0263813476562516,3.056450605392456,-2.462019920349121,0.4733302593231201
1790097081691381504,2.036381347656252,3.3862278470536045,-2.5898117334053437,0.37208938907558275
1790097081701381376,2.0463813476562516,3.8682665824890137,-2.776606321334839,0.2241045832633972
1790097081711381504,2.056381347656252,3.5849760411309974,-2.8695307016212444,0.1792556155112522
1790097081721381376,2.0663813476562516,3.0321376176590387,-3.1393235114769706,0.06757469429257135
1790097081731381504,2.076381347656252,2.759162054332371,-3.192508284574073,-0.015327173383648675
1790097081741381376,2.0863813476562516,2.4319579472956394,-3.1180392551599905,0.032536108188632874
1790097081751381504,2.096381347656252,1.8936635340576102,-2.8692610084724333,0.14077714683769552
1790097081761381376,2.1063813476562516,1.4386224987579885,-1.7244053088282953,-0.03617127945474363
1790097081771381504,2.116381347656252,1.3722683191299438,-1.5090217590332031,-0.0764322653412818
1790097081781381376,2.1263813476562516,0.7468180080981337,-0.9810063005919254,-0.07993291911128235
1790097081791381504,2.136381347656252,0.06405627963379458,-0.7241350440901734,-0.01405517764028051
1790097081801381376,2.1463813476562517,-0.39319987817179664,-1.045492236079333,0.18998186024944091
1790097081811381504,2.156381347656252,-0.7037732622673506,-1.2587880187045923,0.35227786323564475
1790097081821381376,2.1663813476562517,-0.8899842874974199,-1.0169451590106258,0.32174482697369566
1790097081831381504,2.1763813476562515,-1.0013874908503237,-0.6293985331438318,0.10345008666693062
1790097081841381376,2.1863813476562517,-0.6949596114300207,-0.1760413188237644,-0.16909021130732166
1790097081851381504,2.196381347656252,-0.14532023563347138,-0.05474569207496774,-0.30581929273599506
1790097081861381376,2.2063813476562517,0.02102913556693692,-0.18500019194634362,-0.3647258356203774
1790097081871381504,2.2163813476562515,0.09051234219002069,-0.479580469616712,-0.18591253317871453
1790097081881381376,2.2263813476562517,0.007915937647833465,-0.2780051822385055,0.08146952582693118
1790097081891381504,2.236381347656252,-0.0943759009242057,-0.0808609053492546,0.1856212168931961
1790097081901381376,2.2463813476562517,-0.19971523208513864,-0.09890708668925158,0.06307505650782014
1790097081911381504,2.2563813476562515,-0.3619327797955272,0.5189332639943931,-0.38479801970959454
1790097081921381376,2.2663813476562518,-0.4448872363226872,0.6621061264603836,-0.38243420437821896
1790097081931381504,2.276381347656252,-0.7525321709309192,0.7306238279289148,0.1839333956384468
1790097081941381376,2.286381347656252,-1.3599501400287712,-0.06439172031710894,0.5117674970740016
1790097081951381504,2.2963813476562516,-1.9948983012176495,-2.284471640824834,0.15868677082199
1790097081961381376,2.306381347656252,-2.645750981998286,-2.769309601153551,-0.48874919618511564
1790097081971381504,2.316381347656252,-3.120769775465023,-2.622331859317906,-0.9563668649550848
1790097081981381376,2.326381347656252,-3.175828095230299,-2.6697525851732893,-1.5065395098359893
1790097081991381504,2.3363813476562516,-2.447656794206229,-2.041132860414523,-1.703606058664659
1790097082001381376,2.346381347656252,-1.5615320890399418,-1.3097193748316136,-1.2341153720109692
1790097082011381504,2.356381347656252,-1.321033596992493,-1.5725499391555786,-0.559001624584198
1790097082021381376,2.366381347656252,-1.6281122281868714,-1.72455388381996,-0.41928081592874816
1790097082031381504,2.3763813476562516,-2.403488528668396,-1.9934374671173403,-0.12991115257450295
1790097082041381376,2.386381347656252,-3.487971901356568,-2.2176211181777132,-0.0028838551359191417
1790097082051381504,2.396381347656252,-4.141806582740551,-1.9390159281325197,0.09202876093588268
1790097082061381376,2.406381347656252,-3.875979116089187,-1.281131418377119,0.4076665903953485
1790097082071381504,2.4163813476562517,-3.722350597381592,-1.0863155126571655,0.5429668426513672
1790097082081381376,2.426381347656252,-2.9197335750864317,0.28298151917380876,1.5378331490728798
1790097082091381504,2.436381347656252,-2.097778301970079,1.0024525456271307,2.346869910086162
1790097082101381376,2.446381347656252,-1.4341453652192229,1.3005865804366383,2.9819260456646814
1790097082111381504,2.4563813476562517,-0.8735333022837506,1.6741713318456732,3.551546104163465
1790097082121381376,2.466381347656252,0.3843593653345386,1.4831091469639734,4.018732334693264
1790097082131381504,2.476381347656252,1.8615570068359373,0.7664605975151062,3.932711124420166
1790097082141381376,2.486381347656252,1.8399090046883093,0.8144546873254029,3.898995505832739
1790097082151381504,2.4963813476562517,1.5824292880019974,0.9057786383415516,3.501617052375502
1790097082161381376,2.506381347656252,0.9128784618323661,0.09803365668280423,2.4714922834439905
1790097082171381504,2.516381347656252,0.2938911446453666,-0.250842346108366,1.5598135410757286
1790097082181381376,2.526381347656252,-0.14774900716934955,0.11700335024664704,0.7432554381556093
1790097082191381504,2.536381347656252,-0.2764083743095398,0.5917583107948303,0.1782910376787185
1790097082201381376,2.546381347656252,-0.1078495675556117,0.7183352188208563,0.4011422115277294
1790097082211381504,2.5563813476562522,0.26329293069014276,0.9577552120018985,0.9434436175890437
1790097082221381376,2.566381347656252,0.5785293151374029,2.0910601402107156,1.9834005101473562
1790097082231381504,2.576381347656252,0.6685723066329956,2.682077646255493,2.4336154460906982
1790097082241381376,2.586381347656252,0.48688937024543844,1.7429951814171551,2.445232006822087
1790097082251381504,2.5963813476562523,0.4297310411930084,1.4475553035736084,2.4488866329193115
1790097082261381376,2.606381347656252,0.030743216366584003,-0.4024137896543398,1.565182540131004
1790097082271381504,2.616381347656252,-0.0222959257662296,-0.6483380198478699,1.447708010673523
1790097082281381376,2.626381347656252,0.11599534031779805,-1.1100129858723304,1.0575550592435172
1790097082291381504,2.6363813476562523,0.4454079765560872,-1.3611921524190589,1.1161878970487336
1790097082301381376,2.646381347656252,0.6680309081815581,-1.6455268154119322,1.4647268330861956
1790097082311381504,2.656381347656252,0.6642963886260986,-2.0477890968322754,1.872857689857483
1790097082321381376,2.666381347656252,0.6591329646439033,-2.0397402470342616,1.9395265456822146
1790097082331381504,2.6763813476562524,0.695723762070368,-1.973430319787149,2.1442346133587997
1790097082341381376,2.686381347656252,0.8453984065160527,-1.8318147935138556,2.1106567686470807
1790097082351381504,2.696381347656252,0.8692262067153599,-1.6825542915795015,2.0045437120461664
1790097082361381376,2.706381347656252,0.7395167524552477,-1.5385580657090576,1.9204288151809588
1790097082371381504,2.7163813476562524,0.5978355760587062,-1.3367452656198409,1.8250169676212367
1790097082381381376,2.726381347656252,0.5668276041888997,-1.0434171556422238,1.7362714112538193
1790097082391381504,2.736381347656252,0.5648128432027856,-0.7683483907064186,1.688914926880164
1790097082401381376,2.746381347656252,0.5604523420333862,-0.6892647743225098,1.6786082983016968
1790097082411381504,2.7563813476562524,0.4357421235800115,-0.7779259818335482,1.6133302998288763
1790097082421381376,2.766381347656252,0.42610051752897515,-0.7244001005492672,1.4850562460202035
1790097082431381504,2.776381347656252,0.4881431453741833,-0.5849321289321073,1.2829831386732307
1790097082441381376,2.7863813476562522,0.5267984846993639,-0.426481139425939,1.1087831626452518
1790097082451381504,2.7963813476562525,0.5256426932303306,-0.41972109513910877,1.1005924353881844
1790097082461381376,2.8063813476562522,0.4752250478306388,-0.33011925552827004,0.9733111866473474
1790097082471381504,2.816381347656252,0.38727862704281624,-0.31720616236434496,0.8648318213353597
1790097082481381376,2.8263813476562523,0.28905437821364727,-0.28702049412004116,0.7751154251905011
1790097082491381504,2.8363813476562525,0.21097492467430756,-0.2017471140052245,0.6943916888479027
1790097082501381376,2.8463813476562523,0.15043871105391066,-0.1014389734699924,0.5395597161361003
1790097082511381504,2.856381347656252,0.1029277667403221,-0.030771430581808,0.3487174212932586
1790097082521381376,2.8663813476562523,0.09892230547297769,0.0727983000256262,0.15817200293277636
1790097082531381504,2.8763813476562525,0.0943759009242057,0.1903552711009979,-0.0581068471074104
1790097082541381376,2.8863813476562523,0.09617896671096035,0.2913268671904539,-0.18251828962779637
1790097082551381504,2.896381347656252,0.04690070441933162,0.2770441545366494,-0.33051894422781236
1790097082561381376,2.9063813476562523,-0.018873275210908175,0.28280209539309237,-0.4375011251098734
1790097082571381504,2.9163813476562526,-0.08269563994694532,0.3331219617728615,-0.5287839115276068
1790097082581381376,2.9263813476562524,-0.07439556727579323,0.4942885123466627,-0.713433706321367
1790097082591381504,2.936381347656252,-0.16127274734203534,0.21550350798447732,-0.8362217985029189
1790097082601381376,2.9463813476562524,-0.20057629596994442,0.0257315453268345,-0.9477666369659608
1790097082611381504,2.9563813476562526,-0.22062142000438612,0.2635547044610829,-1.2938831598396676
1790097082621381376,2.9663813476562524,-0.24331648455682484,0.46173473719648567,-1.3738761771400532
1790097082631381504,2.976381347656252,-0.2348707765340805,0.8153283596038818,-1.4746615886688232
1790097082641381376,2.9863813476562524,-0.24453341044759933,0.8517773020315831,-1.4890943959407654
1790097082651381504,2.9963813476562526,-0.3083398994486096,0.9614574174828004,-1.5534435941544018
1790097082661381376,3.0063813476562524,-0.40168567357665896,0.8300031994973314,-1.5997555471180134
1790097082671381504,3.016381347656252,-0.46116458001472166,0.7595810778189084,-1.7732006354182854
1790097082681381376,3.0263813476562524,-0.4895894841654729,0.7236484091711898,-2.0132002380842255
1790097082691381504,3.0363813476562527,-0.5386011870866203,0.7138269672688867,-2.1177335277046345
1790097082701381376,3.0463813476562525,-0.6246649910109721,0.7514578748654172,-2.133515598446318
1790097082711381504,3.0563813476562522,-0.6607076525688171,0.765238881111145,-2.11734938621521
1790097082721381376,3.0663813476562525,-0.6762603617409918,0.7791102285126547,-2.074894724649088
1790097082731381504,3.0763813476562527,-0.672326566448573,0.7364335158083812,-2.0400953068354575
1790097082741381376,3.0863813476562525,-0.615204675669529,0.6161173552186343,-2.0358746026715044
1790097082751381504,3.0963813476562523,-0.5456761431074438,0.4571374470541025,-2.0946374486989003
1790097082761381376,3.1063813476562525,-0.5281306377567208,0.4002065333905643,-2.085650052411906
1790097082771381504,3.1163813476562527,-0.5274665951728821,0.3975088596343994,-2.0843634605407715
1790097082781381376,3.1263813476562525,-0.5137636893187212,0.38246457886261215,-1.9891657983491278
1790097082791381504,3.1363813476562523,-0.47750211118445224,0.3595765302155184,-1.8745130776926493
1790097082801381376,3.1463813476562525,-0.37266301421560893,0.3037551527800491,-1.7977745352350583
1790097082811381504,3.156381347656253,-0.15523185359675123,0.18872770210368467,-1.7924091202641164
1790097082821381376,3.1663813476562526,0.1542389392852783,0.0242048222571611,-1.839948296546936
1790097082831381504,3.1763813476562524,0.23559382519816893,-0.008907273262640458,-1.8386325819723426
1790097082841381376,3.1863813476562526,0.3808632791042328,-0.0680331140756607,-1.8362832069396973
1790097082851381504,3.196381347656253,0.3714618597405195,-0.027783333561585313,-1.814542432723856
1790097082861381376,3.2063813476562526,0.33847377471641044,0.01929449971363549,-1.7503614784413932
1790097082871381504,3.2163813476562524,0.30922353370571665,-0.05902260338473668,-1.648178639170677
1790097082881381376,3.2263813476562526,0.2998359018858337,-0.22374827715615903,-1.5297385812006135
1790097082891381504,3.236381347656253,0.26341769878431215,-0.24280193160825939,-1.4325982679046971
1790097082901381376,3.2463813476562526,0.2395807527512246,-0.2219651822366925,-1.3911896767663756
1790097082911381504,3.2563813476562524,0.2367033064365387,-0.2201340794563293,-1.386088728904724
1790097082921381376,3.2663813476562527,0.251676593512565,-0.25008065360838205,-1.3711154688851552
1790097082931381504,3.276381347656253,0.2389923132271815,-0.3188127275715268,-1.3506573964239823
1790097082941381376,3.2863813476562527,0.22175978209290453,-0.43244308123955255,-1.2944541517664976
1790097082951381504,3.2963813476562525,0.2783455482552977,-0.5563289569148812,-1.1461462909209303
1790097082961381376,3.3063813476562527,0.34889240814004197,-0.4636261374811536,-1.0444936917523033
1790097082971381504,3.316381347656253,0.3955236077308655,-0.3087069392204284,-0.9823187589645386
1790097082981381376,3.3263813476562527,0.4075652339224158,-0.2560248032133756,-0.9655942659035008
1790097082991381504,3.3363813476562525,0.45095640698287326,-0.06291644288307938,-0.9083507265950025
1790097083001381376,3.3463813476562527,0.4848327161661817,0.05450350354383372,-0.8675201588860644
1790097083011381504,3.356381347656253,0.5698869949266929,0.08719590393649815,-0.816646268917322
1790097083021381376,3.3663813476562527,0.6502252426958572,0.08078029775041132,-0.745211330461138
1790097083031381504,3.3763813476562525,0.612871869884751,0.014320695564890858,-0.6516492200119827
1790097083041381376,3.3863813476562528,0.5861079692840576,-0.0173327904194593,-0.609701931476593
1790097083051381504,3.396381347656253,0.5261855421504854,-0.01604873952814958,-0.5313747931729399
1790097083061381376,3.406381347656253,0.44475626316714906,0.021721798235684035,-0.42347279062865306
1790097083071381504,3.4163813476562526,0.30869464776211475,0.047940399899354724,-0.30118630736191265
1790097083081381376,3.426381347656253,0.1994633006325175,-0.022866428929218002,-0.22910599438091997
1790097083091381504,3.436381347656253,0.10420166954935005,-0.07126421684475093,-0.160106753507684
1790097083101381376,3.446381347656253,0.09883691162503656,-0.07342429963275153,-0.1561373612835687
1790097083111381504,3.4563813476562526,0.02221535659517483,-0.05268177309562928,-0.09740660269305623
1790097083121381376,3.466381347656253,0.004360227805840987,-0.02510521115083375,-0.051884021627763406
1790097083131381504,3.476381347656253,0.00690954219066011,0.0002688555793659425,0.016552558373912625
1790097083141381376,3.486381347656253,0.0064138961024582,0.0865112394094467,0.1459161341190338
1790097083151381504,3.4963813476562526,0.007741776010262383,0.10586034725720773,0.17569858647527756
1790097083161381376,3.506381347656253,0.009555079684788532,0.1585764865467873,0.2726842837234502
1790097083171381504,3.516381347656253,0.004993601515926874,0.19014343644937634,0.3544846657055622
1790097083181381376,3.526381347656253,-0.015353754132758489,0.20266773416972053,0.3945150488399661
1790097083191381504,3.5363813476562527,-0.0326803289353847,0.1952420622110366,0.3957526683807373
1790097083201381376,3.546381347656253,-0.055237973777995615,0.1907305254469252,0.4036478393753694
1790097083211381504,3.556381347656253,-0.07676908568082752,0.21477105244734934,0.4370924925351897
1790097083221381376,3.566381347656253,-0.09384049779076006,0.2753667199200568,0.5115422819591426
1790097083231381504,3.5763813476562527,-0.11523459996546734,0.33187276931135373,0.6161071327973989
1790097083241381376,3.586381347656253,-0.15511821324787384,0.2667754943141354,0.8003668680852948
1790097083251381504,3.596381347656253,-0.160958245396614,0.2544942498207092,0.8270871639251709
1790097083261381376,3.606381347656253,-0.15975928048853721,0.1855533142616734,0.8924312047599764
1790097083271381504,3.6163813476562527,-0.1277029505554575,0.16198226137820818,0.9565564431731147
1790097083281381376,3.626381347656253,-0.035316530003301386,0.24126375723841956,1.1318691890548704
1790097083291381504,3.636381347656253,-0.004389152255545842,0.2567392144081362,1.2324352558992433
1790097083301381376,3.646381347656253,-0.0003054236294701,0.2184542566537857,1.2870551347732544
1790097083311381504,3.656381347656253,-0.002579015856636273,0.18050275242876088,1.2910776566075757
1790097083321381376,3.666381347656253,-0.01206512715340137,0.021831276004122338,1.291557946372121
1790097083331381504,3.6763813476562532,-0.022483834539242423,-0.16291958760777284,1.2598997684659565
1790097083341381376,3.686381347656253,-0.013423521189534438,-0.29229191474126004,1.2328536742401417
1790097083351381504,3.696381347656253,0.03161326734816267,-0.3137065542613042,1.2373809924997996
1790097083361381376,3.706381347656253,0.09275760382160934,-0.2285918697160555,1.2929944935711055
1790097083371381504,3.7163813476562533,0.16478681371227535,-0.1310522438634667,1.397014022454027
1790097083381381376,3.726381347656253,0.20944793633135197,-0.19425460981850035,1.593810608632487
1790097083391381504,3.736381347656253,0.2171562016010284,-0.230518490076065,1.6572285890579224
1790097083401381376,3.746381347656253,0.22480872271322544,-0.37183503582882604,1.6995725251075564
1790097083411381504,3.7563813476562533,0.26190178207499587,-0.5015449070140356,1.6942431751703735
1790097083421381376,3.766381347656253,0.33676985551712646,-0.5373125166428179,1.6575771644746116
1790097083431381504,3.776381347656253,0.5171674453507761,-0.44030657659655653,1.7183637385269108
1790097083441381376,3.786381347656253,0.587940514087677,-0.4217136800289154,1.820324778556824
1790097083451381504,3.7963813476562533,0.6000938113605931,-0.42941647919176484,1.8391538459608856
1790097083461381376,3.806381347656253,0.6870879611404865,-0.5166140667847559,1.9899672910007737
1790097083471381504,3.816381347656253,0.7363763451576233,-0.6752153038978577,2.1300244331359863
1790097083481381376,3.826381347656253,0.7194051560586917,-0.7136964842284576,2.13022176649869
1790097083491381504,3.8363813476562534,0.6599151228518016,-0.8464099035410533,2.119843999667257
1790097083501381376,3.846381347656253,0.5913619563143074,-1.0172018311894915,2.0965556223849564
1790097083511381504,3.856381347656253,0.5286963873623787,-1.206076020624,2.0838430531808103
1790097083521381376,3.866381347656253,0.47689347181955666,-1.2752251388408649,2.0755960718557644
1790097083531381504,3.8763813476562534,0.4559974670410156,-1.268347978591919,2.0732154846191406
1790097083541381376,3.886381347656253,0.46525639724645435,-1.1808090095707338,2.037863317651908
1790097083551381504,3.896381347656253,0.5170784970617263,-0.9566775231855636,1.9257034317430892
1790097083561381376,3.9063813476562532,0.5755647594424669,-0.8292380961199982,1.8485491741816586
1790097083571381504,3.9163813476562535,0.6020078309328525,-0.7739322901494474,1.753355297675795
1790097083581381376,3.9263813476562532,0.6391951466082352,-0.6375648139934132,1.5750837977755494
1790097083591381504,3.936381347656253,0.5925188966688546,-0.5735398739389355,1.4386998964073245
1790097083601381376,3.9463813476562533,0.5054761171340942,-0.4895177185535431,1.295607089996338
1790097083611381504,3.9563813476562535,0.5075285228383164,-0.46092556754394465,1.274799923461718
1790097083621381376,3.9663813476562533,0.5588332662109428,-0.3721288475164873,0.9767823054771946
1790097083631381504,3.976381347656253,0.6714571572020032,-0.7377447857710813,0.4568486347003524
1790097083641381376,3.9863813476562533,0.5005893111228943,0.0211505871266126,0.8680139780044556
1790097083651381504,3.9963813476562535,0.5109187812253915,-0.00544229678768721,0.8550471927362019
1790097083661381376,4.006381347656253,0.46067418566030016,-0.04196699461131424,0.6551104936086676
1790097083671381504,4.016381347656253,0.3662029206752777,-0.0271063465625047,0.4116346836090088
1790097083681381376,4.026381347656254,0.34299576122394754,-0.10567917347382803,0.401357235136941
1790097083691381504,4.036381347656254,0.26038107065362237,-0.13389210152956998,0.37868453681028
1790097083701381376,4.046381347656253,0.19381428985901658,0.017724453278250438,0.32116752387553954
1790097083711381504,4.056381347656253,0.20771336520975664,0.17560107804060354,0.04811199944636385
1790097083721381376,4.066381347656254,0.17980499039893807,0.17364256387806964,-0.23666124181030096
1790097083731381504,4.076381347656254,0.1695101112127304,0.1634780019521713,-0.288396269083023
1790097083741381376,4.086381347656253,0.09846302903332027,0.20288693225264773,-0.49876221633616713
1790097083751381504,4.096381347656253,0.015506858652274413,0.32293956595984497,-0.7070751588332711
1790097083761381376,4.106381347656254,-0.10282849320703798,0.3753508769162851,-0.8178765083486058
1790097083771381504,4.116381347656254,-0.20399642104992177,0.5363912816579199,-0.9111643218225471
1790097083781381376,4.126381347656253,-0.2759212170639318,0.47454009094754607,-1.133129625007263
1790097083791381504,4.136381347656253,-0.2562504112720489,0.5563291311264038,-1.2718603610992432
1790097083801381376,4.146381347656254,-0.2478652301468705,0.6121744827484468,-1.3048979899509912
1790097083811381504,4.156381347656254,-0.2103368076140293,0.8673401199271349,-1.4692585191313616
1790097083821381376,4.1663813476562535,-0.1798945218324661,1.080436110496521,-1.621875882148743
1790097083831381504,4.176381347656253,-0.18017397876607957,1.0999982185588237,-1.6735757352750071
1790097083841381376,4.186381347656253,-0.1459836100214767,1.1783034994416965,-1.7747884788965507
1790097083851381504,4.196381347656254,0.05810066869227959,0.9126902264269907,-1.7927355816040142
1790097083861381376,4.2063813476562535,0.1829487532377243,0.682774543762207,-1.778863549232483
1790097083871381504,4.216381347656253,0.27506769687908117,0.9569890250575738,-1.8920305650456952
1790097083881381376,4.226381347656254,0.3981102584102353,1.047170799869483,-1.980721089003439
1790097083891381504,4.236381347656254,0.5026965431476863,1.0217975667367363,-2.083378765457468
1790097083901381376,4.2463813476562535,0.5773286190927692,0.9684298631718965,-2.1831811342203657
1790097083911381504,4.256381347656253,0.6957617613322002,0.902451655797067,-2.194860237766588
1790097083921381376,4.266381347656253,0.77256366161401,0.8949716947584319,-2.128412649192132
1790097083931381504,4.276381347656254,0.7974790787842703,0.7112384564674435,-2.036199127868739
1790097083941381376,4.286381347656254,0.8242138635632076,0.2517730399499244,-1.922124478699909
1790097083951381504,4.296381347656253,0.9329591712778541,-0.21041292639830694,-1.822098246839022
1790097083961381376,4.306381347656254,1.3922993686715024,-0.5751190305050996,-1.7889360363473124
1790097083971381504,4.316381347656254,1.4687821865081787,-0.8205969333648682,-1.7697008848190308
1790097083981381376,4.326381347656254,1.4051139598150786,-0.9513442131366702,-1.7603780126155324
1790097083991381504,4.336381347656253,1.1090616978464518,-1.2898604382365593,-1.7200452566566604
1790097084001381376,4.346381347656253,0.7381385107061327,-1.5390621228354073,-1.6812059991823955
1790097084011381504,4.356381347656254,0.5300995385533517,-1.5889382969790824,-1.660843313958502
1790097084021381376,4.366381347656254,0.367678225812315,-1.0513399380679924,-1.5867432481953725
1790097084031381504,4.376381347656253,0.40249910707260417,-0.5501092528804844,-1.5920243880644316
1790097084041381376,4.386381347656254,0.4480564594268799,-0.4595862030982971,-1.6133239269256592
1790097084051381504,4.396381347656254,0.5495902130451568,-0.30630929299033527,-1.7290138668985717
1790097084061381376,4.406381347656254,0.45059541171334316,-0.2346806320630029,-1.898964829252397
1790097084071381504,4.4163813476562535,0.2649269755893267,-0.21804407686967264,-2.034405308236584
1790097084081381376,4.426381347656253,0.03898889849344436,-0.024512671116327406,-2.073442612211881
1790097084091381504,4.436381347656254,-0.7097135437476888,0.732515473310977,-1.8945812628655034
1790097084101381376,4.446381347656254,-1.1475529670715332,1.1323580741882324,-1.7782527208328247
1790097084111381504,4.4563813476562535,-1.3053099322773865,1.2307419773244188,-1.702650338387238
1790097084121381376,4.466381347656254,-2.1035289764404297,1.728545069694519,-1.3201172351837158
1790097084131381504,4.476381347656254,-2.1590986195324327,1.6663140811579842,-1.2349221581269716
1790097084141381376,4.486381347656254,-2.259971192784409,1.475135597032693,-0.9762718949766989
1790097084151381504,4.4963813476562535,-2.0356385753059776,1.2067827374946947,-0.8605196692285844
1790097084161381376,4.506381347656253,-1.5190730259057093,0.7178743511771803,-0.8144160908769045
1790097084171381504,4.516381347656254,-0.816791356032611,0.31021735161822245,-0.7962659153333967
1790097084181381376,4.526381347656254,-0.053432076377837256,0.15340552758671824,-0.6991040923771039
1790097084191381504,4.536381347656254,0.246476873755455,0.1561478376388549,-0.6390225887298584
1790097084201381376,4.546381347656254,0.24037210066250345,0.2433588271180953,-0.5496313064303372
1790097084211381504,4.556381347656254,0.20952618728760553,0.40427788558322775,-0.4191361723870823
1790097084221381376,4.566381347656254,0.18902096650554295,0.5011239726673015,-0.14656525851674423
1790097084231381504,4.576381347656254,0.186613842844963,0.5129590034484863,-0.0984227657318115
1790097084241381376,4.586381347656253,0.1819333932490577,0.35726084609362685,0.04140571946591046
1790097084251381504,4.596381347656254,0.1646233350038528,0.2050156146287918,0.215552732348442
1790097084261381376,4.606381347656254,0.16613358598208464,0.21037457044123517,0.21418863377060643
1790097084271381504,4.616381347656254,0.17762806876239273,0.27255266854113197,0.19526832567205943
1790097084281381376,4.626381347656254,0.13044539947004735,0.22573760992574793,0.18274744236311258
1790097084291381504,4.636381347656254,0.0870457366108894,0.0321458354592323,0.2100550979375839
1790097084301381376,4.646381347656254,0.018241237720855702,-0.015503256878770126,0.26106533191063697
1790097084311381504,4.656381347656254,-0.1393915080106427,-0.10684489747307072,0.4087709760607647
1790097084321381376,4.6663813476562535,-0.17899067121866158,-0.07653934255319063,0.5246389768244171
1790097084331381504,4.676381347656254,-0.2006633281707763,-0.0552053228020668,0.5869478583335876
1790097084341381376,4.686381347656254,-0.2141854290378741,-0.04341682011015377,0.6434633326562961
1790097084351381504,4.696381347656254,-0.23600537654175047,-0.020613701507649858,0.7403193517530842
1790097084361381376,4.706381347656254,-0.28788278207172363,-0.10048189282369101,0.8142333858140964
1790097084371381504,4.716381347656254,-0.49476717029638606,-0.34504638679942967,0.8657465921241555
1790097084381381376,4.726381347656254,-0.5567872524261475,-0.4131618142127991,0.8765658140182495
1790097084391381504,4.736381347656254,-0.6325353916300779,-0.3214912408065878,0.9021482887351188
1790097084401381376,4.7463813476562535,-0.6897913423750945,-0.1239166968089146,1.023350715137026
1790097084411381504,4.756381347656254,-0.6930825710296631,-0.1107924208045005,1.0317209959030151
1790097084421381376,4.766381347656254,-0.6328840627358897,-0.2734627492492439,1.0933784655862084
1790097084431381504,4.776381347656254,-0.5453824363469076,-0.47033379247656426,1.138610733828832
1790097084441381376,4.7863813476562544,-0.47889434697096955,-0.6366121542314196,1.175870890500659
1790097084451381504,4.796381347656254,-0.5007833682851213,-0.8305079055124232,1.2102784076169752
1790097084461381376,4.806381347656254,-0.56124257669916,-0.8697946289533718,1.27338091182643
1790097084471381504,4.816381347656254,-0.5625980317002531,-0.8699323268052614,1.3804154714414312
1790097084481381376,4.826381347656254,-0.40699341380977605,-1.0613689521931735,1.5198903814250078
1790097084491381504,4.836381347656254,-0.16018612963822662,-1.3483510323061523,1.6291211296510304
1790097084501381376,4.846381347656254,-0.026658341103061235,-1.375972195961798,1.6585320269963246
1790097084511381504,4.856381347656254,0.008364205808988443,-1.1428742196739896,1.620469629057418
1790097084521381376,4.8663813476562545,0.0940141045511509,-0.7686159856893788,1.5829432565165464
1790097084531381504,4.876381347656254,0.20794188923875445,-0.37116494543360723,1.623119867958133
1790097084541381376,4.886381347656254,0.19150171646159622,0.1504059449571376,1.8913978956722113
1790097084551381504,4.896381347656254,0.1792836636304855,0.2642678022384643,1.95898711681366
1790097084561381376,4.906381347656254,0.13540917851188533,0.4253954435114312,2.05062379637812
1790097084571381504,4.916381347656254,0.15236159539095506,0.6625427192295377,2.044368525141796
1790097084581381376,4.926381347656254,0.2539883166522799,0.8031257685431278,1.9126201473532816
1790097084591381504,4.936381347656254,0.5741409954545307,0.4090570893377015,1.711112246292913
1790097084601381376,4.946381347656255,0.6793308541628769,-0.0028044291561801216,1.7994919559292482
1790097084611381504,4.956381347656254,0.6814001202583313,-0.4461475610733032,1.9815884828567505
1790097084621381376,4.966381347656254,0.5941916895231819,-0.646777353964029,2.1079482842609045
1790097084631381504,4.976381347656254,0.3643703758716583,-1.1754992008209229,2.440945625305176
1790097084641381376,4.986381347656254,0.3054343545309636,-1.2569909804937542,2.478296010516813
1790097084651381504,4.996381347656254,0.12864196584011753,-1.3787853806608015,2.4958463399211652
1790097084661381376,5.006381347656254,0.0253501608967781,-1.3764679431915283,2.4494974613189697
1790097084671381504,5.016381347656254,0.003384564615891421,-1.1886975105292834,2.373680714843731
1790097084681381376,5.026381347656255,0.04542410410044228,-0.8608690746683313,2.2404700605163317
1790097084691381504,5.0363813476562544,0.1662110072093971,-0.7088109517040999,2.16830741661307
1790097084701381376,5.046381347656254,0.30065286503438204,-0.6968661404894302,2.139979499628646
1790097084711381504,5.056381347656254,0.44501657283734397,-0.7961698570143124,2.0251977698929076
1790097084721381376,5.066381347656254,0.4694361090660095,-0.8169318437576294,2.001746416091919
1790097084731381504,5.0763813476562545,0.46712495206844623,-0.868355411134436,1.8544092413334976
1790097084741381376,5.086381347656254,0.48421020030879425,-0.799122152952514,1.6515282204538984
1790097084751381504,5.096381347656254,0.4096130583750961,-0.687437085942624,1.4320979399394598
1790097084761381376,5.106381347656255,0.3703722432415683,-0.5390975127424913,1.2398990307056033
1790097084771381504,5.1163813476562545,0.3207948064463289,-0.36278149212925104,1.0843644227158618
1790097084781381376,5.126381347656254,0.28096639797679007,-0.23732189603760392,0.9531197911150395
1790097084791381504,5.136381347656254,0.2580829560756683,-0.13938618048639567,0.7971791412593926
1790097084801381376,5.146381347656254,0.2555785056146159,-0.03231002736324169,0.6226830200971653
1790097084811381504,5.1563813476562546,0.24738963744753947,0.0814014940914816,0.440215599760377
1790097084821381376,5.166381347656254,0.2337398967943309,0.19046011516942377,0.25433996732685354
1790097084831381504,5.176381347656254,0.2145747203551074,0.26916137240726096,0.07157507278616326
1790097084841381376,5.186381347656255,0.19260051393991376,0.36482785449128896,-0.22494359282249915
1790097084851381504,5.196381347656255,0.1841704547405243,0.4091149568557739,-0.3616979420185089
1790097084861381376,5.206381347656254,0.17740290868748765,0.5210050281199579,-0.672102704842398
1790097084871381504,5.216381347656254,0.1750077456235885,0.5606050491333008,-0.7819608449935913
1790097084881381376,5.226381347656254,0.1466205946584711,0.6394582505332138,-0.9638488592902935
1790097084891381504,5.236381347656255,0.09867700780251108,0.7073985107617177,-1.1605018180892352
1790097084901381376,5.246381347656254,0.03496849383683465,0.758909458747253,-1.2989733657478106
1790097084911381504,5.256381347656254,-0.0638335421681404,0.8281561732292175,-1.409911870956421
1790097084921381376,5.266381347656255,-0.06345057173743379,0.829879541919073,-1.4162308708013494
1790097084931381504,5.276381347656255,-0.05592331602019412,0.8448512197461017,-1.4865576462604635
1790097084941381376,5.2863813476562544,-0.030224913973122436,0.8478072372111818,-1.6015950272888364
1790097084951381504,5.296381347656254,-0.03664471130601728,0.8679413247039487,-1.791286732176932
1790097084961381376,5.306381347656254,-0.0888782739639282,0.9014578461647034,-1.9780761003494265
1790097084971381504,5.316381347656255,-0.10763398778993183,0.909960442126218,-1.978576286067088
1790097084981381376,5.3263813476562545,-0.12750875613033064,1.0173304196325912,-1.9971118868123126
1790097084991381504,5.336381347656254,-0.12039434474299593,1.2049101573602836,-2.0447587003759007
1790097085001381376,5.346381347656255,-0.1838472373774495,1.1239447338508222,-2.115766569159205
1790097085011381504,5.356381347656255,-0.26364343265968015,0.9036234402627243,-2.194581947338801
1790097085021381376,5.3663813476562545,-0.31846867279490587,0.7710874365835261,-2.2350679484203306
1790097085031381504,5.376381347656254,-0.3638609291467934,0.7265367082043644,-2.223829833527314
1790097085041381376,5.386381347656254,-0.3729222416877746,0.7218687534332275,-2.21875
1790097085051381504,5.396381347656255,-0.38936413768283307,0.7459835377912041,-2.1831259232064184
1790097085061381376,5.4063813476562546,-0.4140747428474691,0.813715394399353,-2.1532912215426525
1790097085071381504,5.416381347656254,-0.4406207916605781,0.7475151247526024,-2.09614904472083
1790097085081381376,5.426381347656255,-0.4352286756038666,0.372464120388031,-2.0116727352142334
1790097085091381504,5.436381347656255,-0.4172097189028964,0.31365463875678445,-2.0069308991902233
1790097085101381376,5.446381347656255,-0.3075616061687469,-0.0442100688815116,-1.9780761003494265
1790097085111381504,5.456381347656254,-0.28297295356088387,-0.060120373394822874,-1.9650585733070947
1790097085121381376,5.466381347656254,-0.13432548370946307,-0.09359838388345759,-1.9081832138804904
1790097085131381504,5.476381347656255,0.032069481909275,-0.0704765021800994,-1.8656039237976076
1790097085141381376,5.486381347656255,0.0871074423117357,-0.0715663623872818,-1.8530704882122184
1790097085151381504,5.496381347656254,0.20284649633546928,-0.09552883453924467,-1.8195416042423258
1790097085161381376,5.506381347656255,0.2718194906578288,-0.1483909983528077,-1.7708495441313041
1790097085171381504,5.516381347656255,0.2876993617477017,-0.19300838868613554,-1.6952319583058404
1790097085181381376,5.526381347656255,0.2716205534922899,-0.2147456688988572,-1.5929885455402064
1790097085191381504,5.5363813476562544,0.2524171352479038,-0.22074722826843804,-1.4768473782882858
1790097085201381376,5.546381347656254,0.2676513257225498,-0.1737449089058248,-1.3160923548096337
1790097085211381504,5.556381347656255,0.2721324563026428,-0.1627144366502761,-1.2852989435195925
1790097085221381376,5.566381347656255,0.33145948653180163,-0.14617131977565434,-1.2482195844157509
1790097085231381504,5.5763813476562545,0.38063144035144436,-0.14439215135186775,-1.2182467759357924
1790097085241381376,5.586381347656255,0.4624244716602113,-0.21378983321930953,-1.2054455976427372
1790097085251381504,5.596381347656255,0.514991423249771,-0.21214353991994508,-1.1959502170482668
1790097085261381376,5.606381347656255,0.5640086679423428,-0.1276120932434147,-1.1717224728811988
1790097085271381504,5.6163813476562545,0.5861079692840576,-0.0161110963672399,-1.1295329332351685
1790097085281381376,5.626381347656254,0.581713697060364,0.07067563433277449,-1.0742384423265594
1790097085291381504,5.636381347656255,0.5714476108551025,0.2734304964542389,-0.9450570940971376
1790097085301381376,5.646381347656255,0.5598556805175605,0.303054336581517,-0.8979165505797222
1790097085311381504,5.6563813476562546,0.5259738420338833,0.3507542511908176,-0.7787254247600093
1790097085321381376,5.666381347656255,0.48013031918091065,0.3364201042885354,-0.6741042984193844
1790097085331381504,5.676381347656255,0.3876559171367413,0.23787613858128184,-0.5485632136568783
1790097085341381376,5.686381347656255,0.3417690396308899,0.1854684948921203,-0.4918083846569061
1790097085351381504,5.696381347656255,0.30137961560198934,0.17304098730201542,-0.4234570766706226
1790097085361381376,5.706381347656254,0.23999766467885983,0.1967488633353982,-0.30248287467498963
1790097085371381504,5.716381347656255,0.17933693024249384,0.2583099620975638,-0.048211443819128064
1790097085381381376,5.726381347656255,0.1707318127155304,0.2679328918457031,-0.0074065229855477
1790097085391381504,5.736381347656255,0.1642105641628726,0.24066220950645068,0.08448378409439464
1790097085401381376,5.746381347656255,0.1175880953669548,0.1091125905513763,0.1953947693109512
1790097085411381504,5.756381347656255,0.11521571653166553,0.10120466046886789,0.1961290764879563
1790097085421381376,5.766381347656255,0.091932512819767,0.0235939752310514,0.2033357769250869
1790097085431381504,5.776381347656255,0.093504265919953,0.0237249546560669,0.21224238102128717
1790097085441381376,5.7863813476562544,0.09707574059036404,0.04674708835544708,0.2689296895197474
1790097085451381504,5.796381347656255,0.08474637907011295,0.14304432200679087,0.3755803249102564
1790097085461381376,5.806381347656255,0.029782571569395205,0.2228072556908416,0.5705837611522655
1790097085471381504,5.816381347656255,-0.0339020229876041,0.2331145852804184,0.7366054654121399
1790097085481381376,5.826381347656255,-0.07450606220869435,0.12906672885172216,0.8070677429547216
1790097085491381504,5.836381347656255,-0.1120904684066772,0.032756682485342,0.8722898960113525
1790097085501381376,5.846381347656255,-0.12501689861155088,-0.09454904195179045,0.9310463691448642
1790097085511381504,5.856381347656255,-0.1322484314441681,-0.1657686680555343,0.9639169573783876
1790097085521381376,5.8663813476562545,-0.13504571335053903,-0.15691062384924476,1.0100720178501974
1790097085531381504,5.876381347656255,-0.15252766786149613,-0.08971978923917047,1.1603248500858243
1790097085541381376,5.886381347656255,-0.1560714691877365,-0.075974129140377,1.1893196105957031
1790097085551381504,5.896381347656255,-0.1716766141126238,-0.1175878160421911,1.2731249626514671
1790097085561381376,5.906381347656255,-0.161769456019112,-0.1927682260436913,1.3530795725365703
1790097085571381504,5.916381347656255,-0.1047603040933609,-0.2097496837377548,1.4452645778656006
1790097085581381376,5.926381347656255,-0.0982151075274477,-0.20202162027622653,1.44841889984685
1790097085591381504,5.936381347656255,-0.0540599822998046,-0.1498866528272628,1.4696985483169556
1790097085601381376,5.946381347656255,-0.047619171956838596,-0.1531070558944769,1.4727655960069328
1790097085611381504,5.956381347656255,-0.01582486188600684,-0.20731461316312969,1.5122207136764352
1790097085621381376,5.966381347656255,0.0119115216657519,-0.3056527078151703,1.5790401697158811
1790097085631381504,5.976381347656255,0.030469056759956082,-0.356553369589351,1.6137692857325083
1790097085641381376,5.9863813476562555,0.08369681951429467,-0.46617198784152725,1.7068331328469264
1790097085651381504,5.996381347656255,0.18666396257128653,-0.5293036515465229,1.8628860218380825
1790097085661381376,6.006381347656255,0.245255172252655,-0.5444939732551575,1.9486027956008911
1790097085671381504,6.016381347656255,0.3007422332175019,-0.5411813346091592,2.00450390609279
1790097085681381376,6.026381347656255,0.3271087110042572,-0.5396072268486023,2.031067132949829
1790097085691381504,6.036381347656255,0.35984396592378626,-0.5723424817681314,2.0398616007756174
1790097085701381376,6.046381347656255,0.4616336479937303,-0.6457371911437677,2.038907385364019
1790097085711381504,6.056381347656255,0.476766288280487,-0.6562790274620056,2.038397312164306
1790097085721381376,6.066381347656256,0.5704170457148444,-0.7391239665702978,2.0480024579750475
1790097085731381504,6.076381347656255,0.5710423383246517,-0.751913516714021,2.0579842010770664
1790097085741381376,6.086381347656255,0.5488462448120117,-0.9995751976966858,2.2723517417907715
1790097085751381504,6.096381347656255,0.5375084480761115,-1.0382451990436985,2.2800452491881424
1790097085761381376,6.106381347656255,0.4804313778877258,-1.2329188585281372,2.318776130676269
1790097085771381504,6.116381347656255,0.4735780695244433,-1.262265050231569,2.2881998964549304
1790097085781381376,6.126381347656255,0.45511752442517195,-1.3451529823918085,2.1684035957337517
1790097085791381504,6.136381347656255,0.42705967483500556,-1.3612483118562644,2.0339965401898183
1790097085801381376,6.146381347656256,0.3601646569020136,-1.3278860282140454,1.908679318007421
1790097085811381504,6.156381347656255,0.3197175085973728,-1.2270358874316225,1.8189683763596245
1790097085821381376,6.166381347656255,0.3345505549044149,-1.0594458690869633,1.7941259539560308
1790097085831381504,6.176381347656255,0.39639410363429206,-0.8797338542704494,1.8282513676985657
1790097085841381376,6.186381347656255,0.4649990949192727,-0.751636071044459,1.6758506485275009
1790097085851381504,6.1963813476562555,0.4822639226913452,-0.7228613495826721,1.6083608865737915
1790097085861381376,6.206381347656255,0.3172283638264139,-0.6840294592446383,1.1556626863711261
1790097085871381504,6.216381347656255,0.2849602401256561,-0.6764369606971741,1.0671501159667969
1790097085881381376,6.226381347656256,0.2094369375362668,-0.5095831543115074,0.9196162570780575
1790097085891381504,6.2363813476562555,0.1626011722454826,-0.2869802475499923,0.8407994325803719
1790097085901381376,6.246381347656255,0.15277175055120387,-0.10382502046490298,0.783839674948325
1790097085911381504,6.256381347656255,0.15022203857411665,0.041652733909847,0.6275649890143387
1790097085921381376,6.266381347656255,0.15018887535668934,0.15517760092497782,0.2646718584623363
1790097085931381504,6.2763813476562555,0.1379035693753227,0.22187428843729645,0.05043654589375113
1790097085941381376,6.286381347656255,0.10639694574871297,0.305818738645244,-0.13098920258320387
1790097085951381504,6.296381347656255,0.0754396393895149,0.3503972589969635,-0.2230356037616729
1790097085961381376,6.306381347656256,0.05445007454064961,0.345490612936082,-0.2756458071284571
1790097085971381504,6.316381347656256,0.01477151979017762,0.3369233158455083,-0.41219189858801075
1790097085981381376,6.326381347656255,-0.0036791497780560367,0.3543424451730565,-0.5841610202477052
1790097085991381504,6.336381347656255,-0.022624109416013116,0.4670274218623774,-0.8993608545035865
1790097086001381376,6.346381347656255,-0.0314586348831653,0.5245651006698608,-1.0391275882720947
1790097086011381504,6.356381347656256,-0.05577629435191127,0.5933886391230354,-1.1249275729798034
1790097086021381376,6.366381347656255,-0.10401522213880374,0.6692716724538346,-1.2252861301263218
1790097086031381504,6.376381347656255,-0.1549108493989452,0.7204849284986051,-1.300060291503503
1790097086041381376,6.386381347656256,-0.21287948280284447,0.714162830292896,-1.5013614642351458
1790097086051381504,6.396381347656256,-0.216545358300209,0.7133168578147888,-1.5149775743484497
1790097086061381376,6.406381347656255,-0.19811238676459378,0.711259664131762,-1.6997617384604302
1790097086071381504,6.416381347656255,-0.18793264446097788,0.7433644210069443,-1.86062637611341
1790097086081381376,6.426381347656255,-0.21108349464115506,0.7950350717550043,-1.9510122556449356
1790097086091381504,6.436381347656256,-0.27031140730550807,0.8909826340473498,-1.9591990234375682
1790097086101381376,6.4463813476562555,-0.35752138126906585,1.0435252896030667,-1.925668009518479
1790097086111381504,6.456381347656255,-0.44434014101082153,1.2207779138613515,-1.9670609738051055
1790097086121381376,6.466381347656256,-0.4950917065143585,1.3211098909378052,-2.07520079612732
1790097086131381504,6.476381347656256,-0.5183920651372755,1.2276134665640326,-2.1595540882488886
1790097086141381376,6.4863813476562555,-0.5433486104011536,1.1274713277816772,-2.2499032020568848
1790097086151381504,6.496381347656255,-0.5703640778988351,1.0569079471536733,-2.264680853008848
1790097086161381376,6.506381347656255,-0.6209585920153265,0.9070940074469406,-2.227161242647752
1790097086171381504,6.516381347656256,-0.6414908766792871,0.7511527481667669,-2.090275504085918
1790097086181381376,6.5263813476562555,-0.6126786826564867,0.6625335326063109,-1.916771364849272
1790097086191381504,6.536381347656255,-0.5401599169122884,0.6113327094117316,-1.8057955400545422
1790097086201381376,6.546381347656256,-0.34698766528070035,0.3655830434166947,-1.8495351435665686
1790097086211381504,6.556381347656256,-0.3289412558078766,0.3418453931808471,-1.855219483375549
1790097086221381376,6.566381347656256,-0.1798945218324661,-0.0472643077373504,-1.9750219583511357
1790097086231381504,6.576381347656255,-0.1742943631239405,-0.0546746186651019,-1.9730986647617512
1790097086241381376,6.586381347656255,-0.11022573320291174,-0.12465818524537217,-1.9434514021228964
1790097086251381504,6.596381347656256,-0.03911193974417057,-0.10022086581211524,-1.8649252635705487
1790097086261381376,6.606381347656256,0.06603152562819496,-0.0514700809791974,-1.7739802068721988
1790097086271381504,6.616381347656255,0.1796039312731124,-0.020604230399963525,-1.6998953988925114
1790097086281381376,6.626381347656256,0.2921246435467578,-0.1341614018279011,-1.629670917606432
1790097086291381504,6.636381347656256,0.37167778715399197,-0.3761993302281768,-1.5425077764683546
1790097086301381376,6.646381347656256,0.3845520875550975,-0.5095519923136991,-1.462488484075037
1790097086311381504,6.656381347656255,0.3851391971111297,-0.551824152469635,-1.4257938861846924
1790097086321381376,6.666381347656255,0.4039455514318562,-0.5479061667649743,-1.3881811775432393
1790097086331381504,6.676381347656256,0.4294764680445205,-0.4852202444540913,-1.3508488400170173
1790097086341381376,6.686381347656256,0.46195187551776096,-0.33648511809989945,-1.333215628492634
1790097086351381504,6.6963813476562555,0.5677308908306365,-0.16690241640899312,-1.2770206473147323
1790097086361381376,6.706381347656256,0.5885513424873352,-0.1388913989067077,-1.265751838684082
1790097086371381504,6.716381347656256,0.6642734028450843,-0.09900724447595871,-1.2241336371758427
1790097086381381376,6.726381347656256,0.7556050157008127,-0.0205775265792352,-1.1622922577606394
1790097086391381504,6.7363813476562555,0.795628547668457,-0.0466534607112407,-1.047679424285889
1790097086401381376,6.746381347656255,0.7912087360698573,-0.05967611239068927,-1.0396290515095934
1790097086411381504,6.756381347656256,0.7481762989666061,-0.16266313633349072,-0.9701530797240085
1790097086421381376,6.766381347656256,0.6770565783316955,-0.23222014016716125,-0.8803451950238316
1790097086431381504,6.7763813476562555,0.6188435076629469,-0.22809693529841274,-0.7628848497214554
1790097086441381376,6.786381347656256,0.5387850781953095,-0.05010231342856647,-0.5589470702957853
1790097086451381504,6.796381347656256,0.4161201417491876,0.2257386237107153,-0.323166181929871
1790097086461381376,6.806381347656256,0.33350731192894945,0.2853269122187025,-0.21035269366567325
1790097086471381504,6.816381347656256,0.3005000263157605,0.2787175917170812,-0.1256744106628483
1790097086481381376,6.826381347656255,0.28648121276802657,0.26014819654942756,-0.05292241394092188
1790097086491381504,6.836381347656256,0.2529576201315263,0.23319708655324936,0.025228092466367986
1790097086501381376,6.846381347656256,0.2403683960437774,0.2239518761634826,0.0500131174921989
1790097086511381504,6.856381347656256,0.21104962563067803,0.1907239379513242,0.10180961467004446
1790097086521381376,6.866381347656256,0.18268227065063602,0.14770603868422966,0.16104055230382586
1790097086531381504,6.876381347656256,0.1578843112093473,0.10887302743530791,0.20343222755788365
1790097086541381376,6.886381347656256,0.13445805051736784,0.0808426892572831,0.2508176280224038
1790097086551381504,6.896381347656256,0.1246451407160978,0.059167557147666756,0.33209430357188074
1790097086561381376,6.906381347656255,0.1006338052522355,0.08703408784291307,0.5522788405258406
1790097086571381504,6.916381347656256,0.05307993183438386,0.059186312692012966,0.6484802428913035
1790097086581381376,6.926381347656256,0.016301059226825777,-0.011832096271674088,0.7207625672149772
1790097086591381504,6.936381347656256,0.0125223686918616,-0.0576487109065055,0.7708892226219177
1790097086601381376,6.946381347656256,0.018060736321943105,-0.03656031137781424,0.8264859201198536
1790097086611381504,6.956381347656256,0.0284043978899717,0.0028251686599105,0.9303203821182252
1790097086621381376,6.966381347656256,0.030991942782069244,0.048825969676099666,1.022896995466003
1790097086631381504,6.976381347656256,0.0339020229876041,0.1005607321858406,1.1270132064819336
1790097086641381376,6.9863813476562555,0.017250213105555415,0.09911274926974997,1.2149781708420928
1790097086651381504,6.996381347656256,0.0058030490763485,0.0981173440814018,1.27544903755188
1790097086661381376,7.006381347656256,0.0005652081873808003,0.03220784511248288,1.3321923498822936
1790097086671381504,7.016381347656256,0.025001684775975457,0.020091263060573968,1.3903888915293507
1790097086681381376,7.026381347656256,0.0326803289353847,0.0242048222571611,1.4006727933883667
1790097086691381504,7.036381347656256,0.08202167795056717,0.055454344414596374,1.4527553275312095
1790097086701381376,7.046381347656256,0.13566623377313508,0.08536987635264257,1.5195935255183597
1790097086711381504,7.056381347656256,0.1597365587949752,0.013820419088006,1.6395140886306765
1790097086721381376,7.066381347656256,0.1599330703100977,0.0014893168701203743,1.644426870516548
1790097086731381504,7.076381347656256,0.162179946899414,-0.1395022422075271,1.7005987167358398
1790097086741381376,7.086381347656256,0.18282428247277135,-0.14642489338641457,1.7012168155991263
1790097086751381504,7.096381347656256,0.2641914486885071,-0.1737096905708313,1.7036529779434204
1790097086761381376,7.1063813476562565,0.31490751425892777,-0.16915316958331933,1.737331619313899
1790097086771381504,7.116381347656256,0.44386752802113133,-0.18060593667373198,1.8423281615123028
1790097086781381376,7.126381347656256,0.481042206287384,-0.2140256017446518,1.897902488708496
1790097086791381504,7.136381347656256,0.5052101986173924,-0.321851990108014,1.970406374997009
1790097086801381376,7.146381347656256,0.5286883115768433,-0.4266004562377929,2.0408406257629395
1790097086811381504,7.156381347656256,0.5517485200529982,-0.5249906765692255,2.066975621208583
1790097086821381376,7.166381347656256,0.5813595005567791,-0.6837369617149531,2.0958691240144547
1790097086831381504,7.176381347656256,0.5757041615718653,-0.9625131512010162,2.1225726968756202
1790097086841381376,7.186381347656257,0.5714476108551025,-1.0398911237716677,2.129413604736328
1790097086851381504,7.196381347656256,0.42691830154451627,-1.383348270446258,2.2312774217456584
1790097086861381376,7.206381347656256,0.4059080183506012,-1.4332767724990845,2.2460854053497314
1790097086871381504,7.216381347656256,0.3609289527070356,-1.5025688345763835,2.2400071043452616
1790097086881381376,7.226381347656256,0.4028537571430206,-1.2909493446350098,2.0726046562194824
1790097086891381504,7.236381347656256,0.4084997946355728,-1.2549290512781124,2.0530936825810673
1790097086901381376,7.246381347656256,0.451110690832138,-0.9830822944641112,1.905843496322632
1790097086911381504,7.256381347656256,0.4537379696903916,-0.9449868222309821,1.8832197298915199
1790097086921381376,7.266381347656257,0.4741970734226909,-0.7811490630194677,1.777087153095744
1790097086931381504,7.276381347656256,0.49073798192231594,-0.6647394658690917,1.6287639717381661
1790097086941381376,7.286381347656256,0.4607702379849542,-0.6198580788557941,1.439703900851128
1790097086951381504,7.296381347656256,0.42711619792781874,-0.5469931004757257,1.2552149198291545
1790097086961381376,7.306381347656256,0.3624994930504509,-0.44461996052591274,1.0606661029894207
1790097086971381504,7.3163813476562565,0.3271087110042572,-0.4064424932003021,0.980409860610962
1790097086981381376,7.326381347656256,0.28766095901271294,-0.34910093785888696,0.865320045072157
1790097086991381504,7.336381347656256,0.22124383265278233,-0.21820905972684768,0.6938384029935531
1790097087001381376,7.346381347656257,0.15993121934359902,-0.09417015559976422,0.543305035843984
1790097087011381504,7.3563813476562565,0.1372438118974058,0.08547296448230282,0.26904833105421055
1790097087021381376,7.366381347656256,0.1353026628494262,0.1133885234594345,0.2253262847661972
1790097087031381504,7.376381347656256,0.1311523297941795,0.3268341098020874,-0.17903453533705077
1790097087041381376,7.386381347656256,0.1175880953669548,0.5086830258369446,-0.3659738600254059
1790097087051381504,7.3963813476562565,0.10757849177092516,0.5053464949262005,-0.37055452545528417
1790097087061381376,7.406381347656256,-0.003008564964342264,0.4831497664712288,-0.4288672737211014
1790097087071381504,7.416381347656256,-0.08658238381363324,0.5540311867071007,-0.5291432246534956
1790097087081381376,7.426381347656257,-0.15476829763840366,0.6220631312813164,-0.6651318942903127
1790097087091381504,7.436381347656257,-0.20568257116356678,0.7038024994911705,-0.8223667428580207
1790097087101381376,7.446381347656256,-0.24748728746154525,0.8828207099081984,-1.0751928655819145
1790097087111381504,7.456381347656256,-0.268467366695404,1.0712733268737793,-1.2993484735488892
1790097087121381376,7.466381347656256,-0.32906684717768864,1.0417668186913238,-1.325682270207636
1790097087131381504,7.476381347656257,-0.42378200333783983,1.0789874811862012,-1.3911732792058165
1790097087141381376,7.486381347656256,-0.46856711341356744,1.2909604092192288,-1.5721254929966306
1790097087151381504,7.496381347656256,-0.4779879748821258,1.3834162950515747,-1.6566941738128662
1790097087161381376,7.506381347656257,-0.558709285130929,1.2272190780198,-1.682338429196426
1790097087171381504,7.516381347656257,-0.6391252071861542,1.1420274765263252,-1.8493947010576115
1790097087181381376,7.526381347656256,-0.650934100151062,1.1341906785964966,-1.8833184242248533
1790097087191381504,7.536381347656256,-0.6717415791086379,1.2353379013600356,-1.9955197682293608
1790097087201381376,7.546381347656256,-0.7052868735674358,1.4070755446505923,-2.0994229439418444
1790097087211381504,7.556381347656257,-0.7877638936042786,1.2160441875457764,-1.986017107963562
1790097087221381376,7.5663813476562565,-0.7958895086093907,1.1904840144402764,-1.9757614900796836
1790097087231381504,7.576381347656256,-0.8574162608958732,0.9843381780533327,-1.9024121274801242
1790097087241381376,7.586381347656257,-0.8937787311050046,0.7896081519725678,-1.8768717749145878
1790097087251381504,7.596381347656257,-0.9166526794433594,0.6381826996803284,-1.853997826576233
1790097087261381376,7.6063813476562565,-0.9291853638190235,0.5789372351305567,-1.8330340288537572
1790097087271381504,7.616381347656256,-0.9521050653628239,0.43535304298546895,-1.7710230477092266
1790097087281381376,7.626381347656256,-0.9397098393595797,0.35706152763196125,-1.7158465643024647
1790097087291381504,7.636381347656257,-0.8960672358305015,0.3187569022450151,-1.6795558867933302
1790097087301381376,7.6463813476562565,-0.8371052091580591,0.27768474086843326,-1.6410760567798481
1790097087311381504,7.656381347656256,-0.7305824366467059,0.1272681434743655,-1.6195469560435871
1790097087321381376,7.666381347656257,-0.6906391978263855,0.0639098957180976,-1.616989016532898
1790097087331381504,7.676381347656257,-0.6364061535948211,0.016517049287364763,-1.6306694799221118
1790097087341381376,7.686381347656257,-0.5649278544887604,0.008864369509821734,-1.6251536245198523
1790097087351381504,7.696381347656256,-0.5015100208477647,0.024747617590712454,-1.5899236914883172
1790097087361381376,7.706381347656256,-0.44109400052718184,0.029639315208648143,-1.5342289610414628
1790097087371381504,7.716381347656257,-0.3645080991492759,-0.0023782114891981575,-1.4701451597740605
1790097087381381376,7.726381347656257,-0.1939440071582794,-0.182872399687767,-1.464888095855713
1790097087391381504,7.736381347656256,-0.18240554855714505,-0.19805457926375222,-1.4698476134305944
1790097087401381376,7.746381347656257,-0.11392356651888245,-0.2912520895411202,-1.4967579538997324
1790097087411381504,7.756381347656257,-0.07251988694760726,-0.34331655318210114,-1.474907187786538
1790097087421381376,7.766381347656257,-0.0662426853279845,-0.3219668844345293,-1.3801389570674918
1790097087431381504,7.776381347656256,-0.07715521613494508,-0.29389391866752435,-1.3025034987752389
1790097087441381376,7.786381347656256,-0.0699420124292373,-0.2769428789615631,-1.2559783458709717
1790097087451381504,7.796381347656257,-0.04299359401171788,-0.22889027310412474,-1.1998087121730188
1790097087461381376,7.806381347656257,0.04156190338837648,-0.18436592285193595,-1.088412330248472
1790097087471381504,7.8163813476562565,0.19355226937228276,-0.2223904771525273,-0.9971477947895157
1790097087481381376,7.826381347656257,0.3261657198393394,-0.24247344170080767,-0.9429562840073366
1790097087491381504,7.836381347656257,0.3605551855268221,-0.2184413127338079,-0.9055668315646116
1790097087501381376,7.846381347656257,0.2847813196263693,-0.20085335256202932,-0.8586826516120056
1790097087511381504,7.8563813476562565,0.17156904753178773,-0.2146509722186031,-0.7758891248529518
1790097087521381376,7.866381347656256,0.00756078328535098,-0.2510069814692597,-0.49099672993311144
1790097087531381504,7.876381347656257,0.0013529949618284838,-0.25014832703458695,-0.47173334216877
1790097087541381376,7.886381347656257,0.023517619818449,-0.1303395330905914,-0.103920392692089
1790097087551381504,7.8963813476562565,0.02058354027513607,-0.11661839667749702,-0.08415850408456936
1790097087561381376,7.906381347656257,0.0017604953218212016,-0.015795727419194754,0.06561314822282131
1790097087571381504,7.916381347656257,-0.0021379655227065,0.0529146455228328,0.1825669705867767
1790097087581381376,7.926381347656257,0.0010305228003084218,0.07172754501621531,0.19821138175714426
1790097087591381504,7.936381347656257,-0.0003634608598692352,0.08953590840604775,0.27223075562100496
1790097087601381376,7.946381347656256,-0.04229206569956859,0.011756013875953528,0.3718520655386388
1790097087611381504,7.956381347656257,-0.0784938707947731,-0.0423775278031826,0.4134672284126282
1790097087621381376,7.966381347656257,-0.13748479506636213,-0.11733069741648686,0.5068116824964551
1790097087631381504,7.976381347656257,-0.1823379099369049,-0.1743205338716507,0.5777851343154907
1790097087641381376,7.986381347656257,-0.16505692957622634,-0.26662625046313204,0.6688264177687441
1790097087651381504,7.996381347656257,-0.1572931706905365,-0.3080960810184479,0.7097281813621521
1790097087661381376,8.006381347656257,-0.13001366633003877,-0.28577649699109764,0.7737729794166498
1790097087671381504,8.016381347656257,-0.05224460882541558,-0.12437344542120213,0.9986939500361605
1790097087681381376,8.026381347656256,-0.0418430380523204,-0.1016297116875648,1.0292776823043823
1790097087691381504,8.036381347656258,-0.005380169197171693,-0.0682054177078017,1.148389716611271
1790097087701381376,8.046381347656258,0.016037600460624638,-0.09572653612654972,1.2584858369379837
1790097087711381504,8.056381347656258,0.0754396393895149,-0.2024195045232772,1.374406337738037
1790097087721381376,8.066381347656257,0.08108716719547863,-0.21121661771705105,1.3808141035323218
1790097087731381504,8.076381347656257,0.11070415787567844,-0.2629829456196632,1.4164262622624362
1790097087741381376,8.086381347656257,0.13083565474345302,-0.29685777417042697,1.4444627182206053
1790097087751381504,8.096381347656257,0.1517955511808395,-0.2934357523918152,1.4654226303100586
1790097087761381376,8.106381347656257,0.15411387593911596,-0.2764346832185822,1.48139328823953
1790097087771381504,8.116381347656258,0.1726247641958154,-0.22540502488570913,1.5357273125386017
1790097087781381376,8.126381347656258,0.21595608819086884,-0.18175262700398728,1.5997117931458038
1790097087791381504,8.136381347656258,0.2684508913838722,-0.17262985301477565,1.6427089853078503
1790097087801381376,8.146381347656257,0.3185073982679975,-0.20522002027015696,1.6710481379813888
1790097087811381504,8.156381347656257,0.36622633352938155,-0.3516695790555189,1.7449033271369463
1790097087821381376,8.166381347656257,0.39140834501280186,-0.5491096405002572,1.784537169495847
1790097087831381504,8.176381347656257,0.41512649183536715,-0.7347283683444795,1.792188843374384
1790097087841381376,8.186381347656257,0.4187358021736145,-0.7607339024543762,1.7928366661071775
1790097087851381504,8.196381347656256,0.47979512694142795,-0.7482848922879838,1.802914455523386
1790097087861381376,8.206381347656256,0.5645913657843545,-0.6218504777770897,1.843073859370093
1790097087871381504,8.216381347656258,0.6621421312385476,-0.5648081954132061,1.933557742822761
1790097087881381376,8.226381347656258,0.741015708813051,-0.6517362845585758,2.0509024663076683
1790097087891381504,8.236381347656257,0.7624680562156664,-0.8411162644275249,2.131029887667164
1790097087901381376,8.246381347656257,0.7409224949067621,-1.1470149617948437,2.1675851246869033
1790097087911381504,8.256381347656257,0.6661083895060472,-1.5512049635699525,2.180444061079879
1790097087921381376,8.266381347656257,0.615428626537323,-1.6971627473831177,2.1630101203918457
1790097087931381504,8.276381347656256,0.5614089709504266,-1.7654570337776443,2.098914286150725
1790097087941381376,8.286381347656258,0.4975350797176361,-1.846209526062012,2.0231261253356934
1790097087951381504,8.296381347656258,0.4982438815623224,-1.7565477007145498,1.9798900081673165
1790097087961381376,8.306381347656258,0.5390958127729291,-1.5099437163293035,1.9278457770784339
1790097087971381504,8.316381347656257,0.6238627321349136,-1.2062260654373982,1.9115101184238714
1790097087981381376,8.326381347656257,0.719232936762013,-0.8594947902087697,1.7538239254947243
1790097087991381504,8.336381347656257,0.740652322769165,-0.7784484624862671,1.7054855823516846
1790097088001381376,8.346381347656257,0.7347055571919135,-0.7081688365590569,1.5324895232601714
1790097088011381504,8.356381347656257,0.6362751419587389,-0.5730654689160162,1.2314873019788126
1790097088021381376,8.366381347656256,0.6099309921264648,-0.4681380689144134,1.1618314981460571
1790097088031381504,8.376381347656258,0.6083538904836114,-0.4616636506846111,1.1571001932174971
1790097088041381376,8.386381347656258,0.5843563215174036,-0.3549698485754414,1.0736101304845156
1790097088051381504,8.396381347656257,0.5620136031512993,-0.18929331705860503,0.9095099464459625
1790097088061381376,8.406381347656257,0.5102787118521255,0.009110026839453894,0.7131305817252923
1790097088071381504,8.416381347656257,0.4067753132312805,0.0710360384325377,0.5675851562157538
1790097088081381376,8.426381347656257,0.3194409050657813,0.1679495216793203,0.3904959864294264
1790097088091381504,8.436381347656257,0.26747253747534416,0.2527776201242083,0.09556306208275564
1790097088101381376,8.446381347656258,0.23104480472240543,0.41874128920694953,-0.24636456854932626
1790097088111381504,8.456381347656258,0.2171562016010284,0.4879142343997955,-0.352535218000412
1790097088121381376,8.466381347656258,0.1862664356590305,0.5496937846626363,-0.46705337869780916
1790097088131381504,8.476381347656258,0.15092264411932546,0.7387713186793302,-0.6632459335197067
1790097088141381376,8.486381347656257,-0.03181631191701248,0.8117951720757701,-0.8770141344986391
1790097088151381504,8.496381347656257,-0.0937650576233863,0.812274158000946,-0.9316184520721436
1790097088161381376,8.506381347656257,-0.15947630246307912,0.8995386762724332,-1.0520014456936009
1790097088171381504,8.516381347656257,-0.22190977223681696,1.0020534647732344,-1.1987228117694857
1790097088181381376,8.526381347656256,-0.20411272903208305,1.2550460905763159,-1.3902041528477296
1790097088191381504,8.536381347656258,-0.29311500810701885,1.3398851571641233,-1.5005834534990885
1790097088201381376,8.546381347656258,-0.40666264186437234,1.2284507771165802,-1.5672887118235412
1790097088211381504,8.556381347656258,-0.5335750579833984,1.3400461673736572,-1.7434344291687012
1790097088221381376,8.566381347656257,-0.5485289459830279,1.4097502595215343,-1.8148154188193613
1790097088231381504,8.576381347656257,-0.5996229648590088,1.6479132175445557,-2.0587079524993896
1790097088241381376,8.586381347656257,-0.6462245431524621,1.6242932181728742,-2.0946698751620048
1790097088251381504,8.596381347656257,-0.7544008946564844,1.571608161757042,-2.1701920369446843
1790097088261381376,8.606381347656258,-0.784709632396698,1.5593403577804563,-2.1820991039276123
1790097088271381504,8.616381347656258,-0.809698379626171,1.5109855211718688,-2.1678198921771927
1790097088281381376,8.626381347656258,-0.8447685400661581,1.3735409058949175,-2.109277421672289
1790097088291381504,8.636381347656258,-0.8617154928352081,1.0433435061006229,-1.9806863406809483
1790097088301381376,8.646381347656257,-0.8659523725509644,0.9026795625686646,-1.9292083978652956
1790097088311381504,8.656381347656257,-0.8650053659173232,0.7587370953765985,-1.9221059174162978
1790097088321381376,8.666381347656257,-0.8683059017717862,0.592358736827494,-1.921577919324652
1790097088331381504,8.676381347656257,-0.8399633196670473,0.2314035129674759,-1.88564266000779
1790097088341381376,8.686381347656257,-0.8366316556930542,0.1927986592054367,-1.881485939025879
1790097088351381504,8.696381347656258,-0.7772815417394519,0.12084050999635425,-1.8126351765101638
1790097088361381376,8.706381347656258,-0.6647065036506696,0.16416309037322116,-1.7599763911369455
1790097088371381504,8.716381347656258,-0.47122622786622015,0.22693600640042558,-1.7852665394692608
1790097088381381376,8.726381347656258,-0.2104368805885315,0.2190650999546051,-1.850332736968994
1790097088391381504,8.736381347656257,-0.18859377927107396,0.18983388957101205,-1.8432658498658214
1790097088401381376,8.746381347656257,-0.11964566919404422,0.0811817163226186,-1.805847181721963
1790097088411381504,8.756381347656257,-0.08943307908121813,-0.014539153548965313,-1.7368824132481337
1790097088421381376,8.766381347656258,-0.038836900882220554,-0.12607676794847655,-1.6412850742122274
1790097088431381504,8.776381347656258,0.026987989527393244,-0.22463307381980274,-1.5406280918848747
1790097088441381376,8.786381347656258,0.10289595578289373,-0.30763463183085865,-1.4644796699709586
1790097088451381504,8.796381347656258,0.2264657235960817,-0.3359316592511977,-1.433925068381219
1790097088461381376,8.806381347656258,0.299074570162976,-0.28028773692842385,-1.43765336692578
1790097088471381504,8.816381347656257,0.3081724345684051,-0.2567849159240722,-1.4410650730133057
1790097088481381376,8.826381347656257,0.3280046160456818,-0.20075905042036865,-1.4291657544511236
1790097088491381504,8.836381347656257,0.31608186173776087,-0.15097889994406874,-1.3736329730332393
1790097088501381376,8.846381347656257,0.3672776856341248,-0.1393374855190179,-1.279816398705518
1790097088511381504,8.856381347656258,0.4603981255431273,-0.0629488525394572,-1.157652667876294
1790097088521381376,8.866381347656258,0.5249215100893461,0.0312636632289949,-1.0302696771950093
1790097088531381504,8.876381347656258,0.5428205543712712,0.06392324808605804,-0.9121852077676087
1790097088541381376,8.886381347656258,0.5341859459877014,0.1103342846035957,-0.7648571133613586
1790097088551381504,8.896381347656257,0.5264658118284662,0.12315261557131593,-0.7419880560096762
1790097088561381376,8.906381347656257,0.49120228866623494,0.1622597512689686,-0.6384082872101213
1790097088571381504,8.916381347656257,0.41486679237420987,0.14961467029788453,-0.4766811506341983
1790097088581381376,8.926381347656259,0.3234436213970184,0.1347681730985641,-0.3164952397346496
1790097088591381504,8.936381347656258,0.3234436213970184,0.14684875990493304,-0.24990469262834575
1790097088601381376,8.946381347656258,0.3211204246681139,0.19333342407030002,-0.11173462234348655
1790097088611381504,8.956381347656258,0.3106778108657581,0.2591592793661325,0.0008127316829515951
1790097088621381376,8.966381347656258,0.29658440085451915,0.3171373977782862,0.07721423879682035
1790097088631381504,8.976381347656258,0.27898187271464375,0.33700970373382305,0.11612394098635685
1790097088641381376,8.986381347656257,0.2609816587133873,0.3179840036116535,0.13725986166947013
1790097088651381504,8.996381347656257,0.23260279623277239,0.2715939662634961,0.16538058170470327
1790097088661381376,9.006381347656257,0.16984043702573887,0.17097016993567754,0.33023332248251447
1790097088671381504,9.016381347656258,0.1367534478019383,0.10949771313355489,0.4653842263501842
1790097088681381376,9.026381347656258,0.13517242523388567,0.10695977649338974,0.4731778734325498
1790097088691381504,9.036381347656258,0.11113449863867435,0.07728457909681026,0.6136984227730296
1790097088701381376,9.046381347656258,0.10002342740545031,0.07362057401668624,0.7533306821588223
1790097088711381504,9.056381347656258,0.08966500865932864,0.10560203289637064,0.8895814351694779
1790097088721381376,9.066381347656257,0.07389828837389718,0.17435002190643975,0.9926558392977844
1790097088731381504,9.076381347656257,0.025421570989054083,0.18715290471361162,1.041728481531862
1790097088741381376,9.086381347656259,-0.006791682466290914,-0.0011386639272782384,1.0251896842874761
1790097088751381504,9.096381347656258,-0.0045813545584678,-0.2299076318740844,0.9883508682250975
1790097088761381376,9.106381347656258,0.029965376296108282,-0.2644543627286605,0.9756731583310054
1790097088771381504,9.116381347656258,0.10025339475685074,-0.223527080779914,0.9717091140827844
1790097088781381376,9.126381347656258,0.1815977483891255,-0.019173928457366762,1.0849975503575922
1790097088791381504,9.136381347656258,0.20780058303783838,0.06402777031080024,1.2156398590628563
1790097088801381376,9.146381347656257,0.2061609476804733,0.0632990449666976,1.245517611503601
1790097088811381504,9.156381347656257,0.17496494420621597,0.03059355314747854,1.294324237155987
1790097088821381376,9.166381347656257,0.12829844652985142,-0.015315188222672523,1.30476975440979
1790097088831381504,9.176381347656259,0.10229027114714902,-0.004212786700746388,1.2579799663561195
1790097088841381376,9.186381347656258,0.13315090932425047,0.09312602715593922,1.2014555267376403
1790097088851381504,9.196381347656258,0.1768402755260467,0.1689756214618683,1.1893196105957031
1790097088861381376,9.206381347656258,0.169535930620692,0.14470634531036047,1.2065201710626876
1790097088871381504,9.216381347656258,0.11250617700016638,-0.04038394398317055,1.33177825228478
1790097088881381376,9.226381347656258,0.0803264155983924,-0.128506988286972,1.3689087629318235
1790097088891381504,9.236381347656257,0.08203881688828242,-0.13059992293898118,1.357302477981883
1790097088901381376,9.246381347656259,0.08582404255867,-0.135226309299469,1.3316470384597778
1790097088911381504,9.256381347656259,0.13983359053592886,-0.07883398699240503,1.3448846777067394
1790097088921381376,9.266381347656258,0.2104368805885315,-0.0051158457063138,1.3621894121170044
1790097088931381504,9.276381347656258,0.23791560459339461,-0.035647766008497644,1.4042555725614978
1790097088941381376,9.286381347656258,0.277987160710958,-0.15873317873436926,1.469936316551606
1790097088951381504,9.296381347656258,0.36453389958362825,-0.3467335417988766,1.474134981539582
1790097088961381376,9.306381347656258,0.4680561221969805,-0.3615052202423352,1.4607816615942675
1790097088971381504,9.316381347656257,0.5677099409667258,-0.31215953244857436,1.4738377821943678
1790097088981381376,9.326381347656257,0.5867187976837158,-0.3038201630115509,1.4776395559310913
1790097088991381504,9.336381347656259,0.6204808187716069,-0.6329998274385296,1.4962086428214558
1790097089001381376,9.346381347656258,0.6233696341514587,-0.6611657738685608,1.4977974891662598
1790097089011381504,9.356381347656258,0.5604523420333862,-1.1938246488571167,1.498408317565918
1790097089021381376,9.366381347656258,0.5523126938611211,-1.2081326222208573,1.4965641727096812
1790097089031381504,9.376381347656258,0.4716762647178534,-1.3335844188883168,1.4745427872048857
1790097089041381376,9.386381347656258,0.4068033672910868,-1.3270897620675783,1.4373570996442708
1790097089051381504,9.396381347656257,0.35786723643916757,-1.2327756615602616,1.4200610909530993
1790097089061381376,9.406381347656259,0.3306932950945518,-1.1299144381136763,1.4257958920108247
1790097089071381504,9.416381347656259,0.32336159690805316,-1.0727146724737084,1.3877449418906918
1790097089081381376,9.426381347656259,0.31507545566179074,-1.0326986083933063,1.291149452140996
1790097089091381504,9.436381347656258,0.28556990945600746,-0.9328536592224088,1.1397914126883197
1790097089101381376,9.446381347656258,0.2623589038848877,-0.865799605846405,1.0555440187454224
1790097089111381504,9.456381347656258,0.2264680465543189,-0.8231293987260764,1.0212483586215906
1790097089121381376,9.466381347656258,0.17337247074614534,-0.7520398669090765,0.9851340819872256
1790097089131381504,9.476381347656258,0.12944729414233327,-0.662591015734208,0.969920872802065
1790097089141381376,9.486381347656257,0.09664869608541968,-0.5722906224533688,0.9303153375986426
1790097089151381504,9.496381347656259,0.07659520615686957,-0.5065061591816833,0.8578066345539392
1790097089161381376,9.506381347656259,0.07073383001895775,-0.4595633999223368,0.7777601403273727
1790097089171381504,9.516381347656258,0.05885562638936441,-0.35103452525454865,0.7016689159466073
1790097089181381376,9.526381347656258,0.0540599822998046,-0.1676012128591537,0.663303792476654
1790097089191381504,9.536381347656258,0.05972824987549636,-0.16657061913540022,0.652997851049024
1790097089201381376,9.546381347656258,0.0943759009242057,-0.1602710485458374,0.5900021195411682
1790097089211381504,9.556381347656258,0.09694188126004506,-0.15193161489948231,0.5288997290540604
1790097089221381376,9.56638134765626,0.09822120745566221,-0.08898530158384382,0.31715477350589316
1790097089231381504,9.576381347656259,0.08582404255867,-0.0063375402241945,0.2332672923803329
1790097089241381376,9.586381347656259,0.06840956180353013,0.03148453291009206,0.19544522007575954
1790097089251381504,9.596381347656258,0.007133317104694378,0.1076489096304403,0.11402193850080794
1790097089261381376,9.606381347656258,-0.05883885222352413,0.16544959936367323,0.05386843409002233
1790097089271381504,9.616381347656258,-0.08931118340599807,0.21861785864013172,0.007036345687233717
1790097089281381376,9.626381347656258,-0.09414460998473642,0.2818342681888032,-0.0427349701072378
1790097089291381504,9.636381347656258,-0.11805587357679437,0.44427600464075545,-0.1603116311903212
1790097089301381376,9.646381347656257,-0.14150204293837257,0.5758229742745588,-0.24288977202525364
1790097089311381504,9.656381347656259,-0.1573304994367635,0.6678833745570194,-0.30000913733944945
1790097089321381376,9.666381347656259,-0.12891355545307395,0.7651448145093604,-0.3774067305030351
1790097089331381504,9.676381347656259,-0.1267508119344711,0.7713474035263062,-0.3824667334556579
1790097089341381376,9.686381347656258,-0.17084138707278818,0.7320295177583508,-0.4295479637806222
1790097089351381504,9.696381347656258,-0.1517955511808395,0.8641961812973022,-0.5663317441940308
1790097089361381376,9.706381347656258,-0.16250500485465175,0.8455898502793012,-0.5784474965881746
1790097089371381504,9.716381347656258,-0.21561393439732254,0.7742534186259724,-0.6651380803360339
1790097089381381376,9.72638134765626,-0.2427589523813463,0.8454919436331451,-0.7881698186502655
1790097089391381504,9.736381347656259,-0.2953689147053827,0.8816421768309496,-0.8678946269952877
1790097089401381376,9.746381347656259,-0.33324650545471574,0.9019288417528777,-0.9526976097633787
1790097089411381504,9.756381347656259,-0.3509317636489868,0.9723161458969116,-1.0220237970352173
1790097089421381376,9.766381347656258,-0.4076410179252474,0.9238976893157553,-1.0973045132231607
1790097089431381504,9.776381347656258,-0.4553866386413574,0.8831323981285095,-1.1606861352920532
1790097089441381376,9.786381347656258,-0.5163028399548677,0.9083111173908006,-1.251654401110185
1790097089451381504,9.796381347656258,-0.5470137000083923,0.9210049510002136,-1.2975159883499146
1790097089461381376,9.806381347656258,-0.5735074321510554,0.9560895819899207,-1.3273138221710088
1790097089471381504,9.81638134765626,-0.6039896757665287,0.9837213464080159,-1.33953125167382
1790097089481381376,9.826381347656259,-0.6353741603176344,0.9903069807415632,-1.3186267493320916
1790097089491381504,9.836381347656259,-0.6742387526469087,0.9402930686981344,-1.301643769932366
1790097089501381376,9.846381347656258,-0.727829264732126,0.8777251541776087,-1.2978531877474726
1790097089511381504,9.856381347656258,-0.7877973542669705,0.8162224529412861,-1.3096304667426895
1790097089521381376,9.866381347656258,-0.8345318430416465,0.739452943813656,-1.3128973253957201
1790097089531381504,9.876381347656258,-0.8530063882245326,0.6604586622522995,-1.2632854449089779
1790097089541381376,9.88638134765626,-0.8347148918745974,0.618083070621116,-1.2363469787795824
1790097089551381504,9.89638134765626,-0.8231930136680603,0.5746545791625977,-1.224825143814087
1790097089561381376,9.906381347656259,-0.822708635575868,0.5371141071935542,-1.2257938999984714
1790097089571381504,9.916381347656259,-0.8242068278529265,0.43191028706102197,-1.233695497841862
1790097089581381376,9.926381347656259,-0.8268581032752991,0.3086831536538008,-1.2574683315845718
1790097089591381504,9.936381347656258,-0.8187179552553265,0.18876728635489837,-1.2859201447207875
1790097089601381376,9.946381347656258,-0.7893386546307675,0.1060841454955094,-1.2800367572409537
1790097089611381504,9.956381347656258,-0.7414572516650599,0.0646073371654187,-1.2279809697955186
1790097089621381376,9.966381347656258,-0.6628860344446105,0.08219010898688406,-1.1215473703847396
1790097089631381504,9.97638134765626,-0.6263977552314781,0.08715898603924645,-1.0951095614502222
1790097089641381376,9.986381347656259,-0.6314773330282569,0.05248267047919546,-1.1234125214056108
1790097089651381504,9.996381347656259,-0.6326087117195129,0.048027865588665,-1.127089500427246
1790097089661381376,10.006381347656259,-0.655938132832785,0.007227914089009476,-1.1804563493091924
1790097089671381504,10.016381347656258,-0.6728706206860389,-0.07363443983591474,-1.2155760983102053
1790097089681381376,10.026381347656258,-0.646658182144165,-0.1175117418169975,-1.2058888673782349
1790097089691381504,10.036381347656258,-0.6400736677441601,-0.12686868385189376,-1.2036940292448999
1790097089701381376,10.04638134765626,-0.5965456546683183,-0.1747806911796932,-1.1901584912265213
1790097089711381504,10.05638134765626,-0.539279218441852,-0.1897838997530134,-1.1709501727013036
1790097089721381376,10.06638134765626,-0.48562441115336535,-0.19580696545467602,-1.142620152672541
1790097089731381504,10.076381347656259,-0.418894341137771,-0.244378628044146,-1.1140228645026848
1790097089741381376,10.086381347656259,-0.3943018913269043,-0.2537306845188141,-1.1057099103927612
1790097089751381504,10.096381347656258,-0.3105790827672996,-0.2862707295658401,-1.0745256750610392
1790097089761381376,10.106381347656258,-0.22348412806976342,-0.3097386315549079,-1.0164065063354346
1790097089771381504,10.116381347656258,-0.16598227147910488,-0.32711452641885075,-0.9655759554665307
1790097089781381376,10.126381347656258,-0.144465371966362,-0.3361950516700744,-0.9511655569076538
1790097089791381504,10.13638134765626,-0.08249573126579096,-0.36498411445482115,-0.9126175107709597
1790097089801381376,10.14638134765626,0.01556428021661424,-0.39114124336700007,-0.8383124232232798
1790097089811381504,10.156381347656259,0.0290152449160814,-0.394225537776947,-0.8277744054794312
1790097089821381376,10.166381347656259,0.030814227143883325,-0.34325437831296296,-0.7792018451010094
1790097089831381504,10.176381347656259,0.005546128397748509,-0.24828866056138305,-0.708599349304459
1790097089841381376,10.186381347656258,0.033070182065627604,-0.176988256880862,-0.6460673023904894
1790097089851381504,10.196381347656258,0.09917454936644254,-0.13671703043117497,-0.571359503289783
1790097089861381376,10.20638134765626,0.1762294322252273,-0.1101815775036811,-0.4728721380233764
1790097089871381504,10.21638134765626,0.1818303812623686,-0.10143009703486294,-0.45746953137352464
1790097089881381376,10.22638134765626,0.20087117375269578,-0.07751645221753645,-0.400437290023812
1790097089891381504,10.236381347656259,0.19346979814462753,-0.0750278360086279,-0.3187035457748807
1790097089901381376,10.246381347656259,0.1737740646691015,-0.07203426833577073,-0.22733407884612275
1790097089911381504,10.256381347656259,0.1792836636304855,-0.0662005692720413,-0.2004342526197433
1790097089921381376,10.266381347656258,0.18036742209284484,-0.018876529428499475,-0.15997401012897247
1790097089931381504,10.276381347656258,0.18749225539504893,0.04769312786062432,-0.09456013256828144
1790097089941381376,10.286381347656258,0.18958257818019347,0.04134145334331001,-0.04061264077690286
1790097089951381504,10.29638134765626,0.18054356354379103,0.027751138816856986,-0.008034380084142086
1790097089961381376,10.30638134765626,0.15867368904490223,0.02970951987067922,0.036767051717583835
1790097089971381504,10.31638134765626,0.1548497825860977,0.0303132943809032,0.0445154942572116
1790097089981381376,10.326381347656259,0.10398015271247452,-0.008277454643795177,0.14800886404826272
1790097089991381504,10.336381347656259,0.09799655439048655,-0.012668156815818253,0.18389974368004447
1790097090001381376,10.346381347656258,0.0955975949764251,-0.0246629584580659,0.189897134900093
1790097090011381504,10.356381347656258,0.09516966134162805,-0.02971257101643992,0.18758629556879342
1790097090021381376,10.36638134765626,0.09229766926013414,-0.06856492931736936,0.17156160926728042
1790097090031381504,10.37638134765626,0.08844027294395122,-0.10251848726160416,0.1735260342779134
1790097090041381376,10.38638134765626,0.05802942242359638,-0.11550917435485178,0.24643519208138598
1790097090051381504,10.39638134765626,0.0113006746396422,-0.1266744434833526,0.3444415032863617
1790097090061381376,10.406381347656259,-0.0020179857070828124,-0.16037880807028712,0.3871155726168604
1790097090071381504,10.416381347656259,-0.0186308417469263,-0.2024195045232772,0.4403445124626159
1790097090081381376,10.426381347656259,-0.02382510837561007,-0.14216601500948498,0.48640033929484916
1790097090091381504,10.436381347656258,-0.027793550863862,-0.0961320847272872,0.5215871930122375
1790097090101381376,10.446381347656258,-0.03536750465871867,-0.0649947141365233,0.6267810138240142
1790097090111381504,10.45638134765626,-0.0387887991964817,-0.0509293898940086,0.6742990016937256
1790097090121381376,10.46638134765626,-0.061571495659970193,-0.1242302404358315,0.7317510322576584
1790097090131381504,10.47638134765626,-0.07061526005168728,-0.24091188125154012,0.8416059507259657
1790097090141381376,10.486381347656259,-0.0711637064814567,-0.2555632293224334,0.8557969927787781
1790097090151381504,10.496381347656259,-0.041421361118938835,-0.2555632293224334,0.8916092244859112
1790097090161381376,10.506381347656259,-0.0032459271985893377,-0.19168033279148614,0.9325139492909682
1790097090171381504,10.516381347656258,0.02091201705849228,-0.09826421694014262,0.9872363133177289
1790097090181381376,10.52638134765626,0.02966249911464034,-0.08755188773799297,1.0451313190244458
1790097090191381504,10.53638134765626,0.03384120094004235,-0.1552817675278706,1.1073470356730182
1790097090201381376,10.54638134765626,0.0468672342047412,-0.2266261085311631,1.166281635033324
1790097090211381504,10.55638134765626,0.08584926167843432,-0.23422649490977954,1.2150761774925234
1790097090221381376,10.56638134765626,0.1474442337302836,-0.16567008731266755,1.2720001243158112
1790097090231381504,10.576381347656259,0.1902789175510406,-0.1040730997920036,1.3127107620239258
1790097090241381376,10.586381347656259,0.2045255378346331,-0.20015492171243793,1.3050904558925494
1790097090251381504,10.596381347656258,0.216545358300209,-0.2812187969684601,1.298661231994629
1790097090261381376,10.606381347656258,0.2157337176188679,-0.34290315216308037,1.274312189747674
1790097090271381504,10.61638134765626,0.2520970613128391,-0.3359650390039688,1.2513771669524933
1790097090281381376,10.62638134765626,0.2660239934921264,-0.3215347230434418,1.2473500967025757
1790097090291381504,10.63638134765626,0.32140090452134745,-0.2765086232906746,1.3260163836039558
1790097090301381376,10.64638134765626,0.3313846290111542,-0.2683910131454468,1.3401988744735718
1790097090311381504,10.656381347656259,0.38052220763958877,-0.33469712837900123,1.3840083035012145
1790097090321381376,10.666381347656259,0.38484982172575644,-0.3342438099902713,1.3828763702858036
1790097090331381504,10.676381347656259,0.48155863890923317,-0.23943264671231465,1.295872299996272
1790097090341381376,10.68638134765626,0.5723840820517542,-0.10624210364659192,1.235346810725132
1790097090351381504,10.69638134765626,0.6555802765884062,-0.08553871464575193,1.2360604746023816
1790097090361381376,10.70638134765626,0.7046123147010803,-0.1908134073019027,1.2846118211746216
1790097090371381504,10.71638134765626,0.718528109683798,-0.27737790011110586,1.3198106143384667
1790097090381381376,10.72638134765626,0.7599370844335628,-0.5331341704383987,1.4235407275956342
1790097090391381504,10.736381347656259,0.8113922326950859,-0.7479718737563715,1.485244432356433
1790097090401381376,10.746381347656259,0.8475505709648132,-0.8511393070220947,1.4971866607666016
1790097090411381504,10.756381347656259,0.8185545403269499,-0.8490176428774496,1.4031263780403374
1790097090421381376,10.766381347656258,0.7701016092111063,-0.8013539489010453,1.3218031954482297
1790097090431381504,10.77638134765626,0.7606949673640344,-0.7578427685360672,1.3714785689250286
1790097090441381376,10.78638134765626,0.7888466311953999,-0.7801304264760227,1.47070359312955
1790097090451381504,10.79638134765626,0.7908193755475847,-0.873876023536888,1.5227790710123918
1790097090461381376,10.80638134765626,0.7895200848579407,-0.8920660614967346,1.5289506912231443
1790097090471381504,10.81638134765626,0.6983460164984403,-0.949771188010261,1.3517959663402777
1790097090481381376,10.826381347656259,0.6924957170860074,-0.9530990688268255,1.340844494014431
1790097090491381504,10.836381347656259,0.5984498500724574,-0.937924422378041,1.2348511656818475
1790097090501381376,10.84638134765626,0.5316428302720435,-0.8557777652800999,1.1735662492589163
1790097090511381504,10.85638134765626,0.46834366551275514,-0.8739256583150089,1.1952987819926497
1790097090521381376,10.86638134765626,0.4424216468821881,-0.8510219889996145,1.2006442666991983
1790097090531381504,10.87638134765626,0.390434502600318,-0.7200672811434538,1.0742920039707384
1790097090541381376,10.88638134765626,0.3289412558078766,-0.5524349808692932,0.8771766424179077
1790097090551381504,10.89638134765626,0.29354495903627864,-0.3820572984373155,0.7931434796612131
1790097090561381376,10.906381347656259,0.2470877170562744,-0.158438503742218,0.6828508973121643
1790097090571381504,10.916381347656259,0.22676960064732138,-0.15064989355355313,0.6757395450039758
1790097090581381376,10.926381347656259,0.19239502580308515,-0.10529833916068035,0.6162734071601128
1790097090591381504,10.93638134765626,0.19640136299468122,-0.0036089159422534323,0.5376426856909085
1790097090601381376,10.94638134765626,0.2037175595760345,0.033367533236742,0.5160895586013794
1790097090611381504,10.95638134765626,0.22614738858116737,0.15624399981065054,0.4497752991262832
1790097090621381376,10.96638134765626,0.23496564402763725,0.3269115124986752,0.34956297538466813
1790097090631381504,10.97638134765626,0.19669687397674576,0.3138121533058814,0.283052427190739
1790097090641381376,10.986381347656259,0.1423902177480908,0.23457744168085096,0.12683983493886747
1790097090651381504,10.996381347656259,0.14043351919283714,0.23229132481748502,0.11167964610761794
1790097090661381376,11.00638134765626,0.1181989461183548,0.2135674655437469,-0.1668376624584198
1790097090671381504,11.01638134765626,0.10346693719556821,0.23471341238006363,-0.20071126130167902
1790097090681381376,11.02638134765626,0.0284043978899717,0.3424562513828277,-0.3733040392398834
1790097090691381504,11.03638134765626,0.002549864540877602,0.3648387645682897,-0.39758633753566647
1790097090701381376,11.04638134765626,-0.062000997364521,0.4207210540771484,-0.4582118093967438
1790097090711381504,11.05638134765626,-0.057266686142363195,0.4595922345554756,-0.48811271278128765
1790097090721381376,11.06638134765626,-0.059560362159504276,0.49138103177775705,-0.5922346362048345
1790097090731381504,11.076381347656259,-0.0699420124292373,0.4634803533554077,-0.6610130667686462
1790097090741381376,11.086381347656259,-0.08509998476332627,0.54684920559489,-0.7620662391398687
1790097090751381504,11.09638134765626,-0.0955975949764251,0.6045860648155212,-0.8320503234863281
1790097090761381376,11.10638134765626,-0.11257782433477453,0.7726467759884977,-0.8912634244563525
1790097090771381504,11.11638134765626,-0.208276364098665,0.8191044513088174,-0.8881852496554907
1790097090781381376,11.12638134765626,-0.3209378244440565,0.8750891520044223,-0.9318041340990514
1790097090791381504,11.13638134765626,-0.3413866384254343,0.9935484917024331,-1.055802466146553
1790097090801381376,11.14638134765626,-0.3838418987283994,0.8931341247716436,-1.1146380067795385
1790097090811381504,11.156381347656259,-0.3863418047673063,0.8905153133334052,-1.1191259729133882
1790097090821381376,11.16638134765626,-0.42088231050275127,1.036598359606676,-1.2553454904564363
1790097090831381504,11.17638134765626,-0.44221789358298047,1.1385658911579295,-1.2697578709321988
1790097090841381376,11.18638134765626,-0.4738612739677789,1.2712653387162893,-1.2690436133805636
1790097090851381504,11.19638134765626,-0.5183038711547852,1.2722420692443848,-1.2578108310699463
1790097090861381376,11.20638134765626,-0.539207366510136,1.2379692340842816,-1.2562350778123663
1790097090871381504,11.21638134765626,-0.6051454419658756,1.1376157761212222,-1.267210673422566
1790097090881381376,11.22638134765626,-0.6638940248662928,1.0681550015033439,-1.3135300881812448
1790097090891381504,11.236381347656259,-0.7220987887733308,1.0049498716283474,-1.3600048624511667
1790097090901381376,11.246381347656259,-0.8117301611337265,0.9076289800563117,-1.328151291482595
1790097090911381504,11.25638134765626,-0.8586221933364868,0.8580876588821411,-1.2907966375350952
1790097090921381376,11.26638134765626,-0.8842672757617801,0.760552233166079,-1.2100775994585526
1790097090931381504,11.27638134765626,-0.8958838582038879,0.7163711190223694,-1.173513889312744
1790097090941381376,11.28638134765626,-0.8934093417543507,0.6525291065066392,-1.1769782702910394
1790097090951381504,11.29638134765626,-0.8832510113777764,0.5332712648395669,-1.1985435892817886
1790097090961381376,11.30638134765626,-0.8340066710554682,0.21315773925595904,-1.2420387119174865
1790097090971381504,11.31638134765626,-0.8305231928825378,0.1909661293029785,-1.2449830770492554
1790097090981381376,11.32638134765626,-0.7804829943863723,0.1102517893288935,-1.232089132118376
1790097090991381504,11.33638134765626,-0.7210848488266813,0.12258879254401123,-1.2073053766462662
1790097091001381376,11.34638134765626,-0.6606927931248107,0.14390149976565014,-1.1890392340797806
1790097091011381504,11.35638134765626,-0.6143270431883331,0.11828450772898719,-1.1876935658044732
1790097091021381376,11.36638134765626,-0.5727467453556273,0.05159815958560088,-1.1963099579181513
1790097091031381504,11.37638134765626,-0.5439594984054565,0.0009926267666742,-1.1924501657485962
1790097091041381376,11.38638134765626,-0.5111315293803276,0.013046646398699792,-1.1852690690305767
1790097091051381504,11.39638134765626,-0.4657710492610931,0.0297024473547935,-1.1753464937210083
1790097091061381376,11.406381347656259,-0.40520669619432714,0.06445248507320991,-1.1889155243130467
1790097091071381504,11.41638134765626,-0.353985995054245,0.0938414111733436,-1.200391173362732
1790097091081381376,11.42638134765626,-0.3211463304859766,0.06951574397177412,-1.2032291592981559
1790097091091381504,11.43638134765626,-0.3045073449611664,0.0571905747056007,-1.204667091369629
1790097091101381376,11.44638134765626,-0.30354748903201145,0.029354572756388683,-1.186909721557586
1790097091111381504,11.45638134765626,-0.2639811909025118,-0.02633482398654748,-1.1169031641806024
1790097091121381376,11.46638134765626,-0.2568612694740295,-0.0350473597645759,-1.105099081993103
1790097091131381504,11.47638134765626,-0.126700669116254,-0.09716946907297563,-1.0412020668219664
1790097091141381376,11.48638134765626,-0.12039877037930947,-0.09680331204882761,-1.0372500620845484
1790097091151381504,11.49638134765626,-0.054881080953451115,-0.016564256451053694,-0.9742173036379899
1790097091161381376,11.50638134765626,-0.08423142590513154,-0.000820279627485326,-0.9581075507814322
1790097091171381504,11.51638134765626,-0.0992626771330833,-0.0246629584580659,-0.9456679224967957
1790097091181381376,11.52638134765626,-0.08139333466906536,-0.060902655362762514,-0.9323076710178119
1790097091191381504,11.53638134765626,-0.0339020229876041,-0.1572168171405792,-0.89680016040802
1790097091201381376,11.54638134765626,0.009083921992524717,-0.17822680093044346,-0.8600930398115417
1790097091211381504,11.55638134765626,0.0748287886381149,-0.2103605270385742,-0.8039513230323792
1790097091221381376,11.56638134765626,0.09252351857171257,-0.16707163182537088,-0.7783571808768622
1790097091231381504,11.57638134765626,0.09773337133779547,-0.0811097707197036,-0.7180916195528686
1790097091241381376,11.58638134765626,0.0894891247153282,-0.0478751547634601,-0.6915554404258728
1790097091251381504,11.59638134765626,0.026616427254758546,0.010720488753623116,-0.6291104574319523
1790097091261381376,11.60638134765626,-0.020763095466008716,0.0939293060099723,-0.4977586694990209
1790097091271381504,11.61638134765626,0.006965568440939186,0.07902291920384495,-0.36349067258590834
1790097091281381376,11.62638134765626,0.047799202016026554,-0.05815028429698452,-0.27033599246338247
1790097091291381504,11.63638134765626,0.03954101784635144,-0.1560950468786737,-0.17613978187389032
1790097091301381376,11.646381347656261,0.03875196515402499,-0.15958963038914464,-0.17037077519203492
1790097091311381504,11.65638134765626,0.0314586348831653,0.0962847992777824,-0.0232885517179965
1790097091321381376,11.66638134765626,0.035180966083077754,0.09752557587148508,-0.015145952011279048
1790097091331381504,11.67638134765626,0.05790923222344964,0.0737987564935663,0.05313431456850129
1790097091341381376,11.68638134765626,0.0455081202089786,-0.0655897259712219,0.1062110662460327
1790097091351381504,11.69638134765626,0.037747605449414114,-0.09738891042779244,0.11472870469239814
1790097091361381376,11.70638134765626,0.012761827802545506,-0.17795227083425744,0.14479849358281557
1790097091371381504,11.71638134765626,-0.011910683325202709,-0.18524704252301585,0.16442197804155428
1790097091381381376,11.72638134765626,-0.02417269216456783,-0.1715938368442345,0.13837315430406735
1790097091391381504,11.73638134765626,0.02086836799604736,-0.09021836794779643,0.07260336192288819
1790097091401381376,11.74638134765626,0.0546708293259143,-0.0258846525102853,0.0420721061527729
1790097091411381504,11.75638134765626,0.04022556660123209,0.02859462646051128,0.22697147255251923
1790097091421381376,11.76638134765626,0.0332911759614944,0.0547471866011619,0.3157316744327545
1790097091431381504,11.77638134765626,-0.0017869972559786743,-0.12161807727208995,0.4453260287979067
1790097091441381376,11.78638134765626,-0.0106898266822099,-0.1663795262575149,0.4782170355319977
1790097091451381504,11.79638134765626,-0.03147227285558515,-0.1366100783239771,0.46192810137153895
1790097091461381376,11.806381347656261,-0.057248487809419726,-0.07231453793205783,0.43534728381453025
1790097091471381504,11.816381347656261,-0.058105034340075475,-0.06837690103841793,0.43451757110766487
1790097091481381376,11.82638134765626,-0.0668877735733985,-0.002535920231012516,0.4308474140083663
1790097091491381504,11.83638134765626,-0.06409275266113022,0.014645719753162808,0.5076140403769042
1790097091501381376,11.84638134765626,-0.0497840531170368,-0.0405449867248535,0.7237776517868042
1790097091511381504,11.85638134765626,-0.039500515839069106,-0.045076715269067646,0.7621448369134685
1790097091521381376,11.86638134765626,0.006563039688341434,-0.032100798879994806,0.8838358312322654
1790097091531381504,11.87638134765626,0.1033587566563127,0.06929663860311427,0.8933444355359254
1790097091541381376,11.88638134765626,0.1884463727474212,0.1500393599271774,0.836860716342926
1790097091551381504,11.896381347656261,0.16549469602985328,-0.020966849083121242,0.8051809281041349
1790097091561381376,11.90638134765626,0.1313771469186241,-0.2758419474589093,0.831794036019665
1790097091571381504,11.91638134765626,0.13220521733662607,-0.406851050872795,0.9446212841868799
1790097091581381376,11.92638134765626,0.137746050953865,-0.438817411661148,0.9846857786178588
1790097091591381504,11.93638134765626,0.16985738210279544,-0.4340951414951001,1.0696864112149922
1790097091601381376,11.94638134765626,0.20985197641674302,-0.35068394557663934,1.16800221877237
1790097091611381504,11.95638134765626,0.24163026542951724,-0.2080705924467677,1.2285246698929588
1790097091621381376,11.966381347656261,0.2767615448216397,-0.07004345083066348,1.2350793772990998
1790097091631381504,11.976381347656261,0.305511073312108,-0.011814137892843978,1.2009780729406239
1790097091641381376,11.98638134765626,0.3637595474720001,-0.046042613685131,1.1331216096878052
1790097091651381504,11.99638134765626,0.368340830002823,-0.057920015330269636,1.1466957936400561
1790097091661381376,12.00638134765626,0.3967452943325043,-0.1315612345933914,1.230857253074646
1790097091671381504,12.01638134765626,0.41809332141808964,-0.12869358852592916,1.259055764317629
1790097091681381376,12.02638134765626,0.4785988330841064,-0.1205659806728363,1.3389772176742554
1790097091691381504,12.03638134765626,0.5146022941645638,-0.09999257719269601,1.3415489048719154
1790097091701381376,12.04638134765626,0.5726693272590637,-0.0668114200234413,1.3456965684890747
1790097091711381504,12.056381347656261,0.588391986661173,-0.08438380760012487,1.330590465090642
1790097091721381376,12.066381347656261,0.6086598643813412,-0.11614176324226784,1.2953790052078658
1790097091731381504,12.07638134765626,0.6085467265210213,-0.15139945792693693,1.2567591227064498
1790097091741381376,12.08638134765626,0.5995459048781308,-0.2149086789814042,1.2321541876516917
1790097091751381504,12.09638134765626,0.5983213041197175,-0.35520610374174694,1.2404521135618833
1790097091761381376,12.10638134765626,0.6063530535387528,-0.5164803946887008,1.2983114415794843
1790097091771381504,12.11638134765626,0.6219235264235548,-0.6195476350529348,1.388511469189742
1790097091781381376,12.126381347656261,0.6803081265545168,-0.6875200166592451,1.405182611245391
1790097091791381504,12.136381347656261,0.7220394416778558,-0.768696963818035,1.3667620353881633
1790097091801381376,12.146381347656261,0.7289399736342297,-0.8685387689352249,1.3613515821250024
1790097091811381504,12.15638134765626,0.7124470010888122,-0.9712364965293199,1.4065394294340905
1790097091821381376,12.16638134765626,0.6832326650619507,-1.0545514822006226,1.45198392868042
1790097091831381504,12.17638134765626,0.6601398581806867,-1.1057886311846232,1.4548705242593443
1790097091841381376,12.18638134765626,0.5854970812797546,-1.2714022397994995,1.4642008543014526
1790097091851381504,12.19638134765626,0.5684298594547234,-1.2766537058077518,1.455667243388937
1790097091861381376,12.20638134765626,0.5176230344504931,-1.234596440081601,1.4262950396850576
1790097091871381504,12.216381347656261,0.4895940721035003,-1.16328227519989,1.4067811965942385
1790097091881381376,12.226381347656261,0.4376990850621576,-1.219143781177443,1.3482753769124465
1790097091891381504,12.23638134765626,0.3936910629272461,-1.2665154933929443,1.298661231994629
1790097091901381376,12.24638134765626,0.32686334543631373,-1.1672864565342742,1.1147838517814939
1790097091911381504,12.25638134765626,0.2929012477397918,-1.116857886314392,1.0213366746902466
1790097091921381376,12.26638134765626,0.1811797516829302,-0.9197868580140147,0.8463222736532691
1790097091931381504,12.27638134765626,0.1505738496780395,-0.865799605846405,0.7983773946762085
1790097091941381376,12.286381347656262,0.08852782747761136,-0.7095766064168016,0.6985913305276075
1790097091951381504,12.296381347656261,0.07624668284376851,-0.6503811097265596,0.6522836299817343
1790097091961381376,12.306381347656261,0.0717745497822761,-0.5432722568511963,0.5961105823516846
1790097091971381504,12.316381347656261,0.07188426364227463,-0.5288448799122589,0.5888146083199427
1790097091981381376,12.32638134765626,0.06949631734204811,-0.3489096175330535,0.49976295157108397
1790097091991381504,12.33638134765626,0.03956542276477658,-0.10588661479407595,0.390759242021312
1790097092001381376,12.34638134765626,-0.01729775927104475,0.1349895584401796,0.2690302014745667
1790097092011381504,12.35638134765626,-0.07565190373402453,0.2795707675629906,0.15321581494442532
1790097092021381376,12.36638134765626,-0.09000390193355558,0.31240145580885115,0.07437085961667649
1790097092031381504,12.376381347656261,-0.0870457366108894,0.2709871232509613,0.0414612591266632
1790097092041381376,12.386381347656261,-0.08389015654815538,0.34676042667411244,-0.04594823856113712
1790097092051381504,12.396381347656261,-0.0809372588992118,0.4176668226718902,-0.1277434378862381
1790097092061381376,12.40638134765626,-0.10550932696256939,0.5362368015962011,-0.27868611859722336
1790097092071381504,12.41638134765626,-0.1194206401705741,0.6033644080162048,-0.3641413152217865
1790097092081381376,12.42638134765626,-0.1589038049127819,0.6377379687361472,-0.4677265588592456
1790097092091381504,12.43638134765626,-0.18238116757556838,0.603409515406646,-0.526451300049041
1790097092101381376,12.446381347656262,-0.1847812980413437,0.5935907959938049,-0.5321243405342102
1790097092111381504,12.456381347656261,-0.19803491151990604,0.5497962446634171,-0.5655464803721877
1790097092121381376,12.466381347656261,-0.21171407047165156,0.5406928502090848,-0.6321072515780569
1790097092131381504,12.476381347656261,-0.2260015771563298,0.6031173629212815,-0.7338556650003834
