time,seconds_elapsed,z,y,x
1790097079821381376,0.16638134765625,8.71226692199707,3.758825302124024,0.0454636290669441
1790097079831381504,0.17638134765625002,8.677009617993598,3.521315562288126,0.21318387451520518
1790097079841381376,0.18638134765625003,8.648702442479275,3.229493410120898,0.3745159003955014
1790097079851381504,0.19638134765625004,8.588730178076709,2.9984672146189832,0.4470845224880118
1790097079861381376,0.20638134765625005,8.475301163530984,2.8845509769539497,0.42522666288802463
1790097079871381504,0.21638134765625006,8.321103113646519,2.855319031994665,0.3801964776470564
1790097079881381376,0.22638134765625006,8.166047707710716,2.9269446245454604,0.2677523292368537
1790097079891381504,0.23638134765625007,8.188123445568918,3.086056388126973,-0.03431021419504007
1790097079901381376,0.24638134765625008,8.40099578106933,3.240182556999177,-0.4437923640541576
1790097079911381504,0.2563813476562501,8.45434305993653,3.394531702751356,-0.6443893196097688
1790097079921381376,0.2663813476562501,8.218965319631652,3.571165311239561,-0.6323403337023655
1790097079931381504,0.2763813476562501,7.812559176709237,3.6993099852196742,-0.5245866005403192
1790097079941381376,0.2863813476562501,7.468674470118142,3.723105124095734,-0.35753733288776857
1790097079951381504,0.2963813476562501,7.3777449585172,3.7110527020220077,-0.23522991430729664
1790097079961381376,0.30638134765625014,7.559994234814941,3.802576260200599,-0.22761492357051713
1790097079971381504,0.31638134765625014,8.08444323273192,4.015692099458735,-0.28253031060287265
1790097079981381376,0.32638134765625015,8.723979755634327,4.192804903626491,-0.29444390979784024
1790097079991381504,0.33638134765625016,9.240457780860497,4.206751011548426,-0.18930458979831238
1790097080001381376,0.34638134765625017,9.541324531215258,4.146041482138117,-0.06052970728282932
1790097080011381504,0.3563813476562502,9.553179461221236,4.123565436780549,0.04877736060824952
1790097080021381376,0.3663813476562502,9.244961672873702,4.154309727962544,0.0773840473816005
1790097080031381504,0.3763813476562502,8.772118730005264,4.220032600293645,0.0684227674564551
1790097080041381376,0.3863813476562502,8.292540530025075,4.348049152961506,0.030360695906029685
1790097080051381504,0.3963813476562502,7.935393594050203,4.597399179879384,-0.09671363350368747
1790097080061381376,0.4063813476562502,7.83111047744751,4.857931394932257,-0.27663345380615156
1790097080071381504,0.41638134765625023,7.866283846018832,5.09168377258574,-0.3715453043832882
1790097080081381376,0.42638134765625024,8.015891125208052,5.262420898983942,-0.2982666203633192
1790097080091381504,0.43638134765625025,8.215409469678606,5.282106445212698,-0.10853597166679826
1790097080101381376,0.44638134765625026,8.446582687693152,5.18897321748233,0.1301292053853418
1790097080111381504,0.45638134765625027,8.872959621322243,5.081389287808538,0.32395874423432114
1790097080121381376,0.4663813476562503,9.552489710885512,4.963396470976867,0.4331125366450027
1790097080131381504,0.4763813476562503,10.275434557430527,4.9651899535020005,0.38166660803473174
1790097080141381376,0.4863813476562503,10.837313217184843,5.036136219208454,0.19333999359287446
1790097080151381504,0.4963813476562503,11.246190570299106,4.9732350907115475,0.03912227055615121
1790097080161381376,0.5063813476562503,11.314749023596585,4.830158686616259,-0.08675207639162344
1790097080171381504,0.5163813476562503,11.034028019440033,4.687935134194516,-0.1848933227301386
1790097080181381376,0.5263813476562503,10.392792863775394,4.6580685203734085,-0.18950194518942243
1790097080191381504,0.5363813476562503,9.498360943704673,4.7723552889874,-0.2024944717897046
1790097080201381376,0.5463813476562503,8.608572082310028,5.03810884020882,-0.22156176702849975
1790097080211381504,0.5563813476562504,7.940668287648991,5.327998583682112,-0.12671546661653169
1790097080221381376,0.5663813476562504,7.6183084347846775,5.492889744030229,0.057996740131677396
1790097080231381504,0.5763813476562504,7.554451881797029,5.526815117308704,0.1771153608835714
1790097080241381376,0.5863813476562504,7.654717283805215,5.3953213029677665,0.24133717206794408
1790097080251381504,0.5963813476562504,7.945853563235014,5.097359433110878,0.325140807960997
1790097080261381376,0.6063813476562504,8.34945771645087,4.766039079311137,0.41738535259814374
1790097080271381504,0.6163813476562504,8.64999234238506,4.755965370394032,0.29184098462146496
1790097080281381376,0.6263813476562504,8.792802846045118,4.986515218934163,0.050282994886869964
1790097080291381504,0.6363813476562504,8.953831554391703,5.101181584109067,0.10436118178740576
1790097080301381376,0.6463813476562504,8.988800573799837,5.124691023305976,0.23732499389019263
1790097080311381504,0.6563813476562504,8.812353634991766,5.158854851428131,0.4644670075385917
1790097080321381376,0.6663813476562505,8.737026719648773,5.074174997040959,0.6566441065412125
1790097080331381504,0.6763813476562505,8.85953810740795,4.794985730147921,0.7633408973984411
1790097080341381376,0.6863813476562505,8.99286655442824,4.538718836364024,0.7778906455637176
1790097080351381504,0.6963813476562505,9.009888811411592,4.302049787086822,0.7481653670791542
1790097080361381376,0.7063813476562505,8.903292915849168,4.195662311790618,0.6795847832145271
1790097080371381504,0.7163813476562505,8.735524903633255,4.288183809756437,0.664425905762738
1790097080381381376,0.7263813476562505,8.503958295134307,4.401736358864315,0.7496550411583539
1790097080391381504,0.7363813476562505,8.241832643626882,4.490593827903467,0.904719725722125
1790097080401381376,0.7463813476562505,7.984359961910998,4.569154669123449,0.920957686522508
1790097080411381504,0.7563813476562505,7.836457419937668,4.594705501838106,0.8050193817530336
1790097080421381376,0.7663813476562505,7.7589946604040545,4.511291536008296,0.6529745394926255
1790097080431381504,0.7763813476562506,7.685371162668688,4.36284012671721,0.5318958633786962
1790097080441381376,0.7863813476562506,7.742718141939396,4.525381413905356,0.5818974735816944
1790097080451381504,0.7963813476562506,7.816552350158331,4.7660521583001945,0.7606142625743122
1790097080461381376,0.8063813476562506,7.716015322432889,4.7567723649351885,1.034612111257267
1790097080471381504,0.8163813476562506,7.325342749820542,4.639009510687998,1.2568749926556955
1790097080481381376,0.8263813476562506,6.8569250601373195,4.578241300626124,1.4177585054286919
1790097080491381504,0.8363813476562506,6.58154188978333,4.708785055264579,1.3771507542213106
1790097080501381376,0.8463813476562506,6.446520661091115,4.825391406331123,0.7503536892684209
1790097080511381504,0.8563813476562506,6.82670022879009,4.790230124374387,0.3417856773553972
1790097080521381376,0.8663813476562506,7.667574469281465,4.8329012173165,0.5584518673228367
1790097080531381504,0.8763813476562506,8.804206536881921,5.058754494702526,0.7848794453812101
1790097080541381376,0.8863813476562507,9.863933027775689,5.3393238315692075,0.945021836756312
1790097080551381504,0.8963813476562507,10.255646268995047,5.384530977553729,1.1017122065398848
1790097080561381376,0.9063813476562507,10.058858172601076,5.194317671925629,1.2675660204044503
1790097080571381504,0.9163813476562507,9.641989987119741,4.993238432508344,1.3860885815428396
1790097080581381376,0.9263813476562507,9.15070265495871,4.861692277885838,1.356173248412056
1790097080591381504,0.9363813476562507,8.676782434865926,4.762322635593318,1.2071023344567344
1790097080601381376,0.9463813476562507,8.274841905378183,4.653789557751056,1.0076265834153064
1790097080611381504,0.9563813476562507,7.709603285743746,4.268905158809402,0.9170134422884402
1790097080621381376,0.9663813476562507,7.279305088147928,4.111635385129656,0.7219441018671342
1790097080631381504,0.9763813476562507,7.158451381365551,4.475008657269899,0.34539590197426256
1790097080641381376,0.9863813476562507,7.1585442228679215,5.0354547219362535,-0.0074462307710293765
1790097080651381504,0.9963813476562507,7.224853561213927,5.3848862383814335,-0.14442989163235834
1790097080661381376,1.0063813476562506,7.300383066071892,5.3177671222392595,-0.01676320814587371
1790097080671381504,1.0163813476562509,7.421494174109843,4.987617483930527,0.2776960995133082
1790097080681381376,1.0263813476562507,7.591637336472281,4.6668344767039285,0.6009274429097601
1790097080691381504,1.036381347656251,7.711606918871524,4.4932290822016565,0.888843193276246
1790097080701381376,1.0463813476562507,7.741832754336902,4.446112106842297,1.1268803973133352
1790097080711381504,1.056381347656251,7.691278896003224,4.456806768208122,1.2951456548296643
1790097080721381376,1.0663813476562507,7.552850254482943,4.441564614631239,1.4243828509276695
1790097080731381504,1.076381347656251,7.297799967005083,4.35783695244562,1.5617273862155894
1790097080741381376,1.0863813476562507,6.944356645733041,4.221449354401731,1.696967262243496
1790097080751381504,1.096381347656251,6.5622982608526215,4.041639299749141,1.8354219514082593
1790097080761381376,1.1063813476562507,6.220014327197081,3.7952330752274843,1.9161368550977633
1790097080771381504,1.116381347656251,6.045298730475418,3.527790602504801,1.9219051133979255
1790097080781381376,1.1263813476562508,6.2260212476062735,3.4004036592283446,1.7397328062312278
1790097080791381504,1.136381347656251,6.581090234848652,3.295499164387119,1.4063543512110301
1790097080801381376,1.1463813476562508,6.879238869015859,3.151437244427377,1.07704209244472
1790097080811381504,1.156381347656251,7.38422681375884,2.95159643747357,0.8532034821048937
1790097080821381376,1.1663813476562508,8.061909774315499,2.7496912686173194,0.6796532245129818
1790097080831381504,1.176381347656251,8.70847124021427,2.5711580316261595,0.5170878763798314
1790097080841381376,1.1863813476562508,9.09327519775542,2.4793690620157633,0.27422879612066464
1790097080851381504,1.196381347656251,8.89845999727711,2.4892576261376447,-0.1635714190611849
1790097080861381376,1.2063813476562508,8.13483636892926,2.415066335866103,-0.6787777302092944
1790097080871381504,1.216381347656251,7.226784651965825,1.9234208799676924,-0.9583544892314463
1790097080881381376,1.2263813476562508,6.969367038732457,1.24754758872171,-1.0890706286543845
1790097080891381504,1.236381347656251,7.018807699544138,0.6347078661267469,-1.2904763165540813
1790097080901381376,1.2463813476562509,7.084031069690059,0.26668190406603287,-1.5341805533885697
1790097080911381504,1.256381347656251,7.591989172361616,0.07985318666733028,-1.6331286547635215
1790097080921381376,1.2663813476562509,7.984577287897043,-0.0385241032039082,-1.6372786899286755
1790097080931381504,1.276381347656251,8.186109404758337,-0.10203944864769635,-1.6702355918214644
1790097080941381376,1.286381347656251,8.576497747675502,-0.18012899378702085,-1.7503153586539022
1790097080951381504,1.2963813476562511,9.051372168780832,-0.43120494474713933,-1.7879059454799653
1790097080961381376,1.306381347656251,9.179778469996538,-0.9438168952618435,-2.2291819360758947
1790097080971381504,1.3163813476562511,8.943484168889327,-1.4145724249492935,-3.1475913290570534
1790097080981381376,1.326381347656251,8.698663515328805,-1.7228706872211805,-4.304974161147435
1790097080991381504,1.3363813476562512,8.385235722803706,-2.006025586888861,-5.531906111304868
1790097081001381376,1.346381347656251,8.413397792311738,-2.2266910309465002,-6.53693429305605
1790097081011381504,1.3563813476562512,8.60710598023962,-2.3249130152862962,-6.9242398480209735
1790097081021381376,1.366381347656251,8.933765694001167,-2.1214894683275354,-6.200880505461275
1790097081031381504,1.3763813476562512,9.41919858511365,-1.8081190831728247,-4.380073879923875
1790097081041381376,1.386381347656251,9.690908209997522,-1.7909447526394167,-3.341358791084959
1790097081051381504,1.3963813476562512,10.139269624845276,-1.392048184869446,-3.0619797874710595
1790097081061381376,1.406381347656251,10.677087434408806,-1.2074560268387644,-3.2237645710245206
1790097081071381504,1.4163813476562512,11.059729947491997,-1.496769428753455,-3.5206437858159405
1790097081081381376,1.426381347656251,11.198440746914589,-2.0182919493458313,-3.8001483380987793
1790097081091381504,1.4363813476562513,11.038303189751167,-3.1326089157366046,-4.166330788602836
1790097081101381376,1.446381347656251,10.497561947951333,-3.3362922899001246,-5.027606021467179
1790097081111381504,1.4563813476562513,9.63664968275916,-2.273057538100173,-5.465390688272831
1790097081121381376,1.466381347656251,9.519284281034633,-1.6334616218386484,-4.480274031665782
1790097081131381504,1.4763813476562513,9.122786682014224,-1.5613532663302547,-4.165452655574318
1790097081141381376,1.486381347656251,8.510801848999629,-1.0176649870487209,-4.3116257275252226
1790097081151381504,1.4963813476562513,8.492866229660134,-0.47023223315684515,-4.867838310292584
1790097081161381376,1.506381347656251,8.309022334622354,0.01701690106877239,-5.612512033082435
1790097081171381504,1.5163813476562513,9.880680772341547,-0.37204107186950264,-6.40291345423645
1790097081181381376,1.526381347656251,11.325844457448994,-0.8825185149864614,-7.3982684064664035
1790097081191381504,1.5363813476562513,14.907386750241455,0.21834392285053006,-9.15787828474404
1790097081201381376,1.5463813476562511,18.71185221563985,1.0581980529202983,-9.247657544852613
1790097081211381504,1.5563813476562514,16.8404635729893,0.4494258499031458,-7.024007391067751
1790097081221381376,1.5663813476562511,12.620886174136155,0.2861709299956017,-5.741393296402284
1790097081231381504,1.5763813476562514,8.190928513576026,1.174663104150834,-5.317329052368065
1790097081241381376,1.5863813476562512,4.337587743483829,1.3487675485948984,-5.602616886943862
1790097081251381504,1.5963813476562514,3.456299983219385,1.4377978118425003,-5.760673304478079
1790097081261381376,1.6063813476562512,4.40686103585886,0.7857494351992684,-5.478742611838962
1790097081271381504,1.6163813476562514,4.692435692611936,1.1259788745847417,-4.586516449576416
1790097081281381376,1.6263813476562512,6.941301602271371,0.23496618596713958,-4.750520261157607
1790097081291381504,1.6363813476562514,7.977987832730465,0.05528477262648855,-4.732382166736122
1790097081301381376,1.6463813476562512,6.904159404857883,0.37515605705500743,-5.075431169021158
1790097081311381504,1.6563813476562514,5.224348266444981,-0.5975379091707413,-4.855613219140264
1790097081321381376,1.6663813476562512,5.976909759128197,-2.9789250527623485,-3.4867944329008274
1790097081331381504,1.6763813476562515,9.229979425281385,-6.111403299268759,-3.8324934705049594
1790097081341381376,1.6863813476562513,9.435827714879892,-6.88499091595116,-5.075005072433299
1790097081351381504,1.6963813476562515,6.20035771376182,-5.256987750939184,-5.269824823328321
1790097081361381376,1.7063813476562513,3.4045482531287643,-4.278752124106338,-5.018324178222279
1790097081371381504,1.7163813476562515,2.548199908101254,-4.3362608939745595,-5.28527174896419
1790097081381381376,1.7263813476562513,5.089774217802905,-3.9278430447134465,-6.0693269611635206
1790097081391381504,1.7363813476562515,8.541069793911424,-4.14707694216713,-6.76367232565163
1790097081401381376,1.7463813476562513,8.612945913249368,-5.708915470042274,-6.594610391858443
1790097081411381504,1.7563813476562515,7.86480337721489,-7.65948903355942,-6.596718571498302
1790097081421381376,1.7663813476562513,6.7958151580908694,-6.999152098083466,-7.3363742804161
1790097081431381504,1.7763813476562516,6.000294554386299,-5.6636822291039906,-7.622444527286012
1790097081441381376,1.7863813476562513,6.026688390819876,-5.884923613158593,-7.091061239346704
1790097081451381504,1.7963813476562516,6.789611061260848,-6.776921284481455,-7.673748873206923
1790097081461381376,1.8063813476562514,7.0147704057750415,-6.500945230537654,-9.003490551480727
1790097081471381504,1.8163813476562516,6.253842909595495,-6.791901533328227,-10.314468691462112
1790097081481381376,1.8263813476562514,5.528879456519253,-7.4158457724298215,-12.232157911560984
1790097081491381504,1.8363813476562516,3.9098646303705156,-7.275140127863792,-13.292750389015229
1790097081501381376,1.8463813476562514,2.8084837965146883,-7.459158976635869,-13.252499286166218
1790097081511381504,1.8563813476562516,5.9079177966799765,-6.064700298257586,-15.075312050600925
1790097081521381376,1.8663813476562514,8.9230020144369,-4.51299812588379,-15.138187163413999
1790097081531381504,1.8763813476562516,8.379955090909167,-4.308290187485911,-12.798892099538024
1790097081541381376,1.8863813476562514,6.372497345631082,-4.362198429898647,-11.378252364561032
1790097081551381504,1.8963813476562517,5.076047198887497,-4.279352883399549,-11.030147699080148
1790097081561381376,1.9063813476562514,4.754782392442238,-3.985560671564142,-11.152673657185169
1790097081571381504,1.9163813476562517,4.987361757132512,-3.1927561706711236,-11.184031034661542
1790097081581381376,1.9263813476562515,4.938938317930644,-2.4012603017674863,-10.484745290356141
1790097081591381504,1.9363813476562517,4.840668901720045,-1.9695407334172836,-9.557112574571006
1790097081601381376,1.9463813476562515,4.979106090939949,-1.2936801822640445,-9.513843631830872
1790097081611381504,1.9563813476562517,4.770505601962137,-1.3833867067939798,-9.84139317549226
1790097081621381376,1.9663813476562515,4.491989986981206,-2.050078809008215,-9.809723625305628
1790097081631381504,1.9763813476562517,3.7955540833281813,-2.5733817657182008,-9.305779624437235
1790097081641381376,1.9863813476562515,3.744292327371261,-3.2345644778886853,-8.47902752289273
1790097081651381504,1.9963813476562517,4.215437024280697,-3.6142436457700486,-7.018519981348225
1790097081661381376,2.0063813476562515,4.545407412456886,-3.565088917606599,-5.940246747148821
1790097081671381504,2.0163813476562518,4.0579776571111,-3.301502387245523,-6.9803535725204595
1790097081681381376,2.0263813476562516,3.85959841133872,-2.793270227668402,-7.699542079301723
1790097081691381504,2.036381347656252,3.7874930847262793,-2.327810551411334,-8.65442552600456
1790097081701381376,2.0463813476562516,4.400512186014336,-3.5138871368138718,-8.430991764055758
1790097081711381504,2.056381347656252,4.62542402994407,-5.6985175138385395,-2.0897654799694716
1790097081721381376,2.0663813476562516,4.895973637060586,-4.148433519394192,-0.7073803169700261
1790097081731381504,2.076381347656252,4.976012209341467,-3.229870019646567,-2.0104016474408333
1790097081741381376,2.0863813476562516,4.126774226409177,-4.68743869534939,-2.790181580599354
1790097081751381504,2.096381347656252,-0.7918194532250977,-2.3463216004564376,-4.825008466753362
1790097081761381376,2.1063813476562516,1.8433868153680484,-6.343641788967189,-4.962753288166602
1790097081771381504,2.116381347656252,3.058513195425098,-7.968679749524851,-3.370834416545348
1790097081781381376,2.1263813476562516,5.126607296325556,-5.636433893785354,-2.2926651979549466
1790097081791381504,2.136381347656252,6.401900960225467,-4.980873970021296,-2.266118296254026
1790097081801381376,2.1463813476562517,6.8702201894146615,-4.59989440309587,-2.3793334597316917
1790097081811381504,2.156381347656252,5.339102878330927,-4.641650435251922,-4.691066753171292
1790097081821381376,2.1663813476562517,5.119806739953687,-6.228164097979478,-6.263961369935285
1790097081831381504,2.1763813476562515,4.579704558201647,-8.662379715904004,-9.020384630119576
1790097081841381376,2.1863813476562517,4.916226699978652,-9.779639694274097,-11.037239117962732
1790097081851381504,2.196381347656252,4.496428915017099,-9.315692411903905,-10.917087403775318
1790097081861381376,2.2063813476562517,6.294425335901856,-9.202774416426248,-9.452776871695576
1790097081871381504,2.2163813476562515,7.826309183252349,-9.015101253408739,-8.298184506542214
1790097081881381376,2.2263813476562517,7.062593763630211,-6.974184304476807,-9.385521762996348
1790097081891381504,2.236381347656252,7.552975530390483,-4.762942165034076,-10.472933130379948
1790097081901381376,2.2463813476562517,7.118121101949485,-3.588932743259125,-10.769062065012315
1790097081911381504,2.2563813476562515,9.230961308024712,-3.6818997786092442,-7.5183453138057725
1790097081921381376,2.2663813476562518,7.741290766840375,-3.2737347165246122,-8.759174461137565
1790097081931381504,2.276381347656252,8.563989987476859,-2.6633487861430907,-9.005420701884411
1790097081941381376,2.286381347656252,12.612309232825424,0.04185208134821572,-2.83126290015775
1790097081951381504,2.2963813476562516,3.772624944370609,-4.7433683973848,-2.4081270023126735
1790097081961381376,2.306381347656252,2.7256200301096807,-2.0257492628779694,-3.9921420656424704
1790097081971381504,2.316381347656252,4.398402827188284,-4.237423318453071,-4.677065964484133
1790097081981381376,2.326381347656252,3.934521377139108,-7.357084057785098,-6.632138220750485
1790097081991381504,2.3363813476562516,4.177251598183969,-9.191336999583953,-8.708056651222707
1790097082001381376,2.346381347656252,6.457990711354298,-11.076643104186898,-8.311829804392133
1790097082011381504,2.356381347656252,9.04036675079055,-11.933261975613535,-7.300981124130601
1790097082021381376,2.366381347656252,8.258462153573731,-11.296687261777532,-6.0928933117010375
1790097082031381504,2.3763813476562516,7.802092247888751,-10.12206143681932,-6.551762217571412
1790097082041381376,2.386381347656252,8.564594902622176,-8.983815117783294,-8.355739778678053
1790097082051381504,2.396381347656252,7.3322999647211535,-8.000479506438236,-8.977820551358851
1790097082061381376,2.406381347656252,5.866309526809254,-6.713709066852906,-6.643714399229678
1790097082071381504,2.4163813476562517,5.379327149854891,-6.620012744784596,-3.1173973217814344
1790097082081381376,2.426381347656252,3.5606002748819887,-7.081961526689498,-0.504417417209102
1790097082091381504,2.436381347656252,4.108572298991879,-6.601035561578113,0.8455876601161884
1790097082101381376,2.446381347656252,5.287070812663188,-6.473841192129079,2.303936502004092
1790097082111381504,2.4563813476562517,4.837775028062154,-8.373562336474798,3.688512276775823
1790097082121381376,2.466381347656252,6.926215952405273,-5.212384998300178,3.194176625155446
1790097082131381504,2.476381347656252,12.36026289704723,6.570567896477229,2.4939998242217634
1790097082141381376,2.486381347656252,8.863419371516803,6.497483240073392,-0.10371394190300753
1790097082151381504,2.4963813476562517,10.737803776309423,0.12712475186727035,-2.3039854882747592
1790097082161381376,2.506381347656252,9.990625796352363,-3.4715514308603646,-4.911049569980576
1790097082171381504,2.516381347656252,9.716722781385377,-8.729207838530058,-5.664892221111393
1790097082181381376,2.526381347656252,9.404472067190252,-15.418661980915493,-5.26054606259589
1790097082191381504,2.536381347656252,10.545793513933438,-15.84453263432789,-6.66986841080281
1790097082201381376,2.546381347656252,11.60402342765808,-11.041022577125263,-7.579377181170735
1790097082211381504,2.5563813476562522,9.358855745059474,-7.110517778007276,-5.579810554706453
1790097082221381376,2.566381347656252,6.403839457091982,-3.8037646691889337,-4.881533072191726
1790097082231381504,2.576381347656252,6.977351749686401,-1.1891360361080383,-6.055143985580575
1790097082241381376,2.586381347656252,8.235357464073305,-0.9540975819979678,-6.53256943073571
1790097082251381504,2.5963813476562523,8.88225135873889,-2.986332909750913,-5.252523907489712
1790097082261381376,2.606381347656252,10.004858502068041,-6.202617849316134,-3.5371438018532357
1790097082271381504,2.616381347656252,10.475848263277548,-7.739978753166617,-3.6814285112376033
1790097082281381376,2.626381347656252,10.832533539850061,-7.8406380745893065,-4.020315903818067
1790097082291381504,2.6363813476562523,11.195246099307898,-6.762508159757462,-3.603049058750486
1790097082301381376,2.646381347656252,11.13576700892144,-6.15502075314627,-2.773754453912026
1790097082311381504,2.656381347656252,10.88061106288615,-5.892420834213969,-1.7849015307695193
1790097082321381376,2.666381347656252,8.23685066609651,-4.6110092329428065,-2.260492170523798
1790097082331381504,2.6763813476562524,6.843061642596723,-2.3259193633968347,-3.6441187797749923
1790097082341381376,2.686381347656252,6.713232671634603,-1.8429056190676172,-3.5212325736325387
1790097082351381504,2.696381347656252,6.924716901624885,-2.4535138946759534,-3.0642772702598764
1790097082361381376,2.706381347656252,7.2184976416845,-2.8569959470449677,-2.9647349658385367
1790097082371381504,2.7163813476562524,7.527506191825453,-2.693690619896548,-2.796956321270116
1790097082381381376,2.726381347656252,8.46724294384093,-1.9658404620194303,-2.5197405975078255
1790097082391381504,2.736381347656252,9.119643464931956,-1.1434767003577606,-2.3503122699255328
1790097082401381376,2.746381347656252,8.756577628200459,-0.8319766125973026,-2.066186957644072
1790097082411381504,2.7563813476562524,7.638653695420934,-0.6979088984323542,-1.7016692744127555
1790097082421381376,2.766381347656252,6.263270604630197,-0.4771933399554268,-1.7807057192776534
1790097082431381504,2.776381347656252,5.666775761086291,-0.42116273865886666,-2.082576424376017
1790097082441381376,2.7863813476562522,5.790444062722998,-0.055106154730177215,-1.8649400390594328
1790097082451381504,2.7963813476562525,6.409581142862021,0.13876115038529904,-1.0636959080141382
1790097082461381376,2.8063813476562522,6.948421901934656,0.2760946852504372,-0.5400506127101248
1790097082471381504,2.816381347656252,7.192592244577378,0.5719050908962707,-0.16998287628877512
1790097082481381376,2.8263813476562523,7.335007485106984,0.917034522391862,-0.2179891460610568
1790097082491381504,2.8363813476562525,7.263117457661339,1.1282712526595369,-0.57002709158685
1790097082501381376,2.8463813476562523,6.976236928690671,1.1603518808832023,-0.9642534183140107
1790097082511381504,2.856381347656252,6.785206885832483,1.0499858287189328,-1.4189427739768044
1790097082521381376,2.8663813476562523,6.578648429778252,1.074917795435454,-1.7450847745664468
1790097082531381504,2.8763813476562525,6.216908750483296,1.2120649466844053,-1.7921358453873901
1790097082541381376,2.8863813476562523,7.237468992337128,1.1373069658492838,-1.7149961469815747
1790097082551381504,2.896381347656252,8.07228116367845,1.0868938463430047,-1.6404208676553427
1790097082561381376,2.9063813476562523,8.4851184746754,0.9952919590085586,-1.5213237156714703
1790097082571381504,2.9163813476562526,8.43249065355684,0.9098396453071709,-1.5716401725031242
1790097082581381376,2.9263813476562524,8.7669174555689,0.5642695897295653,-1.796939770045172
1790097082591381504,2.936381347656252,8.001667179324327,0.5344251468829866,-2.1578036568045595
1790097082601381376,2.9463813476562524,6.055459892577032,0.5135139915965687,-1.9228329980693228
1790097082611381504,2.9563813476562526,5.80845190773779,0.7358450900904787,-1.909502871832274
1790097082621381376,2.9663813476562524,6.777643361573966,0.7801939268939534,-1.8404599761107538
1790097082631381504,2.976381347656252,8.355289793342038,0.6545097062028945,-1.559192452401614
1790097082641381376,2.9863813476562524,9.285502944396208,0.44082755117087746,-1.2285674458231552
1790097082651381504,2.9963813476562526,9.846070503314913,-0.2537680386912157,-1.2105082716466076
1790097082661381376,3.0063813476562524,8.088439967084902,-0.56216076821061,-1.5518412369117778
1790097082671381504,3.016381347656252,6.388899710466793,-0.6080119684834948,-1.9791007194282377
1790097082681381376,3.0263813476562524,6.21980778605607,-0.9220708394326642,-2.205271305054072
1790097082691381504,3.0363813476562527,7.050874483954337,-1.4983109297213504,-2.1509871409111323
1790097082701381376,3.0463813476562525,8.24143722683914,-2.2531911856523994,-2.065150719586901
1790097082711381504,3.0563813476562522,9.014260174563992,-2.64094324606008,-1.9539551499222905
1790097082721381376,3.0663813476562525,8.971423618362234,-2.9825481492016888,-1.8046806892977474
1790097082731381504,3.0763813476562527,8.16291551339198,-2.971839521450264,-2.4232959586899443
1790097082741381376,3.0863813476562525,7.335931284948794,-2.893601003270223,-2.804971150584221
1790097082751381504,3.0963813476562523,7.109479308455642,-2.983119497767093,-2.7938359925791607
1790097082761381376,3.1063813476562525,7.558154524431904,-3.100179635983779,-2.686379911862115
1790097082771381504,3.1163813476562527,8.606793259218383,-3.1338173020579045,-2.5768842267663725
1790097082781381376,3.1263813476562525,9.678638632974634,-3.306478212900409,-2.7618611367980406
1790097082791381504,3.1363813476562523,10.155230296885529,-3.651473422594676,-3.262247396871166
1790097082801381376,3.1463813476562525,9.917833209377246,-4.11588580086043,-3.764849512514051
1790097082811381504,3.156381347656253,9.265813642490974,-4.667106587460954,-4.196610189710814
1790097082821381376,3.1663813476562526,8.911756788351761,-5.173409679463827,-4.537648984518479
1790097082831381504,3.1763813476562524,8.555756494133403,-5.539679419850534,-4.341081932925745
1790097082841381376,3.1863813476562526,8.329119982359336,-5.74246263846171,-3.867922238682159
1790097082851381504,3.196381347656253,8.431201914805339,-5.712846253873346,-3.491599361050265
1790097082861381376,3.2063813476562526,9.083424163559705,-5.739623403629519,-3.5165147313305223
1790097082871381504,3.2163813476562524,9.683136122539164,-6.198859526988562,-3.7040932869063004
1790097082881381376,3.2263813476562526,9.459011787930208,-6.724731710009419,-3.7215013728458444
1790097082891381504,3.236381347656253,8.968307064336981,-7.089937359407353,-3.5537444950430888
1790097082901381376,3.2463813476562526,8.849170895015586,-7.015614654344317,-3.5654057378179993
1790097082911381504,3.2563813476562524,8.720738506798819,-6.7931616845023575,-3.2555658195629555
1790097082921381376,3.2663813476562527,8.523822683241319,-6.521960922481351,-3.067772085231974
1790097082931381504,3.276381347656253,8.360130955731016,-6.516256356606788,-2.567889967750139
1790097082941381376,3.2863813476562527,8.296010614559247,-6.1929820855712645,-2.500022788224019
1790097082951381504,3.2963813476562525,8.252740862949745,-5.796900999890068,-2.8028440366770835
1790097082961381376,3.3063813476562527,8.43905647627626,-5.878670014706338,-2.5140489213378587
1790097082971381504,3.316381347656253,8.234913830558856,-5.867217937106995,-2.5722249417920544
1790097082981381376,3.3263813476562527,8.044190655630022,-6.345403096728166,-2.272321280139757
1790097082991381504,3.3363813476562525,7.900011695016523,-6.563520829589033,-2.4392135620734283
1790097083001381376,3.3463813476562527,7.895840278408094,-6.630014546614161,-2.4979454919180784
1790097083011381504,3.356381347656253,7.648047261464605,-6.455834470597828,-2.6908302897400467
1790097083021381376,3.3663813476562527,7.662746283227817,-6.497488687182085,-2.533474412266004
1790097083031381504,3.3763813476562525,7.711214432335323,-6.677737627386455,-2.251301151871372
1790097083041381376,3.3863813476562528,7.638188308774579,-6.762081415741839,-2.0538685326563133
1790097083051381504,3.396381347656253,7.516885911072648,-6.879017781959396,-2.1330567892306043
1790097083061381376,3.406381347656253,7.673628725546766,-7.103502372990778,-2.305105565295589
1790097083071381504,3.4163813476562526,8.123004387298806,-7.264300233041275,-2.409152995938904
1790097083081381376,3.426381347656253,8.587674373018633,-7.264382288169088,-2.361415384161902
1790097083091381504,3.436381347656253,8.644571451944918,-7.193510115446136,-2.4776579587563603
1790097083101381376,3.446381347656253,8.37332952193308,-6.947559431997607,-2.616260163652268
1790097083111381504,3.4563813476562526,8.1486804769279,-6.502649729494968,-2.9617380998188003
1790097083121381376,3.466381347656253,8.088981177778724,-6.189353940153687,-3.361865004195067
1790097083131381504,3.476381347656253,7.957815041083632,-6.132420580169859,-3.5401496938896106
1790097083141381376,3.486381347656253,7.728875791648211,-6.3424591434263435,-3.4887857491048617
1790097083151381504,3.4963813476562526,7.60921391362272,-6.530241946250714,-3.309273501458445
1790097083161381376,3.506381347656253,7.583373585162349,-6.556216982636535,-3.0526564342588323
1790097083171381504,3.516381347656253,7.640917532982586,-6.419190212196064,-2.969564535742137
1790097083181381376,3.526381347656253,7.777065165502121,-6.431923281024044,-2.9909376929174267
1790097083191381504,3.5363813476562527,7.964425867466349,-6.589020832646289,-3.124893132060252
1790097083201381376,3.546381347656253,8.050885405459205,-6.575741939888504,-3.320103756882374
1790097083211381504,3.556381347656253,8.08179335735605,-6.562808546620398,-3.4272608413642125
1790097083221381376,3.566381347656253,8.066595639106927,-6.633768185737743,-3.4874164765161564
1790097083231381504,3.5763813476562527,8.110012924274395,-6.729664914222967,-3.519688943642567
1790097083241381376,3.586381347656253,8.201434938897835,-6.633797892948072,-3.6394449506053563
1790097083251381504,3.596381347656253,8.326581082901773,-6.363614991309872,-3.78606298616125
1790097083261381376,3.606381347656253,8.423182865573184,-6.179843318290941,-3.9121781925080237
1790097083271381504,3.6163813476562527,8.516608653918093,-6.137919773951989,-4.04073179167723
1790097083281381376,3.626381347656253,8.596858763456403,-6.191777805698357,-3.9535728988390817
1790097083291381504,3.636381347656253,8.65929222477485,-6.308670510851725,-3.7040520702181157
1790097083301381376,3.646381347656253,8.687532798654665,-6.3240178657036,-3.4277460680028393
1790097083311381504,3.656381347656253,8.759130841390949,-6.1769703659271356,-3.401757800611544
1790097083321381376,3.666381347656253,8.784280886954164,-5.891364615340022,-3.6220952962796105
1790097083331381504,3.6763813476562532,8.757730484008789,-5.521357189168056,-3.918151641468937
1790097083341381376,3.686381347656253,8.799276614772795,-5.133775446399703,-4.160891595928698
1790097083351381504,3.696381347656253,8.995983962511806,-4.906496368467068,-4.274049934387125
1790097083361381376,3.706381347656253,9.316955907807177,-4.717597562218945,-4.36498059177785
1790097083371381504,3.7163813476562533,9.489301048732965,-4.7642139399638515,-4.491127137624536
1790097083381381376,3.726381347656253,9.43156010001726,-5.003790054248242,-4.524159481332365
1790097083391381504,3.736381347656253,9.154541640200677,-5.114610548900104,-4.668243841834117
1790097083401381376,3.746381347656253,8.743170222303169,-5.0501790311258015,-4.893575789625532
1790097083411381504,3.7563813476562533,8.38872622410991,-4.852524138503543,-4.938091330496766
1790097083421381376,3.766381347656253,8.360017789285283,-4.721186864674317,-4.945955772520454
1790097083431381504,3.776381347656253,8.616023755237936,-4.807863818063304,-4.700998583192132
1790097083441381376,3.786381347656253,9.027081242158697,-4.957659766322325,-4.3693476916315745
1790097083451381504,3.7963813476562533,9.472366940983012,-4.9174812202764,-4.051531622913358
1790097083461381376,3.806381347656253,9.706497732099177,-4.734625756393232,-3.732034756889113
1790097083471381504,3.816381347656253,9.583044135819007,-4.789546733513277,-3.3847021718574912
1790097083481381376,3.826381347656253,9.179925791310387,-4.578469717545099,-3.1999333225950988
1790097083491381504,3.8363813476562534,8.66844718739413,-4.167356861058992,-3.10040280047266
1790097083501381376,3.846381347656253,8.123684732788915,-3.6629754275673285,-3.0107756102633587
1790097083511381504,3.856381347656253,7.689325231076159,-2.9560355529049525,-2.8928621288087513
1790097083521381376,3.866381347656253,7.861382869502663,-2.2423215829934797,-2.7995467952376525
1790097083531381504,3.8763813476562534,8.278720333162212,-1.7584231460884976,-2.6847328473211682
1790097083541381376,3.886381347656253,8.195100385169015,-1.5302217031448182,-2.7955872901563485
1790097083551381504,3.896381347656253,8.150175207616657,-1.7219178811109144,-2.845366561187706
1790097083561381376,3.9063813476562532,7.701950383714174,-1.8168589093712726,-2.7520644975100343
1790097083571381504,3.9163813476562535,7.420794831306346,-1.734209591021482,-2.4706542159844997
1790097083581381376,3.9263813476562532,7.263612364166296,-1.3973758772946598,-2.0438859560006266
1790097083591381504,3.936381347656253,7.0472377807137505,-0.8363090003392902,-1.6613047343920306
1790097083601381376,3.9463813476562533,7.149108557817702,-0.12870647824832943,-1.3245927231157186
1790097083611381504,3.9563813476562535,6.858452132832436,0.17904349362325295,-1.0629031159068283
1790097083621381376,3.9663813476562533,7.348640297787133,-0.7049547070096162,-1.4346154660699624
1790097083631381504,3.976381347656253,6.971853168271506,-0.9982403791482196,-1.3196725798866349
1790097083641381376,3.9863813476562533,7.6599035870771015,-0.8389926754945543,-1.5189009661068338
1790097083651381504,3.9963813476562535,8.387912511738516,1.0501737852933695,-0.9564167028174375
1790097083661381376,4.006381347656253,7.090480302112742,0.9307578720958944,-0.7113542251685157
1790097083671381504,4.016381347656253,7.488402650381838,0.9821812195601258,-0.9884147196340665
1790097083681381376,4.026381347656254,8.551281274739292,1.0192854311889443,-0.8120611045467928
1790097083691381504,4.036381347656254,7.743111104461825,0.38272996313794294,-0.6854998378213062
1790097083701381376,4.046381347656253,6.803313332950635,0.9637743683117825,-1.161332731116772
1790097083711381504,4.056381347656253,6.261478137544878,1.5354030809396748,-1.3204812002213808
1790097083721381376,4.066381347656254,6.177538231420524,1.4327506554877436,-0.9320967892427959
1790097083731381504,4.076381347656254,6.384547422142588,1.2569599567615826,-0.7275294928395261
1790097083741381376,4.086381347656253,6.294514095324631,1.2307275870475964,-0.7346658834597808
1790097083751381504,4.096381347656253,6.711580328315765,1.416413559472999,-0.4356648826998937
1790097083761381376,4.106381347656254,7.201792836911922,0.7010534909149669,-0.7717991374116899
1790097083771381504,4.116381347656254,7.428525999507202,0.4448274778789711,-1.0073035380660023
1790097083781381376,4.126381347656253,7.222606266927371,-0.6427465446881069,-1.6129493416824556
1790097083791381504,4.136381347656253,6.674767697127732,-1.2472593387962077,-2.040413591210362
1790097083801381376,4.146381347656254,7.161096506129607,0.08559765051641571,-1.7731348621421037
1790097083811381504,4.156381347656254,7.990200042909949,0.951599337517535,-1.788367162425555
1790097083821381376,4.1663813476562535,7.968672913421628,0.6986052117836277,-1.7903170038760985
1790097083831381504,4.176381347656253,8.162922929693874,0.13283842466057683,-2.041629641907169
1790097083841381376,4.186381347656253,8.582139236268347,-0.5515186679146964,-2.7977988355135675
1790097083851381504,4.196381347656254,8.662633505407868,-0.8140782132063105,-3.128591140154466
1790097083861381376,4.2063813476562535,7.318668136353821,-0.39539049947010496,-3.53840630454385
1790097083871381504,4.216381347656253,7.893996497544541,0.0642993429284199,-4.369395628794871
1790097083881381376,4.226381347656254,8.856470788734299,-0.5208306777204498,-4.870251085239269
1790097083891381504,4.236381347656254,8.602433425196843,-1.65267441713168,-4.665118245802177
1790097083901381376,4.2463813476562535,8.3917345723753,-2.2592289939988435,-5.054793250935817
1790097083911381504,4.256381347656253,8.734536854823519,-2.197295980202707,-4.828736167243577
1790097083921381376,4.266381347656253,8.893742489035366,-1.8673293312485355,-3.3660565325240546
1790097083931381504,4.276381347656254,8.840100144818775,-1.8656411158916473,-1.8647920732448318
1790097083941381376,4.286381347656254,8.820629912579761,-1.6200330777170033,-1.889909666808181
1790097083951381504,4.296381347656253,8.215852728756472,-0.49888763017172855,-1.3906302912468087
1790097083961381376,4.306381347656254,8.627195344714382,-0.622139164911466,-0.05475653390440777
1790097083971381504,4.316381347656254,9.064864263323507,-2.287156469729008,0.7931812233246842
1790097083981381376,4.326381347656254,9.616980936282543,-3.8543942892659384,0.39418736754823963
1790097083991381504,4.336381347656253,9.909887911006951,-4.478966445717321,-0.8645853908978607
1790097084001381376,4.346381347656253,9.384791654310742,-4.688736013592355,-3.6684779632792033
1790097084011381504,4.356381347656254,8.384771205803847,-5.314390389312182,-6.158491471845839
1790097084021381376,4.366381347656254,7.895136632078684,-6.061412821852067,-7.9667687115332795
1790097084031381504,4.376381347656253,7.738775215635504,-6.6591069469891,-8.595484543884336
1790097084041381376,4.386381347656254,8.054286754553058,-6.80598449637861,-8.770760781918503
1790097084051381504,4.396381347656254,8.639929865788089,-7.2225134369872706,-7.053559966637986
1790097084061381376,4.406381347656254,9.570254182072405,-7.173963463269914,-5.774752868961106
1790097084071381504,4.4163813476562535,9.08580851348575,-7.0805338565619795,-4.802233564601945
1790097084081381376,4.426381347656253,7.986598685960525,-6.637298119671698,-3.5527074921298825
1790097084091381504,4.436381347656254,8.013779389631395,-6.604536280875017,-3.496192393298644
1790097084101381376,4.446381347656254,8.360768967900315,-7.385256070069406,-3.5651012584188715
1790097084111381504,4.4563813476562535,9.000066858233986,-7.685146641514135,-2.887798134762143
1790097084121381376,4.466381347656254,9.6247821467451,-6.230382753439486,-2.049068899189444
1790097084131381504,4.476381347656254,9.309425872884058,-4.062829635467068,-2.0817182208037885
1790097084141381376,4.486381347656254,7.812219548679734,-4.253504223015723,-0.871425233938917
1790097084151381504,4.4963813476562535,8.396466204695502,-5.38812798265056,-0.546197434340695
1790097084161381376,4.506381347656253,8.436029647833587,-5.92862511165349,-1.5912805234117413
1790097084171381504,4.516381347656254,8.527243228092756,-6.56869733132905,-2.148600864452498
1790097084181381376,4.526381347656254,8.539152881972358,-7.162624538423641,-2.578318946949582
1790097084191381504,4.536381347656254,8.627426910869776,-7.059683859673896,-3.044996353647817
1790097084201381376,4.546381347656254,8.555123140507654,-6.840597427268633,-3.316451633822065
1790097084211381504,4.556381347656254,8.375385976958551,-6.985985356861955,-2.970716118302847
1790097084221381376,4.566381347656254,8.355901181017003,-7.191996477174427,-3.7442124605979505
1790097084231381504,4.576381347656254,8.134637068590404,-7.308869586171893,-3.7045557398079425
1790097084241381376,4.586381347656253,7.6571944909706,-6.899062172313933,-3.3976849142098353
1790097084251381504,4.596381347656254,7.02289720225725,-6.283110397841579,-3.4231720537028227
1790097084261381376,4.606381347656254,6.592865108573028,-5.712075134376747,-3.3807244860111276
1790097084271381504,4.616381347656254,6.994269891556981,-5.759752895327897,-3.1403422500781435
1790097084281381376,4.626381347656254,7.768691892458228,-6.121261900560686,-3.359570582944505
1790097084291381504,4.636381347656254,8.426600423258963,-6.512681783615424,-3.522822272853362
1790097084301381376,4.646381347656254,8.80815364873129,-7.07712428597659,-3.95416268552192
1790097084311381504,4.656381347656254,8.902768980593619,-7.216587972338306,-4.293709027824242
1790097084321381376,4.6663813476562535,8.748939672850572,-7.090311447610521,-4.056504185345508
1790097084331381504,4.676381347656254,8.679680924748467,-6.900090740252144,-3.9534990393672858
1790097084341381376,4.686381347656254,8.580356198012225,-6.5940598159454655,-4.024041082354738
1790097084351381504,4.696381347656254,8.598549658304997,-6.5841265298947445,-4.072832707042628
1790097084361381376,4.706381347656254,8.918751024746141,-7.059685405859441,-4.6435279445012
1790097084371381504,4.716381347656254,8.735754992944601,-7.3601044013258985,-5.106139943746004
1790097084381381376,4.726381347656254,8.266448054309143,-7.217118988041955,-4.869614521898973
1790097084391381504,4.736381347656254,8.011392445858894,-7.074965545712746,-4.378008719522484
1790097084401381376,4.7463813476562535,7.964307283247236,-6.70489178401448,-4.135446616616721
1790097084411381504,4.756381347656254,8.303307436572759,-6.110523104210363,-4.058282880483637
1790097084421381376,4.766381347656254,8.44211803117215,-5.4605313101213655,-4.037749285284779
1790097084431381504,4.776381347656254,8.442544949757165,-4.9084029971507475,-3.7764107397860895
1790097084441381376,4.7863813476562544,9.018393195470644,-5.113915302994004,-3.7632257449936795
1790097084451381504,4.796381347656254,9.102947242024145,-5.108611118853362,-3.6167063904272028
1790097084461381376,4.806381347656254,9.025956223185549,-4.9980634209751145,-3.270883771339536
1790097084471381504,4.816381347656254,9.058385569956798,-4.731815709244014,-2.570397056717989
1790097084481381376,4.826381347656254,8.81370417890461,-4.402606414534964,-1.7695703903883273
1790097084491381504,4.836381347656254,8.07391092215602,-4.271526664463037,-1.5573529982354402
1790097084501381376,4.846381347656254,7.593153481581448,-4.130150259612484,-1.913170912763339
1790097084511381504,4.856381347656254,7.72051480381774,-3.6449624238058305,-2.1503611400647435
1790097084521381376,4.8663813476562545,8.514471177220841,-3.2977245618337427,-1.8871781072027383
1790097084531381504,4.876381347656254,9.539207777392601,-3.3611565831381176,-1.3218813428108973
1790097084541381376,4.886381347656254,10.289641325521071,-3.7229633849056922,-0.9549323436456576
1790097084551381504,4.896381347656254,10.724051510109808,-3.8760515807623617,-0.8347352077006153
1790097084561381376,4.906381347656254,10.578023028980093,-4.118642682455667,-1.254454774772869
1790097084571381504,4.916381347656254,10.026121297331379,-4.659657188611407,-2.20578767083661
1790097084581381376,4.926381347656254,10.205223377476008,-5.367281047158189,-3.2522641906966445
1790097084591381504,4.936381347656254,10.49670045235331,-5.988907453998861,-3.5772695957695513
1790097084601381376,4.946381347656255,10.659135849952712,-6.360916589767913,-3.4839694255781204
1790097084611381504,4.956381347656254,10.409204998344512,-6.2098117312561145,-3.147481861022995
1790097084621381376,4.966381347656254,9.453702892249972,-5.871509056082212,-2.867230164197734
1790097084631381504,4.976381347656254,8.499512707651036,-5.192412604909712,-2.7327766542655003
1790097084641381376,4.986381347656254,7.743028394626927,-4.020915266954704,-3.1907484314385375
1790097084651381504,4.996381347656254,7.655457504646898,-3.225564656361438,-3.4267626399157316
1790097084661381376,5.006381347656254,8.082842232726808,-3.078383307277182,-3.1043669115458736
1790097084671381504,5.016381347656254,8.147805897675623,-2.4404818122940553,-3.236661665712739
1790097084681381376,5.026381347656255,8.969593048392742,-1.925825999106392,-3.911327240974158
1790097084691381504,5.0363813476562544,9.55521078805873,-1.9126484694520944,-3.921647655922385
1790097084701381376,5.046381347656254,9.3400306470929,-2.008807022987549,-3.481132202416278
1790097084711381504,5.056381347656254,8.527735011493945,-1.8096850890824663,-2.801321294957281
1790097084721381376,5.066381347656254,7.5988167179135395,-1.2747540898278307,-1.9543929067733758
1790097084731381504,5.0763813476562545,6.6469094038653855,-0.02933618584172626,-1.658683128706386
1790097084741381376,5.086381347656254,5.881583656416728,-0.23117659980654792,-0.628827735667593
1790097084751381504,5.096381347656254,5.801491686232377,0.6413783321054362,-0.14639560463730886
1790097084761381376,5.106381347656255,5.891368684075936,1.1617473926153605,0.17627448726595013
1790097084771381504,5.1163813476562545,6.205398954863678,0.6816241590802041,0.39977832631050014
1790097084781381376,5.126381347656254,6.119176614965586,0.6296480309004374,0.36379418420443427
1790097084791381504,5.136381347656254,6.010931074980657,0.7409366133599788,0.25053542617922103
1790097084801381376,5.146381347656254,6.3190376543966815,0.9904211246725848,0.24103667567330192
1790097084811381504,5.1563813476562546,6.879238050922816,1.2452066137292488,0.06198628895609515
1790097084821381376,5.166381347656254,7.354273073723891,1.4525796241145152,-0.15917106352929428
1790097084831381504,5.176381347656254,7.44581988946925,1.44412008026626,-0.43157209359518994
1790097084841381376,5.186381347656255,7.03693736915185,1.330331288471619,-0.7500298223899217
1790097084851381504,5.196381347656255,6.533698448321273,1.3869694723180082,-0.9728871612039397
1790097084861381376,5.206381347656254,6.255009436720282,1.6385829677689778,-1.1471884730202222
1790097084871381504,5.216381347656254,6.249012034045303,1.61036240015443,-1.0334227903010962
1790097084881381376,5.226381347656254,6.65203349065683,1.5128726892590763,-0.8512750060149071
1790097084891381504,5.236381347656255,7.364028372125036,1.3487703914818363,-0.7245765906729402
1790097084901381376,5.246381347656254,7.988493094786087,1.147709536203399,-0.6358174737986837
1790097084911381504,5.256381347656254,8.501396811432938,0.7474797104138736,-0.7999356039973007
1790097084921381376,5.266381347656255,8.250795526034457,0.4160793887792577,-1.16851121893423
1790097084931381504,5.276381347656255,7.856209402929515,0.13897324935863745,-1.5545276493098579
1790097084941381376,5.2863813476562544,7.438262747611278,0.03535385374765801,-1.652082850462158
1790097084951381504,5.296381347656254,7.2502919786346975,0.05526648596746457,-1.7226837049560384
1790097084961381376,5.306381347656254,8.37490011604811,-0.24748010861810993,-1.7116573296932156
1790097084971381504,5.316381347656255,8.886541207960851,-0.5939266966966308,-1.7726132753371284
1790097084981381376,5.3263813476562545,8.561843141288513,-0.8810954003352138,-1.9664841487650384
1790097084991381504,5.336381347656254,8.142264785256753,-1.1580811989918394,-2.145551105672837
1790097085001381376,5.346381347656255,7.8699177794396356,-1.4712226887674094,-2.2489227108379457
1790097085011381504,5.356381347656255,7.534596288326983,-1.7842074974995445,-2.196313332246507
1790097085021381376,5.3663813476562545,7.800935011987803,-1.8433720008027112,-2.212163022791881
1790097085031381504,5.376381347656254,8.155518370490503,-2.035932037485633,-2.295453311587654
1790097085041381376,5.386381347656254,8.71753880377675,-2.127323604121062,-2.344678695485054
1790097085051381504,5.396381347656255,8.555117094732127,-2.4037088256226533,-2.4346766259666692
1790097085061381376,5.4063813476562546,8.897045819962013,-2.742216896814586,-2.8870627307859706
1790097085071381504,5.416381347656254,8.918697379557807,-3.209357154203726,-3.1336732673630654
1790097085081381376,5.426381347656255,8.818368649244889,-3.6578030063149742,-3.2425437043606085
1790097085091381504,5.436381347656255,8.706685580199979,-3.935491464724017,-3.2725316680795604
1790097085101381376,5.446381347656255,8.885379248971162,-4.213358248634352,-3.219582146965842
1790097085111381504,5.456381347656254,9.26280599963779,-4.657610455554104,-3.2148454571637775
1790097085121381376,5.466381347656254,9.419756543949406,-5.227802495897859,-3.3654595025308223
1790097085131381504,5.476381347656255,9.321631395636077,-5.77996960156905,-3.5453998398679145
1790097085141381376,5.486381347656255,9.081312168103192,-6.2796774911727,-3.607240568632478
1790097085151381504,5.496381347656254,8.747037663321539,-6.633353987043082,-3.560005996780889
1790097085161381376,5.506381347656255,8.487349872532683,-6.739442373874641,-3.3898408366120827
1790097085171381504,5.516381347656255,8.471907247343696,-6.675015948667616,-3.296212849663665
1790097085181381376,5.526381347656255,8.68617467875816,-6.624770112811583,-3.1867685599109743
1790097085191381504,5.5363813476562544,8.797253282495387,-6.5257109107941,-3.3292437784877613
1790097085201381376,5.546381347656254,8.603750568091092,-6.506973494972565,-3.1918729894918028
1790097085211381504,5.556381347656255,8.28072976763408,-6.467900658518404,-3.3986934047122825
1790097085221381376,5.566381347656255,7.981090853536874,-6.544497353545365,-3.142764246377785
1790097085231381504,5.5763813476562545,7.991282060087365,-6.478935299159267,-3.1386992159879212
1790097085241381376,5.586381347656255,7.940023468843027,-6.380406931435556,-3.1903701402767766
1790097085251381504,5.596381347656255,8.098880149512539,-6.30498952603258,-3.2302897974709794
1790097085261381376,5.606381347656255,8.250630691781154,-6.33597399277785,-3.356213148724788
1790097085271381504,5.6163813476562545,8.399145751906733,-6.452192180160767,-3.277188566690971
1790097085281381376,5.626381347656254,8.50257408727929,-6.529527453944934,-3.0681353281139523
1790097085291381504,5.636381347656255,8.529285422385485,-6.571263075708653,-2.9424639959251806
1790097085301381376,5.646381347656255,8.457549699892741,-6.5954113085024835,-2.7699873661410246
1790097085311381504,5.6563813476562546,8.344395293214113,-6.5164483964688085,-2.6863202755430606
1790097085321381376,5.666381347656255,8.190730619411958,-6.434754164319855,-2.8368214285293045
1790097085331381504,5.676381347656255,8.19261251995456,-6.3118869296986135,-2.9698187202199264
1790097085341381376,5.686381347656255,8.41495561635565,-6.183249253365728,-3.1360653673518133
1790097085351381504,5.696381347656255,8.723299378898806,-6.326706084255121,-3.2238244037087775
1790097085361381376,5.706381347656254,9.04818212574088,-6.725922048965937,-3.371051250174602
1790097085371381504,5.716381347656255,9.311461186209648,-7.1755846797083604,-3.6835276536720643
1790097085381381376,5.726381347656255,9.167934466834847,-7.311602449114538,-3.682448837050257
1790097085391381504,5.736381347656255,8.852900666749445,-7.030783460980305,-3.29864627117147
1790097085401381376,5.746381347656255,8.520925625851685,-6.380378448874946,-3.1829102329293373
1790097085411381504,5.756381347656255,8.23929599726689,-5.9918240511903935,-3.236596841320937
1790097085421381376,5.766381347656255,8.254926147653642,-5.700557023616364,-3.4696635241522316
1790097085431381504,5.776381347656255,8.253554432365991,-5.613683587447777,-3.5940978829553973
1790097085441381376,5.7863813476562544,8.12362945306446,-5.936421251344144,-3.547471601049155
1790097085451381504,5.796381347656255,8.073003857655511,-6.428260228720969,-3.537625300861094
1790097085461381376,5.806381347656255,8.154990194276602,-6.962437398018817,-3.563630529879916
1790097085471381504,5.816381347656255,8.175277913220386,-7.233104209692428,-3.5888352044427516
1790097085481381376,5.826381347656255,8.15011692662203,-7.265827701626991,-3.5912133929093866
1790097085491381504,5.836381347656255,8.261592962667523,-7.167283855591805,-3.615253558070578
1790097085501381376,5.846381347656255,8.373796830357788,-6.882921845959633,-3.68934759399688
1790097085511381504,5.856381347656255,8.387713805333174,-6.62649354760524,-3.731334648112567
1790097085521381376,5.8663813476562545,8.349452607404272,-6.403076785614687,-3.5337803466932756
1790097085531381504,5.876381347656255,8.38996370012996,-6.450303112886886,-3.5522461095474624
1790097085541381376,5.886381347656255,8.443263928048177,-6.424525358528352,-3.5356033304444257
1790097085551381504,5.896381347656255,8.514414334244107,-6.235061370714333,-3.6398813720689507
1790097085561381376,5.906381347656255,8.651296222466655,-5.9431270750096195,-3.76381611473885
1790097085571381504,5.916381347656255,8.87746632060563,-5.725267936608685,-3.7908582211899335
1790097085581381376,5.926381347656255,9.065953266383909,-5.653284167386153,-3.8022975167909165
1790097085591381504,5.936381347656255,9.232573552052008,-5.540947207594348,-4.003033438557647
1790097085601381376,5.946381347656255,9.272507007385256,-5.662036592723344,-3.9796760766140955
1790097085611381504,5.956381347656255,9.269578686984739,-5.665174163166583,-4.045388528598242
1790097085621381376,5.966381347656255,9.23418773299841,-5.5225536978593635,-4.049058878117673
1790097085631381504,5.976381347656255,9.206495336588778,-5.198672851997025,-4.147955870286267
1790097085641381376,5.9863813476562555,9.127794608398856,-4.932940785010137,-4.233575885619394
1790097085651381504,5.996381347656255,9.11161711571253,-4.8330059300881505,-4.207169919993722
1790097085661381376,6.006381347656255,9.257229645334789,-4.867193274429461,-3.990703073268488
1790097085671381504,6.016381347656255,9.376022372635001,-4.815072838303519,-3.8620847865109487
1790097085681381376,6.026381347656255,9.279381263183426,-4.752650268669785,-3.9275435651372845
1790097085691381504,6.036381347656255,9.07792078383382,-4.643051911739206,-4.073698357684103
1790097085701381376,6.046381347656255,9.025332588510407,-4.410107706010817,-4.053956304628792
1790097085711381504,6.056381347656255,9.31256481526895,-3.9725427818950507,-3.8540627488136474
1790097085721381376,6.066381347656256,9.850037615996218,-3.321872048368081,-3.4565341374185357
1790097085731381504,6.076381347656255,10.43559438261451,-2.731683786942717,-3.1782488089715653
1790097085741381376,6.086381347656255,10.397311470017506,-2.4026750142951934,-2.9540698473013975
1790097085751381504,6.096381347656255,9.491315371815372,-2.7280829760301426,-2.6084554045030073
1790097085761381376,6.106381347656255,8.246847365739205,-2.7520608190272786,-2.6302187944814235
1790097085771381504,6.116381347656255,7.462348063930738,-2.6338734549324996,-2.681719703859168
1790097085781381376,6.126381347656255,7.14106267883018,-2.3107030954667493,-2.598534119262914
1790097085791381504,6.136381347656255,7.11982124584558,-1.881027023237006,-2.1205967879790637
1790097085801381376,6.146381347656256,7.538336096855864,-1.165199348660404,-1.9026277798250293
1790097085811381504,6.156381347656255,8.010792669889279,-0.649926326972298,-2.1266998551039373
1790097085821381376,6.166381347656255,8.333272986725154,-0.6054103947987339,-2.5569809872037985
1790097085831381504,6.176381347656255,8.046097449109789,-0.1079511008384696,-2.1311698068281046
1790097085841381376,6.186381347656255,7.071233300749357,-0.48240584980613654,-2.0142174882391504
1790097085851381504,6.1963813476562555,6.296782633313301,-1.0116645791050676,-1.425353608719432
1790097085861381376,6.206381347656255,5.859940848588805,0.07267204380021619,-0.41779614228389583
1790097085871381504,6.216381347656255,6.099562261068006,1.2187726418866975,-0.17252743463408854
1790097085881381376,6.226381347656256,6.450469991218949,1.2573222135135975,-0.4244398095550137
1790097085891381504,6.2363813476562555,6.5829002121558045,0.7139213720466281,-0.8610354213664935
1790097085901381376,6.246381347656255,6.1227276243085855,0.5123232510778283,-1.0494013670064508
1790097085911381504,6.256381347656255,5.534772942598816,0.6917512986579225,-0.9757521239587942
1790097085921381376,6.266381347656255,5.446389823628754,1.0216881217352691,-0.7877714096069637
1790097085931381504,6.2763813476562555,5.819214937780235,1.3784856509899954,-0.6836279036713845
1790097085941381376,6.286381347656255,6.417413536208116,1.5874079981658933,-0.617907440349569
1790097085951381504,6.296381347656255,7.128324801908957,1.4359623333251974,-0.6344573636775618
1790097085961381376,6.306381347656256,7.525995472567718,1.3081861092983542,-0.7987384792222552
1790097085971381504,6.316381347656256,7.17417112249243,1.3420692723396566,-1.0321436273505122
1790097085981381376,6.326381347656255,6.643935994212881,1.355316296523199,-1.2129464971398192
1790097085991381504,6.336381347656255,6.665594520690564,1.32004083877094,-1.2940383272256164
1790097086001381376,6.346381347656255,7.403050626150728,1.17018237287793,-1.261750341891408
1790097086011381504,6.356381347656256,8.308444921769382,0.9329339168616723,-1.1436208862285078
1790097086021381376,6.366381347656255,8.898813151636633,0.7493697984510616,-1.1030950740489958
1790097086031381504,6.376381347656255,8.981174804210436,0.48237930446584787,-1.2370892833788498
1790097086041381376,6.386381347656256,8.01417595607804,0.23515065347912867,-1.5007266344966648
1790097086051381504,6.396381347656256,6.681035427191165,0.08203902812312167,-1.784624015756437
1790097086061381376,6.406381347656255,6.20990803122881,-0.03895359356427632,-1.9127433124685764
1790097086071381504,6.416381347656255,6.939587720430962,-0.328898090473069,-1.8446486315828556
1790097086081381376,6.426381347656255,8.084482198119597,-0.6418777135598865,-1.6009676993749005
1790097086091381504,6.436381347656256,8.915110400659097,-0.8360171645512231,-1.3888520707948855
1790097086101381376,6.4463813476562555,8.971162661831158,-0.8894518934155846,-1.3282029119927148
1790097086111381504,6.456381347656255,8.228710794583296,-0.855417295068869,-1.7038444075136951
1790097086121381376,6.466381347656256,7.707576445757008,-1.0652880501616502,-2.269375593948852
1790097086131381504,6.476381347656256,7.083415437214401,-1.4740161234417732,-2.6878309678831718
1790097086141381376,6.4863813476562555,7.245747625165813,-1.9864928053046222,-2.938654691397136
1790097086151381504,6.496381347656255,8.12964260077358,-2.5239342003916745,-3.094608528425241
1790097086161381376,6.506381347656255,9.110369791152781,-2.8726847005720355,-3.251088123861874
1790097086171381504,6.516381347656256,9.687769479617922,-3.0603119332217075,-3.4327975908957358
1790097086181381376,6.5263813476562555,9.548578149289147,-3.3422740010817256,-3.7483410975517932
1790097086191381504,6.536381347656255,8.981195597501804,-3.8680253416829316,-4.180743021266916
1790097086201381376,6.546381347656256,8.519251215753158,-4.414147365750319,-4.525654073028142
1790097086211381504,6.556381347656256,8.347543035291103,-4.938979192541775,-4.69986900108844
1790097086221381376,6.566381347656256,8.405735913122562,-5.271830510211345,-4.587437105680215
1790097086231381504,6.576381347656255,8.742626090260607,-5.435364707580753,-4.4421852320806385
1790097086241381376,6.586381347656255,9.226474978674748,-5.564638403402126,-4.359316770163532
1790097086251381504,6.596381347656256,9.643419863742105,-5.6042586034728865,-4.4935560557342455
1790097086261381376,6.606381347656256,9.687288509214255,-5.663802270224608,-4.5038774282339835
1790097086271381504,6.616381347656255,9.264188363962145,-5.774084766515483,-4.41809940987822
1790097086281381376,6.626381347656256,8.68374308220178,-5.881174211096749,-4.138461988999093
1790097086291381504,6.636381347656256,8.287218271855258,-5.945573907068244,-3.8478397155421002
1790097086301381376,6.646381347656256,8.216898492795268,-5.997961667673055,-3.7013107395440707
1790097086311381504,6.656381347656255,8.466427081947842,-5.979339571249852,-3.742451614654926
1790097086321381376,6.666381347656255,8.843773335451749,-5.951170387548687,-3.8813897772156536
1790097086331381504,6.676381347656256,9.059054827743315,-5.834958936774877,-4.02334549830561
1790097086341381376,6.686381347656256,9.040888228972458,-5.905398620161308,-3.771595247704497
1790097086351381504,6.6963813476562555,9.230684635661383,-6.031034834948745,-3.7745381774802227
1790097086361381376,6.706381347656256,9.073369930253842,-6.361352887009961,-3.8561502459753423
1790097086371381504,6.716381347656256,8.74611408184414,-6.481230672786854,-3.920716244353204
1790097086381381376,6.726381347656256,8.558671216677917,-6.6014341958633835,-3.8771605416972847
1790097086391381504,6.7363813476562555,8.528969317306327,-6.704033020799068,-3.3633817787970135
1790097086401381376,6.746381347656255,8.39238005693571,-6.555070136442935,-3.202038558395958
1790097086411381504,6.756381347656256,8.17487218870474,-6.5843344428622785,-2.822267661040503
1790097086421381376,6.766381347656256,7.827763478681523,-6.495273090400666,-2.912458021183952
1790097086431381504,6.7763813476562555,7.556936509336311,-6.449331979346925,-3.037705129523134
1790097086441381376,6.786381347656256,7.524065263196204,-6.422875094338433,-3.1910691434828506
1790097086451381504,6.796381347656256,7.81518088447849,-6.436143775693498,-3.167984281260321
1790097086461381376,6.806381347656256,8.316979051309731,-6.40788128580667,-3.0045197404912427
1790097086471381504,6.816381347656256,8.652921407474684,-6.39665440564971,-2.8265638259051444
1790097086481381376,6.826381347656255,8.67385006775995,-6.517956522198783,-2.831439269081276
1790097086491381504,6.836381347656256,8.60850845781165,-6.632438896048613,-2.8843198250546074
1790097086501381376,6.846381347656256,8.53928143295207,-6.586052364248917,-3.051382688403307
1790097086511381504,6.856381347656256,8.434406518312331,-6.330466408316211,-3.3431169621548813
1790097086521381376,6.866381347656256,8.386085478165846,-6.04794586772843,-3.740092312449731
1790097086531381504,6.876381347656256,8.302344648783329,-5.896682833068847,-4.041783480334996
1790097086541381376,6.886381347656256,8.265043550225963,-5.913105834048261,-4.286427899594314
1790097086551381504,6.896381347656256,8.134194084378054,-5.913224624081387,-4.323116726501957
1790097086561381376,6.906381347656255,7.998011989457101,-6.141141163143804,-4.355961473742899
1790097086571381504,6.916381347656256,7.934782090819722,-6.386891695919954,-4.31232702853743
1790097086581381376,6.926381347656256,7.944782971755285,-6.435315591019255,-4.235380736767304
1790097086591381504,6.936381347656256,7.883808927766906,-6.241796665243452,-4.142850747186838
1790097086601381376,6.946381347656256,7.844166680841345,-6.157237504978441,-4.02044041697673
1790097086611381504,6.956381347656256,8.08157164406076,-6.219474067102588,-3.8760107272307667
1790097086621381376,6.966381347656256,8.388113518289037,-6.3103527312086785,-3.8048503950987276
1790097086631381504,6.976381347656256,8.65097246611013,-6.36492707822289,-3.778179948284514
1790097086641381376,6.9863813476562555,8.786534522220608,-6.319276032279896,-3.729578486027858
1790097086651381504,6.996381347656256,8.84238695182453,-6.15206249410219,-3.790635643201849
1790097086661381376,7.006381347656256,8.862332181811727,-5.915333157359701,-3.9174666872582806
1790097086671381504,7.016381347656256,8.824045635261498,-5.623580220930816,-4.104273973521512
1790097086681381376,7.026381347656256,8.966893083656263,-5.364714557712756,-4.188888566380696
1790097086691381504,7.036381347656256,9.16237533855209,-5.260147828632824,-4.222750983830859
1790097086701381376,7.046381347656256,9.28704701654228,-5.291533869523175,-4.241779067606132
1790097086711381504,7.056381347656256,9.284861465575494,-5.42854250930258,-4.2966040008628426
1790097086721381376,7.066381347656256,9.031657762725107,-5.463202957747833,-4.394972763192111
1790097086731381504,7.076381347656256,8.63837668889844,-5.228698848896615,-4.6666314374936055
1790097086741381376,7.086381347656256,8.515015617106052,-4.926407484919513,-4.757189137244093
1790097086751381504,7.096381347656256,8.658822885391679,-4.6858885074491985,-4.987699178456804
1790097086761381376,7.1063813476562565,8.960666629420842,-4.591245145580522,-4.94141413198583
1790097086771381504,7.116381347656256,9.283903296646267,-4.45164531392447,-4.77580268994534
1790097086781381376,7.126381347656256,9.461263036659973,-4.4110177152254355,-4.577256752335629
1790097086791381504,7.136381347656256,9.44934799412602,-4.4452754556059215,-4.36717965637635
1790097086801381376,7.146381347656256,9.330336424594387,-4.300494177479379,-4.382187422216524
1790097086811381504,7.156381347656256,9.119671016132433,-4.1259025941222705,-4.413979104852969
1790097086821381376,7.166381347656256,8.94504110669543,-3.957593452521191,-4.184763861560749
1790097086831381504,7.176381347656256,9.05587079412798,-3.6391537124453004,-3.760123659872662
1790097086841381376,7.186381347656257,9.18092730954101,-3.282180013422926,-3.306947262393979
1790097086851381504,7.196381347656256,9.302727490151817,-2.852193762391383,-2.99098714714521
1790097086861381376,7.206381347656256,8.80360347121291,-2.279887599966959,-2.878403670274238
1790097086871381504,7.216381347656256,8.130983801855535,-1.9001118644389838,-3.0824092627128716
1790097086881381376,7.226381347656256,7.873415437675431,-1.6357688656526508,-3.1483371082449434
1790097086891381504,7.236381347656256,7.981249405163562,-1.4006206513060133,-3.0762879967233854
1790097086901381376,7.246381347656256,8.303240771738988,-0.9258329596535453,-2.77162490368421
1790097086911381504,7.256381347656256,8.35141262010265,-0.21859324247981066,-2.434039785975102
1790097086921381376,7.266381347656257,8.179247243125461,-0.2558535919716931,-2.263877241025488
1790097086931381504,7.276381347656256,7.787849028812024,-0.4469121563581282,-1.9154938545912963
1790097086941381376,7.286381347656256,6.862496624299613,-0.1741880116073697,-1.4308328907677206
1790097086951381504,7.296381347656256,6.219084737856903,0.30356333072744796,-0.7611599229238939
1790097086961381376,7.306381347656256,5.966223561923561,0.5786818973402577,-0.17529905058431305
1790097086971381504,7.3163813476562565,6.132423715760975,0.7927053073732361,0.10018355752150879
1790097086981381376,7.326381347656256,6.024623070031641,0.9536502860219132,0.13880324152233783
1790097086991381504,7.336381347656256,5.813682402077247,0.9638344816586377,-0.02838021908865404
1790097087001381376,7.346381347656257,5.854805523091877,0.9308315017106591,-0.37903584980735017
1790097087011381504,7.3563813476562565,5.590313340828977,1.0765326428876514,-0.709138983225194
1790097087021381376,7.366381347656256,5.22845174171542,1.4739893769402792,-0.8019241783672739
1790097087031381504,7.376381347656256,5.397538251570149,1.7058615043227148,-0.5279759393541648
1790097087041381376,7.386381347656256,6.149017479582845,1.582450578171067,-0.1511528107306289
1790097087051381504,7.3963813476562565,6.9422663611340285,1.5057612372284601,-0.2324589497903626
1790097087061381376,7.406381347656256,7.223803313322395,1.5021200905894239,-0.22398889290905372
1790097087071381504,7.416381347656256,7.06138604212078,1.5006918795077004,-0.47157582844307594
1790097087081381376,7.426381347656257,6.820350685434791,1.499415574546535,-0.7676931670843092
1790097087091381504,7.436381347656257,6.775277137756348,1.386617464833367,-1.0835683304727737
1790097087101381376,7.446381347656256,6.484150716288209,1.2433007916891412,-1.2956646614631666
1790097087111381504,7.456381347656256,6.947030772405765,0.9218561170551913,-1.4297132571703122
1790097087121381376,7.466381347656256,7.9159309466452195,0.5186277732559568,-1.5072468158551515
1790097087131381504,7.476381347656257,8.019917446350746,0.25275554309441584,-1.7056811034653356
1790097087141381376,7.486381347656256,7.429231299032121,0.08439635010448437,-1.9786871986259922
1790097087151381504,7.496381347656256,7.786173032285348,-0.2097295938103067,-2.171563565337434
1790097087161381376,7.506381347656257,8.07454184574799,-0.4871437357559609,-2.4295113245541127
1790097087171381504,7.516381347656257,7.5225585440785645,-0.6629387966606906,-2.6746634749862235
1790097087181381376,7.526381347656256,7.343734315200955,-0.7445062801344567,-2.826948518410994
1790097087191381504,7.536381347656256,7.439645062930158,-0.8195682074571623,-3.075260465275632
1790097087201381376,7.546381347656256,8.982454088353384,-1.1146908487002567,-3.116028608523616
1790097087211381504,7.556381347656257,9.245944471127885,-1.3231375488373303,-3.2840918229754315
1790097087221381376,7.5663813476562565,8.690668007665748,-1.5075535980433405,-3.3831705814550026
1790097087231381504,7.576381347656256,8.520267996857028,-1.7741403175144808,-3.4616787600862287
1790097087241381376,7.586381347656257,8.681794879980503,-2.106567568954083,-3.5553965271801986
1790097087251381504,7.596381347656257,8.914536138473501,-2.3989129091110435,-3.7085415474931693
1790097087261381376,7.6063813476562565,9.064716759093708,-2.717354887709468,-3.8174522044545167
1790097087271381504,7.616381347656256,9.030681722427758,-3.08409902258227,-3.947275556396462
1790097087281381376,7.626381347656256,8.733017341575195,-3.480631821718871,-4.070306978034119
1790097087291381504,7.636381347656257,8.557764890842018,-3.9068316185668714,-4.260765874014826
1790097087301381376,7.6463813476562565,8.654964209677589,-4.389195467298029,-4.440199267955117
1790097087311381504,7.656381347656256,8.534409739499345,-4.8561362537575175,-4.505846193621249
1790097087321381376,7.666381347656257,8.316159072463794,-5.1450230539410065,-4.531686504219767
1790097087331381504,7.676381347656257,8.458771974467618,-5.2625823819081425,-4.523873344045992
1790097087341381376,7.686381347656257,8.996675584734483,-5.4912828342203435,-4.503563495026409
1790097087351381504,7.696381347656256,9.543860655315932,-5.468277391767064,-4.498693661214723
1790097087361381376,7.706381347656256,9.948346712586659,-5.543366950947716,-4.672525194378967
1790097087371381504,7.716381347656257,9.783118111333321,-5.499154641380349,-4.942554451496938
1790097087381381376,7.726381347656257,9.086752769208752,-5.732175988623763,-5.071441784159479
1790097087391381504,7.736381347656256,8.224736713419706,-5.970948027277503,-5.045754025673794
1790097087401381376,7.746381347656257,7.73271837130738,-5.9753584126828505,-4.81401978464181
1790097087411381504,7.756381347656257,7.717857474679603,-5.79621847665112,-4.506937557208129
1790097087421381376,7.766381347656257,8.004251673871314,-5.533029819407915,-4.290537383910381
1790097087431381504,7.776381347656256,8.504377843505956,-5.363664830032963,-4.0525318486746125
1790097087441381376,7.786381347656256,8.732092233962339,-5.497321736360129,-3.779239577023704
1790097087451381504,7.796381347656257,8.663218805630814,-6.076795757221971,-3.6381640790724714
1790097087461381376,7.806381347656257,8.575840510945573,-6.67931638131831,-3.869789536145546
1790097087471381504,7.8163813476562565,8.301393881033045,-7.092655342551701,-4.251565430600894
1790097087481381376,7.826381347656257,8.082768865084386,-7.134821066194013,-4.2786934000404
1790097087491381504,7.836381347656257,8.245523637535522,-6.803358983926565,-3.932676385512539
1790097087501381376,7.846381347656257,8.614607077420553,-6.3513613746883735,-3.7861460315988373
1790097087511381504,7.8563813476562565,8.944750762310212,-6.25819160248728,-3.386654490507774
1790097087521381376,7.866381347656256,9.005287782207306,-6.287838987961171,-3.4935195305398676
1790097087531381504,7.876381347656257,8.871043160080925,-6.422186900535202,-3.5814859574439537
1790097087541381376,7.886381347656257,8.645551265488558,-6.4782141137440075,-3.854444608724428
1790097087551381504,7.8963813476562565,8.35031370649015,-6.302273147533232,-4.166805001507629
1790097087561381376,7.906381347656257,8.371487760295656,-6.032014747214981,-4.021472309785832
1790097087571381504,7.916381347656257,8.47130221954949,-5.774978431878956,-3.757350045129746
1790097087581381376,7.926381347656257,8.508960515564103,-5.733723650186947,-3.5798401580248544
1790097087591381504,7.936381347656257,8.647626321686387,-5.898975893950236,-3.658064471182804
1790097087601381376,7.946381347656256,8.721601632915522,-6.15239587657943,-3.777158189232416
1790097087611381504,7.956381347656257,8.31905957085434,-6.396471103856054,-3.7586215111416506
1790097087621381376,7.966381347656257,7.9839366579749145,-6.407287314463795,-3.804277362863333
1790097087631381504,7.976381347656257,7.9619830927503,-5.894182460156818,-4.013819287306754
1790097087641381376,7.986381347656257,7.986978842056264,-5.381800220485865,-4.237907979101117
1790097087651381504,7.996381347656257,8.030962888151734,-5.199817185030687,-4.420905608103319
1790097087661381376,8.006381347656257,8.151174071687091,-5.306841879862427,-4.6277611903970985
1790097087671381504,8.016381347656257,8.37649581458728,-5.587243317403115,-4.749554117795528
1790097087681381376,8.026381347656256,8.624687994151941,-5.818150678673586,-4.896078530637655
1790097087691381504,8.036381347656258,8.783314050906808,-5.9655154084297095,-4.969860613582368
1790097087701381376,8.046381347656258,8.838592669061496,-5.917782735820841,-5.054581948580484
1790097087711381504,8.056381347656258,8.968600961005182,-5.861929120964551,-4.973367298859124
1790097087721381376,8.066381347656257,9.105169114748884,-5.808190573498759,-4.873520260492464
1790097087731381504,8.076381347656257,9.110872769104944,-5.758623156492933,-4.779198070773667
1790097087741381376,8.086381347656257,8.94228239899549,-5.700574196792598,-4.697834451255315
1790097087751381504,8.096381347656257,8.685866528943075,-5.613493457357436,-4.649092955750421
1790097087761381376,8.106381347656257,8.441433042205833,-5.516657507284166,-4.641903985110592
1790097087771381504,8.116381347656258,8.25338123877631,-5.206277195137151,-4.744033438785326
1790097087781381376,8.126381347656258,8.24606033138056,-4.918974810891954,-4.8062925328864505
1790097087791381504,8.136381347656258,8.523752385217168,-4.736690100847265,-4.837194747560703
1790097087801381376,8.146381347656257,8.980467566461027,-4.736887942631541,-4.856905701092208
1790097087811381504,8.156381347656257,9.230977825633545,-4.828222262812164,-4.917062923804354
1790097087821381376,8.166381347656257,9.222240087856632,-4.878816705253282,-4.968726998579036
1790097087831381504,8.176381347656257,9.18967176354474,-4.6587959135502555,-4.741602027415417
1790097087841381376,8.186381347656257,9.08376487462567,-4.518042709557717,-5.156777612843315
1790097087851381504,8.196381347656256,9.212913024180127,-4.3524929762904385,-4.9422133467600196
1790097087861381376,8.206381347656256,9.769728061665791,-4.143968354727363,-4.781985927503842
1790097087871381504,8.216381347656258,10.413913002398488,-3.9908899517804635,-4.797724503220285
1790097087881381376,8.226381347656258,10.274131025148757,-3.9405776626091664,-4.683914266385721
1790097087891381504,8.236381347656257,9.627031787876959,-3.7166962650765702,-4.543618047166539
1790097087901381376,8.246381347656257,8.81575214601541,-3.30942075714321,-4.285767002561955
1790097087911381504,8.256381347656257,8.065623342104264,-2.8274946630982893,-3.8056576123031416
1790097087921381376,8.266381347656257,7.51711167077738,-2.2848883419955177,-3.142479855773079
1790097087931381504,8.276381347656256,7.254251811505972,-1.5669677782081548,-2.540394141086044
1790097087941381376,8.286381347656258,7.331757648818021,-0.854613326091352,-2.33847621286062
1790097087951381504,8.296381347656258,7.770204802952625,-0.44071977451788624,-2.5960731989289645
1790097087961381376,8.306381347656258,8.368711073942611,-0.3882564290728166,-3.0586021635342293
1790097087971381504,8.316381347656257,8.542943197970764,-0.5596579303799922,-3.1157682419118555
1790097087981381376,8.326381347656257,8.089843034428847,-0.6061250402688495,-2.688047834019943
1790097087991381504,8.336381347656257,7.584163733186703,-0.47709269361802153,-2.0738160018702794
1790097088001381376,8.346381347656257,7.230086432768542,-0.10681798295297562,-1.404259552413412
1790097088011381504,8.356381347656257,7.253173653241939,0.14377359024940947,-0.9507239337150362
1790097088021381376,8.366381347656256,7.1485796810793065,0.08837632292619636,-0.7542049424599555
1790097088031381504,8.376381347656258,6.713290714015201,-0.26038028382372824,-0.7774787173273349
1790097088041381376,8.386381347656258,5.8552252443338535,-0.03614280144615796,-0.728835086101138
1790097088051381504,8.396381347656257,5.356813734791331,0.178162670365459,-0.3839660594975236
1790097088061381376,8.406381347656257,6.267017033666539,0.8163634474203099,0.0683255458175659
1790097088071381504,8.416381347656257,6.153230816890807,1.4390325298017328,0.24786358139858322
1790097088081381376,8.426381347656257,5.883109522244684,0.797787855869735,-0.5489164873858835
1790097088091381504,8.436381347656257,5.4608520896285935,1.4637746819687893,-0.5730291332866236
1790097088101381376,8.446381347656258,5.205770366001342,1.7856902412283873,-0.6911443036367341
1790097088111381504,8.456381347656258,5.2867960238690666,1.6551238101781618,-0.6375863704602037
1790097088121381376,8.466381347656258,5.915939670051191,1.5524006019272218,-0.6137382384470981
1790097088131381504,8.476381347656258,7.0424466719077365,1.281157785188442,-0.49225466377837596
1790097088141381376,8.486381347656257,6.741189174286773,1.2296378951771487,-0.3822545133418362
1790097088151381504,8.496381347656257,6.468530605722753,1.3510580830833825,-0.5969546977034903
1790097088161381376,8.506381347656257,6.472113725515705,1.1993763531289594,-0.9341877149666196
1790097088171381504,8.516381347656257,6.517883239273033,0.9104880617253717,-1.2967954236526005
1790097088181381376,8.526381347656256,6.3685302489322675,0.7469824036587249,-1.6132942295036936
1790097088191381504,8.536381347656258,8.190417069866605,0.39530790485020806,-1.6391482728784703
1790097088201381376,8.546381347656258,7.679503514037037,0.24670556435503885,-1.6408351827935965
1790097088211381504,8.556381347656258,7.79759292616127,0.28542717667211337,-1.832846627234269
1790097088221381376,8.566381347656257,7.689778689246877,0.2670028090846108,-1.9893090601992134
1790097088231381504,8.576381347656257,7.382317057818431,0.19331880650177938,-2.2399195999638373
1790097088241381376,8.586381347656257,7.686579095945942,-0.13250245598102162,-2.5406919912968875
1790097088251381504,8.596381347656257,7.839080565965049,-0.5359633720702995,-2.9081000921944877
1790097088261381376,8.606381347656258,8.077334311761891,-1.0224732414167743,-3.238917791175136
1790097088271381504,8.616381347656258,8.571639635817407,-1.3780572068508945,-3.509229660608688
1790097088281381376,8.626381347656258,9.175749604395993,-1.6819618830119962,-3.752060628064726
1790097088291381504,8.636381347656258,9.20530104653795,-2.0086624937762507,-4.027932876992059
1790097088301381376,8.646381347656257,8.585992787072412,-2.32186207279727,-4.356868806445722
1790097088311381504,8.656381347656257,8.052692293499804,-2.777171554570019,-4.578630328101346
1790097088321381376,8.666381347656257,8.124240359610459,-3.4092863497783816,-4.703786920170343
1790097088331381504,8.676381347656257,8.685160252957445,-4.0597116574362335,-4.74894463753812
1790097088341381376,8.686381347656257,9.310002763957417,-4.640920537967214,-4.837253741437975
1790097088351381504,8.696381347656258,9.746862944855623,-5.142135406648728,-5.110391141466606
1790097088361381376,8.706381347656258,9.220455688336044,-5.5090700230167275,-5.450972974309846
1790097088371381504,8.716381347656258,8.479589497777177,-5.691216955133882,-5.6975088802026335
1790097088381381376,8.726381347656258,8.558507838260136,-5.7695773485857895,-5.667210685612169
1790097088391381504,8.736381347656257,9.05702991514268,-5.700445968330852,-5.353088303441062
1790097088401381376,8.746381347656257,9.34341098328128,-5.552905512233821,-5.0073142264385115
1790097088411381504,8.756381347656257,9.615430935858454,-5.339587325167362,-4.86310424895111
1790097088421381376,8.766381347656258,9.588786775606245,-5.392310432305247,-4.9014275075856695
1790097088431381504,8.776381347656258,9.238392097359327,-5.631229516960214,-4.919903358091458
1790097088441381376,8.786381347656258,8.724329948177775,-5.791248361971683,-4.9982568604930115
1790097088451381504,8.796381347656258,8.147730921569641,-5.815973730413577,-4.936949748186568
1790097088461381376,8.806381347656258,7.799083992316079,-5.71555873314237,-4.744551968427365
1790097088471381504,8.816381347656257,7.905450007304586,-5.458423826777934,-4.457625959339554
1790097088481381376,8.826381347656257,8.333913600778308,-5.2623000884167945,-4.294761602863726
1790097088491381504,8.836381347656257,8.73351448982793,-5.250106805508332,-4.110451047163335
1790097088501381376,8.846381347656257,8.682926607583946,-5.41813736684976,-4.323721819058018
1790097088511381504,8.856381347656258,8.342894218180508,-5.927602686042811,-4.209687307190484
1790097088521381376,8.866381347656258,8.017084482154063,-6.403027291842098,-3.901863039308788
1790097088531381504,8.876381347656258,7.7675060309563895,-6.411473237956099,-3.9192802416686585
1790097088541381376,8.886381347656258,7.497898275269321,-6.6010988642623865,-3.831427860647925
1790097088551381504,8.896381347656257,7.542252683988038,-6.535976796435983,-3.854816862124002
1790097088561381376,8.906381347656257,7.842438983798855,-6.534967542417283,-3.6362489220244214
1790097088571381504,8.916381347656257,8.162045213372187,-6.646283082097263,-3.6179936570399702
1790097088581381376,8.926381347656259,8.474895221491527,-6.621581950704456,-3.6584670672624093
1790097088591381504,8.936381347656258,8.638748348830797,-6.482504271487569,-3.8088780175724364
1790097088601381376,8.946381347656258,8.783729559373645,-6.2949970287822055,-3.8367517475611437
1790097088611381504,8.956381347656258,8.951166320117721,-5.969322459917144,-3.8836620643659363
1790097088621381376,8.966381347656258,9.107661697115311,-5.706150815936703,-4.08708922607849
1790097088631381504,8.976381347656258,9.163200610673217,-5.575101660303635,-4.335694061995477
1790097088641381376,8.986381347656257,9.079746035475138,-5.634318187237741,-4.4808885760427515
1790097088651381504,8.996381347656257,8.882292275773699,-5.85638075176765,-4.576356017934861
1790097088661381376,9.006381347656257,8.526644781276781,-6.04647984687384,-4.635117351448427
1790097088671381504,9.016381347656258,8.361907029222198,-6.071202270207634,-4.660574913000219
1790097088681381376,9.026381347656258,8.130298035311549,-6.073966385956449,-4.557061771883671
1790097088691381504,9.036381347656258,8.067267469684758,-6.000114142508746,-4.505974384945677
1790097088701381376,9.046381347656258,8.141578703317363,-6.024136803097674,-4.3886324516116035
1790097088711381504,9.056381347656258,8.041203783391182,-6.314530979294624,-4.367767042985962
1790097088721381376,9.066381347656257,7.9346595309962495,-6.481417472296957,-4.4015914329973125
1790097088731381504,9.076381347656257,7.946844628925343,-6.392518737781987,-4.71022381453388
1790097088741381376,9.086381347656259,7.910515162242319,-6.104861826818058,-5.097990476869558
1790097088751381504,9.096381347656258,7.67369346567243,-5.645045132832586,-5.264824270887097
1790097088761381376,9.106381347656258,7.34931514340076,-5.265785019774032,-4.985730904615409
1790097088771381504,9.116381347656258,7.360531004650154,-5.071132624772388,-4.479967154066854
1790097088781381376,9.126381347656258,7.927474690623021,-5.153907141022507,-4.0884176816934445
1790097088791381504,9.136381347656258,8.649209805253841,-5.3696676587119185,-3.9060466344977063
1790097088801381376,9.146381347656257,8.913795229122984,-5.560632109583512,-3.9107509734763477
1790097088811381504,9.156381347656257,8.753468092218817,-5.747627708978559,-3.958985984546223
1790097088821381376,9.166381347656257,8.269849618926054,-5.52312168630092,-3.7701306190290294
1790097088831381504,9.176381347656259,7.8088094403206805,-5.335580800040535,-4.158558475016276
1790097088841381376,9.186381347656258,7.4956621644500645,-5.0689924269110085,-4.130487430529883
1790097088851381504,9.196381347656258,7.859268504136891,-4.8038032716147425,-3.8741304949763387
1790097088861381376,9.206381347656258,8.277604091750295,-4.62111985048268,-3.6736019839803213
1790097088871381504,9.216381347656258,8.517052170255113,-4.3553210430758735,-3.65220152548698
1790097088881381376,9.226381347656258,8.673078931317274,-4.085868346235752,-3.9043766249527394
1790097088891381504,9.236381347656257,8.652186996608346,-3.728839928563991,-4.3419457823173095
1790097088901381376,9.246381347656259,8.589286616507652,-3.47524454135043,-4.8623785336132705
1790097088911381504,9.256381347656259,8.53394329088733,-3.455843298579878,-5.251818275582805
1790097088921381376,9.266381347656258,8.664073878529221,-3.561804822009784,-5.370333936501277
1790097088931381504,9.276381347656258,8.952291108630472,-3.58784499058345,-5.308524048701648
1790097088941381376,9.286381347656258,9.134772845998183,-3.37131262376419,-5.3194268587170095
1790097088951381504,9.296381347656258,9.074526785025574,-2.9934386296902344,-5.496884191031479
1790097088961381376,9.306381347656258,9.011080442477233,-2.8905482810205543,-5.681755912676141
1790097088971381504,9.316381347656257,8.990804734762234,-3.0710805924984768,-5.643427916746637
1790097088981381376,9.326381347656257,9.123294447963335,-3.370094437118306,-5.185041914589822
1790097088991381504,9.336381347656259,9.068220832283744,-3.528390673906695,-4.394909521914288
1790097089001381376,9.346381347656258,9.04986849598443,-3.2422715782072555,-3.7432283280402836
1790097089011381504,9.356381347656258,8.825088031018918,-2.762325702962588,-3.2968223051953416
1790097089021381376,9.366381347656258,8.349510404881912,-2.332052804206948,-2.9673573117498804
1790097089031381504,9.376381347656258,7.848232051636841,-1.8274863732484496,-2.8730948244426697
1790097089041381376,9.386381347656258,7.970453098945513,-1.2547324106756972,-2.9899179556639357
1790097089051381504,9.396381347656257,8.371984314079945,-0.9492400081202637,-3.090533721436592
1790097089061381376,9.406381347656259,8.292948737561758,-1.0374428341626545,-3.1260696409253907
1790097089071381504,9.416381347656259,7.812996751673873,-1.1507815113588071,-2.93012554255336
1790097089081381376,9.426381347656259,7.55364870927512,-0.9744615162248229,-2.595731590149857
1790097089091381504,9.436381347656258,7.751956196448166,-0.5211259831919912,-2.1130315292052337
1790097089101381376,9.446381347656258,8.198274985574516,0.011263755202539527,-1.6083303997471272
1790097089111381504,9.456381347656258,8.532752738698868,0.4400633327411887,-1.391527446207761
1790097089121381376,9.466381347656258,8.454670244815972,0.47891161974248847,-1.3371868405514697
1790097089131381504,9.476381347656258,8.104282493128535,0.4019483359106294,-1.3677837955966436
1790097089141381376,9.486381347656257,7.674186231743383,0.21970724822583523,-1.5314881927309607
1790097089151381504,9.496381347656259,7.5115060602223265,0.2595939510699546,-1.6253886711257013
1790097089161381376,9.506381347656259,7.505184763445646,0.2565383881250861,-1.6603009077417712
1790097089171381504,9.516381347656258,7.951940396660947,0.3377538326411759,-1.7159156405999243
1790097089181381376,9.526381347656258,8.534553754708165,0.22109198806407904,-1.9461310573416877
1790097089191381504,9.536381347656258,8.6602694137197,0.2584634866425229,-2.067476626576474
1790097089201381376,9.546381347656258,8.210396923331208,0.07701541618738089,-1.9487078031067677
1790097089211381504,9.556381347656258,7.891634851283949,0.09437261136579915,-1.8171335302420941
1790097089221381376,9.56638134765626,7.599688670267355,0.39510445946319595,-1.586409721427572
1790097089231381504,9.576381347656259,7.5730233736894235,0.49157020047345107,-1.4109705164046455
1790097089241381376,9.586381347656259,7.911204829695885,0.020599309007458252,-1.3077270587115666
1790097089251381504,9.596381347656258,8.256045804322543,0.3322234521973043,-1.047030287459597
1790097089261381376,9.606381347656258,8.349226380387568,0.643426433684709,-1.2717155745239026
1790097089271381504,9.616381347656258,8.131224412383732,0.602163468973625,-1.5290012826626274
1790097089281381376,9.626381347656258,7.77758454268592,0.46264788940549745,-1.504216809461132
1790097089291381504,9.636381347656258,7.579002070055063,0.3579990017714768,-1.325047438295111
1790097089301381376,9.646381347656257,7.948132371039535,0.3120000867361144,-1.3700526476240755
1790097089311381504,9.656381347656259,8.532401421006071,0.17274688303861122,-1.5810125928739296
1790097089321381376,9.666381347656259,8.874760507246863,0.03479299058934292,-1.7495515529545091
1790097089331381504,9.676381347656259,8.853681175410939,-0.02125649136773567,-1.9787759555843911
1790097089341381376,9.686381347656258,8.909833911291509,-0.1043601162068421,-2.1854798698941305
1790097089351381504,9.696381347656258,8.185761952558227,-0.10298025512598695,-2.435404583080384
1790097089361381376,9.706381347656258,8.6424937919999,-0.2015199544884201,-2.4772176822957195
1790097089371381504,9.716381347656258,8.11815137619801,-0.10164646355313756,-2.3187002354436848
1790097089381381376,9.72638134765626,8.176429388033641,0.0671762319669085,-2.4285630048578826
1790097089391381504,9.736381347656259,8.863865933528874,0.08834328791972629,-2.6470954327277396
1790097089401381376,9.746381347656259,8.484687790057716,0.0454636290669441,-2.747316926022294
1790097089411381504,9.756381347656259,8.491225389970907,-0.004123055326869393,-2.814244448961145
1790097089421381376,9.766381347656258,8.305736910401604,-0.07301669721480739,-2.826870066143768
1790097089431381504,9.776381347656258,7.9306608290584135,-0.06302236032459783,-2.816946228866063
1790097089441381376,9.786381347656258,8.09247991110998,-0.041493194835191,-2.827405841360381
1790097089451381504,9.796381347656258,8.321206167685903,-0.0382851622998714,-2.829811811447144
1790097089461381376,9.806381347656258,8.58218302643027,-0.11735689550632257,-2.961598079377507
1790097089471381504,9.81638134765626,8.73946938709992,-0.3216031839664716,-2.9668818712882556
1790097089481381376,9.826381347656259,8.613948389575008,-0.6914693511802735,-3.0309980482547747
1790097089491381504,9.836381347656259,8.321068567098747,-1.0945430057124075,-3.0008624946552556
1790097089501381376,9.846381347656258,8.136724186267331,-1.4185621487740945,-3.019103041728317
1790097089511381504,9.856381347656258,8.30880350518839,-1.7021434553208326,-3.1178005778965674
1790097089521381376,9.866381347656258,8.775356959681867,-1.9469717279054246,-3.302853111917531
1790097089531381504,9.876381347656258,9.061271063646489,-2.186997763475857,-3.601721906782197
1790097089541381376,9.88638134765626,8.989968173884716,-2.5077919350314986,-4.054408205594292
1790097089551381504,9.89638134765626,8.640266998714514,-2.863417972775779,-4.465722634128438
1790097089561381376,9.906381347656259,8.243409802504214,-3.223919601883594,-4.731753547655019
1790097089571381504,9.916381347656259,8.017444185855197,-3.515564691678834,-4.798315757600576
1790097089581381376,9.926381347656259,8.033511233985749,-3.705553034911586,-4.7123366868328525
1790097089591381504,9.936381347656258,8.32210723502688,-3.7100552701457907,-4.565198585405611
1790097089601381376,9.946381347656258,8.819550911046568,-3.639831159384418,-4.443910872955308
1790097089611381504,9.956381347656258,9.202173067849458,-3.647766034852091,-4.353164052507441
1790097089621381376,9.966381347656258,9.109115991012716,-3.786577377647753,-4.343777175036859
1790097089631381504,9.97638134765626,8.823959265731718,-3.94008013090261,-4.481714077047393
1790097089641381376,9.986381347656259,8.600718383263223,-4.286478842545782,-4.523165570141373
1790097089651381504,9.996381347656259,8.492023851824095,-4.482414182415997,-4.420787815219277
1790097089661381376,10.006381347656259,8.527542699623657,-4.751879133711126,-4.396118742573618
1790097089671381504,10.016381347656258,8.486958149090329,-4.708271691658719,-4.486128395940142
1790097089681381376,10.026381347656258,8.279653155397352,-4.721367574871529,-4.6222522341947805
1790097089691381504,10.036381347656258,7.9674530440214495,-4.908616010238802,-4.667821232105985
1790097089701381376,10.04638134765626,7.77846453238385,-5.040789555226312,-4.573274339288343
1790097089711381504,10.05638134765626,7.820240986802303,-5.170652321398012,-4.481756687164307
1790097089721381376,10.06638134765626,8.1409157000697,-5.176262639096551,-4.423009951621017
1790097089731381504,10.076381347656259,8.348433178644381,-5.113045770232796,-4.292750310658142
1790097089741381376,10.086381347656259,8.29717607786692,-5.068790504217561,-4.351326015720399
1790097089751381504,10.096381347656258,8.284164149922963,-5.097991483974368,-4.547315062116119
1790097089761381376,10.106381347656258,8.339272333625521,-5.313777595482308,-4.689247638001128
1790097089771381504,10.116381347656258,8.303465748045616,-5.583216280478686,-4.805312097810693
1790097089781381376,10.126381347656258,8.28643984182731,-5.763275012595592,-4.925721150954511
1790097089791381504,10.13638134765626,8.202906537781509,-5.903773683711904,-4.877467038251207
1790097089801381376,10.14638134765626,8.067357134631175,-6.00025706216114,-4.6229493308252465
1790097089811381504,10.156381347656259,7.879213937251068,-5.9301509908436385,-4.269596720031746
1790097089821381376,10.166381347656259,7.81528081735081,-5.814785798588205,-3.9297633550379008
1790097089831381504,10.176381347656259,7.710871419005826,-5.689285483705855,-4.098853917296853
1790097089841381376,10.186381347656258,7.819172180619881,-5.546578076554817,-4.033142866368306
1790097089851381504,10.196381347656258,7.96247911338392,-5.511780977922231,-3.8525000420668034
1790097089861381376,10.20638134765626,8.062206768244794,-5.463646194338634,-3.687459163626638
1790097089871381504,10.21638134765626,8.105431507444493,-5.487772899520694,-3.642467693054168
1790097089881381376,10.22638134765626,8.172446208278558,-5.662761380609388,-3.8074264662852837
1790097089891381504,10.236381347656259,8.022806441820343,-5.9554178471006685,-4.118653823517777
1790097089901381376,10.246381347656259,7.706140309845253,-6.196704410638508,-4.4295175704341885
1790097089911381504,10.256381347656259,7.412757118537562,-6.239881641860677,-4.377516841455774
1790097089921381376,10.266381347656258,7.308223760739144,-6.0412312930601,-4.081438692304975
1790097089931381504,10.276381347656258,7.479008503859611,-5.813871940728242,-3.999565841589339
1790097089941381376,10.286381347656258,7.575311445567422,-5.759085316999897,-4.014841041721068
1790097089951381504,10.29638134765626,7.437509021739107,-5.87391295947505,-4.010379179233303
1790097089961381376,10.30638134765626,7.169471550787895,-6.032297559362281,-4.061642147720553
1790097089971381504,10.31638134765626,7.002422158411547,-6.08715486793282,-4.072285175323486
1790097089981381376,10.326381347656259,6.93784907879074,-5.849849528798757,-4.1341267837574796
1790097089991381504,10.336381347656259,6.8429724839437505,-5.52535873515773,-4.271406047095521
1790097090001381376,10.346381347656258,7.037631959030582,-5.2472430662448,-4.4267556291600485
1790097090011381504,10.356381347656258,7.395721198493381,-5.214085082911657,-4.6079653723131795
1790097090021381376,10.36638134765626,7.621596752768287,-5.486438320848712,-4.673558164952616
1790097090031381504,10.37638134765626,7.72305242848435,-5.992431232499036,-4.591480450031609
1790097090041381376,10.38638134765626,7.837400908384651,-6.354647276701545,-4.6066193258266095
1790097090051381504,10.39638134765626,7.911336691319991,-6.305412894971151,-4.666215212211373
1790097090061381376,10.406381347656259,7.904452451623405,-5.990882481413538,-4.612000071097943
1790097090071381504,10.416381347656259,7.758076471250381,-5.69910938707768,-4.503622899393527
1790097090081381376,10.426381347656259,7.625555476914532,-5.5808125187455095,-4.420655784645945
1790097090091381504,10.436381347656258,7.614308958556318,-5.623394328617575,-4.446919969048148
1790097090101381376,10.446381347656258,7.600762607785297,-5.7989820956530895,-4.465751513483287
1790097090111381504,10.45638134765626,7.553926631934063,-5.940386514061541,-4.3430047230985025
1790097090121381376,10.46638134765626,7.452035049897354,-5.919641540575705,-4.214747728570741
1790097090131381504,10.47638134765626,7.445811087493344,-5.729127212524997,-4.181803588693275
1790097090141381376,10.486381347656259,7.776321141804438,-5.512987012249096,-4.394499167808264
1790097090151381504,10.496381347656259,8.197377029115202,-5.432729252779042,-4.426616188973883
1790097090161381376,10.506381347656259,8.406761710522872,-5.517885521805418,-4.250799448287598
1790097090171381504,10.516381347656258,8.692255356988435,-5.535719783677909,-4.153102809096008
1790097090181381376,10.52638134765626,8.845287975331406,-5.4125871384377735,-4.222113762331292
1790097090191381504,10.53638134765626,8.870367297222973,-5.314114912812425,-4.319017607678037
1790097090201381376,10.54638134765626,8.740638559027337,-5.242329617902262,-4.409475774065627
1790097090211381504,10.55638134765626,8.59343448732874,-5.250092638432656,-4.530285673771889
1790097090221381376,10.56638134765626,8.439428484053353,-5.3862081106491155,-4.587586586825126
1790097090231381504,10.576381347656259,8.241389382152759,-5.429030762554608,-4.689221303289979
1790097090241381376,10.586381347656259,8.068823991728367,-5.354233567462111,-4.644182884384552
1790097090251381504,10.596381347656258,7.929307882718671,-5.0856159233669205,-4.538902360505729
1790097090261381376,10.606381347656258,7.904418331226896,-4.613755691139396,-4.43573900166546
1790097090271381504,10.61638134765626,8.112926897445957,-4.118524971277637,-4.357012534217446
1790097090281381376,10.62638134765626,8.541647052034204,-3.7896171271016854,-4.23898377433572
1790097090291381504,10.63638134765626,9.021207927354862,-3.6211134578527964,-4.162458902343247
1790097090301381376,10.64638134765626,9.24707713421363,-3.5766943904678037,-4.227802498281523
1790097090311381504,10.656381347656259,9.093333557175782,-3.583555124657428,-4.474159932147252
1790097090321381376,10.666381347656259,8.702067154672841,-3.62990035958377,-4.635102770719459
1790097090331381504,10.676381347656259,8.448752955997573,-3.637610503364462,-4.795515537261963
1790097090341381376,10.68638134765626,8.488928439472035,-3.5264222621917725,-4.787463405661049
1790097090351381504,10.69638134765626,8.96816863723722,-3.5284614285514757,-4.732888588070087
1790097090361381376,10.70638134765626,9.457791880106383,-3.5504191906090448,-4.69842217340014
1790097090371381504,10.71638134765626,9.355897731440983,-3.558975172020526,-4.713119481516309
1790097090381381376,10.72638134765626,8.63302407051936,-3.4271440727501417,-4.721183579888065
1790097090391381504,10.736381347656259,7.987018301266327,-3.1713923191068236,-4.649208643813833
1790097090401381376,10.746381347656259,7.7582970837084995,-2.807615049452239,-4.489052670892045
1790097090411381504,10.756381347656259,7.84419553451019,-2.354378251004824,-4.230607114428432
1790097090421381376,10.766381347656258,8.344989963018845,-1.7610669342742191,-3.9972729365490483
1790097090431381504,10.77638134765626,9.135837569778493,-1.3045061658172052,-4.029084927966661
1790097090441381376,10.78638134765626,9.551618598850705,-1.3244919620673397,-4.0316136467550745
1790097090451381504,10.79638134765626,9.489360889486454,-1.6852254645695899,-3.9271145430535497
1790097090461381376,10.80638134765626,8.960375842865767,-1.8309615993293031,-3.5220601944661802
1790097090471381504,10.81638134765626,8.324209674271707,-1.4883500070721667,-3.109717722084704
1790097090481381376,10.826381347656259,8.234591741867504,-0.760797391646048,-2.5206912930672045
1790097090491381504,10.836381347656259,8.05698965690546,-0.2522125221605185,-2.0626800490098525
1790097090501381376,10.84638134765626,8.517702477006393,-0.09177936891103473,-1.936920790204891
1790097090511381504,10.85638134765626,8.219349711647006,-0.3259029650141634,-2.1160820677345025
1790097090521381376,10.86638134765626,7.400601565389405,-0.5398691222423125,-2.159554520116678
1790097090531381504,10.87638134765626,6.6914432282906615,-0.4865043196961612,-2.070640186954959
1790097090541381376,10.88638134765626,6.34857839229368,-0.11024264591917085,-1.886075717181938
1790097090551381504,10.89638134765626,6.606899460524714,0.39824396375578297,-1.6330606278230735
1790097090561381376,10.906381347656259,7.424251626553355,0.5557816695414262,-1.4754766975851108
1790097090571381504,10.916381347656259,7.847829707241883,0.3206852590020274,-1.5832874571940783
1790097090581381376,10.926381347656259,7.502948567111396,0.03240608348605897,-1.609803253022562
1790097090591381504,10.93638134765626,7.195414433669031,0.13170032505448895,-1.775608706637097
1790097090601381376,10.94638134765626,7.153154999457778,0.36376344837090147,-2.000703454542758
1790097090611381504,10.95638134765626,7.281637193983491,0.4453010714454926,-1.9006912952127872
1790097090621381376,10.96638134765626,8.140633453541081,0.540948757788137,-1.7538843871007563
1790097090631381504,10.97638134765626,8.549504700457252,0.5422227889946177,-1.6960602183974756
1790097090641381376,10.986381347656259,8.57788024740496,0.7171546824871049,-1.7865309722558949
1790097090651381504,10.996381347656259,7.80000118146215,0.926119295281307,-1.89669244638065
1790097090661381376,11.00638134765626,7.5555902056548945,1.1203186321807095,-1.8335581883262893
1790097090671381504,11.01638134765626,7.438998714652452,1.0045554394005847,-1.629119681188719
1790097090681381376,11.02638134765626,8.176532895060607,0.9483950746875753,-1.6822757014109953
1790097090691381504,11.03638134765626,8.819852591246866,0.9259226920350531,-1.7661206164424297
1790097090701381376,11.04638134765626,9.13384321057929,0.8550249193421883,-1.8328231559025838
1790097090711381504,11.05638134765626,8.964387346609335,0.6839796082529931,-2.0075306445832646
1790097090721381376,11.06638134765626,8.27971870494108,0.4594017385351311,-2.140539519608917
1790097090731381504,11.076381347656259,7.527431982363427,0.30184824158493806,-2.1444323107608123
1790097090741381376,11.086381347656259,7.4022677954617695,0.09116438900703497,-2.0419580319742727
1790097090751381504,11.09638134765626,7.5769833104449305,-0.10928002250321812,-1.8140335029060233
1790097090761381376,11.10638134765626,8.351786845004344,-0.2026261948792675,-1.647312114020994
1790097090771381504,11.11638134765626,8.826866887699612,-0.09370157066607666,-1.6887994264344444
1790097090781381376,11.12638134765626,8.686175062028298,0.0464304399365947,-1.8791408895210102
1790097090791381504,11.13638134765626,7.5002327263481625,0.0669990330934524,-2.27736858447651
1790097090801381376,11.14638134765626,7.833847432104072,-0.05889639816859185,-2.551317470404407
1790097090811381504,11.156381347656259,7.253686786065486,-0.2861829322243813,-2.7587859376523935
1790097090821381376,11.16638134765626,7.4139137881567105,-0.353410959808907,-2.8071136923026936
1790097090831381504,11.17638134765626,8.102765035613784,-0.3924994560140438,-2.8562999915929357
1790097090841381376,11.18638134765626,8.636066033124951,-0.39999371482211155,-2.72308844048476
1790097090851381504,11.19638134765626,8.828012133898268,-0.5780670897592034,-2.717974925062817
1790097090861381376,11.20638134765626,8.613740414700906,-0.6842465637373967,-2.750605112887562
1790097090871381504,11.21638134765626,8.153820375231584,-0.8240765519436138,-2.879675547125623
1790097090881381376,11.22638134765626,7.941180229187012,-0.9896221393058942,-3.1170627568825617
1790097090891381504,11.236381347656259,8.167447824191505,-1.1984140438436337,-3.4080836519408937
1790097090901381376,11.246381347656259,8.768519717812017,-1.4913897823245814,-3.701075535867963
1790097090911381504,11.25638134765626,9.311575966785929,-1.8413843185790373,-4.041636308847776
1790097090921381376,11.26638134765626,9.184644686498162,-2.2667663667449167,-4.391428588403939
1790097090931381504,11.27638134765626,8.576759309327759,-2.653596007403758,-4.680164668372934
1790097090941381376,11.28638134765626,8.213640899650025,-3.0102926185948324,-4.802914221879845
1790097090951381504,11.29638134765626,8.41029437630897,-3.3680593210425656,-4.748000832435907
1790097090961381376,11.30638134765626,8.816885575723141,-3.630143770018332,-4.675338227200357
1790097090971381504,11.31638134765626,9.014964675542856,-3.7128963043658008,-4.663661057384724
1790097090981381376,11.32638134765626,8.715419485946398,-3.804936166903583,-4.7196331724741585
1790097090991381504,11.33638134765626,8.554614068683243,-3.916241847924878,-4.862789800313697
1790097091001381376,11.34638134765626,8.489894881912763,-4.066868215574835,-4.848904088119763
1790097091011381504,11.35638134765626,8.406685489005662,-4.194582349690995,-4.756899386065313
1790097091021381376,11.36638134765626,8.367506929243946,-4.2164077917747065,-4.697619327901159
1790097091031381504,11.37638134765626,8.448932637478238,-4.1863571707462945,-4.719420264831153
1790097091041381376,11.38638134765626,8.46614545956416,-4.121584086444534,-4.775368288749918
1790097091051381504,11.39638134765626,8.304255341270435,-4.059304060049328,-4.8188515602354345
1790097091061381376,11.406381347656259,8.112882319834668,-4.051853235079149,-4.878968236212163
1790097091071381504,11.41638134765626,8.019093502323091,-4.199845549048044,-4.891720418787277
1790097091081381376,11.42638134765626,8.062959304614221,-4.391930308885486,-4.858681991772336
1790097091091381504,11.43638134765626,8.23780709711221,-4.614728789557658,-4.802829596422208
1790097091101381376,11.44638134765626,8.509423424047593,-4.85680268279332,-4.788337230682373
1790097091111381504,11.45638134765626,8.673742474118287,-4.99472248742284,-4.887603426818357
1790097091121381376,11.46638134765626,8.547318687724362,-5.14768937641581,-5.046748540527975
1790097091131381504,11.47638134765626,8.242808515240288,-5.2520031977680155,-4.915111578640504
1790097091141381376,11.48638134765626,7.957352696319165,-5.464920650456449,-4.7038767698388915
1790097091151381504,11.49638134765626,7.867620344477783,-5.682849079217787,-4.773687031036555
1790097091161381376,11.50638134765626,7.956114514500881,-5.799639307523524,-4.779384590150298
1790097091171381504,11.51638134765626,8.026689272461027,-5.7879198845484785,-4.517687137352946
1790097091181381376,11.52638134765626,8.00561026868268,-5.675737040277635,-4.436965030628007
1790097091191381504,11.53638134765626,7.7054515473750556,-5.6835226028698,-4.3145167405235485
1790097091201381376,11.54638134765626,7.247292968946866,-5.561297113703017,-4.008402609221729
1790097091211381504,11.55638134765626,6.772259113547893,-5.227667382978081,-4.088077275115809
1790097091221381376,11.56638134765626,6.841784331562147,-4.816139843749698,-4.40412658655276
1790097091231381504,11.57638134765626,7.439688375472669,-4.612499184568537,-4.5598570402522896
1790097091241381376,11.58638134765626,8.122091658081144,-4.734658672296925,-4.219714665384547
1790097091251381504,11.59638134765626,8.503836290886051,-5.373021742852977,-3.9787111023840236
1790097091261381376,11.60638134765626,8.75429241863425,-6.231808477910532,-4.246672130018023
1790097091271381504,11.61638134765626,8.871354399983103,-6.912004205636331,-4.615555543618536
1790097091281381376,11.62638134765626,8.882437099837603,-7.012761482937753,-4.622749545009297
1790097091291381504,11.63638134765626,8.65372776842491,-6.322924217853631,-4.83289046206906
1790097091301381376,11.646381347656261,8.399397841366396,-5.702670368740788,-4.8492265162488355
1790097091311381504,11.65638134765626,8.588541456141826,-5.712767884403367,-4.569675812194545
1790097091321381376,11.66638134765626,8.725572454513566,-5.974471300301271,-4.298883074686203
1790097091331381504,11.67638134765626,8.293203330760566,-6.354559052795944,-4.130917484415474
1790097091341381376,11.68638134765626,7.614753282632844,-6.4147395053313065,-4.095842831728377
1790097091351381504,11.69638134765626,6.852159636650004,-6.050900617740568,-3.825830063304569
1790097091361381376,11.70638134765626,6.36641595934597,-5.295472419650648,-3.5505104571470847
1790097091371381504,11.71638134765626,6.422750211983393,-4.426289459428529,-3.7538532243981115
1790097091381381376,11.72638134765626,6.896629273319094,-3.900416633301631,-4.311510059899217
1790097091391381504,11.73638134765626,7.1834850451341445,-3.9399125926174663,-4.574819911859258
1790097091401381376,11.74638134765626,7.285556448980189,-4.607300262763959,-4.507966376744064
1790097091411381504,11.75638134765626,7.375332323559533,-5.773588842201679,-4.3978809881657535
1790097091421381376,11.76638134765626,7.4694747128636,-6.381326813627204,-4.306342598984633
1790097091431381504,11.77638134765626,7.441894666531022,-5.966081390162247,-4.025756695579726
1790097091441381376,11.78638134765626,7.383620195570311,-5.506610919211887,-3.8365583296590215
1790097091451381504,11.79638134765626,7.48398713880051,-5.334559579327355,-3.851457095527249
1790097091461381376,11.806381347656261,7.5852163106625525,-5.268022076549826,-3.9436918163784664
1790097091471381504,11.816381347656261,7.811305377114965,-5.276848480659484,-4.150299586638022
1790097091481381376,11.82638134765626,8.220896087244714,-5.479386816987274,-4.497013556292188
1790097091491381504,11.83638134765626,8.577896610378467,-5.752432568329692,-4.852680894820941
1790097091501381376,11.84638134765626,8.70522050438088,-5.8994967579650295,-5.049677656085198
1790097091511381504,11.85638134765626,8.657647593963013,-5.8984495248630395,-5.153399186531218
1790097091521381376,11.86638134765626,8.693242891041498,-5.842754563685895,-5.227162655811905
1790097091531381504,11.87638134765626,9.066188915264156,-5.7611063356137295,-5.368477278187915
1790097091541381376,11.88638134765626,9.510545365376268,-5.79705532223693,-5.472431490258
1790097091551381504,11.896381347656261,9.59879147120539,-5.947035337898294,-5.451045712004938
1790097091561381376,11.90638134765626,9.184519294851176,-5.93909806960136,-5.336611981602489
1790097091571381504,11.91638134765626,8.452062494984178,-5.617618830722818,-5.07966137896953
1790097091581381376,11.92638134765626,7.581248584264711,-5.14322716498181,-4.759708906191739
1790097091591381504,11.93638134765626,6.710572803055968,-4.729467201237426,-4.399953759531976
1790097091601381376,11.94638134765626,6.06117315561069,-4.555058829878031,-4.089288302902358
1790097091611381504,11.95638134765626,5.848399023524663,-4.410436350601423,-3.8936580921498676
1790097091621381376,11.966381347656261,6.349263813988658,-4.205470409124312,-3.8509114385963166
1790097091631381504,11.976381347656261,7.165604853521598,-3.995309322935772,-3.906449439874206
1790097091641381376,11.98638134765626,7.9198620020155,-3.9805463694922105,-4.007179736708221
1790097091651381504,11.99638134765626,8.750002330076805,-4.088569362041242,-4.0928644075366165
1790097091661381376,12.00638134765626,9.618923718464439,-4.109139574381196,-4.385026010943428
1790097091671381504,12.01638134765626,10.17975882101575,-4.08487307198766,-4.740663247579619
1790097091681381376,12.02638134765626,10.290399904196194,-4.122058365682685,-4.982079528721357
1790097091691381504,12.03638134765626,10.08008125344748,-4.292069846200051,-5.263444561513566
1790097091701381376,12.04638134765626,9.526458906932145,-4.471345160338258,-5.493312607261339
1790097091711381504,12.056381347656261,8.823673324967476,-4.446533555237841,-5.515269099791979
1790097091721381376,12.066381347656261,8.285588938363173,-4.186282400138758,-5.276484257845976
1790097091731381504,12.07638134765626,8.209054687891228,-3.7186567488398827,-4.966411537958945
1790097091741381376,12.08638134765626,8.480486109135677,-3.219155916013645,-4.805231777311823
1790097091751381504,12.09638134765626,8.775230463642162,-2.9329833495999433,-4.788924917423541
1790097091761381376,12.10638134765626,9.00179619594736,-2.921650155457849,-4.841092477627689
1790097091771381504,12.11638134765626,9.11090322334541,-2.9719687754556436,-4.982084444370584
1790097091781381376,12.126381347656261,9.179387390646061,-2.893473903347252,-5.003527141757994
1790097091791381504,12.136381347656261,9.39766959699909,-2.801751879331974,-4.944324552904713
1790097091801381376,12.146381347656261,9.366808057726633,-2.836862679300531,-4.659776081959763
1790097091811381504,12.15638134765626,9.20846746563566,-2.8272108673486707,-4.399228722099258
1790097091821381376,12.16638134765626,9.144204272363142,-2.7456612927871586,-4.17587773021608
1790097091831381504,12.17638134765626,8.95521888579214,-2.585341865959935,-3.889322189337506
1790097091841381376,12.18638134765626,8.391087813530666,-2.360277330177913,-3.6027677220047583
1790097091851381504,12.19638134765626,7.83728892851456,-2.018274569318897,-3.3028898959217865
1790097091861381376,12.20638134765626,7.71506745098869,-1.5572626449675944,-2.9949869770025064
1790097091871381504,12.216381347656261,7.775107880710721,-1.1764845912494393,-2.66661920936526
1790097091881381376,12.226381347656261,7.560240436866527,-0.9599861274429501,-2.2115460603718966
1790097091891381504,12.23638134765626,7.042121976877336,-0.7219391304615852,-1.7210473943689422
1790097091901381376,12.24638134765626,6.6183403989236895,-0.35319934431354433,-1.3053347237392214
1790097091911381504,12.25638134765626,6.8122729313215515,0.18867907353592311,-0.880334670860457
1790097091921381376,12.26638134765626,7.05671005473584,0.9184882275193407,-0.407252184577425
1790097091931381504,12.27638134765626,7.4581804955478255,0.6617827782120924,-0.6328475539443987
1790097091941381376,12.286381347656262,7.431216851602694,0.11753423073128944,-0.9872256650249807
1790097091951381504,12.296381347656261,7.359107408487417,-0.38019518152305587,-1.2931479204694352
1790097091961381376,12.306381347656261,6.800399433532836,-0.43358078835502634,-1.1356672061571012
1790097091971381504,12.316381347656261,6.433937044716236,-0.08673439900182839,-1.3002206473120161
1790097091981381376,12.32638134765626,6.436283230639834,0.30952775615997075,-0.9781974473418107
1790097091991381504,12.33638134765626,6.826313963346407,0.9069837274544595,-0.6218994180722256
1790097092001381376,12.34638134765626,7.632285572350783,1.4800937318134026,-0.5421643285873515
1790097092011381504,12.35638134765626,8.450613393687055,1.4134983384257633,-1.0003296174525977
1790097092021381376,12.36638134765626,9.027572875861502,0.3469459539903525,-1.7479843934954005
1790097092031381504,12.376381347656261,8.59880846994579,0.42405381871103603,-1.6033105017868547
1790097092041381376,12.386381347656261,8.07128444434149,0.6412812280521974,-1.567912778086322
1790097092051381504,12.396381347656261,7.874078419630554,0.8148521825480455,-1.6580883146154912
1790097092061381376,12.40638134765626,8.03812081579111,0.9128374396870761,-1.8191752905650935
1790097092071381504,12.41638134765626,8.421414797179192,0.9060648377896068,-2.0164820411037896
1790097092081381376,12.42638134765626,8.812176406499681,0.7728013860259676,-2.140705250834187
1790097092091381504,12.43638134765626,8.96727166207719,0.4754540768100351,-2.2818088042999007
1790097092101381376,12.446381347656262,8.655121384684287,0.18652255997160466,-2.3606629929631637
1790097092111381504,12.456381347656261,8.171300718357399,0.11715980036930848,-2.426387124225074
1790097092121381376,12.466381347656261,7.790008082275964,0.27541397276253365,-2.408044763003693
1790097092131381504,12.476381347656261,7.697949568574792,0.3264280220160229,-2.3383658941724947
1790097092141381376,12.48638134765626,7.839235987497819,0.256816963687473,-2.4444275137502824
1790097092151381504,12.49638134765626,8.295560330125708,0.15213703700392311,-2.54354641514429
1790097092161381376,12.50638134765626,8.457089586944928,-0.037172512285009104,-2.644117495352219
1790097092171381504,12.51638134765626,8.38409074862242,-0.32531266677164605,-2.7536341269597093
1790097092181381376,12.52638134765626,8.130170371725137,-0.5058832327352397,-2.788231693954567
1790097092191381504,12.536381347656262,8.078111008445473,-0.5077810335414851,-2.8274190425872803
1790097092201381376,12.546381347656261,8.223259582393345,-0.40465035925414056,-2.8427250459574522
1790097092211381504,12.556381347656261,8.374361320296106,-0.3185993025801632,-2.842646619782884
1790097092221381376,12.566381347656261,8.455471715624343,-0.37508667447118776,-2.851849720106691
1790097092231381504,12.57638134765626,8.535553574997525,-0.43441577071736365,-2.8947751589501394
1790097092241381376,12.58638134765626,8.469651734094525,-0.656043875517582,-2.9792123083525137
1790097092251381504,12.59638134765626,8.297594618860124,-0.9920704940014153,-3.1782481231722692
1790097092261381376,12.606381347656262,8.029901726174023,-1.3168704121411716,-3.403174664686322
1790097092271381504,12.616381347656262,7.683627966347997,-1.6414145708865857,-3.571612894839388
1790097092281381376,12.626381347656261,7.288057974556196,-1.9171609372074907,-3.6685444872065225
1790097092291381504,12.636381347656261,7.207986568889673,-2.1633163598613616,-3.7002274802340547
1790097092301381376,12.646381347656261,7.344824886505237,-2.3877281985470233,-3.6607267899579456
1790097092311381504,12.65638134765626,7.7813638787210495,-2.6312920374125905,-3.5403428227889373
1790097092321381376,12.66638134765626,8.296835095695172,-2.9390920019068374,-3.4626034969191224
1790097092331381504,12.67638134765626,8.768746373271274,-3.300743746139105,-3.507427716758078
1790097092341381376,12.68638134765626,9.08857337189768,-3.7060389926573896,-3.716895202535008
1790097092351381504,12.696381347656262,9.275798255975173,-4.07951820973775,-4.014856281481314
1790097092361381376,12.706381347656261,9.32615484532369,-4.299839931552901,-4.376440844124317
1790097092371381504,12.716381347656261,9.001836867735339,-4.548151147873332,-4.673838566322321
1790097092381381376,12.726381347656261,8.425232509438864,-4.959034358381632,-4.838988931983358
1790097092391381504,12.73638134765626,8.04384083558497,-5.223055685916322,-4.877708035415523
1790097092401381376,12.74638134765626,7.934468176441058,-5.308124887976053,-4.927938842294286
1790097092411381504,12.75638134765626,7.886923956482545,-5.27019016378405,-4.754375837175451
1790097092421381376,12.766381347656262,8.042078319298334,-5.13728978878735,-4.457827361558208
1790097092431381504,12.776381347656262,8.295854409153135,-5.094501976953617,-4.140078794058237
1790097092441381376,12.786381347656262,8.516229275699366,-5.067082057436168,-3.957315764537918
1790097092451381504,12.796381347656261,8.626641629613422,-5.055531092890244,-4.061502524202625
