time,seconds_elapsed,z,y,x
1789116107670786800,0.162786865234375,0.1973036676645279,-0.3390202224254608,-0.03176405653357506
1789116107689636900,0.181636962890625,0.17897824943065643,-0.6004628539085388,-0.16248537600040436
1789116107708487000,0.20048681640625,0.06719319522380829,-0.4575245976448059,-0.1710372269153595
1789116107727337000,0.2193369140625,-0.056808795779943466,-0.09345962852239609,-0.00916270911693573
1789116107746187000,0.23818701171875,-0.11117420345544815,0.25472331047058105,0.28343313932418823
1789116107765037300,0.257037353515625,-0.062306419014930725,0.46729815006256104,0.5888567566871643
1789116107783887400,0.275887451171875,-0.18691925704479218,-0.4813476502895355,0.42881476879119873
1789116107802737400,0.2947373046875,-0.07574506103992462,-0.9914051294326782,0.10873081535100937
1789116107821587500,0.31358740234375,0.12461283802986145,-0.2993151545524597,-0.02076880633831024
1789116107840437500,0.3324375,0.08063183724880219,0.4886777997016907,-0.08918370306491852
1789116107859287600,0.35128759765625,-0.02748812735080719,0.6713211536407471,-0.11056335270404816
1789116107878137600,0.3701376953125,-0.09407047927379608,0.4978405237197876,-0.13316470384597778
1789116107896987600,0.388987548828125,-0.12644538283348083,0.34635040163993835,-0.12461283802986145
1789116107915838000,0.407837890625,-0.19241689145565033,-0.0018325417768210173,-0.16065283119678497
1789116107934688000,0.42668798828125,-0.31886225938796997,-0.40132665634155273,-0.01832541823387146
1789116107953538000,0.4455380859375,-0.32130566239356995,-0.44103172421455383,0.30725616216659546
1789116107972388000,0.46438818359375,-0.28404396772384644,-0.08490777015686035,0.5057815313339233
1789116107991238100,0.483238037109375,-0.337798535823822,0.30786702036857605,0.39643988013267517
1789116108010088200,0.502088134765625,-0.395218163728714,0.23090025782585144,0.07146912813186646
1789116108028938500,0.5209384765625,-0.10140064358711243,-0.1582094430923462,0.03298575058579445
1789116108047788500,0.53978857421875,0.07207997888326645,-0.3958290219306946,0.10811996459960938
1789116108066638600,0.558638671875,0.05986303091049194,-0.24311721324920654,0.14965757727622986
1789116108085488600,0.577488525390625,-0.13316470384597778,0.0922379344701767,0.10078980028629303
1789116108104338700,0.596338623046875,-0.30481278896331787,-0.029320668429136276,0.1429382562637329
1789116108123188700,0.615188720703125,-0.30725616216659546,-0.49051034450531006,0.24250635504722595
1789116108142038800,0.634038818359375,-0.16676130890846252,-0.2895416021347046,0.1569877415895462
1789116108160889000,0.65288916015625,-0.17531315982341766,0.09590301662683487,-0.06780404597520828
1789116108179739100,0.6717392578125,-0.19363857805728912,0.1575985997915268,-0.1453816443681717
1789116108198589200,0.690589111328125,-0.17775654792785645,0.19241689145565033,-0.037261683493852615
1789116108217439200,0.709439208984375,-0.16492876410484314,0.20768806338310242,0.03542914241552353
1789116108236289500,0.72828955078125,-0.12033691257238388,-0.2779355049133301,0.08979454636573792
1789116108255139600,0.7471396484375,-0.13988402485847473,-0.656660795211792,0.26632940769195557
1789116108273989600,0.76598974609375,-0.2632751762866974,-0.17958909273147583,0.3133646547794342
1789116108292839700,0.784839599609375,-0.36101073026657104,0.2351761907339096,-0.01038440316915512
1789116108311689700,0.803689697265625,-0.3787252902984619,0.3573456406593323,-0.32313820719718933
1789116108330540000,0.8225400390625,-0.37078428268432617,0.27854636311531067,-0.27915719151496887
1789116108349390000,0.84139013671875,-0.3243598937988281,0.20463383197784424,-0.08674030750989914
1789116108368240000,0.860240234375,-0.337798535823822,0.12888877093791962,-0.02504473738372326
1789116108387090400,0.87909033203125,-0.4068242609500885,-0.007941014133393764,-0.03420744836330414
1789116108405940500,0.8979404296875,-0.3671191930770874,0.016492875292897224,0.012827792204916477
1789116108424790500,0.91679052734375,-0.258999228477478,0.08674030750989914,0.06963659077882767
1789116108443640600,0.935640625,-0.1435490995645523,0.15943112969398499,0.15271180868148804
1789116108462491000,0.954490966796875,-0.1569877415895462,0.13988402485847473,0.20463383197784424
1789116108481341000,0.9733408203125,-0.14049486815929413,0.03542914241552353,0.18142163753509521
1789116108500191000,0.99219091796875,-0.07085828483104706,0.06658235192298889,0.15271180868148804
1789116108519041000,1.011041015625,-0.02748812735080719,0.08185353130102158,0.1563768982887268
1789116108537891300,1.029891357421875,0.06841489672660828,0.0397050715982914,0.16370706260204315
1789116108556741400,1.048741455078125,0.10750912129878998,-0.0659715011715889,0.1044548824429512
1789116108575591400,1.06759130859375,0.05925218388438225,-0.20157960057258606,0.008551862090826035
1789116108594441700,1.086441650390625,0.0525328628718853,-0.1698155403137207,-0.020157959312200546
1789116108613291800,1.105291748046875,0.09284878522157669,-0.0030542362947016954,0.0653606578707695
1789116108632141800,1.124141845703125,0.13927318155765533,0.09895725548267365,0.14049486815929413
1789116108650992000,1.1429921875,0.18875180184841156,0.13621893525123596,0.19424942135810852
1789116108669842200,1.16184228515625,0.3176405727863312,0.20585553348064423,0.20341213047504425
1789116108688692200,1.180692138671875,0.37200596928596497,0.07330167293548584,0.13988402485847473
1789116108707542500,1.19954248046875,0.3151971995830536,-0.1453816443681717,0.1319430023431778
1789116108726392600,1.218392578125,0.2626643180847168,-0.17225892841815948,0.2089097648859024
1789116108745242600,1.23724267578125,0.22662433981895447,0.01038440316915512,0.19424942135810852
1789116108764093000,1.256093017578125,0.1557660549879074,-0.03542914241552353,0.06413896381855011
1789116108782943000,1.27494287109375,0.07391251623630524,-0.258999228477478,0.046424392610788345
1789116108801793000,1.29379296875,-0.0036650835536420345,-0.33413344621658325,0.10934165865182877
1789116108820643300,1.312643310546875,0.020157959312200546,-0.129499614238739,0.062306419014930725
1789116108839493400,1.331493408203125,0.06902574002742767,0.08735115826129913,-0.07391251623630524
1789116108858343400,1.350343505859375,0.10995250940322876,0.20585553348064423,-0.15332266688346863
1789116108877193700,1.36919384765625,0.130721315741539,0.0659715011715889,-0.1435490995645523
1789116108896043800,1.388043701171875,0.16065283119678497,-0.21623992919921875,0.042759306728839874
1789116108914894000,1.40689404296875,0.15026842057704926,-0.23334364593029022,0.24556060135364532
1789116108933744000,1.425744140625,0.04886778071522713,-0.14904673397541046,0.2229592502117157
1789116108952594400,1.444594482421875,-0.05497625470161438,-0.1692046970129013,0.07391251623630524
1789116108971444500,1.463444580078125,-0.05619794875383377,0.04581354558467865,0.02504473738372326
1789116108990294500,1.48229443359375,-0.029320668429136276,0.05008947476744652,-0.018936265259981155
1789116109009144800,1.501144775390625,-0.09345962852239609,-0.07696675509214401,-0.10078980028629303
1789116109027995000,1.519994873046875,-0.1056765764951706,-0.06413896381855011,-0.19974705576896667
1789116109046845000,1.538844970703125,-0.03542914241552353,-0.11178504675626755,-0.22845686972141266
1789116109065695200,1.5576953125,0.06841489672660828,0.36223241686820984,-0.1429382562637329
1789116109084545300,1.576545166015625,0.26938363909721375,0.8979454636573792,-0.1710372269153595
1789116109103395600,1.5953955078125,0.7195780873298645,1.285833477973938,-0.22601348161697388
1789116109122245600,1.61424560546875,0.8814526200294495,1.6194324493408203,-0.16004198789596558
1789116109141096000,1.633095947265625,0.7244648337364197,2.1258249282836914,0.08063183724880219
1789116109159946000,1.651946044921875,0.832584798336029,2.26693058013916,0.04459185153245926
1789116109178796300,1.67079638671875,0.994459331035614,1.7391585111618042,-0.23151111602783203
1789116109197646300,1.689646240234375,0.7947123050689697,1.5418548583984375,-0.5173876285552979
1789116109216496600,1.70849658203125,0.5919110178947449,1.0250016450881958,-0.9828532338142395
1789116109235346700,1.7273466796875,1.0579874515533447,0.34451785683631897,-1.49848473072052
1789116109254197000,1.746197021484375,1.5308595895767212,-0.1301104724407196,-1.9205801486968994
1789116109273047000,1.765047119140625,1.5333030223846436,-1.271173119544983,-2.053133964538574
1789116109291897000,1.78389697265625,1.184432864189148,-1.4013599157333374,-1.7086161375045776
1789116109320172500,1.812172607421875,0.8197570443153381,0.5448757410049438,-1.91386079788208
1789116109339022600,1.831022705078125,0.45019441843032837,1.5589585304260254,-2.5277624130249023
1789116109357873000,1.849872802734375,0.016492875292897224,2.2705955505371094,-3.2045810222625732
1789116109376723000,1.868722900390625,-0.3139754831790924,-0.8765658140182495,-3.8820106983184814
1789116109395573200,1.8875732421875,-1.0750911235809326,-1.774587631225586,-2.8527331352233887
1789116109414423300,1.90642333984375,-1.3029371500015259,-1.4428975582122803,-2.8924381732940674
1789116109433273600,1.925273681640625,-1.3903647661209106,-1.2027583122253418,-3.770836591720581
1789116109452123600,1.94412353515625,-1.334777593612671,-0.5015056133270264,-4.307847499847412
1789116109470974000,1.962973876953125,-0.8576295375823975,0.29381752014160156,-4.5863938331604
1789116109489824000,1.981823974609375,-0.29259583353996277,0.8667922616004944,-4.675577640533447
1789116109508674300,2.00067431640625,0.0922379344701767,1.3763152360916138,-4.728110313415527
1789116109527524400,2.0195244140625,0.49051034450531006,2.445297956466675,-5.120274543762207
1789116109546374700,2.038374755859375,0.4031592011451721,2.5809059143066406,-5.4776201248168945
1789116109565224700,2.057224609375,0.47951510548591614,2.4905006885528564,-5.24366569519043
1789116109584075000,2.076074951171875,0.7262973785400391,3.2253499031066895,-3.4599151611328125
1789116109602925000,2.094925048828125,0.3268032968044281,4.315177917480469,-2.367720365524292
1789116109621775400,2.113775390625,0.46729815006256104,4.831954479217529,-2.238220691680908
1789116109640625700,2.132625732421875,1.1056334972381592,4.351217746734619,-1.6432554721832275
1789116109659475700,2.151475830078125,2.466066837310791,2.403149366378784,-1.4899327754974365
1789116109678326000,2.170325927734375,3.869793653488159,0.7898254990577698,-1.455114483833313
1789116109697176000,2.189176025390625,2.45995831489563,1.4477843046188354,-0.5754181146621704
1789116109725451500,2.217451416015625,-0.6835380792617798,3.7812209129333496,0.3506263196468353
1789116109744301600,2.236301513671875,0.16615045070648193,1.0897514820098877,2.0940606594085693
1789116109763152000,2.25515185546875,0.5485408306121826,0.5259394645690918,1.9083632230758667
1789116109782002000,2.274001953125,1.1771026849746704,2.2424967288970947,0.8674030900001526
1789116109800852200,2.292852294921875,2.1062777042388916,2.3231284618377686,0.5955760478973389
1789116109819702500,2.31170263671875,1.8045191764831543,1.2595670223236084,0.5986303091049194
1789116109838552600,2.330552490234375,2.503328323364258,1.0549331903457642,0.21623992919921875
1789116109857403000,2.34940283203125,1.6890690326690674,-0.5326588153839111,0.046424392610788345
1789116109876253000,2.3682529296875,0.6542174220085144,-1.5528501272201538,0.05864133685827255
1789116109895103200,2.387103271484375,0.012216945178806782,-2.393375873565674,0.24067382514476776
1789116109913953500,2.40595361328125,-0.42331716418266296,-2.2473833560943604,0.5302154421806335
1789116109932803600,2.424803466796875,-1.5009280443191528,-2.8081412315368652,0.582748293876648
1789116109951654000,2.44365380859375,-0.9736905097961426,-2.857008934020996,0.416597843170166
1789116109970504000,2.46250390625,-0.4416425824165344,-2.4092578887939453,0.5607577562332153
1789116109989354200,2.481354248046875,-0.1692046970129013,-1.0195040702819824,0.48073679208755493
1789116110008204500,2.50020458984375,-0.14782503247261047,-0.6719319820404053,0.7403468489646912
1789116110027054800,2.519054931640625,-0.35795649886131287,-0.48989951610565186,0.8661814332008362
1789116110045905000,2.53790478515625,-0.1985253542661667,-0.40132665634155273,0.684148907661438
1789116110064755200,2.556755126953125,-0.3701734244823456,-0.28282228112220764,0.7049177289009094
1789116110083605200,2.575605224609375,-0.3506263196468353,-0.004275931045413017,0.9071081876754761
1789116110102455600,2.59445556640625,0.05375456064939499,0.6438329815864563,1.0103414058685303
1789116110121305900,2.613305908203125,0.7953231334686279,1.073258638381958,1.0274450778961182
1789116110140156200,2.63215625,1.4960412979125977,1.687847375869751,0.9761339426040649
1789116110159006200,2.651006103515625,1.5571260452270508,2.0476362705230713,0.91566002368927
1789116110177856500,2.6698564453125,1.6304277181625366,0.7275190949440002,0.6303943991661072
1789116110196706800,2.688706787109375,1.014006495475769,-0.2999260127544403,0.3542914092540741
1789116110215556900,2.707556884765625,0.16126367449760437,-0.3658975064754486,0.4727957844734192
1789116110234407200,2.7264072265625,-0.237008735537529,-0.0030542362947016954,0.7598940134048462
1789116110253257500,2.745257568359375,-0.8038749694824219,-0.8038749694824219,1.142895221710205
1789116110272107500,2.764107421875,-0.8478559851646423,-2.271817207336426,1.3127107620239258
1789116110290957800,2.782957763671875,-0.1319430023431778,-2.179579257965088,0.9419264793395996
1789116110309808000,2.80180810546875,0.5772506594657898,-1.900422215461731,0.7348492741584778
1789116110328658200,2.820658203125,1.0787562131881714,-1.903476357460022,1.2504043579101562
1789116110347508500,2.839508544921875,1.3885321617126465,-1.4239612817764282,1.8698798418045044
1789116110366358800,2.85835888671875,1.63592529296875,-1.2693406343460083,1.982886552810669
1789116110385209000,2.877208984375,1.8301746845245361,-0.2852656841278076,1.9865516424179077
1789116110404059100,2.89605908203125,1.7794743776321411,2.4190316200256348,2.0073204040527344
1789116110422909400,2.914909423828125,1.119683027267456,1.23940908908844,1.0262234210968018
1789116110441759700,2.933759765625,-0.09040539711713791,-0.4214846193790436,-0.12888877093791962
1789116110460610000,2.952610107421875,-0.09651386737823486,-0.06291726976633072,-0.2498365342617035
1789116110479460000,2.971460205078125,-0.0787992998957634,-0.2504473626613617,-0.25350162386894226
1789116110498310400,2.990310302734375,-0.18936264514923096,-0.05070032179355621,-0.30786702036857605
1789116110517160700,3.00916064453125,-0.503948986530304,0.6285618543624878,-0.29381752014160156
1789116110536011000,3.028010986328125,-0.8362498879432678,0.888171911239624,-0.15943112969398499
1789116110554861300,3.046861328125,-0.9517000317573547,0.81425940990448,-0.20402298867702484
1789116110573711400,3.06571142578125,-0.990183413028717,0.7159129977226257,-0.21685077250003815
1789116110592561700,3.084561767578125,-1.2449066638946533,0.8991671800613403,-0.3127537965774536
1789116110611412000,3.103411865234375,-1.4728291034698486,0.7794411182403564,-0.4856235682964325
1789116110630262300,3.12226220703125,-1.7073944807052612,0.4831801950931549,-0.4715740978717804
1789116110649112600,3.141112548828125,-1.899200439453125,0.2510582208633423,-0.6914790868759155
1789116110667962600,3.159962646484375,-2.3005270957946777,0.6187883019447327,-1.2180293798446655
1789116110686813000,3.17881298828125,-2.350005865097046,0.8661814332008362,-1.5552934408187866
1789116110705663200,3.197663330078125,-2.0317542552948,0.8087617754936218,-1.687847375869751
1789116110724513500,3.216513427734375,-2.020148277282715,0.6157340407371521,-1.852776050567627
1789116110743363600,3.235363525390625,-2.463012456893921,0.6279509663581848,-1.9358513355255127
1789116110762214000,3.2542138671875,-2.9541337490081787,-0.045202698558568954,-2.0800113677978516
1789116110781064200,3.273064208984375,-2.4416327476501465,-0.754396378993988,-2.5338706970214844
1789116110799914500,3.29191455078125,-1.3035480976104736,-1.4850460290908813,-2.630995512008667
1789116110818764800,3.310764892578125,-1.1606098413467407,-0.8515210747718811,-2.5021066665649414
1789116110837615000,3.329614990234375,-1.2131426334381104,-0.15210096538066864,-2.2394423484802246
1789116110856465200,3.348465087890625,-1.340886116027832,-0.12216944992542267,-2.0396952629089355
1789116110875315500,3.3673154296875,-1.5442981719970703,-0.975523054599762,-1.5668995380401611
1789116110894165800,3.386165771484375,-1.7446560859680176,-2.038473606109619,-1.6597483158111572
1789116110913016000,3.40501611328125,-1.455114483833313,-1.9486790895462036,-0.9907942414283752
1789116110931866400,3.423866455078125,-1.2601778507232666,-1.0891406536102295,-0.1710372269153595
1789116110950716700,3.442716552734375,-1.1392301321029663,-0.9773555994033813,0.6071822047233582
1789116110969566700,3.461566650390625,-1.003622055053711,-0.30603447556495667,1.0384403467178345
1789116110988417000,3.4804169921875,-1.0744802951812744,0.04825693368911743,0.7684458494186401
1789116111007267300,3.499267333984375,-0.9321529269218445,0.18081079423427582,0.7061394453048706
1789116111026117600,3.51811767578125,-1.0091196298599243,0.1441599577665329,0.892447829246521
1789116111044968000,3.536968017578125,-1.100746750831604,0.40254834294319153,1.1001359224319458
1789116111063818200,3.555818359375,-0.9590302109718323,0.893058717250824,1.4758833646774292
1789116111082668500,3.57466845703125,-0.9095515608787537,0.4837910234928131,1.7715333700180054
1789116111101518800,3.593518798828125,-0.569309651851654,0.6584933400154114,1.5235294103622437
1789116111120369000,3.612368896484375,-0.3695625960826874,1.5192534923553467,1.3273711204528809
1789116111139219200,3.63121923828125,-0.07391251623630524,1.7391585111618042,1.2406307458877563
1789116111158069500,3.650069580078125,0.37567105889320374,1.488100290298462,1.2381874322891235
1789116111176919800,3.668919921875,0.47890424728393555,1.1777135133743286,1.4093009233474731
1789116111195770000,3.68777001953125,0.36039987206459045,0.841747522354126,1.5076473951339722
1789116111214620400,3.706620361328125,0.30603447556495667,0.3164188861846924,1.5064257383346558
1789116111233470700,3.725470703125,0.29503923654556274,0.31031039357185364,1.4337348937988281
1789116111252321000,3.744321044921875,0.9675820469856262,0.3005368411540985,1.2516260147094727
1789116111271171300,3.76317138671875,1.4636664390563965,-0.0024433890357613564,1.4960412979125977
1789116111290021600,3.782021728515625,1.02683424949646,-0.6053496599197388,1.7684792280197144
1789116111308872000,3.800871826171875,0.5387672781944275,-0.7690566778182983,2.3145766258239746
1789116111327722000,3.819721923828125,0.33291175961494446,-0.30969956517219543,2.601674795150757
1789116111346572300,3.838572265625,0.18814095854759216,-0.18997350335121155,2.400095224380493
1789116111365422600,3.857422607421875,0.11667182296514511,0.10873081535100937,2.3377888202667236
1789116111384273000,3.87627294921875,0.018936265259981155,-0.3286358118057251,2.4129230976104736
1789116111403123200,3.895123291015625,-0.13316470384597778,-0.7678350210189819,2.3194634914398193
1789116111421973500,3.913973388671875,-0.15026842057704926,-0.5344913601875305,1.8680472373962402
1789116111440823800,3.93282373046875,0.04886778071522713,-0.09468132257461548,1.5815598964691162
1789116111459674000,3.951674072265625,0.2510582208633423,-0.08124268800020218,1.258345365524292
1789116111478524400,3.9705244140625,0.3390202224254608,-0.10140064358711243,0.7763868570327759
1789116111497374700,3.989374755859375,0.24189551174640656,-0.08368607610464096,0.4575245976448059
1789116111525650200,4.017650146484375,-0.03420744836330414,0.22723518311977386,0.12461283802986145
1789116111544500500,4.03650048828125,-0.21318569779396057,0.10811996459960938,-0.025655584409832954
1789116111563350800,4.055350830078125,-0.2480039894580841,0.1588202863931656,-0.27854636311531067
1789116111591626200,4.083626220703125,-0.27976804971694946,0.4837910234928131,-0.7537854909896851
1789116111610476500,4.1024765625,-0.4300364851951599,0.43858832120895386,-0.8130376935005188
1789116111629326800,4.121326904296875,-0.554649293422699,0.3524588644504547,-0.9327637553215027
1789116111648177200,4.14017724609375,-0.6713211536407471,0.3665083646774292,-1.1752700805664062
1789116111667027500,4.15902734375,-0.7623373866081238,0.38727715611457825,-1.4667205810546875
1789116111685877800,4.177877685546875,-0.860683798789978,0.4049917459487915,-1.6854039430618286
1789116111704728000,4.19672802734375,-0.9132166504859924,0.4294256269931793,-1.9114174842834473
1789116111723578400,4.215578369140625,-0.9962918758392334,0.3897205591201782,-2.191185474395752
1789116111742428700,4.2344287109375,-1.1343433856964111,0.29503923654556274,-2.4068145751953125
1789116111761279000,4.253279052734375,-1.2479609251022339,-0.010995250195264816,-2.376272201538086
1789116111780129300,4.27212939453125,-1.2650647163391113,-0.3170297145843506,-2.278536558151245
1789116111798979600,4.2909794921875,-1.1318999528884888,-0.5234960913658142,-2.246161699295044
1789116111817830000,4.309829833984375,-1.0115630626678467,-0.5845808386802673,-2.1673624515533447
1789116111836680200,4.32868017578125,-0.9449806809425354,-0.7036960124969482,-2.081233024597168
1789116111855530500,4.347530517578125,-0.7721109390258789,-1.0989142656326294,-2.171027421951294
1789116111874380800,4.366380859375,-0.5644228458404541,-1.0793671607971191,-2.211954355239868
1789116111893231000,4.385231201171875,-0.34512871503829956,-0.8588512539863586,-2.203402519226074
1789116111912081400,4.404081298828125,-0.12583453953266144,-0.8222004175186157,-2.1575889587402344
1789116111930931700,4.422931640625,0.05131116881966591,-0.9083298444747925,-2.0592424869537354
1789116111949782000,4.441781982421875,0.21990501880645752,-0.841747522354126,-1.7794743776321411
1789116111968632300,4.46063232421875,0.40193748474121094,-0.5705313682556152,-1.3384426832199097
1789116111987482600,4.479482666015625,0.4190412163734436,-0.4605788290500641,-0.9425373077392578
1789116112006333000,4.4983330078125,0.3549022674560547,-0.5173876285552979,-0.5344913601875305
1789116112025183200,4.517183349609375,0.4343124032020569,-0.5033381581306458,-0.037261683493852615
1789116112044033500,4.536033447265625,0.6096255779266357,-0.25533416867256165,0.4178195297718048
1789116112062883800,4.5548837890625,0.7873821258544922,-0.12278030067682266,0.7568397521972656
1789116112081734100,4.573734130859375,0.7769976854324341,-0.02748812735080719,1.0103414058685303
1789116112100584400,4.59258447265625,0.6804838180541992,0.17897824943065643,1.165496587753296
1789116112119434800,4.611434814453125,0.5528167486190796,0.5149442553520203,1.3787586688995361
1789116112138285000,4.63028515625,0.45385950803756714,0.6328377723693848,1.488100290298462
1789116112157135400,4.64913525390625,0.3958290219306946,0.4825693368911743,1.404414176940918
1789116112175986000,4.66798583984375,0.3793361485004425,0.3646758198738098,1.3378318548202515
1789116112194836200,4.686836181640625,0.38605546951293945,0.40071579813957214,1.3695958852767944
1789116112213686500,4.7056865234375,0.4434750974178314,0.4453076422214508,1.3842562437057495
1789116112232536800,4.724536865234375,0.5436540842056274,0.4306473135948181,1.372650146484375
1789116112251387100,4.74338720703125,0.6297835111618042,0.30481278896331787,1.327981948852539
1789116112270237400,4.762237548828125,0.767224133014679,0.15515519678592682,1.2846118211746216
1789116112289087700,4.781087646484375,0.9248227477073669,-0.05131116881966591,1.3512704372406006
1789116112307938000,4.79993798828125,1.0940274000167847,-0.23334364593029022,1.5094798803329468
1789116112326788400,4.818788330078125,1.1636639833450317,-0.2498365342617035,1.6884582042694092
1789116112345638700,4.837638671875,0.9981244206428528,-0.4092676639556885,1.829563856124878
1789116112364489000,4.856489013671875,0.739736020565033,-0.5296045541763306,1.881485939025879
1789116112383339300,4.87533935546875,0.5644228458404541,-0.4587462842464447,1.8680472373962402
1789116112402189800,4.89418994140625,0.45019441843032837,-0.29503923654556274,1.9541767835617065
1789116112421040000,4.9130400390625,0.3762819170951843,-0.34696123003959656,2.128268241882324
1789116112439890400,4.931890380859375,0.2638860046863556,-0.8802309036254883,2.223560333251953
1789116112458740700,4.95074072265625,0.15332266688346863,-1.0488247871398926,2.139874219894409
1789116112477591000,4.969591064453125,0.17409147322177887,-0.5717530250549316,1.668911099433899
1789116112496441300,4.98844140625,0.53143709897995,-0.07085828483104706,1.5333030223846436
1789116112515291600,5.007291748046875,0.8527427911758423,0.10017894953489304,0.9889616966247559
1789116112534142000,5.026141845703125,0.8350282311439514,0.12278030067682266,0.43614494800567627
1789116112552992500,5.044992431640625,0.5821374654769897,0.284654825925827,0.2620534598827362
1789116112571842800,5.0638427734375,0.39949411153793335,0.17225892841815948,0.1710372269153595
1789116112590693000,5.082693115234375,0.34818294644355774,0.2877090573310852,-0.046424392610788345
1789116112609543400,5.10154345703125,0.19119518995285034,0.43981003761291504,-0.3054236173629761
1789116112628393700,5.120393798828125,0.09468132257461548,0.5876350402832031,-0.6212316751480103
1789116112647244000,5.139244140625,0.01038440316915512,0.6181774139404297,-0.869846522808075
1789116112666094300,5.15809423828125,-0.15393351018428802,0.7733326554298401,-1.1862653493881226
1789116112684944600,5.176944580078125,-0.41476529836654663,0.9785773158073425,-1.5772839784622192
1789116112703795200,5.195795166015625,-0.6988092660903931,0.9248227477073669,-1.8411699533462524
1789116112722645500,5.2146455078125,-0.9236010313034058,0.9064973592758179,-1.9523441791534424
1789116112741495800,5.233495849609375,-1.1068552732467651,0.9333745837211609,-2.051912307739258
1789116112760346000,5.25234619140625,-1.2229162454605103,0.8313631415367126,-2.19179630279541
1789116112779196400,5.271196533203125,-1.2271921634674072,0.6316160559654236,-2.153923749923706
1789116112798046700,5.290046630859375,-1.326149344444275,0.4605788290500641,-2.049468994140625
1789116112816897000,5.30889697265625,-1.3909755945205688,0.20219044387340546,-1.9761672019958496
1789116112835747600,5.32774755859375,-1.3433294296264648,-0.01954711228609085,-2.0415279865264893
1789116112854598000,5.346597900390625,-1.2149752378463745,-0.16309621930122375,-2.163086414337158
1789116112873448200,5.3654482421875,-1.1141854524612427,-0.43981003761291504,-2.113607883453369
1789116112892298500,5.384298583984375,-1.0592091083526611,-0.5265503525733948,-2.105056047439575
1789116112911148800,5.403148681640625,-0.9150491952896118,-0.550373375415802,-2.095282554626465
1789116112929999000,5.4219990234375,-0.6896465420722961,-0.4966188073158264,-2.0622966289520264
1789116112948849400,5.440849365234375,-0.5106683373451233,-0.4727957844734192,-2.075735330581665
1789116112967700000,5.459699951171875,-0.25411245226860046,-0.4721849262714386,-1.9419597387313843
1789116112986550300,5.47855029296875,0.033596597611904144,-0.3939964771270752,-1.5540717840194702
1789116113005400600,5.497400634765625,0.1441599577665329,-0.2736595869064331,-1.1178505420684814
1789116113024251000,5.5162509765625,0.15454435348510742,-0.1575985997915268,-0.763559103012085
1789116113043101200,5.53510107421875,0.18081079423427582,-0.2217375487089157,-0.314586341381073
1789116113061951700,5.55395166015625,0.34573954343795776,-0.31031039357185364,0.20768806338310242
1789116113080802000,5.572802001953125,0.6047387719154358,-0.13316470384597778,0.6456655263900757
1789116113099652400,5.59165234375,0.7128587365150452,-0.0390942245721817,0.994459331035614
1789116113118502700,5.610502685546875,0.6572716236114502,0.3561239540576935,1.225359559059143
1789116113137353000,5.62935302734375,0.46485477685928345,0.6236750483512878,1.3353121280670166
1789116113156203300,5.648203369140625,0.32069480419158936,0.5448757410049438,1.3524922132492065
1789116113175053800,5.6670537109375,0.18814095854759216,0.474017471075058,1.3940298557281494
1789116113193904000,5.685904052734375,0.1319430023431778,0.35978904366493225,1.3928080797195435
1789116113212754400,5.70475439453125,0.10689827054738998,0.06963659077882767,1.3592115640640259
1789116113231604700,5.723604736328125,0.20768806338310242,0.08551861345767975,1.4215179681777954
1789116113250455000,5.742455078125,0.314586341381073,0.24189551174640656,1.5632344484329224
1789116113269305600,5.7613056640625,0.3512371778488159,0.24067382514476776,1.6347036361694336
1789116113288156000,5.780156005859375,0.469741553068161,-0.022601349279284477,1.6114914417266846
1789116113307006200,5.799006103515625,0.684148907661438,-0.24556060135364532,1.6383687257766724
1789116113325856500,5.8178564453125,0.8979454636573792,-0.22662433981895447,1.761759877204895
1789116113344707000,5.83670703125,0.9749122262001038,-0.3830012381076813,1.965782880783081
1789116113363557400,5.855557373046875,0.92054682970047,-0.6322268843650818,2.095893383026123
1789116113382407700,5.87440771484375,0.8863393664360046,-0.6389462351799011,2.0561883449554443
1789116113401258000,5.893258056640625,0.8222004175186157,-0.4330907166004181,2.0305325984954834
1789116113420108500,5.912108642578125,0.7195780873298645,-0.4056025743484497,2.095282554626465
1789116113438958800,5.930958740234375,0.5980194807052612,-0.5839699506759644,2.139874219894409
1789116113457809200,5.94980908203125,0.36223241686820984,-0.9810206890106201,2.1429286003112793
1789116113476659500,5.968659423828125,0.20341213047504425,-1.086086392402649,1.9016438722610474
1789116113495510000,5.987510009765625,0.45019441843032837,-0.30725616216659546,1.5510175228118896
1789116113514360300,6.0063603515625,0.8234221339225769,0.444085955619812,1.3066022396087646
1789116113533210600,6.025210693359375,0.8777875304222107,0.3390202224254608,0.8619054555892944
1789116113552061000,6.04406103515625,0.7098045349121094,0.08307522535324097,0.4605788290500641
1789116113570911200,6.0629111328125,0.6200099587440491,0.13866232335567474,-0.005497625097632408
1789116113589761800,6.08176171875,0.5369347333908081,0.18997350335121155,-0.3640649616718292
1789116113608612000,6.100612060546875,0.39949411153793335,0.34512871503829956,-0.5577035546302795
1789116113627462400,6.11946240234375,0.2235700935125351,0.337798535823822,-0.5913001298904419
1789116113646312700,6.138312744140625,0.06719319522380829,0.5027272701263428,-0.8643488883972168
1789116113665163300,6.157163330078125,-0.1423274129629135,0.5772506594657898,-1.1068552732467651
1789116113684013600,6.176013671875,-0.3286358118057251,0.5986303091049194,-1.3414969444274902
1789116113702864000,6.19486376953125,-0.49112120270729065,0.610236406326294,-1.5510175228118896
1789116113721714400,6.21371435546875,-0.7647807598114014,0.7372926473617554,-1.6915124654769897
1789116113740564700,6.232564697265625,-1.0830321311950684,0.8802309036254883,-1.8197903633117676
1789116113759415000,6.2514150390625,-1.2424633502960205,0.8008207678794861,-1.8851510286331177
1789116113778265300,6.270265380859375,-1.3243168592453003,0.7806627750396729,-1.9132499694824219
1789116113797116000,6.289115966796875,-1.4215179681777954,0.6963658928871155,-2.011596441268921
1789116113815966200,6.30796630859375,-1.4483952522277832,0.49051034450531006,-2.158810615539551
1789116113834816500,6.32681640625,-1.4459518194198608,0.20646637678146362,-2.2968621253967285
1789116113853666800,6.345666748046875,-1.3439403772354126,-0.07452336698770523,-2.347562313079834
1789116113872517400,6.364517333984375,-1.136786699295044,-0.261442631483078,-2.4074254035949707
1789116113891367700,6.38336767578125,-0.9352071285247803,-0.5131117105484009,-2.333512783050537
1789116113910218000,6.402218017578125,-0.786160409450531,-0.6682668924331665,-2.2889211177825928
1789116113929068500,6.421068603515625,-0.6725428104400635,-0.6395570635795593,-2.335345506668091
1789116113947918800,6.4399189453125,-0.4947862923145294,-0.5644228458404541,-2.2211170196533203
1789116113966769200,6.45876904296875,-0.3390202224254608,-0.5387672781944275,-1.9187475442886353
1789116113985619500,6.477619384765625,-0.2357870489358902,-0.3292466700077057,-1.6035504341125488
1789116114004470000,6.496469970703125,-0.04459185153245926,-0.07207997888326645,-1.3224843740463257
1789116114023320300,6.5153203125,0.11117420345544815,-0.2107423096895218,-0.8588512539863586
1789116114042170600,6.534170654296875,0.15149012207984924,-0.4330907166004181,-0.1459924876689911
1789116114061021200,6.553021240234375,0.3836120665073395,-0.20646637678146362,0.3640649616718292
1789116114079871500,6.57187158203125,0.7061394453048706,-0.2339545041322708,0.6945333480834961
1789116114098721800,6.5907216796875,0.7446228265762329,-0.22540263831615448,0.9920159578323364
1789116114117572400,6.609572265625,0.6762079000473022,0.09712471067905426,1.2155860662460327
1789116114136422700,6.628422607421875,0.6175665855407715,0.39888325333595276,1.318819284439087
1789116114155273000,6.64727294921875,0.4703523814678192,0.4043808877468109,1.3695958852767944
1789116114174123300,6.666123291015625,0.3390202224254608,0.23151111602783203,1.5497958660125732
1789116114192973800,6.684973876953125,0.19119518995285034,0.265718549489975,1.6658568382263184
1789116114211824000,6.70382421875,0.07024743407964706,0.21746163070201874,1.5137559175491333
1789116114230674400,6.72267431640625,-0.01954711228609085,-0.02076880633831024,1.4215179681777954
1789116114249525000,6.74152490234375,0.07146912813186646,0.07207997888326645,1.6670784950256348
1789116114268375300,6.760375244140625,0.31031039357185364,0.06841489672660828,1.857051968574524
1789116114287225900,6.779225830078125,0.5332696437835693,0.05986303091049194,1.8075734376907349
1789116114306076200,6.798076171875,0.7678350210189819,-0.031153209507465363,1.835672378540039
1789116114324926500,6.816926513671875,0.8710681796073914,-0.18630841374397278,2.003044605255127
1789116114343776800,6.83577685546875,0.864959716796875,-0.31886225938796997,2.0629074573516846
1789116114362627300,6.85462744140625,0.8472451567649841,-0.446529358625412,2.1288790702819824
1789116114381477600,6.8734775390625,0.8454126119613647,-0.5491516590118408,2.2815909385681152
1789116114400328200,6.892328125,0.837471604347229,-0.44042086601257324,2.2883102893829346
1789116114419178500,6.911178466796875,0.7366818189620972,-0.44103172421455383,2.257767915725708
1789116114438028800,6.93002880859375,0.5137225389480591,-0.9248227477073669,2.2846450805664062
1789116114456879000,6.948879150390625,0.3127537965774536,-1.2100883722305298,2.113607883453369
1789116114475729700,6.967729736328125,0.32130566239356995,-0.5980194807052612,1.6432554721832275
1789116114494580000,6.986580078125,0.6230642199516296,0.18936264514923096,1.4013599157333374
1789116114513430500,7.005430419921875,0.9022213816642761,0.4306473135948181,1.0677610635757446
1789116114532280800,7.02428076171875,0.893058717250824,0.31947311758995056,0.4966188073158264
1789116114551131100,7.043131103515625,0.7287407517433167,0.16187451779842377,0.02626643143594265
1789116114569981700,7.061981689453125,0.5833591222763062,0.19913621246814728,-0.25411245226860046
1789116114588832000,7.08083203125,0.4618005156517029,0.31947311758995056,-0.42392799258232117
1789116114607682300,7.099682373046875,0.3286358118057251,0.3915531039237976,-0.5173876285552979
1789116114626532900,7.118532958984375,0.1301104724407196,0.5118899941444397,-0.8209787011146545
1789116114645383200,7.137383056640625,-0.0787992998957634,0.5888567566871643,-1.1783243417739868
1789116114664233500,7.1562333984375,-0.30847787857055664,0.70797199010849,-1.391586422920227
1789116114683084000,7.175083984375,-0.5845808386802673,0.8832851648330688,-1.5400222539901733
1789116114720785000,7.212784912109375,-1.1349542140960693,1.0830321311950684,-1.919358491897583
1789116114739635200,7.23163525390625,-1.3114891052246094,1.0970816612243652,-1.9877732992172241
1789116114777336000,7.269336181640625,-1.5192534923553467,0.7519529461860657,-2.050079822540283
1789116114796186400,7.288186279296875,-1.5400222539901733,0.37078428268432617,-2.0690159797668457
1789116114815037000,7.307036865234375,-1.4612230062484741,0.22601348161697388,-2.274871587753296
1789116114833887200,7.32588720703125,-1.285833477973938,0.15210096538066864,-2.4391894340515137
1789116114852737500,7.344737548828125,-1.1911520957946777,-0.1056765764951706,-2.4239182472229004
1789116114871588000,7.363588134765625,-1.1172395944595337,-0.48928865790367126,-2.373218059539795
1789116114890438400,7.3824384765625,-0.9810206890106201,-0.499673068523407,-2.362222671508789
1789116114918714000,7.410714111328125,-0.33291175961494446,-0.5870242118835449,-2.272428274154663
1789116114937564400,7.429564453125,-0.2736595869064331,-0.6200099587440491,-1.9621177911758423
1789116114956414700,7.448414794921875,-0.33535513281822205,-0.2999260127544403,-1.7293848991394043
1789116114975265300,7.467265380859375,-0.10201149433851242,-0.17958909273147583,-1.4392324686050415
1789116114994115600,7.486115478515625,0.07207997888326645,-0.18936264514923096,-0.9358180165290833
1789116115012966100,7.504966064453125,0.15271180868148804,-0.23945212364196777,-0.29748260974884033
1789116115031816400,7.52381640625,0.33535513281822205,-0.2229592502117157,0.14843589067459106
1789116115050666800,7.542666748046875,0.503948986530304,-0.20157960057258606,0.5021164417266846
1789116115069517300,7.561517333984375,0.5839699506759644,-0.05619794875383377,0.7922688722610474
1789116115088367600,7.58036767578125,0.6255075931549072,0.14965757727622986,1.0262234210968018
1789116115116643300,7.608643310546875,0.5387672781944275,0.5167768001556396,1.2742273807525635
1789116115173194500,7.665194580078125,0.04825693368911743,0.037261683493852615,1.2143644094467163
1789116115192044800,7.684044921875,0.009773556143045425,-0.1832541823387146,1.3995274305343628
1789116115210895400,7.702895263671875,0.18142163753509521,-0.16126367449760437,1.6395903825759888
1789116115229745700,7.72174560546875,0.3683409094810486,-0.06169557198882103,1.7843612432479858
1789116115258021400,7.750021484375,0.6053496599197388,-0.28098973631858826,1.8564411401748657
1789116115276871700,7.76887158203125,0.7769976854324341,-0.284654825925827,1.8564411401748657
1789116115305147400,7.7971474609375,0.9119949340820312,-0.11667182296514511,2.020759105682373
1789116115323997700,7.815997802734375,0.9150491952896118,-0.46302223205566406,2.1808011531829834
1789116115342848300,7.83484814453125,0.9455915689468384,-0.4856235682964325,2.2528810501098633
1789116115371124000,7.8631240234375,0.8405258059501648,-0.25594499707221985,2.233944892883301
1789116115389974300,7.881974365234375,0.7446228265762329,-0.45202696323394775,2.2528810501098633
1789116115437100300,7.929100341796875,0.46363306045532227,-0.731184184551239,1.6762412786483765
1789116115465376000,7.9573759765625,0.8490777015686035,0.15149012207984924,1.4154094457626343
1789116115503076600,7.99507666015625,0.9327637553215027,-0.17531315982341766,0.5454866290092468
1789116115559628000,8.0516279296875,0.4043808877468109,0.5851916670799255,-0.4477510452270508
1789116115625604400,8.117604248046876,-0.23823043704032898,0.9095515608787537,-1.299272060394287
1789116115691581000,8.183580810546875,-1.2100883722305298,1.1117420196533203,-1.7214438915252686
1789116115804683500,8.29668359375,-1.63592529296875,0.031153209507465363,-2.3078572750091553
1789116115880085200,8.372085205078125,-0.7696675658226013,-0.3518480062484741,-2.272428274154663
1789116115898935600,8.390935546875,-0.582748293876648,-0.2113531529903412,-2.150869607925415
1789116115974337300,8.466337158203125,0.033596597611904144,-0.3439069986343384,-0.4563029110431671
1789116116002613000,8.494613037109374,0.28404396772384644,-0.09345962852239609,0.25350162386894226
1789116116068589300,8.56058935546875,0.6652126908302307,0.0787992998957634,1.1948171854019165
1789116116134566000,8.62656591796875,0.09956810623407364,0.2217375487089157,1.4575579166412354
1789116116200542500,8.69254248046875,0.395218163728714,0.08490777015686035,1.8197903633117676
1789116116285369300,8.777369384765626,1.087918996810913,-0.33413344621658325,2.205235004425049
1789116116323070200,8.8150703125,0.9413156509399414,-0.42453885078430176,2.2883102893829346
1789116116407897000,8.89989697265625,0.8167027831077576,-0.01588202826678753,1.5504066944122314
1789116116426747600,8.91874755859375,0.8576295375823975,0.12461283802986145,1.1691616773605347
1789116116445598000,8.937597900390625,0.8545753359794617,-0.2089097648859024,0.754396378993988
1789116116464448500,8.956448486328124,0.7605048418045044,-0.25411245226860046,0.22601348161697388
1789116116483298800,8.975298828125,0.47829338908195496,-0.2089097648859024,0.14171656966209412
1789116116502149400,8.9941494140625,0.3915531039237976,-0.036039989441633224,0.03787253051996231
1789116116520999700,9.012999755859376,0.2901524603366852,0.1429382562637329,-0.29381752014160156
1789116116549275400,9.041275390625,-0.18569757044315338,0.4844018816947937,-0.6615476012229919
1789116116568126000,9.0601259765625,-0.36223241686820984,0.7165238261222839,-0.9639169573783875
1789116116586976300,9.078976318359375,-0.5149442553520203,0.7104153633117676,-1.166107416152954
1789116116605826800,9.097826904296875,-0.7207997441291809,0.7372926473617554,-1.262621283531189
1789116116624677000,9.116677001953125,-1.0146173238754272,0.7708892226219177,-1.3781477212905884
1789116116643527700,9.135527587890625,-1.3157650232315063,0.7458444833755493,-1.5363571643829346
1789116116662378000,9.1543779296875,-1.49848473072052,0.7464553713798523,-1.6408120393753052
1789116116681228500,9.173228515625,-1.616989016532898,0.8448017835617065,-1.8008540868759155
1789116116700078800,9.192078857421874,-1.7666466236114502,0.8118160367012024,-1.9065306186676025
1789116116718929400,9.210929443359374,-1.872934103012085,0.45263782143592834,-1.9285211563110352
1789116116737779700,9.22977978515625,-1.8320072889328003,0.24494975805282593,-2.0763461589813232
1789116116756630300,9.24863037109375,-1.6652460098266602,0.14904673397541046,-2.3664987087249756
1789116116775480600,9.26748046875,-1.4227396249771118,-0.27976804971694946,-2.391543388366699
1789116116794331100,9.2863310546875,-1.2302464246749878,-0.43797749280929565,-2.2418859004974365
1789116116813181400,9.305181396484375,-1.0537115335464478,-0.5650337338447571,-2.13315486907959
1789116116832032000,9.324031982421875,-0.8319739699363708,-0.5741963982582092,-2.0677943229675293
1789116116860307700,9.3523076171875,-0.6181774139404297,-0.6377245187759399,-1.831396460533142
1789116116879158000,9.371157958984375,-0.41171106696128845,-0.3646758198738098,-1.5846141576766968
1789116116898008600,9.390008544921875,-0.05925218388438225,-0.11483928561210632,-1.2045907974243164
1789116116916859000,9.40885888671875,0.004886778071522713,-0.3402419090270996,-0.5949652194976807
1789116116935709400,9.42770947265625,0.008551862090826035,-0.10995250940322876,-0.10017894953489304
1789116116954559700,9.446559814453124,0.3249707520008087,0.03787253051996231,0.2351761907339096
1789116116973410300,9.465410400390626,0.5302154421806335,0.007941014133393764,0.4960079789161682
1789116116992260600,9.484260498046876,0.5937435626983643,0.14110571146011353,0.7207997441291809
1789116117011111200,9.503111083984376,0.6383354067802429,0.2486148327589035,0.9535325765609741
1789116117029961700,9.521961669921875,0.5790832042694092,0.3133646547794342,1.1233481168746948
1789116117048812000,9.54081201171875,0.4679090082645416,0.18691925704479218,1.230857253074646
1789116117067662600,9.55966259765625,0.3695625960826874,-0.06047387793660164,1.2998830080032349
1789116117086513000,9.578512939453125,0.2748812735080719,-0.09468132257461548,1.2778924703598022
1789116117105363500,9.597363525390625,0.25472331047058105,-0.16004198789596558,1.2723948955535889
1789116117124213800,9.6162138671875,0.3683409094810486,-0.1582094430923462,1.4819917678833008
1789116117143064300,9.635064208984375,0.48928865790367126,-0.13377554714679718,1.7648141384124756
1789116117161914600,9.65391455078125,0.6175665855407715,-0.25777754187583923,1.8515543937683105
1789116117180765200,9.67276513671875,0.7580614686012268,-0.4172086715698242,1.8014649152755737
1789116117199615700,9.69161572265625,0.911384105682373,-0.32252734899520874,1.8387266397476196
1789116117218466000,9.710466064453126,1.054322361946106,-0.33230090141296387,1.9773889780044556
1789116117237316600,9.729316650390626,1.1160179376602173,-0.5803049206733704,2.1441502571105957
1789116117256167000,9.7481669921875,1.0757020711898804,-0.5760289430618286,2.1875205039978027
1789116117275017500,9.767017578125,0.9938485026359558,-0.4605788290500641,2.113607883453369
1789116117293867800,9.78586767578125,0.9187142848968506,-0.47585001587867737,2.10688853263855
1789116117312718300,9.80471826171875,0.856407880783081,-0.7140804529190063,2.1007800102233887
1789116117331568600,9.823568603515625,0.7348492741584778,-1.1038010120391846,2.040917158126831
1789116117359844400,9.85184423828125,0.7800519466400146,-0.6371136903762817,1.6389795541763306
1789116117378695000,9.87069482421875,1.0665392875671387,-0.10140064358711243,1.3255385160446167
1789116117397545200,9.889545166015624,1.1373976469039917,-0.2339545041322708,0.8570187091827393
1789116117416395800,9.908395751953124,0.9144383668899536,-0.26632940769195557,0.5063923597335815
1789116117435246300,9.927246337890624,0.7275190949440002,-0.09956810623407364,0.19974705576896667
1789116117454096600,9.9460966796875,0.5711421966552734,0.1979145109653473,-0.20768806338310242
1789116117472947200,9.964947265625,0.3396310806274414,0.34757208824157715,-0.5289937257766724
1789116117491797500,9.983797607421875,0.12766708433628082,0.6468872427940369,-0.8008207678794861
1789116117510648000,10.00264794921875,-0.06902574002742767,0.8496885299682617,-1.0286667346954346
1789116117529498400,10.021498291015625,-0.25777754187583923,0.9358180165290833,-1.3224843740463257
1789116117548349000,10.040348876953125,-0.45324867963790894,0.8783983588218689,-1.4960412979125977
1789116117567199500,10.059199462890625,-0.6597150564193726,0.8246437907218933,-1.6298168897628784
1789116117586049800,10.0780498046875,-0.938872218132019,0.9834640622138977,-1.6939557790756226
1789116117604900400,10.096900390625,-1.1942063570022583,1.1416735649108887,-1.7336609363555908
1789116117623750700,10.115750732421875,-1.389753818511963,1.123958945274353,-1.8332289457321167
1789116117642601200,10.134601318359374,-1.4728291034698486,1.0298885107040405,-1.9175258874893188
1789116117661451800,10.15345166015625,-1.5925551652908325,0.938872218132019,-1.941348910331726
1789116117680302000,10.172302001953126,-1.7122812271118164,0.6963658928871155,-2.070237636566162
1789116117699152600,10.191152587890626,-1.6744086742401123,0.3243598937988281,-2.28342342376709
1789116117736853500,10.228853515625,-1.4172420501708984,0.130721315741539,-2.4471304416656494
1789116117755703800,10.247703857421875,-1.2479609251022339,-0.0397050715982914,-2.4007060527801514
1789116117774554400,10.266554443359375,-0.9840749502182007,-0.3921639323234558,-2.3170199394226074
1789116117793405000,10.285405029296875,-0.7782194018363953,-0.3836120665073395,-2.252270221710205
1789116117812255200,10.304255126953125,-0.5796940326690674,-0.23884128034114838,-2.0250349044799805
1789116117831105800,10.323105712890625,-0.4489727318286896,-0.10262233763933182,-1.598052740097046
1789116117849956000,10.3419560546875,-0.30481278896331787,-0.09712471067905426,-1.0616525411605835
1789116117868806700,10.360806640625,-0.1973036676645279,-0.1185043677687645,-0.5387672781944275
1789116117887657000,10.379656982421874,-0.07391251623630524,-0.16309621930122375,-0.06047387793660164
1789116117906507500,10.398507568359374,0.16187451779842377,-0.05803048983216286,0.31947311758995056
1789116117925358000,10.417358154296876,0.416597843170166,0.10995250940322876,0.569309651851654
1789116117944208400,10.43620849609375,0.5619794726371765,0.09956810623407364,0.7794411182403564
1789116117963059000,10.455058837890626,0.5607577562332153,0.12644538283348083,1.0421054363250732
1789116117981909200,10.4739091796875,0.49295374751091003,0.2883199155330658,1.2333005666732788
1789116118000759800,10.492759765625,0.43858832120895386,0.29320669174194336,1.2247487306594849
1789116118019610400,10.5116103515625,0.31886225938796997,0.02870982140302658,1.206423282623291
1789116118038460700,10.530460693359375,0.24067382514476776,-0.11056335270404816,1.321873426437378
1789116118057311200,10.549311279296875,0.284654825925827,0.01832541823387146,1.3836454153060913
1789116118076161800,10.568161865234375,0.33474430441856384,-0.06413896381855011,1.450838565826416
1789116118095012000,10.58701220703125,0.40071579813957214,-0.3671191930770874,1.7464886903762817
1789116118113862700,10.605862548828124,0.5540384650230408,-0.393385648727417,2.0421388149261475
1789116118132713000,10.624712890625,0.7391251921653748,-0.2724378705024719,1.9517333507537842
1789116118151563500,10.6435634765625,0.9303203821182251,-0.24250635504722595,1.831396460533142
1789116118170414000,10.6624140625,0.9810206890106201,-0.25533416867256165,1.9908275604248047
1789116118189264400,10.681264404296876,1.0152281522750854,-0.31031039357185364,2.127657413482666
1789116118208115000,10.700114990234376,1.0592091083526611,-0.4068242609500885,2.2107326984405518
1789116118226965200,10.71896533203125,1.0628741979599,-0.33474430441856384,2.1746926307678223
1789116118245815800,10.73781591796875,1.0250016450881958,-0.29687178134918213,1.9621177911758423
1789116118264666000,10.756666015625,0.8991671800613403,-0.5760289430618286,1.8900377750396729
1789116118283516700,10.7755166015625,0.70308518409729,-1.1166287660598755,1.802075743675232
1789116118302367200,10.7943671875,0.7727217674255371,-0.8716790676116943,1.442286729812622
1789116118321217500,10.813217529296875,0.9859074950218201,-0.20646637678146362,1.1942063570022583
1789116118340068000,10.832068115234375,1.0274450778961182,-0.21623992919921875,0.9358180165290833
1789116118358918400,10.85091845703125,0.9303203821182251,-0.4856235682964325,0.6420004963874817
1789116118377769000,10.86976904296875,0.7507312893867493,-0.45019441843032837,0.3830012381076813
1789116118396619500,10.88861962890625,0.5601469278335571,-0.16615045070648193,0.10750912129878998
1789116118415469800,10.9074697265625,0.3530697226524353,0.15149012207984924,-0.14110571146011353
1789116118434320400,10.9263203125,0.06413896381855011,0.4715740978717804,-0.41110020875930786
1789116118453171000,10.9451708984375,-0.13438639044761658,0.6511631608009338,-0.7006418108940125
1789116118472021200,10.964021240234375,-0.2602209448814392,0.7091936469078064,-1.0476030111312866
1789116118490871800,10.982871826171875,-0.3695625960826874,0.656660795211792,-1.2998830080032349
1789116118509722000,11.00172216796875,-0.6371136903762817,0.8631271719932556,-1.3928080797195435
1789116118528572700,11.02057275390625,-0.9920159578323364,1.0384403467178345,-1.5412440299987793
1789116118547423200,11.03942333984375,-1.2186403274536133,1.0066763162612915,-1.673797845840454
1789116118566273500,11.0582734375,-1.3353121280670166,0.8832851648330688,-1.6817388534545898
1789116118585124000,11.0771240234375,-1.4270155429840088,1.0280559062957764,-1.793523907661438
1789116118603974400,11.095974365234374,-1.5632344484329224,0.9303203821182251,-1.9053089618682861
1789116118622825000,11.114824951171874,-1.7104486227035522,0.7055285573005676,-1.9272994995117188
1789116118641675500,11.133675537109376,-1.729995846748352,0.4422534108161926,-2.0506906509399414
1789116118660525800,11.15252587890625,-1.5638453960418701,0.007330167107284069,-2.260822057723999
1789116118679376400,11.17137646484375,-1.2864443063735962,-0.4062134325504303,-2.387878179550171
1789116118698226700,11.190226806640625,-1.1123528480529785,-0.418430358171463,-2.3029704093933105
1789116118717077200,11.2090771484375,-0.8759549856185913,-0.363454133272171,-2.3316802978515625
1789116118735927800,11.227927734375,-0.6615476012229919,-0.2987042963504791,-2.315798282623291
1789116118754778000,11.246778076171875,-0.5082249045372009,-0.3023693859577179,-2.0604641437530518
1789116118839605200,11.331605224609374,0.09590301662683487,0.026877280324697495,-0.3280249834060669
1789116118858455600,11.35045556640625,0.30481278896331787,0.020157959312200546,0.0006108472589403391
1789116118877306000,11.36930615234375,0.342074453830719,-0.05741964280605316,0.3549022674560547
1789116118896156700,11.38815673828125,0.46668729186058044,0.17653486132621765,0.6639909744262695
1789116118915007000,11.407007080078126,0.633448600769043,0.45080527663230896,0.8539644479751587
1789116118933857500,11.425857421875,0.6731536984443665,0.3536805510520935,1.0146173238754272
1789116118952708000,11.4447080078125,0.5839699506759644,0.1429382562637329,1.165496587753296
1789116118971558400,11.463558349609375,0.4282039403915405,0.08246438205242157,1.2644537687301636
1789116118990409000,11.482408935546875,0.393385648727417,-0.08857285231351852,1.3689850568771362
1789116119009259300,11.50125927734375,0.2980934679508209,-0.08063183724880219,1.4386216402053833
1789116119028109800,11.52010986328125,0.2852656841278076,-0.0910162404179573,1.5045931339263916
1789116119046960400,11.53896044921875,0.37139514088630676,-0.13316470384597778,1.6340928077697754
1789116119065810700,11.557810791015624,0.4868452548980713,-0.04459185153245926,1.8234554529190063
1789116119084661200,11.5766611328125,0.6902574300765991,-0.20707722008228302,1.9211909770965576
1789116119103511600,11.595511474609374,0.8423583507537842,-0.11300674080848694,1.9132499694824219
1789116119122362000,11.614362060546876,0.9150491952896118,-0.13499724864959717,1.9389055967330933
1789116119141212700,11.633212646484376,0.9425373077392578,-0.34696123003959656,2.0073204040527344
1789116119160063000,11.65206298828125,1.0451596975326538,-0.2980934679508209,2.0048770904541016
1789116119178913500,11.67091357421875,1.166107416152954,-0.20524467527866364,2.006098747253418
1789116119197763800,11.689763916015625,1.0421054363250732,-0.3903313875198364,2.0311434268951416
1789116119216614400,11.708614501953125,0.8435800671577454,-0.9474241137504578,2.0024337768554688
1789116119235465000,11.72746484375,0.6896465420722961,-1.041494607925415,1.853997826576233
1789116119254315300,11.746315185546875,0.648108959197998,-0.6200099587440491,1.5504066944122314
1789116119273165800,11.765165771484375,0.8075400590896606,-0.2852656841278076,1.5131449699401855
1789116119292016400,11.784016357421875,0.8625163435935974,-0.3127537965774536,1.1771026849746704
1789116119310866700,11.80286669921875,0.7226322889328003,-0.40193748474121094,0.7379034757614136
1789116119329717200,11.82171728515625,0.6407787799835205,-0.2363978922367096,0.49356457591056824
1789116119348567600,11.840567626953124,0.5564818382263184,-0.05070032179355621,0.22906772792339325
1789116119367418000,11.859418212890626,0.34512871503829956,0.2718270421028137,-0.033596597611904144
1789116119386268700,11.8782685546875,0.19913621246814728,0.33352261781692505,-0.26755109429359436
1789116119405119000,11.897118896484375,0.034818295389413834,0.3897205591201782,-0.6426113247871399
1789116119423969500,11.915969482421875,-0.20646637678146362,0.5711421966552734,-0.9138274788856506
1789116119442820000,11.934820068359375,-0.4563029110431671,0.8515210747718811,-1.0744802951812744
1789116119461670400,11.95367041015625,-0.7995990514755249,0.9620844125747681,-1.294385313987732
1789116119480521000,11.97252099609375,-1.0683718919754028,0.8942803740501404,-1.362265706062317
1789116119499371300,11.991371337890625,-1.2259705066680908,0.9284878373146057,-1.4215179681777954
1789116119518221800,12.010221923828125,-1.4141877889633179,0.9523108601570129,-1.5339138507843018
1789116119537072400,12.029072265625,-1.5601803064346313,0.9797990322113037,-1.6701327562332153
1789116119555922700,12.047922607421874,-1.6805171966552734,0.7128587365150452,-1.6615809202194214
1789116119574773200,12.066773193359374,-1.8087950944900513,0.5015056133270264,-1.664635181427002
1789116119593623800,12.085623779296874,-1.8417809009552002,0.3573456406593323,-1.886372685432434
1789116119612474000,12.10447412109375,-1.714113712310791,0.1575985997915268,-2.0574100017547607
1789116119631324700,12.12332470703125,-1.5772839784622192,-0.1563768982887268,-2.105056047439575
1789116119650175000,12.142175048828125,-1.4154094457626343,-0.33230090141296387,-2.1636972427368164
1789116119669025500,12.161025634765625,-1.1740484237670898,-0.2993151545524597,-2.2962512969970703
1789116119687876000,12.1798759765625,-0.9413156509399414,-0.45508119463920593,-2.2308905124664307
1789116119706726400,12.198726318359375,-0.7427902817726135,-0.4618005156517029,-2.116051197052002
1789116119725577000,12.217576904296875,-0.5454866290092468,-0.20402298867702484,-1.9822757244110107
1789116119744427300,12.23642724609375,-0.312142938375473,-0.13316470384597778,-1.7257198095321655
1789116119763277800,12.25527783203125,-0.0647498071193695,-0.14782503247261047,-1.281557559967041
1789116119782128400,12.27412841796875,-0.006108472589403391,-0.1948602795600891,-0.7550072073936462
1789116119800978700,12.292978759765624,0.06902574002742767,-0.18019993603229523,-0.28282228112220764
1789116119819829200,12.311829345703124,0.19241689145565033,-0.14782503247261047,0.08063183724880219
1789116119838679800,12.3306796875,0.3396310806274414,-0.16248537600040436,0.38849884271621704
1789116119857530000,12.349530029296876,0.47707170248031616,-0.16431790590286255,0.6920899152755737
1789116119876380700,12.368380615234376,0.5809157490730286,-0.0922379344701767,0.9272661209106445
1789116119895231000,12.38723095703125,0.5858024954795837,0.14660334587097168,1.1178505420684814
1789116119914081500,12.40608154296875,0.49234288930892944,0.38788801431655884,1.1771026849746704
1789116119932932000,12.42493212890625,0.37078428268432617,0.10201149433851242,1.1251806020736694
1789116119951782400,12.443782470703125,0.20402298867702484,-0.22051586210727692,1.1086877584457397
1789116119970633000,12.462633056640625,0.11117420345544815,-0.12033691257238388,1.1972606182098389
1789116119989483300,12.481483154296875,0.15332266688346863,-0.19363857805728912,1.359822392463684
1789116120008333800,12.500333740234375,0.2779355049133301,-0.13805148005485535,1.5760623216629028
1789116120027184400,12.519184326171874,0.47646087408065796,-0.1979145109653473,1.783750295639038
1789116120046034700,12.53803466796875,0.7678350210189819,-0.12033691257238388,1.909584879875183
1789116120064885200,12.55688525390625,0.9859074950218201,0.053143709897994995,1.8851510286331177
1789116120083735600,12.575735595703126,1.0653176307678223,-0.33169007301330566,1.965782880783081
1789116120102586000,12.594586181640626,1.0714260339736938,-0.6230642199516296,2.1661407947540283
1789116120121436700,12.613436767578126,1.0396620035171509,-0.5082249045372009,2.1979048252105713
1789116120140287000,12.632286865234375,0.9352071285247803,-0.5381564497947693,2.1783576011657715
1789116120159137500,12.651137451171875,0.9315420985221863,-0.5289937257766724,2.1985156536102295
1789116120177988000,12.669988037109375,0.9608627557754517,-0.5033381581306458,2.0415279865264893
1789116120196838400,12.68883837890625,0.8203678727149963,-0.8350282311439514,1.872934103012085
1789116120215689000,12.70768896484375,0.6957550048828125,-1.2070342302322388,1.7171679735183716
1789116120234539300,12.726539306640625,0.8032641410827637,-0.7061394453048706,1.4294589757919312
1789116120253389800,12.745389892578125,1.0262234210968018,-0.20219044387340546,1.1740484237670898
1789116120272240400,12.764240478515624,1.0433270931243896,-0.2583884000778198,0.8301414251327515
1789116120291090700,12.783090576171874,0.9407047629356384,-0.28343313932418823,0.3921639323234558
1789116120309941200,12.801941162109374,0.7458444833755493,-0.007330167107284069,0.06902574002742767
1789116120328791600,12.82079150390625,0.4960079789161682,0.17409147322177887,-0.15026842057704926
1789116120347642000,12.83964208984375,0.37444937229156494,0.3402419090270996,-0.3365768492221832
1789116120366492700,12.85849267578125,0.1569877415895462,0.48989951610565186,-0.4691306948661804
1789116120385343000,12.877343017578125,-0.0794101431965828,0.6810947060585022,-0.7336275577545166
1789116120404193500,12.896193603515625,-0.31947311758995056,0.8032641410827637,-1.0421054363250732
1789116120423043800,12.9150439453125,-0.5033381581306458,0.9284878373146057,-1.235133171081543
1789116120441894400,12.933894287109375,-0.7342383861541748,1.0958600044250488,-1.3512704372406006
1789116120460745000,12.952744873046875,-1.0445488691329956,1.1349542140960693,-1.5339138507843018
1789116120479595300,12.97159521484375,-1.2864443063735962,1.0750911235809326,-1.7073944807052612
1789116120498445800,12.99044580078125,-1.4410650730133057,0.9810206890106201,-1.7171679735183716
1789116120517296400,13.00929638671875,-1.52475106716156,0.9926267862319946,-1.7923022508621216
1789116120536146700,13.028146728515624,-1.625540852546692,0.8307522535324097,-1.9254668951034546
1789116120554997200,13.046997314453124,-1.6890690326690674,0.4862344264984131,-1.9682261943817139
1789116120573847600,13.06584765625,-1.6774629354476929,0.25777754187583923,-2.171638250350952
1789116120592698000,13.084697998046876,-1.5516283512115479,0.19241689145565033,-2.404982089996338
1789116120611548700,13.103548583984375,-1.4080792665481567,-0.004886778071522713,-2.359168529510498
1789116120630399000,13.12239892578125,-1.2840009927749634,-0.2999260127544403,-2.2565460205078125
1789116120649249500,13.14124951171875,-1.1038010120391846,-0.4086568057537079,-2.2828125953674316
1789116120668099800,13.160099853515625,-0.8802309036254883,-0.36284327507019043,-2.2327229976654053
1789116120686950400,13.178950439453125,-0.6670452356338501,-0.2583884000778198,-2.0097639560699463
1789116120705801000,13.197801025390625,-0.4086568057537079,-0.21379654109477997,-1.7422127723693848
1789116120724651300,13.2166513671875,-0.17714570462703705,-0.15515519678592682,-1.455114483833313
1789116120743501800,13.235501708984375,-0.12705622613430023,-0.26877278089523315,-0.9602518677711487
1789116120762352000,13.25435205078125,-0.09407047927379608,-0.34512871503829956,-0.314586341381073
1789116120781202700,13.27320263671875,0.062306419014930725,-0.20035789906978607,0.08796200156211853
1789116120800053200,13.29205322265625,0.29687178134918213,0.006719320081174374,0.337798535823822
1789116120818903600,13.310903564453126,0.497229665517807,0.023212196305394173,0.6169557571411133
1789116120837754000,13.329754150390626,0.6432221531867981,0.07574506103992462,0.9003888368606567
1789116120856604400,13.3486044921875,0.6615476012229919,0.20157960057258606,1.0805888175964355
1789116120875455000,13.367455078125,0.5100574493408203,0.1185043677687645,1.1850436925888062
1789116120894305500,13.386305419921875,0.28160059452056885,0.1459924876689911,1.277281641960144
1789116120913155800,13.40515576171875,0.1850867122411728,0.2608317732810974,1.2797249555587769
1789116120932006400,13.42400634765625,0.22051586210727692,0.20707722008228302,1.1954281330108643
1789116120950856700,13.442856689453125,0.3139754831790924,-0.028098974376916885,1.2387982606887817
1789116120969707300,13.461707275390625,0.49051034450531006,-0.12461283802986145,1.5174208879470825
1789116120988557800,13.480557861328125,0.6004628539085388,-0.02993151545524597,1.7361042499542236
1789116121007408000,13.499408203125,0.6316160559654236,-0.10323318839073181,1.6945666074752808
1789116121026258700,13.5182587890625,0.6853706240653992,-0.21257483959197998,1.6664676666259766
1789116121045109000,13.53710888671875,0.8411366939544678,-0.3524588644504547,1.821012020111084
1789116121063959600,13.55595947265625,1.0531007051467896,-0.49417543411254883,2.0225915908813477
1789116121082810000,13.57481005859375,1.2216944694519043,-0.5283828973770142,2.1062777042388916
1789116121101660400,13.593660400390625,1.1538904905319214,-0.6022953987121582,2.0622966289520264
1789116121120511000,13.612510986328125,1.0121738910675049,-0.48806697130203247,2.014650583267212
1789116121139361300,13.631361328125,0.8985562920570374,-0.7116370797157288,2.1227705478668213
1789116121158211800,13.6502119140625,0.7495095729827881,-1.1490037441253662,2.203402519226074
1789116121177062400,13.6690625,0.6639909744262695,-1.2418525218963623,2.043971300125122
1789116121195912700,13.68791259765625,0.7299624681472778,-0.6004628539085388,1.6774629354476929
1789116121214763300,13.70676318359375,0.8814526200294495,0.011606098152697086,1.3378318548202515
1789116121243039000,13.7350390625,0.9016105532646179,0.07330167293548584,0.6041279435157776
1789116121261889300,13.75388916015625,0.7519529461860657,0.08612946420907974,0.3439069986343384
1789116121280739800,13.77273974609375,0.624896764755249,0.056808795779943466,0.04214845970273018
1789116121299590100,13.791590087890626,0.5332696437835693,0.1563768982887268,-0.2101314514875412
1789116121327865900,13.819865966796876,0.2895416021347046,0.1966928243637085,-0.4489727318286896
1789116121346716400,13.83871630859375,0.0781884491443634,0.22967857122421265,-0.6401679515838623
1789116121365566700,13.857566650390625,-0.17775654792785645,0.4703523814678192,-0.7476770281791687
1789116121384417300,13.876417236328125,-0.4202629029750824,0.8087617754936218,-0.9266552925109863
1789116121403267600,13.895267578125,-0.712247908115387,0.9724688529968262,-1.1551121473312378
1789116121422118100,13.9141181640625,-1.0201148986816406,0.9052756428718567,-1.290109395980835
1789116121440968700,13.93296875,-1.2717839479446411,0.9107732772827148,-1.4581687450408936
1789116121459819000,13.951819091796875,-1.446562647819519,0.8961129188537598,-1.6163781881332397
1789116121478669600,13.970669677734374,-1.6072155237197876,0.8887827396392822,-1.659137487411499
1789116121497519900,13.989519775390624,-1.6487531661987305,0.6908682584762573,-1.7263307571411133
1789116121516370400,14.008370361328126,-1.631649374961853,0.624896764755249,-1.872934103012085
1789116121535221000,14.027220947265626,-1.6536399126052856,0.5241069197654724,-2.0690159797668457
1789116121554071300,14.0460712890625,-1.6066046953201294,0.30664533376693726,-2.243718385696411
1789116121572921900,14.064921875,-1.4581687450408936,0.12705622613430023,-2.3744397163391113
1789116121591772200,14.083772216796875,-1.3439403772354126,-0.02626643143594265,-2.3726069927215576
1789116121610622700,14.102622802734375,-1.1984822750091553,-0.2241809368133545,-2.3371779918670654
1789116121629473000,14.12147314453125,-0.8893936276435852,-0.4086568057537079,-2.316409111022949
1789116121648323600,14.140323486328125,-0.6719319820404053,-0.36162158846855164,-2.1985156536102295
1789116121667174000,14.159173828125,-0.48928865790367126,-0.46302223205566406,-1.9999902248382568
1789116121686024400,14.1780244140625,-0.36101073026657104,-0.4031592011451721,-1.6298168897628784
1789116121704875000,14.196875,-0.26816195249557495,-0.3280249834060669,-1.166107416152954
1789116121723725300,14.215725341796874,-0.06719319522380829,-0.1178935244679451,-0.7556180357933044
1789116121742575900,14.234575927734374,0.10689827054738998,-0.14965757727622986,-0.32313820719718933
1789116121761426200,14.25342626953125,0.24556060135364532,-0.1966928243637085,0.08735115826129913
1789116121780276700,14.27227685546875,0.46485477685928345,-0.08979454636573792,0.46729815006256104
1789116121808552400,14.300552490234375,0.684148907661438,0.07207997888326645,0.9211576581001282
1789116121827402800,14.31940283203125,0.6493306159973145,0.16248537600040436,1.090362310409546
1789116121846253300,14.33825341796875,0.5497625470161438,0.1575985997915268,1.2247487306594849
1789116121865103600,14.357103515625,0.4599680006504059,0.17836740612983704,1.3114891052246094
1789116121883954200,14.3759541015625,0.367730051279068,0.09590301662683487,1.3708176612854004
1789116121902804500,14.394804443359375,0.2877090573310852,-0.031153209507465363,1.4325132369995117
1789116121921655000,14.413655029296875,0.21440738439559937,-0.03237490355968475,1.5021498203277588
1789116121940505300,14.43250537109375,0.2235700935125351,0.0006108472589403391,1.5675103664398193
1789116121959356000,14.45135595703125,0.26755109429359436,-0.08674030750989914,1.686625599861145
1789116121978206500,14.47020654296875,0.38544461131095886,-0.17775654792785645,1.7770310640335083
1789116121997056800,14.489056884765626,0.6016845703125,-0.14721418917179108,1.687847375869751
1789116122015907300,14.5079072265625,0.8246437907218933,-0.12644538283348083,1.7177788019180298
1789116122034757600,14.526757568359375,0.9773555994033813,-0.3542914092540741,1.9682261943817139
1789116122053608200,14.545608154296875,1.0219475030899048,-0.5143333673477173,2.0677943229675293
1789116122072458500,14.56445849609375,0.9914051294326782,-0.5326588153839111,2.0855088233947754
1789116122091309000,14.58330908203125,0.9663603901863098,-0.5540384650230408,2.0647401809692383
1789116122110159400,14.602159423828125,0.9859074950218201,-0.6487197875976562,1.9462357759475708
1789116122129010000,14.621010009765625,0.8386932611465454,-0.7531746625900269,1.8668255805969238
1789116122147860500,14.639860595703125,0.6633801460266113,-0.9718579649925232,1.8625496625900269
1789116122166710800,14.658710693359374,0.786771297454834,-0.6762079000473022,1.682349681854248
1789116122185561300,14.677561279296874,1.0207257270812988,-0.1716480851173401,1.299272060394287
1789116122204411600,14.69641162109375,0.9553651213645935,-0.1985253542661667,0.8802309036254883
1789116122223262200,14.71526220703125,0.7201889157295227,-0.33230090141296387,0.6774296164512634
1789116122242112500,14.734112548828126,0.5662553906440735,-0.2748812735080719,0.4691306948661804
1789116122260963000,14.752963134765626,0.4489727318286896,-0.07696675509214401,0.14049486815929413
1789116122279813400,14.7718134765625,0.3927747905254364,0.08185353130102158,-0.13560809195041656
1789116122298664000,14.790663818359375,0.28160059452056885,0.2852656841278076,-0.42392799258232117
1789116122317514200,14.80951416015625,0.0916270911693573,0.5204418897628784,-0.7036960124969482
1789116122336364800,14.82836474609375,-0.09468132257461548,0.7702783942222595,-0.896723747253418
1789116122355215000,14.847215087890625,-0.25716668367385864,0.9144383668899536,-1.1465603113174438
1789116122374065700,14.866065673828125,-0.4990622103214264,0.833195686340332,-1.3182083368301392
1789116122392916000,14.884916015625,-0.7898254990577698,0.9773555994033813,-1.4160202741622925
1789116122411766500,14.9037666015625,-1.0708152055740356,1.0066763162612915,-1.5198643207550049
1789116122430617000,14.9226171875,-1.299272060394287,0.9541434049606323,-1.6328710317611694
1789116122449467400,14.94146728515625,-1.4111335277557373,0.8570187091827393,-1.6560832262039185
1789116122468317700,14.960317626953126,-1.4807701110839844,0.8832851648330688,-1.7452670335769653
1789116122487168300,14.979168212890626,-1.6047720909118652,0.7207997441291809,-1.863160490989685
1789116122506018800,14.998018798828125,-1.7135028839111328,0.4056025743484497,-2.01526141166687
1789116122524869000,15.016869140625,-1.6811280250549316,0.25350162386894226,-2.1893529891967773
1789116122543719700,15.0357197265625,-1.5497958660125732,0.21746163070201874,-2.231501340866089
1789116122562570000,15.054570068359375,-1.4074684381484985,-0.004275931045413017,-2.2589895725250244
1789116122581420500,15.073420654296875,-1.1685508489608765,-0.18997350335121155,-2.2993054389953613
1789116122600270800,15.092270751953125,-0.9211576581001282,-0.21257483959197998,-2.2962512969970703
1789116122619121400,15.111121337890625,-0.7421793937683105,-0.2339545041322708,-2.171638250350952
1789116122637971700,15.1299716796875,-0.6529957056045532,-0.19974705576896667,-1.867436408996582
1789116122656822300,15.148822265625,-0.5198310017585754,-0.342074453830719,-1.5064257383346558
1789116122675672600,15.167672607421874,-0.2987042963504791,-0.2620534598827362,-1.2333005666732788
1789116122694523100,15.186523193359376,-0.13316470384597778,-0.28160059452056885,-0.9150491952896118
1789116122713373400,15.20537353515625,-0.07574506103992462,-0.4477510452270508,-0.284654825925827
1789116122732224000,15.22422412109375,0.18875180184841156,-0.20707722008228302,0.21257483959197998
1789116122751074300,15.24307421875,0.4159869849681854,0.07696675509214401,0.40987852215766907
1789116122769924900,15.2619248046875,0.46729815006256104,0.045202698558568954,0.6328377723693848
1789116122788775200,15.280775146484375,0.48806697130203247,0.1185043677687645,0.9633061289787292
1789116122807625700,15.299625732421875,0.48806697130203247,0.1313321590423584,1.2058124542236328
1789116122826476000,15.31847607421875,0.41537612676620483,-0.007941014133393764,1.298661231994629
1789116122845326600,15.33732666015625,0.32374903559684753,0.037261683493852615,1.2864443063735962
1789116122864177000,15.356177001953125,0.2852656841278076,0.037261683493852615,1.230857253074646
1789116122883027500,15.37502734375,0.25472331047058105,-0.05131116881966591,1.206423282623291
1789116122901877800,15.393877685546874,0.22540263831615448,-0.11361759155988693,1.317597508430481
1789116122920728000,15.41272802734375,0.2980934679508209,-0.19119518995285034,1.5546826124191284
1789116122939578600,15.43157861328125,0.4599680006504059,-0.13866232335567474,1.7758092880249023
1789116122958429200,15.45042919921875,0.648108959197998,-0.11483928561210632,1.8191795349121094
1789116122977279500,15.469279541015625,0.8484668135643005,-0.2987042963504791,1.7727551460266113
1789116122996129800,15.4881298828125,0.9804098606109619,-0.37444937229156494,1.8155144453048706
1789116123014980400,15.50698046875,1.0799779891967773,-0.46729815006256104,1.9108065366744995
1789116123033830700,15.52583056640625,1.1031901836395264,-0.5241069197654724,1.9957143068313599
1789116123052681200,15.54468115234375,1.0555440187454224,-0.578472375869751,2.093449831008911
1789116123071531500,15.563531494140625,1.0323318243026733,-0.5686988234519958,2.050079822540283
1789116123090382000,15.582382080078125,0.9730796813964844,-0.6426113247871399,1.9621177911758423
1789116123109232400,15.601232421875,0.8319739699363708,-0.971247136592865,1.9480682611465454
1789116123128083000,15.6200830078125,0.7721109390258789,-1.1874871253967285,1.932186245918274
1789116123146933200,15.638933349609376,0.8484668135643005,-0.6939224600791931,1.6744086742401123
1789116123165783800,15.65778369140625,0.9962918758392334,-0.17409147322177887,1.4178528785705566
1789116123184634000,15.676634033203126,1.0567657947540283,-0.11178504675626755,1.003622055053711
1789116123203484400,15.695484375,0.9474241137504578,0.04703523963689804,0.5540384650230408
1789116123222335000,15.7143349609375,0.762948215007782,0.11422843486070633,0.2113531529903412
1789116123241185300,15.733185302734375,0.605960488319397,0.10934165865182877,-0.10689827054738998
1789116123260035800,15.752035888671875,0.4703523814678192,0.20585553348064423,-0.37322768568992615
1789116123278886100,15.77088623046875,0.29565006494522095,0.3524588644504547,-0.4446968138217926
1789116123297736700,15.78973681640625,0.13805148005485535,0.30908870697021484,-0.6572716236114502
1789116123316587000,15.8085869140625,0.02076880633831024,0.3249707520008087,-0.943759024143219
1789116123335437600,15.8274375,-0.16309621930122375,0.6029062271118164,-1.1025793552398682
1789116123354287900,15.846287841796874,-0.49234288930892944,0.8985562920570374,-1.2424633502960205
1789116123373138200,15.86513818359375,-0.7922688722610474,0.9797990322113037,-1.3744826316833496
1789116123391988700,15.88398876953125,-1.0024003982543945,0.9553651213645935,-1.419074535369873
1789116123410839000,15.902839111328126,-1.1807677745819092,1.106244444847107,-1.5693429708480835
1789116123429689600,15.921689697265625,-1.3946406841278076,1.1764918565750122,-1.7550405263900757
1789116123448540000,15.940539794921875,-1.5626236200332642,0.9229902029037476,-1.7813069820404053
1789116123467390500,15.959390380859375,-1.6536399126052856,0.6096255779266357,-1.7721441984176636
1789116123486240800,15.97824072265625,-1.683571457862854,0.47829338908195496,-1.9584527015686035
1789116123505091000,15.997091064453125,-1.5888900756835938,0.43736663460731506,-2.2076783180236816
1789116123523941600,16.015941650390626,-1.4771050214767456,0.3115321099758148,-2.2253928184509277
1789116123542792000,16.0347919921875,-1.3720393180847168,0.03787253051996231,-2.150258779525757
1789116123561642500,16.053642578125,-1.2168077230453491,-0.0390942245721817,-2.205845832824707
1789116123580492800,16.072492919921874,-1.012784719467163,-0.08551861345767975,-2.205845832824707
1789116123599343000,16.091343017578126,-0.8252546191215515,-0.24311721324920654,-2.0995583534240723
1789116123618193700,16.110193603515626,-0.6432221531867981,-0.32191649079322815,-1.908974051475525
1789116123637044000,16.1290439453125,-0.4746283292770386,-0.2651077210903168,-1.6279842853546143
1789116123655894500,16.14789453125,-0.33291175961494446,-0.17531315982341766,-1.3169866800308228
1789116123674744800,16.166744873046873,-0.15943112969398499,-0.1301104724407196,-1.0531007051467896
1789116123693595100,16.18559521484375,0.0024433890357613564,-0.16004198789596558,-0.6267293095588684
1789116123712445700,16.20444580078125,0.12339114397764206,-0.1447708010673523,-0.12033691257238388
1789116123731296000,16.2232958984375,0.261442631483078,-0.26816195249557495,0.37444937229156494
1789116123750146600,16.242146484375,0.48012593388557434,-0.17653486132621765,0.6957550048828125
1789116123768996900,16.260996826171876,0.6804838180541992,0.08674030750989914,0.8496885299682617
1789116123787847200,16.27984716796875,0.7159129977226257,0.1979145109653473,1.0091196298599243
1789116123806697700,16.29869775390625,0.5699204802513123,0.32130566239356995,1.147171139717102
1789116123825548000,16.317548095703124,0.41415444016456604,0.2638860046863556,1.1697725057601929
1789116123844398600,16.336398681640624,0.22662433981895447,0.09529217332601547,1.1270132064819336
1789116123863249000,16.355248779296875,0.07696675509214401,-0.07330167293548584,1.1636639833450317
1789116123882099200,16.37409912109375,0.12461283802986145,-0.12461283802986145,1.326149344444275
1789116123900949800,16.39294970703125,0.30481278896331787,0.00916270911693573,1.5131449699401855
1789116123919800000,16.411800048828123,0.5210527181625366,-0.045202698558568954,1.6695219278335571
1789116123938650600,16.430650634765627,0.6646018028259277,-0.07635590434074402,1.7996324300765991
1789116123957501000,16.4495009765625,0.7776085734367371,-0.13866232335567474,1.8118493556976318
1789116123976351200,16.468351318359375,0.8655705451965332,-0.26755109429359436,1.7880263328552246
1789116123995201800,16.487201904296874,0.9278770089149475,-0.3927747905254364,1.8845402002334595
1789116124014052000,16.506052001953126,1.0262234210968018,-0.4459185004234314,2.0219807624816895
1789116124032902400,16.52490234375,1.0909732580184937,-0.3304683566093445,2.006709575653076
1789116124051753000,16.5437529296875,1.0237799882888794,-0.3408527672290802,1.945624828338623
1789116124070603300,16.562603271484374,0.9657495021820068,-0.3823903799057007,1.927910327911377
1789116124089453800,16.581453857421874,0.9260444641113281,-0.4172086715698242,1.8765991926193237
1789116124108304100,16.60030419921875,0.7702783942222595,-0.8790091872215271,1.8894269466400146
1789116124127154400,16.619154541015625,0.7104153633117676,-1.0909732580184937,1.8008540868759155
1789116124146005000,16.6380048828125,0.9718579649925232,-0.5369347333908081,1.520475149154663
1789116124164855300,16.656855224609377,1.0158389806747437,-0.3011476993560791,1.156944751739502
1789116124183705600,16.67570556640625,0.8790091872215271,-0.24128466844558716,0.7006418108940125
1789116124202556200,16.69455615234375,0.7440119385719299,-0.1301104724407196,0.34940463304519653
1789116124221406500,16.713406494140624,0.5711421966552734,-0.04459185153245926,0.10201149433851242
1789116124240256800,16.7322568359375,0.3396310806274414,0.18142163753509521,-0.16309621930122375
1789116124259107300,16.751107421875,0.09895725548267365,0.26694026589393616,-0.29687178134918213
1789116124277957600,16.76995751953125,-0.02504473738372326,0.33718767762184143,-0.5173876285552979
1789116124296808000,16.788807861328124,-0.15943112969398499,0.4355340898036957,-0.8441908955574036
1789116124315658500,16.807658447265624,-0.3946073353290558,0.6267293095588684,-1.1025793552398682
1789116124334508800,16.8265087890625,-0.605960488319397,0.7653915882110596,-1.206423282623291
1789116124353359000,16.845359130859375,-0.7605048418045044,0.8631271719932556,-1.3224843740463257
1789116124372209700,16.864209716796875,-0.9785773158073425,0.893058717250824,-1.4575579166412354
1789116124391060000,16.88306005859375,-1.2449066638946533,0.8307522535324097,-1.5730080604553223
1789116124409910300,16.90191015625,-1.4905437231063843,0.7501204609870911,-1.571175456047058
1789116124428760800,16.9207607421875,-1.6011070013046265,0.8124268651008606,-1.6004961729049683
1789116124447611100,16.939611083984374,-1.6890690326690674,0.8197570443153381,-1.734271764755249
1789116124466461400,16.95846142578125,-1.7306066751480103,0.5137225389480591,-1.8827075958251953
1789116124485312000,16.97731201171875,-1.690901517868042,0.20585553348064423,-1.9566200971603394
1789116124504162300,16.996162353515626,-1.576673150062561,0.13744063675403595,-2.1203272342681885
1789116124523012600,17.0150126953125,-1.410522699356079,0.08429691940546036,-2.2596004009246826
1789116124541863200,17.03386328125,-1.309045672416687,-0.08490777015686035,-2.2993054389953613
1789116124560713500,17.05271337890625,-1.1734375953674316,-0.2211267054080963,-2.289531946182251
1789116124579563800,17.071563720703125,-0.9022213816642761,-0.17409147322177887,-2.1905746459960938
1789116124598414300,17.090414306640625,-0.6071822047233582,-0.10689827054738998,-2.048858165740967
1789116124617264600,17.1092646484375,-0.4556920528411865,-0.17348061501979828,-1.816736102104187
1789116124636115000,17.128114990234376,-0.33291175961494446,-0.030542362481355667,-1.419074535369873
1789116124654965200,17.14696533203125,-0.09712471067905426,-0.10689827054738998,-0.9236010313034058
1789116124673815800,17.16581591796875,0.016492875292897224,-0.1423274129629135,-0.43981003761291504
1789116124692666000,17.184666015625,0.11483928561210632,-0.20157960057258606,-0.10811996459960938
1789116124711516400,17.203516357421876,0.2602209448814392,-0.25472331047058105,0.22051586210727692
1789116124730367000,17.222366943359376,0.44103172421455383,0.01588202826678753,0.5473191738128662
1789116124749217300,17.24121728515625,0.6285618543624878,0.008551862090826035,0.7275190949440002
1789116124768067600,17.260067626953123,0.6725428104400635,-0.11483928561210632,0.8820634484291077
1789116124786918000,17.27891796875,0.5412106513977051,-0.13805148005485535,1.0891406536102295
1789116124805768400,17.2977685546875,0.4220954477787018,0.08368607610464096,1.2742273807525635
1789116124824618800,17.31661865234375,0.30481278896331787,0.17958909273147583,1.3549355268478394
1789116124843469000,17.335468994140626,0.2211267054080963,0.08735115826129913,1.2681188583374023
1789116124862319400,17.3543193359375,0.18753011524677277,-0.029320668429136276,1.1483927965164185
1789116124881170000,17.373169921875,0.2351761907339096,-0.16126367449760437,1.2571237087249756
1789116124900020200,17.392020263671874,0.4282039403915405,-0.1985253542661667,1.5925551652908325
1789116124918870500,17.41087060546875,0.6627692580223083,0.02626643143594265,1.7678682804107666
1789116124937720800,17.429720947265626,0.8112051486968994,0.028098974376916885,1.6774629354476929
1789116124956571400,17.4485712890625,0.869235634803772,-0.16431790590286255,1.6982316970825195
1789116124975421700,17.467421630859373,0.9352071285247803,-0.26999449729919434,1.858884572982788
1789116124994272000,17.48627197265625,1.0243908166885376,-0.2907632887363434,1.8790425062179565
1789116125013122300,17.505122314453125,1.0164498090744019,-0.3017585575580597,1.8368940353393555
1789116125031972900,17.523972900390625,0.9486457705497742,-0.3970507085323334,1.8149036169052124
1789116125050823200,17.5428232421875,0.939483106136322,-0.3439069986343384,1.7587056159973145
1789116125069673500,17.561673583984376,0.916270911693573,-0.4813476502895355,1.7464886903762817
1789116125088523800,17.580523681640624,0.8222004175186157,-0.9364288449287415,1.7794743776321411
1789116125107374300,17.599374267578124,0.8118160367012024,-1.119683027267456,1.6304277181625366
1789116125126224600,17.618224609375,0.971247136592865,-0.5393781065940857,1.4270155429840088
1789116125145075000,17.637074951171876,1.0958600044250488,-0.12461283802986145,1.2198619842529297
1789116125173350400,17.665350341796874,1.0091196298599243,-0.2718270421028137,0.5638120174407959
1789116125192201000,17.684200927734373,0.8313631415367126,-0.2602209448814392,0.3414636254310608
1789116125211051300,17.70305126953125,0.601073682308197,-0.3127537965774536,0.1575985997915268
1789116125229901600,17.721901611328125,0.4428642690181732,-0.11606097966432571,-0.053143709897994995
1789116125248751900,17.740751953125,0.1979145109653473,0.08796200156211853,-0.27976804971694946
1789116125267602200,17.759602294921876,-0.028098974376916885,0.3042019307613373,-0.4947862923145294
1789116125286452700,17.77845263671875,-0.2101314514875412,0.4587462842464447,-0.7427902817726135
1789116125305303000,17.797302978515624,-0.37139514088630676,0.7232431769371033,-0.8643488883972168
1789116125324153300,17.8161533203125,-0.656660795211792,1.0433270931243896,-1.009730577468872
1789116125343003600,17.835003662109376,-0.9791881442070007,1.0695935487747192,-1.1771026849746704
1789116125361854200,17.853854248046876,-1.180156946182251,0.9541434049606323,-1.309045672416687
1789116125380704500,17.87270458984375,-1.2931636571884155,0.8729007244110107,-1.4184637069702148
1789116125399554800,17.891554931640623,-1.4477843046188354,0.8710681796073914,-1.5339138507843018
1789116125418405000,17.910405029296875,-1.621264934539795,0.8222004175186157,-1.6011070013046265
1789116125437255400,17.92925537109375,-1.6927341222763062,0.6261184215545654,-1.5913335084915161
1789116125456105700,17.948105712890627,-1.7312175035476685,0.5167768001556396,-1.7599272727966309
1789116125474956300,17.966956298828126,-1.7538188695907593,0.312142938375473,-1.9957143068313599
1789116125493806600,17.985806640625,-1.667689323425293,0.026877280324697495,-2.053133964538574
1789116125512657000,18.004656982421874,-1.5168100595474243,0.0018325417768210173,-2.1227705478668213
1789116125531507200,18.023507080078126,-1.3212625980377197,-0.042759306728839874,-2.216840982437134
1789116125550357500,18.042357421875,-1.2430741786956787,-0.16737215220928192,-2.160032272338867
1789116125569208000,18.0612080078125,-1.0610417127609253,-0.30481278896331787,-2.118494749069214
1789116125588058400,18.080058349609374,-0.6688777208328247,-0.3115321099758148,-2.0708484649658203
1789116125606908700,18.09890869140625,-0.30969956517219543,-0.22723518311977386,-1.8656039237976074
1789116125625759000,18.117759033203125,-0.18691925704479218,-0.21196399629116058,-1.446562647819519
1789116125644609300,18.136609375,-0.1301104724407196,-0.2113531529903412,-0.9413156509399414
1789116125663459600,18.15545947265625,0.014049487188458443,-0.17836740612983704,-0.517998456954956
1789116125682310000,18.174309814453125,0.1979145109653473,-0.12155860662460327,-0.10750912129878998
1789116125701160400,18.193160400390624,0.38544461131095886,-0.18019993603229523,0.3005368411540985
1789116125720010800,18.2120107421875,0.5796940326690674,-0.1820324808359146,0.5931326746940613
1789116125738861000,18.230861083984376,0.70308518409729,-0.10262233763933182,0.767224133014679
1789116125757711400,18.24971142578125,0.7055285573005676,0.01832541823387146,0.9462023973464966
1789116125776561700,18.268561767578124,0.5809157490730286,0.12522368133068085,1.081810474395752
1789116125795412000,18.287411865234375,0.4556920528411865,0.1563768982887268,1.147171139717102
1789116125814262300,18.30626220703125,0.3762819170951843,0.12216944992542267,1.1349542140960693
1789116125833112800,18.32511279296875,0.2999260127544403,-0.05070032179355621,1.0421054363250732
1789116125851963100,18.343963134765627,0.22479179501533508,-0.22662433981895447,1.0292776823043823
1789116125870813400,18.3628134765625,0.21807247400283813,-0.26938363909721375,1.147171139717102
1789116125889663700,18.381663818359375,0.33718767762184143,-0.20402298867702484,1.382423758506775
1789116125908514000,18.40051416015625,0.5149442553520203,-0.15149012207984924,1.562012791633606
1789116125927364400,18.4193642578125,0.7550072073936462,-0.3005368411540985,1.6017178297042847
1789116125946215000,18.43821484375,1.0304993391036987,-0.2919849753379822,1.6786845922470093
1789116125965065200,18.457065185546874,1.207645058631897,-0.25472331047058105,1.8106275796890259
1789116125983915500,18.47591552734375,1.2070342302322388,-0.5418215394020081,1.9529550075531006
1789116126002765800,18.494765869140625,1.138619303703308,-0.6358919739723206,2.0598533153533936
1789116126021616000,18.5136162109375,1.0769237279891968,-0.4349232614040375,1.9896059036254883
1789116126040466400,18.532466552734373,1.0091196298599243,-0.42637139558792114,1.8778208494186401
1789116126059316700,18.551316650390625,0.8826742768287659,-0.6084038615226746,1.9040873050689697
1789116126078167000,18.5701669921875,0.6499415040016174,-0.9694145917892456,1.91386079788208
1789116126097017300,18.589017333984376,0.5491516590118408,-1.1312891244888306,1.7916914224624634
1789116126115868000,18.607867919921876,0.7641699314117432,-0.5497625470161438,1.5650670528411865
1789116126134718200,18.62671826171875,0.9486457705497742,-0.11239589750766754,1.1306782960891724
1789116126153568500,18.645568603515624,0.8704573512077332,-0.05741964280605316,0.7501204609870911
1789116126172418800,18.664418701171876,0.7690566778182983,-0.014660334214568138,0.5369347333908081
1789116126191269000,18.68326904296875,0.6804838180541992,-0.0397050715982914,0.21990501880645752
1789116126210119400,18.702119384765624,0.4978405237197876,0.06169557198882103,-0.06841489672660828
1789116126228969700,18.7209697265625,0.26816195249557495,0.06902574002742767,-0.22540263831615448
1789116126247820000,18.739820068359375,0.11361759155988693,0.14843589067459106,-0.4092676639556885
1789116126266670600,18.758670654296875,-0.0030542362947016954,0.33291175961494446,-0.6603258848190308
1789116126285521000,18.77752099609375,-0.12522368133068085,0.6468872427940369,-0.8875610828399658
1789116126304371200,18.79637109375,-0.3542914092540741,0.8472451567649841,-1.0616525411605835
1789116126323221500,18.815221435546874,-0.5888567566871643,0.8612946271896362,-1.2235270738601685
1789116126342071800,18.83407177734375,-0.8258655071258545,0.9181034564971924,-1.3665416240692139
1789116126360922000,18.852922119140626,-1.0970816612243652,0.9938485026359558,-1.4642772674560547
1789116126379772400,18.8717724609375,-1.298661231994629,1.0506572723388672,-1.4679423570632935
1789116126398622700,18.890622802734374,-1.4312914609909058,1.0250016450881958,-1.4899327754974365
1789116126417473000,18.90947314453125,-1.4874894618988037,0.8472451567649841,-1.5968310832977295
1789116126436323300,18.9283232421875,-1.5668995380401611,0.6572716236114502,-1.7568731307983398
1789116126455173600,18.947173583984377,-1.6469205617904663,0.45263782143592834,-1.9584527015686035
1789116126474024000,18.96602392578125,-1.6518073081970215,0.16737215220928192,-2.1227705478668213
1789116126492874500,18.98487451171875,-1.5632344484329224,0.031153209507465363,-2.20828914642334
1789116126511724800,19.003724853515624,-1.385477900505066,-0.11972606182098389,-2.2541027069091797
1789116126530575000,19.0225751953125,-1.216196894645691,-0.24189551174640656,-2.2883102893829346
1789116126549425400,19.04142529296875,-1.0396620035171509,-0.29626092314720154,-2.2644870281219482
1789116126568275700,19.060275634765624,-0.7623373866081238,-0.16615045070648193,-2.231501340866089
1789116126587126000,19.0791259765625,-0.5540384650230408,0.008551862090826035,-2.098947525024414
1789116126605976300,19.097976318359375,-0.47951510548591614,-0.15515519678592682,-1.7080053091049194
1789116126624826600,19.11682666015625,-0.3500154912471771,-0.2089097648859024,-1.273005723953247
1789116126643677000,19.135677001953123,-0.11361759155988693,-0.06841489672660828,-0.9455915689468384
1789116126662527200,19.15452734375,0.03787253051996231,-0.18019993603229523,-0.4715740978717804
1789116126681377500,19.17337744140625,0.1423274129629135,-0.21196399629116058,0.09468132257461548
1789116126700227800,19.192227783203126,0.3164188861846924,-0.11361759155988693,0.46363306045532227
1789116126719078100,19.211078125,0.4825693368911743,0.03542914241552353,0.5882459282875061
1789116126737928400,19.229928466796874,0.5106683373451233,0.11239589750766754,0.7653915882110596
1789116126756778800,19.24877880859375,0.45202696323394775,0.09773556143045425,1.0683718919754028
1789116126775629000,19.267629150390626,0.38666632771492004,0.02870982140302658,1.3200409412384033
1789116126794479400,19.286479248046874,0.29565006494522095,-0.053143709897994995,1.4178528785705566
1789116126813329700,19.30532958984375,0.19913621246814728,-0.09895725548267365,1.4569470882415771
1789116126832180000,19.324179931640625,0.10995250940322876,-0.038483377546072006,1.492987036705017
1789116126851030300,19.3430302734375,0.06169557198882103,-0.04886778071522713,1.478326678276062
1789116126869880600,19.361880615234377,0.06841489672660828,-0.12583453953266144,1.5253620147705078
1789116126888730000,19.380730224609376,0.22662433981895447,-0.18630841374397278,1.7080053091049194
1789116126907580400,19.399580322265624,0.46302223205566406,-0.18691925704479218,1.8393374681472778
1789116126926430700,19.4184306640625,0.70308518409729,-0.24372805655002594,1.8307856321334839
1789116126945281000,19.437281005859376,0.9058864712715149,-0.2235700935125351,1.8350615501403809
1789116126964131300,19.45613134765625,0.9810206890106201,-0.18081079423427582,1.9242452383041382
1789116126982981600,19.474981689453124,0.9938485026359558,-0.3164188861846924,2.012207269668579
1789116127001832000,19.49383203125,1.0653176307678223,-0.30725616216659546,1.9407380819320679
1789116127020682200,19.51268212890625,1.1618314981460571,-0.2987042963504791,1.789247989654541
1789116127039532500,19.531532470703127,1.0885298252105713,-0.5100574493408203,1.7910804748535156
1789116127058382800,19.5503828125,0.9199360013008118,-0.8081509470939636,1.8106275796890259
1789116127077233200,19.569233154296874,0.8484668135643005,-0.9272661209106445,1.751375436782837
1789116127096083500,19.58808349609375,0.9260444641113281,-0.6908682584762573,1.5644562244415283
1789116127114933800,19.606933837890626,1.147171139717102,-0.33169007301330566,1.2510151863098145
1789116127133784000,19.6257841796875,1.1697725057601929,-0.3249707520008087,0.916270911693573
1789116127152634400,19.64463427734375,1.086086392402649,-0.43797749280929565,0.5607577562332153
1789116127171484700,19.663484619140625,0.9199360013008118,-0.395218163728714,0.17836740612983704
1789116127190335000,19.6823349609375,0.6108472347259521,-0.24678228795528412,0.0659715011715889
1789116127209185300,19.701185302734373,0.4825693368911743,-0.0390942245721817,-0.024433890357613564
1789116127228035600,19.72003564453125,0.416597843170166,0.2351761907339096,-0.34818294644355774
1789116127246886000,19.738885986328125,0.2748812735080719,0.4978405237197876,-0.5974085927009583
1789116127265736200,19.757736083984376,0.05864133685827255,0.7794411182403564,-0.7855495810508728
1789116127284586500,19.77658642578125,-0.2522799074649811,1.0048437118530273,-0.9248227477073669
1789116127303436800,19.795436767578124,-0.53143709897995,1.206423282623291,-1.0750911235809326
1789116127322287000,19.814287109375,-0.7934905886650085,1.2479609251022339,-1.225359559059143
1789116127341137400,19.833137451171876,-1.031110167503357,1.1795459985733032,-1.3255385160446167
1789116127359987700,19.85198779296875,-1.2345223426818848,1.133732557296753,-1.3421077728271484
1789116127378838000,19.870838134765624,-1.3757044076919556,1.1813786029815674,-1.4471734762191772
1789116127397688300,19.889688232421875,-1.5149775743484497,1.1349542140960693,-1.5265836715698242
1789116127416538600,19.90853857421875,-1.6542507410049438,0.8790091872215271,-1.5931659936904907
1789116127435389000,19.927388916015627,-1.7898588180541992,0.46363306045532227,-1.6792954206466675
1789116127454239200,19.9462392578125,-1.8564411401748657,0.28037887811660767,-1.7868045568466187
1789116127473089500,19.965089599609374,-1.7923022508621216,0.3402419090270996,-1.991438388824463
1789116127491939800,19.98393994140625,-1.6218758821487427,0.10628741979598999,-2.0910065174102783
1789116127510790100,20.0027900390625,-1.479548454284668,-0.2870981991291046,-2.1435394287109375
1789116127529640400,20.021640380859374,-1.326149344444275,-0.4556920528411865,-2.2131760120391846
1789116127548490800,20.04049072265625,-0.9883508682250977,-0.37444937229156494,-2.2357773780822754
1789116127567341000,20.059341064453125,-0.7440119385719299,-0.23151111602783203,-2.1056668758392334
1789116127586191400,20.07819140625,-0.6407787799835205,-0.29565006494522095,-1.8344507217407227
1789116127605041700,20.097041748046873,-0.4062134325504303,-0.18814095854759216,-1.5461307764053345
1789116127623892000,20.11589208984375,-0.15393351018428802,-0.15943112969398499,-1.1074661016464233
1789116127642742000,20.134741943359376,-0.014049487188458443,-0.17897824943065643,-0.5100574493408203
1789116127661592300,20.15359228515625,0.13927318155765533,0.014049487188458443,-0.1313321590423584
1789116127680442600,20.172442626953124,0.2761029601097107,-0.0659715011715889,0.12278030067682266
1789116127699293000,20.19129296875,0.416597843170166,-0.030542362481355667,0.3530697226524353
1789116127718143200,20.210143310546876,0.517998456954956,0,0.6279509663581848
1789116127736993500,20.22899365234375,0.5815265774726868,0.07696675509214401,0.8625163435935974
1789116127755843800,20.24784375,0.5283828973770142,0.16187451779842377,1.073258638381958
1789116127774694100,20.266694091796875,0.4355340898036957,0.08307522535324097,1.1838220357894897
1789116127793544400,20.28554443359375,0.367730051279068,0.12827792763710022,1.1667182445526123
1789116127812394800,20.304394775390627,0.26694026589393616,-0.0018325417768210173,1.081810474395752
1789116127831245000,20.3232451171875,0.21868331730365753,-0.17958909273147583,1.1954281330108643
1789116127850095400,20.342095458984375,0.2987042963504791,-0.17225892841815948,1.5161992311477661
1789116127868945700,20.360945556640626,0.4813476502895355,-0.04459185153245926,1.5907225608825684
1789116127887796000,20.3797958984375,0.5815265774726868,-0.004275931045413017,1.4545036554336548
1789116127906646300,20.398646240234374,0.6096255779266357,-0.1692046970129013,1.5045931339263916
1789116127925496300,20.417496337890626,0.7116370797157288,-0.2235700935125351,1.700675129890442
1789116127944346600,20.4363466796875,0.8948912620544434,-0.2223484069108963,1.7648141384124756
1789116127963197000,20.455197021484373,1.0469921827316284,-0.3787252902984619,1.8649930953979492
1789116127982047200,20.474047119140625,1.0653176307678223,-0.38910970091819763,1.9969360828399658
1789116128000897500,20.4928974609375,1.0384403467178345,-0.4611896872520447,1.991438388824463
1789116128019747800,20.511747802734376,0.9920159578323364,-0.43919917941093445,1.9566200971603394
1789116128038598100,20.53059814453125,0.8961129188537598,-0.41415444016456604,1.9499008655548096
1789116128057448400,20.549448486328124,0.8356390595436096,-0.4611896872520447,1.9584527015686035
1789116128076298800,20.568298828125,0.7134696245193481,-0.8356390595436096,1.8888161182403564
1789116128095149000,20.587149169921876,0.5961869359016418,-0.9339854717254639,1.5748405456542969
1789116128113999400,20.605999267578124,0.8551861643791199,-0.48012593388557434,1.4355673789978027
1789116128132849400,20.624849365234375,0.9486457705497742,-0.2895416021347046,1.0427162647247314
1789116128151699700,20.64369970703125,0.7678350210189819,-0.3243598937988281,0.6462764143943787
1789116128170550000,20.662550048828123,0.6328377723693848,-0.3414636254310608,0.40071579813957214
1789116128189400300,20.681400390625,0.5473191738128662,-0.1716480851173401,0.1178935244679451
1789116128208250600,20.700250732421875,0.3542914092540741,0.11483928561210632,-0.07574506103992462
1789116128227101000,20.719100830078126,0.24311721324920654,0.21868331730365753,-0.23273280262947083
1789116128245951200,20.737951171875,0.12339114397764206,0.22784602642059326,-0.5418215394020081
1789116128264801500,20.756801513671874,-0.1575985997915268,0.43981003761291504,-0.8289197087287903
1789116128283651600,20.775651611328126,-0.42759308218955994,0.7776085734367371,-0.9529217481613159
1789116128302502000,20.794501953125,-0.6542174220085144,0.8551861643791199,-1.0738694667816162
1789116128321352200,20.813352294921874,-0.8069292306900024,0.6707102656364441,-1.1838220357894897
1789116128340202500,20.832202392578125,-0.9523108601570129,0.5491516590118408,-1.3017154932022095
1789116128359052800,20.851052734375,-1.1233481168746948,0.6193991303443909,-1.4306806325912476
1789116128377903000,20.869903076171877,-1.26872980594635,0.7501204609870911,-1.5381897687911987
1789116128396753400,20.88875341796875,-1.3952515125274658,0.7507312893867493,-1.5974419116973877
1789116128415603500,20.907603515625,-1.5241402387619019,0.6047387719154358,-1.6573050022125244
1789116128434453800,20.926453857421876,-1.5589585304260254,0.527161180973053,-1.8430025577545166
1789116128453304000,20.945303955078124,-1.5601803064346313,0.40254834294319153,-2.058020830154419
1789116128472154400,20.964154296875,-1.4703856706619263,0.14782503247261047,-2.2418859004974365
1789116128491004700,20.983004638671876,-1.3482162952423096,-0.02504473738372326,-2.353670835494995
1789116128509855000,21.00185498046875,-1.2259705066680908,-0.2919849753379822,-2.425139904022217
1789116128528705300,21.020705322265623,-1.01706063747406,-0.5247178077697754,-2.4336917400360107
1789116128547555300,21.039555419921875,-0.7928797602653503,-0.2504473626613617,-2.3927650451660156
1789116128566405600,21.058405517578127,-0.6132906675338745,-0.20157960057258606,-2.3145766258239746
1789116128585256000,21.077255859375,-0.5094466209411621,-0.4196520745754242,-2.113607883453369
1789116128604106200,21.096106201171875,-0.29687178134918213,-0.3640649616718292,-1.7397693395614624
1789116128622956500,21.11495654296875,-0.02504473738372326,-0.13682979345321655,-1.2363548278808594
1789116128641806800,21.133806884765626,0.10201149433851242,-0.09468132257461548,-0.6902574300765991
1789116128660657000,21.152656982421874,0.08490777015686035,-0.08307522535324097,-0.25655585527420044
1789116128679507200,21.171507080078126,0.12461283802986145,-0.08796200156211853,0.0781884491443634
1789116128698357500,21.190357421875,0.31092125177383423,0.024433890357613564,0.31031039357185364
1789116128717207800,21.209207763671873,0.4850127100944519,-0.01954711228609085,0.5418215394020081
1789116128736058000,21.22805810546875,0.5424323678016663,-0.0390942245721817,0.9034430980682373
1789116128754908400,21.246908447265625,0.5173876285552979,0.09834641218185425,1.1593880653381348
1789116128773758500,21.265758544921876,0.45141613483428955,0.261442631483078,1.2039799690246582
1789116128792608800,21.28460888671875,0.3524588644504547,0.24494975805282593,1.2229162454605103
1789116128811459000,21.303458984375,0.2516690790653229,0.05008947476744652,1.3078240156173706
1789116128830309400,21.322309326171876,0.2345653474330902,-0.10873081535100937,1.3469945192337036
1789116128849159700,21.34115966796875,0.32252734899520874,-0.18875180184841156,1.3469945192337036
1789116128868009700,21.360009765625,0.3970507085323334,-0.17775654792785645,1.4532819986343384
1789116128886860000,21.378860107421875,0.4813476502895355,-0.09956810623407364,1.6426446437835693
1789116128905710300,21.39771044921875,0.5613686442375183,-0.06658235192298889,1.7507646083831787
1789116128924560600,21.416560546875,0.6572716236114502,-0.024433890357613564,1.6890690326690674
1789116128943411000,21.435410888671875,0.7757760286331177,-0.09468132257461548,1.6970100402832031
1789116128962261000,21.454260986328126,0.888171911239624,-0.20585553348064423,1.9431815147399902
1789116128981111300,21.473111328125,0.9852966070175171,-0.3017585575580597,2.1001691818237305
1789116128999961600,21.491961669921874,0.9956810474395752,-0.3133646547794342,2.0280892848968506
1789116129018812000,21.51081201171875,0.9688037633895874,-0.39949411153793335,1.984719157218933
1789116129037662000,21.529661865234374,0.9046648144721985,-0.390942245721817,2.006098747253418
1789116129056512300,21.54851220703125,0.818535327911377,-0.6560499668121338,1.9517333507537842
1789116129075362600,21.567362548828125,0.762948215007782,-0.8680139780044556,1.8869835138320923
1789116129094212900,21.586212890625,0.7922688722610474,-0.6646018028259277,1.660359263420105
1789116129113063200,21.605063232421877,0.9352071285247803,-0.444085955619812,1.4392324686050415
1789116129131913200,21.623913330078125,0.9327637553215027,-0.3396310806274414,1.2418525218963623
1789116129150763500,21.642763427734376,0.8655705451965332,-0.19180603325366974,0.7592831254005432
1789116129169613800,21.66161376953125,0.8087617754936218,-0.19363857805728912,0.4819584786891937
1789116129188464000,21.680464111328124,0.6908682584762573,0.06902574002742767,0.2095206081867218
1789116129207314200,21.699314208984376,0.5442649126052856,0.04214845970273018,0
1789116129226164500,21.71816455078125,0.42698222398757935,-0.07330167293548584,-0.2223484069108963
1789116129245014800,21.737014892578124,0.16187451779842377,0.015271181240677834,-0.41537612676620483
1789116129263865000,21.755864990234375,-0.11911521852016449,0.41048935055732727,-0.5974085927009583
1789116129282715100,21.774715087890623,-0.35978904366493225,0.6316160559654236,-0.8484668135643005
1789116129301565400,21.7935654296875,-0.38910970091819763,0.8344173431396484,-1.1001359224319458
1789116129320415700,21.812415771484375,-0.5277720093727112,0.948034942150116,-1.2229162454605103
1789116129339266000,21.83126611328125,-0.8154810667037964,1.054322361946106,-1.4068576097488403
1789116129358116000,21.8501162109375,-1.0970816612243652,0.9724688529968262,-1.5339138507843018
1789116129376966400,21.86896630859375,-1.2754490375518799,0.8790091872215271,-1.5614019632339478
1789116129395816700,21.887816650390626,-1.3909755945205688,0.9633061289787292,-1.6701327562332153
1789116129414666800,21.906666748046874,-1.5271944999694824,0.8112051486968994,-1.8845402002334595
1789116129433517000,21.92551708984375,-1.618210792541504,0.29442837834358215,-1.871712327003479
1789116129452367400,21.944367431640625,-1.5815598964691162,0.20280128717422485,-1.8857618570327759
1789116129471217700,21.9632177734375,-1.359822392463684,0.4581354558467865,-2.098947525024414
1789116129490067700,21.982067626953125,-1.389753818511963,0.4819584786891937,-2.1905746459960938
1789116129508918000,22.00091796875,-1.4709964990615845,-0.02076880633831024,-2.1673624515533447
1789116129527768300,22.019768310546876,-1.3604332208633423,-0.2748812735080719,-2.2296688556671143
1789116129546618400,22.038618408203124,-1.022558331489563,-0.29259583353996277,-2.307246446609497
1789116129565468700,22.05746875,-0.6945333480834961,-0.2620534598827362,-2.2559351921081543
1789116129584319000,22.076319091796876,-0.5210527181625366,-0.23151111602783203,-2.0732920169830322
1789116129603169000,22.0951689453125,-0.3830012381076813,-0.2504473626613617,-1.808184266090393
1789116129622019300,22.114019287109375,-0.27121618390083313,-0.1319430023431778,-1.385477900505066
1789116129640869600,22.13286962890625,-0.1441599577665329,-0.08918370306491852,-0.8038749694824219
1789116129659720000,22.151719970703127,-0.014049487188458443,-0.025655584409832954,-0.3775036036968231
1789116129678570000,22.170570068359375,0.12522368133068085,-0.10628741979598999,-0.08551861345767975
1789116129697420300,22.189420166015626,0.2864873707294464,0.043981000781059265,0.21318569779396057
1789116129716270600,22.2082705078125,0.4092676639556885,-0.02076880633831024,0.53143709897995
1789116129735120600,22.22712060546875,0.4886777997016907,-0.07574506103992462,0.8234221339225769
1789116129753971000,22.245970947265626,0.497229665517807,0.16615045070648193,1.0341644287109375
1789116129772821200,22.2648212890625,0.42881476879119873,0.1710372269153595,1.1215155124664307
1789116129791671300,22.28367138671875,0.2748812735080719,0.1429382562637329,1.119683027267456
1789116129810521600,22.302521484375,0.2089097648859024,0.13682979345321655,1.0928057432174683
1789116129829372000,22.321371826171877,0.22051586210727692,-0.010995250195264816,1.0995250940322876
1789116129848222000,22.340221923828125,0.23823043704032898,-0.0916270911693573,1.243685007095337
1789116129867072300,22.359072265625,0.3005368411540985,-0.14965757727622986,1.400138258934021
1789116129885922300,22.37792236328125,0.4477510452270508,-0.04337015375494957,1.483824372291565
1789116129904772600,22.396772705078124,0.6114581227302551,-0.03298575058579445,1.5363571643829346
1789116129923623000,22.415622802734376,0.707361102104187,-0.06169557198882103,1.6017178297042847
1789116129942473000,22.434472900390624,0.9254335761070251,-0.15393351018428802,1.6029396057128906
1789116129961323300,22.4533232421875,1.0695935487747192,-0.21623992919921875,1.678073763847351
1789116129980173600,22.472173583984375,1.0494356155395508,-0.3549022674560547,1.8790425062179565
1789116129999023600,22.491023681640623,0.9553651213645935,-0.35917818546295166,1.9517333507537842
1789116130017874000,22.5098740234375,0.8893936276435852,-0.2486148327589035,1.826509714126587
1789116130036724000,22.528723876953126,0.8222004175186157,-0.14843589067459106,1.8509435653686523
1789116130055574300,22.54757421875,0.7299624681472778,-0.3017585575580597,1.9358513355255127
1789116130074424600,22.566424560546874,0.6615476012229919,-0.6413896083831787,1.8747665882110596
1789116130093274600,22.585274658203126,0.6865923404693604,-0.7941014170646667,1.7012859582901
1789116130112125000,22.604125,0.7849387526512146,-0.4868452548980713,1.5168100595474243
1789116130130975200,22.622975341796874,0.9107732772827148,-0.2211267054080963,1.3310362100601196
1789116130149825300,22.6418251953125,0.9565867781639099,-0.2089097648859024,1.0610417127609253
1789116130168675600,22.660675537109373,0.9107732772827148,-0.2351761907339096,0.6908682584762573
1789116130187525600,22.679525634765625,0.7995990514755249,-0.21868331730365753,0.4349232614040375
1789116130206376000,22.6983759765625,0.5961869359016418,-0.16492876410484314,0.20402298867702484
1789116130225226200,22.717226318359376,0.390942245721817,-0.08429691940546036,0.033596597611904144
1789116130244076300,22.736076171875,0.1185043677687645,0.07513421028852463,-0.10323318839073181
1789116130262926600,22.754926513671876,-0.07696675509214401,0.2522799074649811,-0.3396310806274414
1789116130281776600,22.773776611328124,-0.16676130890846252,0.47707170248031616,-0.5522059202194214
1789116130300627000,22.792626953125,-0.37444937229156494,0.6065713167190552,-0.7580614686012268
1789116130319477000,22.81147705078125,-0.6084038615226746,0.7708892226219177,-0.9339854717254639
1789116130338327300,22.830327392578123,-0.8942803740501404,0.7965448498725891,-1.1270132064819336
1789116130357177600,22.849177490234375,-1.2027583122253418,0.7873821258544922,-1.3163758516311646
1789116130376027600,22.868027587890627,-1.3757044076919556,0.8783983588218689,-1.4068576097488403
1789116130394878000,22.8868779296875,-1.5003172159194946,1.0133955478668213,-1.497262954711914
1789116130413728000,22.90572802734375,-1.5497958660125732,0.8539644479751587,-1.6206541061401367
1789116130432578300,22.924578369140626,-1.5174208879470825,0.7098045349121094,-1.7690900564193726
1789116130451428400,22.943428466796874,-1.507036566734314,0.6004628539085388,-1.9065306186676025
1789116130470278700,22.962278564453126,-1.4911545515060425,0.5057815313339233,-2.0708484649658203
1789116130489129000,22.98112890625,-1.464888095855713,0.30847787857055664,-2.1728601455688477
1789116130507979000,22.99997900390625,-1.38731050491333,-0.0653606578707695,-2.2828125953674316
1789116130526829300,23.018829345703125,-1.2058124542236328,-0.3414636254310608,-2.3371779918670654
1789116130545679400,23.037679443359377,-0.9565867781639099,-0.367730051279068,-2.3286261558532715
1789116130564529700,23.05652978515625,-0.7275190949440002,-0.1948602795600891,-2.3060247898101807
1789116130583379700,23.075379638671876,-0.5723638534545898,-0.07330167293548584,-2.211954355239868
1789116130602230000,23.09422998046875,-0.5705313682556152,-0.19974705576896667,-1.9272994995117188
1789116130621080000,23.113080078125,-0.5760289430618286,-0.2858765125274658,-1.5516283512115479
1789116130639930400,23.131930419921876,-0.474017471075058,-0.062306419014930725,-1.2840009927749634
1789116130658780400,23.150780517578124,-0.2724378705024719,-0.06658235192298889,-0.888171911239624
1789116130677630700,23.169630615234375,-0.1563768982887268,-0.19058434665203094,-0.258999228477478
1789116130696480800,23.188480712890627,0.02504473738372326,-0.17958909273147583,0.1588202863931656
1789116130715331000,23.2073310546875,0.25533416867256165,-0.20646637678146362,0.37200596928596497
1789116130734181000,23.22618115234375,0.47707170248031616,0.01710372418165207,0.5668662786483765
1789116130753031400,23.245031494140626,0.5668662786483765,0.13377554714679718,0.7275190949440002
1789116130771881500,23.263881591796874,0.4990622103214264,-0.1948602795600891,1.0011786222457886
1789116130790731800,23.282731689453126,0.47829338908195496,-0.015271181240677834,1.252847671508789
1789116130809581800,23.301581787109374,0.522885262966156,0.19241689145565033,1.2852226495742798
1789116130828432100,23.32043212890625,0.4734066128730774,0.0006108472589403391,1.184432864189148
1789116130847282200,23.3392822265625,0.3304683566093445,-0.12094775587320328,1.202147364616394
1789116130866132500,23.358132568359373,0.21868331730365753,-0.1569877415895462,1.3414969444274902
1789116130884982500,23.376982421875,0.2638860046863556,-0.2217375487089157,1.3928080797195435
1789116130903832800,23.395832763671876,0.35917818546295166,-0.16615045070648193,1.4074684381484985
1789116130922683000,23.414682861328124,0.5015056133270264,-0.11606097966432571,1.547963261604309
1789116130941533200,23.433533203125,0.6560499668121338,0.05008947476744652,1.6573050022125244
1789116130960383200,23.45238330078125,0.8399149775505066,-0.05925218388438225,1.6389795541763306
1789116130979233500,23.471233642578124,1.018282413482666,-0.2241809368133545,1.8100167512893677
1789116130998083600,23.49008349609375,1.1209046840667725,-0.34573954343795776,1.922412633895874
1789116131016934000,23.508933837890623,1.1184613704681396,-0.49356457591056824,1.8381158113479614
1789116131035784000,23.527783935546875,1.0250016450881958,-0.4868452548980713,1.8026865720748901
1789116131054634000,23.546634033203127,0.9535325765609741,-0.4074351191520691,1.806962490081787
1789116131073484300,23.565484375,0.9126058220863342,-0.3054236173629761,1.839948296546936
1789116131092334300,23.584334228515626,0.7959339618682861,-0.5589252710342407,1.867436408996582
1789116131111184600,23.6031845703125,0.6401679515838623,-1.0573766231536865,1.7666466236114502
1789116131130034700,23.62203466796875,0.5723638534545898,-0.7592831254005432,1.4123551845550537
1789116131148885000,23.640885009765626,0.8050966858863831,0.20219044387340546,1.136786699295044
1789116131167735000,23.659735107421874,1.0158389806747437,0.29381752014160156,0.8753440976142883
1789116131186585000,23.678585205078125,0.9315420985221863,0.10262233763933182,0.416597843170166
1789116131205435400,23.697435302734377,0.7855495810508728,-0.18691925704479218,0.18081079423427582
1789116131224285400,23.716285400390625,0.6389462351799011,-0.17897824943065643,-0.01588202826678753
1789116131243135700,23.7351357421875,0.49417543411254883,-0.03420744836330414,-0.1044548824429512
1789116131261985800,23.75398583984375,0.26877278089523315,0.1973036676645279,-0.26755109429359436
1789116131280835800,23.7728359375,0.08674030750989914,0.314586341381073,-0.5595360994338989
1789116131299686100,23.79168603515625,-0.11239589750766754,0.47585001587867737,-0.7605048418045044
1789116131318536200,23.8105361328125,-0.35856732726097107,0.6200099587440491,-0.9217684864997864
1789116131337386500,23.829386474609375,-0.5754181146621704,0.6157340407371521,-1.037218689918518
1789116131356236500,23.848236572265623,-0.8209787011146545,0.6578825116157532,-1.1221264600753784
1789116131375086600,23.867086669921875,-1.077534556388855,0.7947123050689697,-1.2174185514450073
1789116131393937000,23.88593701171875,-1.262621283531189,0.8875610828399658,-1.3328686952590942
1789116131412787000,23.904786865234374,-1.3689850568771362,0.8741224408149719,-1.4160202741622925
1789116131431637200,23.92363720703125,-1.4722182750701904,0.8612946271896362,-1.4948196411132812
1789116131450487300,23.9424873046875,-1.5693429708480835,0.8423583507537842,-1.6096588373184204
1789116131469337600,23.961337646484374,-1.6701327562332153,0.5424323678016663,-1.7263307571411133
1789116131488187600,23.980187744140625,-1.7397693395614624,0.46241137385368347,-1.875988245010376
1789116131507037700,23.99903759765625,-1.7073944807052612,0.43797749280929565,-2.014650583267212
1789116131525888000,24.017887939453125,-1.5400222539901733,0.12155860662460327,-2.048858165740967
1789116131544738000,24.036738037109377,-1.3292036056518555,-0.09407047927379608,-2.1093318462371826
1789116131563588000,24.055588134765625,-1.1618314981460571,-0.1435490995645523,-2.176525115966797
1789116131582438400,24.0744384765625,-1.0030112266540527,-0.19241689145565033,-2.103834390640259
1789116131601288400,24.093288330078124,-0.7971556782722473,-0.1820324808359146,-1.9169150590896606
1789116131620138500,24.112138427734376,-0.5845808386802673,-0.2644968628883362,-1.7495429515838623
1789116131638988800,24.13098876953125,-0.38849884271621704,-0.12705622613430023,-1.4679423570632935
1789116131657838800,24.1498388671875,-0.10201149433851242,0.010995250195264816,-1.1349542140960693
1789116131676689000,24.16868896484375,-0.007330167107284069,-0.08368607610464096,-0.5473191738128662
1789116131695539200,24.187539306640623,-0.01038440316915512,-0.12216944992542267,0.0024433890357613564
1789116131714389200,24.20638916015625,0.23212195932865143,-0.08735115826129913,0.2651077210903168
1789116131733239300,24.2252392578125,0.4172086715698242,-0.08796200156211853,0.3781144618988037
1789116131752089600,24.244089599609374,0.497229665517807,-0.08979454636573792,0.573585569858551
1789116131770939600,24.262939697265626,0.5167768001556396,-0.009773556143045425,0.8191461563110352
1789116131789789700,24.281789794921874,0.499673068523407,0.07146912813186646,1.0146173238754272
1789116131808640000,24.300639892578126,0.4196520745754242,0.0653606578707695,1.0928057432174683
1789116131827490000,24.319489990234374,0.3396310806274414,0.061084724962711334,1.1190721988677979
1789116131846340000,24.338340087890625,0.3280249834060669,0.20585553348064423,1.1117420196533203
1789116131865190100,24.357190185546877,0.3390202224254608,0.0647498071193695,1.1349542140960693
1789116131884040400,24.37604052734375,0.36223241686820984,-0.17775654792785645,1.35798978805542
1789116131902890500,24.394890380859376,0.46546560525894165,-0.022601349279284477,1.5192534923553467
1789116131921740500,24.413740478515624,0.5479300022125244,-0.01038440316915512,1.5161992311477661
1789116131940590800,24.4325908203125,0.5809157490730286,-0.1716480851173401,1.5253620147705078
1789116131959441000,24.45144091796875,0.6389462351799011,-0.1966928243637085,1.5510175228118896
1789116131978291000,24.470291015625,0.7879929542541504,-0.14660334587097168,1.598052740097046
1789116131997141200,24.489141357421875,0.9309312105178833,-0.16859383881092072,1.7434344291687012
1789116132015991300,24.5079912109375,0.9694145917892456,-0.2498365342617035,1.8344507217407227
1789116132034841300,24.52684130859375,0.9724688529968262,-0.31947311758995056,1.7910804748535156
1789116132063116500,24.555116455078124,0.92054682970047,-0.21685077250003815,1.6481422185897827
