time,seconds_elapsed,z,y,x
1790096826817684224,0.116684326171875,-0.3562003076076507,0.1380514800548553,-0.0649025216698646
1790096826827684352,0.126684326171875,-0.3527783609616018,0.13559660503061371,-0.06341471849426687
1790096826837684224,0.13668432617187498,-0.29635802405743805,0.07735699402470911,-0.027304373141132356
1790096826847684352,0.146684326171875,-0.2754254210199046,-0.08291146742270185,0.07724494039587812
1790096826857684224,0.156684326171875,-0.306381953610129,-0.16151394878982778,0.12613351311601212
1790096826867684352,0.16668432617187498,-0.3281013369560241,-0.2211267054080963,0.1446180939674377
1790096826877684224,0.17668432617187496,-0.31962386599416964,-0.23696619234487065,0.12788623923161319
1790096826887684352,0.18668432617187497,-0.2921358827164803,-0.2520038720151824,0.07485964599137136
1790096826897684224,0.19668432617187498,-0.2749576270580292,-0.2351761907339096,0.042606595903635
1790096826907684352,0.20668432617187496,-0.28231946900236077,-0.19167440929998888,-0.011268692500010863
1790096826917684224,0.21668432617187494,-0.299922317571357,-0.11895702383183104,-0.07656108279343656
1790096826927684352,0.22668432617187495,-0.30610555079248214,-0.06339113767915189,-0.10753372989322826
1790096826937684224,0.23668432617187496,-0.28497629644138406,-0.036491913270186964,-0.12736785944471132
1790096826947684352,0.24668432617187497,-0.2774010002613067,-0.0323749035596847,-0.1314848661422729
1790096826957684224,0.2566843261718749,-0.22066348886061377,-0.22757281048090974,-0.1205537909734148
1790096826967684352,0.26668432617187493,-0.23591537334679044,-0.39529175205540557,-0.05284793091770558
1790096826977684224,0.27668432617187494,-0.2383067905902862,-0.4080459773540497,-0.0465771034359931
1790096826987684352,0.28668432617187495,-0.2674059908380871,-0.5453883770159857,0.06091383749771586
1790096826997684224,0.2966843261718749,-0.006795675959438,-0.6444438695907593,0.1452289372682571
1790096827007684352,0.3066843261718749,0.009741435763544682,-0.6348848423109379,0.14800105489958307
1790096827017684224,0.3166843261718749,0.11547708813389464,-0.5918563667093336,0.15922596452304735
1790096827027684352,0.32668432617187493,0.22877066403094648,-0.6385984622700411,0.1505983479141539
1790096827037684224,0.3366843261718749,0.3966508615503506,-0.6481726932308292,0.16874294395503683
1790096827047684352,0.3466843261718749,0.4531722962856293,-0.5851916670799255,0.1800472289323806
1790096827057684224,0.3566843261718749,0.46161689201774614,-0.4649969271105604,0.18426952679843908
1790096827067684352,0.3666843261718749,0.44823511613832523,-0.22143084759062165,0.1888912743413365
1790096827077684224,0.3766843261718749,0.33580954315686595,-0.12598868928573748,0.17934712319524151
1790096827087684352,0.38668432617187487,0.2705289721488952,-0.1252236813306808,0.1727170646190643
1790096827097684224,0.3966843261718749,0.24299595610708302,-0.08392414677346946,0.2286435191957348
1790096827107684352,0.4066843261718749,0.2314347624778747,-0.0665823519229888,0.2521272003650665
1790096827117684224,0.41668432617187484,0.20872946961405903,0.11606910855033008,0.3116655304391146
1790096827127684352,0.42668432617187485,0.13081155029511343,0.44762639096288426,0.3632125458934083
1790096827137684224,0.43668432617187486,-0.002985672780466006,0.7253371452210727,0.35603084894110903
1790096827147684352,0.44668432617187487,-0.1171436668335414,0.8334326523146128,0.21997598630972306
1790096827157684224,0.4566843261718749,-0.08318829011717432,0.6717068558918143,0.11701028115101829
1790096827167684352,0.46668432617187483,0.0390178672969341,0.1441599577665329,0.2790044844150543
1790096827177684224,0.47668432617187484,0.0007106416187953254,0.04512176249998216,0.3228008547214508
1790096827187684352,0.48668432617187485,-0.1613400280475616,-0.3738385140895843,0.5080721974372864
1790096827197684224,0.4966843261718748,-0.21390595790389164,-0.4325212137126659,0.5130420629640401
1790096827207684352,0.5066843261718748,-0.37224870524514814,-0.6574947664540651,0.49495654904265207
1790096827217684224,0.5166843261718748,-0.44124172783768645,-0.9913806118516757,0.39486820616274043
1790096827227684352,0.5266843261718748,-0.4374429881572723,-1.216196894645691,0.3278722763061523
1790096827237684224,0.5366843261718748,-0.04692905387174667,-1.382054845274888,0.3098590061682558
1790096827247684352,0.5466843261718748,0.2644205093383789,-1.5142903327941897,0.2954973578453064
1790096827257684224,0.5566843261718748,0.6616719516613068,-1.2997165474569023,0.30295360194098786
1790096827267684352,0.5666843261718748,1.311618182820978,-0.3298143543579136,0.21530824530222517
1790096827277684224,0.5766843261718747,1.453576212014538,-0.1526866537290794,0.18554438275242355
1790096827287684352,0.5866843261718747,1.4483188390731812,-0.1850867122411728,0.1861557066440582
1790096827297684224,0.5966843261718747,1.4342452993234869,-0.5498727466506688,0.24413866514493746
1790096827307684352,0.6066843261718747,1.3106199011583735,-1.0394197565426175,0.30788631529088967
1790096827317684224,0.6166843261718747,0.5326144492864008,-1.414013955531988,0.247288813550251
1790096827327684352,0.6266843261718748,0.20976241362956288,-0.8535677272702145,0.10202344574943709
1790096827337684224,0.6366843261718748,0.2523188928624065,-0.12221985465581772,-0.16618676202279611
1790096827347684352,0.6466843261718747,0.4537831544876098,0.4245388507843017,-0.440649926662445
1790096827357684224,0.6566843261718747,0.5226266108062037,0.6104205654829973,-0.5380467855478503
1790096827367684352,0.6666843261718747,0.7254876515602926,1.4906471226370641,-0.9992234037675032
1790096827377684224,0.6766843261718747,0.7848623991012573,2.274871587753296,-1.4100645780563354
1790096827387684352,0.6866843261718747,0.7791282316249633,2.700918773689629,-1.5170064503897656
1790096827397684224,0.6966843261718747,0.7341029184311072,3.672995416008387,-1.7295704888667576
1790096827407684352,0.7066843261718747,0.7501440959215205,4.069215658615144,-1.824140083101598
1790096827417684224,0.7166843261718746,0.9095646488382723,3.4942988916444206,-1.7764318501494565
1790096827427684352,0.7266843261718746,0.4966771627084068,2.8161762372041577,-1.7203404695559785
1790096827437684224,0.7366843261718746,-0.41720591778270855,3.0588592714177576,-1.5885314081345718
1790096827447684352,0.7466843261718746,-0.6280273199081421,3.175260305404663,-1.5530028343200684
1790096827457684224,0.7566843261718746,-0.5788007452586148,2.790745992408596,-1.4933838713141334
1790096827467684352,0.7666843261718747,-0.0502444623975733,1.7376066417776,-1.5495077768961563
1790096827477684224,0.7766843261718747,0.509981095790863,0.8094489574432373,-1.7765729427337646
1790096827487684352,0.7866843261718747,0.5259447606941787,0.8276523059527747,-1.8080713926032117
1790096827497684224,0.7966843261718747,0.7289515378684488,1.086481143118515,-2.269501326090908
1790096827507684352,0.8066843261718746,0.7908836605542131,1.50635470622745,-3.050641622669251
1790096827517684224,0.8166843261718746,0.6828508973121643,2.1032235622406006,-3.9653148651123047
1790096827527684352,0.8266843261718746,0.6084267592096758,2.3015569447421056,-4.009105347734874
1790096827537684224,0.8366843261718746,0.36352534750079485,3.1618494650576703,-4.154783060611816
1790096827547684352,0.8466843261718746,0.1845714254928577,4.3800051852168735,-4.478235810805197
1790096827557684224,0.8566843261718746,-0.44179973902065683,2.8749704073090356,-5.119212441620848
1790096827567684352,0.8666843261718746,-1.012250304222107,0.7703547477722168,-5.456393241882324
1790096827577684224,0.8766843261718745,-1.6655738222481493,-1.957138323807738,-3.635659511425817
1790096827587684352,0.8866843261718745,-2.098627016724033,-3.641041296326842,-2.41137560534682
1790096827597684224,0.8966843261718745,-2.117960214614868,-3.665159940719605,-2.3495476245880127
1790096827607684352,0.9066843261718746,-1.6641045447036584,-1.6045083077785987,-3.059187042021847
1790096827617684224,0.9166843261718746,-1.5565152168273926,-1.1160179376602173,-3.2274115085601807
1790096827627684352,0.9266843261718746,-1.4025432169236791,-0.5285381189130214,-3.47172129853837
1790096827637684224,0.9366843261718746,-1.3316535989936444,0.2674128712990864,-3.631116656557336
1790096827647684352,0.9466843261718746,-1.3339947271895347,0.31114144417382245,-3.6490946738135825
1790096827657684224,0.9566843261718746,-1.3822252621307383,1.2082671574948256,-3.8417626110824283
1790096827667684352,0.9666843261718745,-1.3469945192337036,2.963296413421631,-2.95550799369812
1790096827677684224,0.9766843261718745,-1.3103364833121982,3.6446385021252734,-2.450027879324748
1790096827687684352,0.9866843261718745,-1.4877174592178153,5.704019520017865,-1.1484228325812689
1790096827697684224,0.9966843261718745,-2.1967594623565674,5.308415412902832,-1.981817603111267
1790096827707684352,1.0066843261718745,-2.243885154490698,5.305613433397734,-2.2324751115067265
1790096827717684224,1.0166843261718745,-2.207307621487405,4.813630993125281,-2.3584162848512995
1790096827727684352,1.0266843261718746,-2.0450089351228553,3.928568022701148,-2.1029480819012507
1790096827737684224,1.0366843261718746,-2.001899242401123,3.627363681793213,-2.094213485717773
1790096827747684352,1.0466843261718746,-1.9667990479929984,3.0108412173708112,-2.015944103887747
1790096827757684224,1.0566843261718746,-1.893236173418825,2.1845449721526413,-1.9695402854404687
1790096827767684352,1.0666843261718746,-1.4904474403897239,2.3876889679328013,-2.0588942180594074
1790096827777684224,1.0766843261718746,-1.3842562437057495,2.4990525245666504,-2.084439992904663
1790096827787684352,1.0866843261718746,-1.16229068704989,2.6332256602060258,-2.176097365718182
1790096827797684224,1.0966843261718746,-0.9336085591993091,2.412345514122123,-2.0196491746944525
1790096827807684352,1.1066843261718746,-0.9205864249003631,2.3915001041377946,-2.013064138644356
1790096827817684224,1.1166843261718746,-0.7006100067021861,1.8741855334407136,-1.994533418185684
1790096827827684352,1.1266843261718746,-0.4924532205398444,1.1555986500434952,-1.9570025569189662
1790096827837684224,1.1366843261718746,0.18347351603850887,0.13234169248032096,-1.6554547931764547
1790096827847684352,1.1466843261718747,0.5472057682650802,-0.06450996452898754,-1.6433835215162156
1790096827857684224,1.1566843261718747,0.7978839260742089,-0.10564572217984143,-1.700428241083996
1790096827867684352,1.1666843261718745,0.8825979232788086,0.1362189352512359,-1.533455729484558
1790096827877684224,1.1766843261718745,0.9005418302805345,0.20412968196605036,-1.4373868774762695
1790096827887684352,1.1866843261718745,1.072379870096837,-0.15704784003732913,-1.6582307297663643
1790096827897684224,1.1966843261718745,1.2149752378463743,-0.578472375869751,-1.9787633419036863
1790096827907684352,1.2066843261718745,1.360320584281435,-0.3540591115059259,-1.5706335086650678
1790096827917684224,1.2166843261718745,1.487369667100793,-0.3237636923232587,-0.8113723378436415
1790096827927684352,1.2266843261718745,1.3913252444037776,-0.44472584116646974,-0.2754288771719202
1790096827937684224,1.2366843261718745,1.3118231812094037,-0.473734508671312,-0.26659149405283294
1790096827947684352,1.2466843261718745,1.316270081047812,-0.16142976897095546,-0.5098167656709645
1790096827957684224,1.2566843261718745,1.1685305717725716,0.300745534672597,-0.3762406713417385
1790096827967684352,1.2666843261718745,1.2412138092363751,0.3890891342059196,-0.4216947586532183
1790096827977684224,1.2766843261718746,1.2874401535719084,0.2832117811448751,-0.37469674039982914
1790096827987684352,1.2866843261718746,2.06165840932043,-1.3891846590757067,0.36275806569336466
1790096827997684224,1.2966843261718746,2.5010876067281793,-1.6242961117869872,0.4263989894015267
1790096828007684352,1.3066843261718746,2.606485366821289,-1.7232000827789309,0.4518742561340332
1790096828017684224,1.3166843261718744,2.576031316777563,-1.717072142081655,0.44314656929276025
1790096828027684352,1.3266843261718744,2.364108981219504,-1.806681326384635,0.4779928885742694
1790096828037684224,1.3366843261718744,2.116585731506348,-1.9870861768722532,0.5734328627586365
1790096828047684352,1.3466843261718744,1.9620269933286778,-2.194885956623528,0.6186115726261188
1790096828057684224,1.3566843261718744,1.6605003976970258,-2.5893742927829195,0.7003912096503939
1790096828067684352,1.3666843261718744,1.3480037072486142,-3.104691158508387,0.7133533760080549
1790096828077684224,1.3766843261718744,1.220472812652588,-3.343243360519409,0.7035433053970337
1790096828087684352,1.3866843261718744,0.8386976945583045,-3.8819313486868454,0.9055513662291544
1790096828097684224,1.3966843261718744,0.2960477676487014,-4.031386535459777,1.0290511472951953
1790096828107684352,1.4066843261718744,0.189897134900093,-4.0182294845581055,1.0419527292251587
1790096828117684224,1.4166843261718745,-0.23768137924373742,-3.499783694995774,1.499634563334691
1790096828127684352,1.4266843261718745,-0.2786227166652679,-3.450141668319702,1.543458342552185
1790096828137684224,1.4366843261718745,-0.6569234939536368,-2.2490788430879083,1.1087584235451695
1790096828147684352,1.4466843261718745,-1.2857574537855558,-1.2466924465743332,0.5579366571358128
1790096828157684224,1.4566843261718745,-1.4806001552180714,-0.8457960685032614,0.29795064859612147
1790096828167684352,1.4666843261718745,-1.3607142080142698,-0.42732370249405666,-0.0053192036429281775
1790096828177684224,1.4766843261718745,-1.288964033126831,0.0653606578707695,-0.5994702577590942
1790096828187684352,1.4866843261718743,-1.4066727851883145,0.143143597829615,-0.5849893746751871
1790096828197684224,1.4966843261718743,-1.8037329182294768,0.36751861388247903,-0.5489016760818962
1790096828207684352,1.5066843261718743,-2.0550429821014404,0.4764608740806579,-0.5371637940406799
1790096828217684224,1.5166843261718743,-1.9534743644974577,0.11762765687705556,-0.4811259601569191
1790096828227684352,1.5266843261718743,-1.4355913220961332,-0.5497525044215267,-0.2368930031769952
1790096828237684224,1.5366843261718743,-1.1307545900344849,-0.7922688722610474,-0.0984991192817688
1790096828247684352,1.5466843261718743,-1.2167393098433534,-0.030444529111667173,-0.061095780428129076
1790096828257684224,1.5566843261718744,-1.2529240846633911,0.2901524603366852,-0.0453554093837738
1790096828267684352,1.5666843261718744,-1.0910501725307453,1.1858168608108322,-0.09124489033032862
1790096828277684224,1.5766843261718744,-0.6881102173293447,1.3247380917444684,-0.0863231833697116
1790096828287684352,1.5866843261718744,-0.48635937790740913,0.8102425199628599,-0.058411022981380345
1790096828297684224,1.5966843261718744,-0.47668093366889397,0.7780407461274151,-0.05688202416157283
1790096828307684352,1.6066843261718744,-0.3452050685882568,0.2999260127544403,-0.0471879504621028
1790096828317684224,1.6166843261718744,-0.3106196994570769,0.3013538475280336,-0.041317956874766096
1790096828327684352,1.6266843261718744,-0.06582880382060097,0.3543719198011402,0.01630363337220665
1790096828337684224,1.6366843261718742,0.023346417641091743,0.5905729389937687,0.10436725719404356
1790096828347684352,1.6466843261718742,0.1239256411790847,0.7446991801261902,0.135455384850502
1790096828357684224,1.6566843261718742,0.13122232922120092,0.7627128856831843,0.02714512583540954
1790096828367684352,1.6666843261718742,0.3129341272426246,0.5868642727019766,-0.22819001675723644
1790096828377684224,1.6766843261718742,0.5927693985188288,0.2683577388652452,-0.23110782203165497
1790096828387684352,1.6866843261718742,0.652919352054596,0.2174616307020187,-0.1363716572523117
1790096828397684224,1.6966843261718743,0.727891512105135,0.009498654217966612,0.08440063250120741
1790096828407684352,1.7066843261718743,0.6776223061804916,-0.14000780119203113,0.38218310500201447
1790096828417684224,1.7166843261718743,0.6315397024154663,-0.1496575772762298,0.4585935771465301
1790096828427684352,1.7266843261718743,-0.14822689347972617,-1.0109652339962008,0.48642494477828613
1790096828437684224,1.7366843261718743,-1.2934637259800148,-2.249775171724421,0.3704575728502631
1790096828447684352,1.7466843261718743,-1.4477843046188354,-2.4159772396087646,0.3504736125469208
1790096828457684224,1.7566843261718743,-2.5964843226046312,-2.8064499108724967,0.4032563938420803
1790096828467684352,1.7666843261718743,-2.6628358364105225,-1.6657804250717163,0.319320410490036
1790096828477684224,1.7766843261718743,-2.6092723246076264,-1.3982082243299019,0.3247020876605805
1790096828487684352,1.7866843261718743,-2.146059036254883,0.9157363772392272,0.3712424337863922
1790096828497684224,1.7966843261718743,-1.9425649459550758,1.0395020982876149,0.5032683739330266
1790096828507684352,1.8066843261718741,-1.0539763996265767,1.3587617786336663,1.0238328414085378
1790096828517684224,1.8166843261718741,-0.582213819026947,1.0941038131713867,1.190388560295105
1790096828527684352,1.8266843261718742,-0.273460040050697,0.9657679037413882,1.2178001425668203
1790096828537684224,1.8366843261718742,0.5732856770948014,0.9633655808521232,1.3380511499025962
1790096828547684352,1.8466843261718742,1.0250016450881958,1.1716814041137695,1.4292298555374146
1790096828557684224,1.8566843261718742,0.5116458235045412,0.2113880546584117,1.8588526118208921
1790096828567684352,1.8666843261718742,-0.17217754285678674,-0.3920005027246326,1.704737837590693
1790096828577684224,1.8766843261718742,-0.3476484417915344,-0.358567327260971,1.4628264904022217
1790096828587684352,1.8866843261718742,-0.3618161116770824,0.37490473422500264,1.0037939768942088
1790096828597684224,1.8966843261718742,-0.7485495600262925,1.1989137180210194,0.46052672716603565
1790096828607684352,1.9066843261718742,-0.8247201442718506,1.3201172351837158,0.3791834414005279
1790096828617684224,1.9166843261718742,-1.6449286212534182,0.4478795287900703,0.5636573559017701
1790096828627684352,1.9266843261718742,-1.6769866712171897,0.4119420776151204,0.570479745952684
1790096828637684224,1.9366843261718742,-1.2700700466588932,0.7055365357751309,0.4617506158912347
1790096828647684352,1.9466843261718743,-0.5678231825632288,0.9881840403217231,0.41442102799448866
1790096828657684224,1.956684326171874,-0.0898708999156951,0.8039513230323792,0.5654918551445007
1790096828667684352,1.966684326171874,-0.03793594308817164,0.9021036210387878,0.743055401103714
1790096828677684224,1.976684326171874,0.1098761484026908,1.18145489692688,1.2484190464019775
1790096828687684352,1.986684326171874,0.19008976092027258,0.9281932754007988,1.378299792747554
1790096828697684224,1.996684326171874,0.37542906777284957,0.31496669538468774,1.597582499075045
1790096828707684352,2.006684326171874,0.4452312886714935,0.0592521838843822,1.6088190078735352
1790096828717684224,2.016684326171874,0.48383848291855647,0.09234406496789588,1.5095433414985995
1790096828727684352,2.026684326171874,0.5919308602224669,0.027388805965858548,1.3935616940398179
1790096828737684224,2.036684326171874,0.6388698816299438,-0.0268772803246974,1.3699777126312256
1790096828747684352,2.046684326171874,0.7191669076001003,-0.12633608317724282,1.3006302972998545
1790096828757684224,2.056684326171874,0.746379017829895,-0.1600419878959655,1.2771289348602295
1790096828767684352,2.066684326171874,0.8142962208315284,-0.07302303271910922,1.1322742397382126
1790096828777684224,2.076684326171874,1.0778628833606547,0.011675725059221084,1.024066939982802
1790096828787684352,2.086684326171874,1.0970816612243652,0.017103724181652,1.0175188779830933
1790096828797684224,2.096684326171874,0.8801198637120377,0.25276378180124004,1.1190920423100892
1790096828807684352,2.106684326171874,0.7323294878005981,0.2730487287044525,1.303395390510559
1790096828817684224,2.116684326171874,0.7166956920346739,0.2526614009320677,1.3064587589639183
1790096828827684352,2.126684326171874,0.660630934403917,0.12202560237816046,1.3059730862743777
1790096828837684224,2.136684326171874,0.7854794293094568,-0.013198977398706712,1.246280985768514
1790096828847684352,2.146684326171874,0.9927607634367328,-0.061765340934198346,1.2610248853712394
1790096828857684224,2.156684326171874,1.0925514291401697,-0.12754359958863778,1.346753622685276
1790096828867684352,2.166684326171874,1.0901544126350322,-0.28112548738292925,1.3366629851509781
1790096828877684224,2.1766843261718742,1.0557082818289973,-0.3214824603987715,1.2702916339560872
1790096828887684352,2.186684326171874,1.0280559062957764,-0.3347443044185638,1.2429214715957642
1790096828897684224,2.1966843261718743,1.040147094814864,-0.4834656675756767,1.3332021623440642
1790096828907684352,2.206684326171874,0.8081744557750498,-0.08296275500883893,1.1829788248157211
1790096828917684224,2.216684326171874,0.7158366441726685,0.1020114943385124,1.1067025661468506
1790096828927684352,2.226684326171874,0.5943965221572294,0.26050113223257415,0.8545599258863357
1790096828937684224,2.236684326171874,0.4111198454972773,0.10807769330638226,0.5149642700587265
1790096828947684352,2.246684326171874,0.3939201235771179,0.0885728523135185,0.4836383163928985
1790096828957684224,2.256684326171874,0.5050943493843079,0.1795890927314758,0.3981196880340576
1790096828967684352,2.266684326171874,0.50058531107078,0.1576206462073507,0.39617975464110683
1790096828977684224,2.276684326171874,0.4472746168409977,-0.08101549972304609,0.3630628958307898
1790096828987684352,2.286684326171874,0.41449308697345627,-0.10279548433671004,0.27565132726994596
1790096828997684224,2.296684326171874,0.418552498581552,-0.07328303557770591,0.21098879117078043
1790096829007684352,2.306684326171874,0.46883079114817483,-0.05288296598507739,0.18399541750569742
1790096829017684224,2.316684326171874,0.5057051777839661,-0.0623064190149307,0.1708845198154449
1790096829027684352,2.326684326171874,0.5247135257523929,-0.0915076412409635,0.167303240760644
1790096829037684224,2.336684326171874,0.5394119819005349,-0.16207345454950212,0.17826354867959057
1790096829047684352,2.346684326171874,0.5313607454299927,-0.1954711228609085,0.1928750276565551
1790096829057684224,2.356684326171874,0.4675027640289402,-0.2740358012441674,0.21493505896833937
1790096829067684352,2.3666843261718737,0.39833240229304123,-0.38776796357335935,0.24084325571715737
1790096829077684224,2.376684326171874,0.40214004075857324,-0.38783042877951507,0.19587879196346478
1790096829087684352,2.3866843261718738,0.37805661787890926,-0.3736275037129727,0.1599929244831387
1790096829097684224,2.396684326171874,1.2440662487299559,-0.8397607192941176,0.3088279568527662
1790096829107684352,2.4066843261718738,1.3664653301239014,-0.9052756428718568,0.3303156495094299
1790096829117684224,2.416684326171874,1.5903617586258116,-0.6966310205159733,0.3290955133518078
1790096829127684352,2.426684326171874,1.9414259380579169,-0.7656683447724335,0.08950166450560629
1790096829137684224,2.436684326171874,1.9374518276835704,-1.0928185747497634,0.05563041148670476
1790096829147684352,2.446684326171874,1.820324778556824,-1.266897201538086,0.1061347126960754
1790096829157684224,2.456684326171874,1.7728405633883095,-1.272962181316819,0.11856049341693105
1790096829167684352,2.466684326171874,1.471720119499082,-1.3411787133688287,0.10413695338707901
1790096829177684224,2.476684326171874,1.1209046840667725,-1.4544273614883425,-0.0184781290590763
1790096829187684352,2.486684326171874,1.0547090154088292,-1.5104715208783583,-0.1087715129645891
1790096829197684224,2.496684326171874,0.8998025398670598,-1.3366034266085431,-0.3743649270359243
1790096829207684352,2.506684326171874,0.8306758999824524,-1.0720369815826416,-0.5261685848236084
1790096829217684224,2.5166843261718737,0.7019438591006179,-0.9288364750105507,-0.518006898295662
1790096829227684352,2.526684326171874,-0.17596467057773046,0.08617898826675263,-0.5078320822522866
1790096829237684224,2.5366843261718737,-0.5706077218055725,0.5442649126052856,-0.505399763584137
1790096829247684352,2.546684326171874,-0.8523940837548654,0.7257493458156761,-0.7437601618649607
1790096829257684224,2.5566843261718737,-1.0879216263728149,0.3514603692728628,-1.1813231189178603
1790096829267684352,2.566684326171874,-1.1160943508148191,0.2773246467113495,-1.2469682693481443
1790096829277684224,2.5766843261718737,-0.7501717986632797,0.3058381055071083,-1.0550965863055453
1790096829287684352,2.586684326171874,-0.7320691645523926,0.2976387575964152,-1.0493589650408013
1790096829297684224,2.5966843261718737,-0.5007279879432212,-0.007080195186086213,-1.0391785090033256
1790096829307684352,2.606684326171874,-0.4337778985500335,-0.4275930821895599,-1.0264524221420288
1790096829317684224,2.6166843261718737,-0.4047600446997093,-0.5066007877446944,-1.0319922036594777
1790096829327684352,2.626684326171874,-0.24393516490079023,-0.8267982042612771,-1.0690154771865754
1790096829337684224,2.6366843261718738,-0.0990336090326309,-0.9138274788856506,-1.113192796707153
1790096829347684352,2.646684326171874,-0.07225622189144208,-0.8636807375294481,-1.1158705478917275
1790096829357684224,2.6566843261718738,-0.16203569906567625,-0.43977670296478844,-1.121876294572562
1790096829367684352,2.666684326171874,-0.3152735531330108,-0.0299315154552459,-1.1241880655288696
1790096829377684224,2.676684326171874,-0.5360523564203823,0.3673017621911633,-1.2580041187953006
1790096829387684352,2.6866843261718736,-0.8646174573783669,0.7772015057382308,-1.5011312037019047
1790096829397684224,2.696684326171874,-1.1656006958100846,0.7177385975431102,-1.7310433975466242
1790096829407684352,2.7066843261718736,-1.3630135702024546,0.3335961101973352,-1.8734448610485706
1790096829417684224,2.716684326171874,-1.3970839977264404,0.231511116027832,-1.8981314897537231
1790096829427684352,2.7266843261718736,-1.3754504518909094,0.12929244439909038,-1.9067849714161338
1790096829437684224,2.736684326171874,-1.1304665879335858,0.1328230869128303,-1.6975116729674846
1790096829447684352,2.7466843261718736,-1.1151706089753954,0.13300392731062957,-1.6842214874886858
1790096829457684224,2.756684326171874,-0.882739087147591,0.002337059313136273,-1.4972496144449434
1790096829467684352,2.7666843261718737,-0.6396334171295166,-0.3090887069702148,-1.4949723482131958
1790096829477684224,2.776684326171874,-0.6344192829299082,-0.38660554578843837,-1.5058641037504097
1790096829487684352,2.7866843261718737,-0.6228578325720848,-1.049987028201314,-1.543056790670011
1790096829497684224,2.796684326171874,-0.6777304525388864,-1.890581375649231,-1.5815154481477296
1790096829507684352,2.8066843261718737,-0.6320208363205068,-1.1913682335368145,-1.82745745255453
1790096829517684224,2.816684326171874,-0.3449464839933389,-0.538201407216379,-1.8745359750894697
1790096829527684352,2.8266843261718737,-0.1814979910850525,-0.4782933890819549,-1.717320680618286
1790096829537684224,2.836684326171874,-0.06863876345645165,-0.5291308805875126,-1.508209177972904
1790096829547684352,2.8466843261718737,0.1475269069885665,-0.32772103105068695,-1.029404764297621
1790096829557684224,2.8566843261718735,0.2259371280670166,-0.1765348613262176,-0.8352572917938232
1790096829567684352,2.8666843261718737,0.3588177321170666,-0.18689504226420126,-0.8285006401079511
1790096829577684224,2.8766843261718735,0.406137079000473,-0.1905843466520309,-0.8260945677757263
1790096829587684352,2.8866843261718738,0.8427682444232507,-0.8576014129280272,-1.219167565146181
1790096829597684224,2.8966843261718735,1.0419975853704622,-0.6376615955599145,-1.3611699066123455
1790096829607684352,2.9066843261718738,1.0531007051467896,-0.6090146899223328,-1.3679161071777344
1790096829617684224,2.9166843261718736,1.188708782196045,0.0592521838843822,-1.074709415435791
1790096829627684352,2.926684326171874,1.1861400848779953,0.04590752042640486,-1.0617406551654671
1790096829637684224,2.9366843261718736,1.12162406754965,-0.10430055220958379,-0.8844741228370782
1790096829647684352,2.946684326171874,0.8782002943842325,-0.2646696035968077,-0.51751947425109
1790096829657684224,2.9566843261718736,0.7805864214897156,-0.2272351831197738,-0.3777326643466949
1790096829667684352,2.966684326171874,0.6307303810965548,-0.24203056364441283,-0.35300324651650744
1790096829677684224,2.9766843261718736,0.2880982515165239,-0.30429094623599184,-0.3373291626240974
1790096829687684352,2.986684326171874,0.2015032321214676,-0.3542914092540741,-0.3826194405555725
1790096829697684224,2.9966843261718736,0.22152189590745114,-0.2997244168978569,-0.48917038915365196
1790096829707684352,3.0066843261718734,0.2393757700920105,-0.2510582208633423,-0.584199070930481
1790096829717684224,3.0166843261718737,0.233417280050364,-0.24470250073630417,-0.6497424516983991
1790096829727684352,3.0266843261718734,0.26626831558664044,-0.2899375454578064,-0.7058400802378108
1790096829737684224,3.0366843261718737,0.280913382768631,-0.3096995651721954,-0.7143095135688782
1790096829747684352,3.0466843261718735,0.3155086951447461,-0.17030080063987849,-0.6252774760856681
1790096829757684224,3.0566843261718737,0.3344612313976069,0.19996425841000787,-0.24703598889613249
1790096829767684352,3.0666843261718735,0.3358896374702453,0.2406738251447677,-0.2041756957769394
1790096829777684224,3.0766843261718737,0.2636998122493691,0.1728427493384685,-0.057155434460284676
1790096829787684352,3.0866843261718735,0.1398076713085174,0.0152711812406778,0.008399149402976
1790096829797684224,3.0966843261718737,0.14483480942804222,0.053896360028410556,0.020799422732808905
1790096829807684352,3.1066843261718735,0.18178036021455612,0.322634390361606,0.11718912945894207
1790096829817684224,3.1166843261718737,0.2033357769250869,0.4269822239875793,0.1916533261537552
1790096829827684352,3.1266843261718735,0.20763259214908236,0.44045859987455327,0.21587173533628284
1790096829837684224,3.1366843261718738,0.243277483128185,0.3761375029440115,0.2673983871936798
1790096829847684352,3.1466843261718735,0.2864110171794891,0.224791795015335,0.2673983871936798
1790096829857684224,3.1566843261718733,0.28119487474076654,0.14194723528862904,0.22843075995386827
1790096829867684352,3.1666843261718736,0.2577940268394324,-0.059508767466967996,0.1285868345232445
1790096829877684224,3.1766843261718734,0.22916647604064258,-0.23100734748420707,0.010950976692601436
1790096829887684352,3.1866843261718736,0.23257190154074997,-0.18106879189371974,-0.09196792352061653
1790096829897684224,3.1966843261718734,0.2381540685892105,-0.1362189352512359,-0.119878776371479
1790096829907684352,3.2066843261718736,0.24800830787132946,0.04953354432793297,-0.10608283536684054
1790096829917684224,3.2166843261718734,0.2805740352621459,0.3605989592025348,-0.027532420706579144
1790096829927684352,3.2266843261718736,0.2851893007755279,0.4013266563415527,-0.0160347409546375
1790096829937684224,3.2366843261718734,0.2888147123776425,0.46839665306193384,0.028074360452704887
1790096829947684352,3.2466843261718736,0.25983748016843305,0.4864178233676482,0.08610091324961558
1790096829957684224,3.2566843261718734,0.2159661140611998,0.4905769509753675,0.1408059640783667
1790096829967684352,3.2666843261718737,0.18811368688119098,0.5019877792794057,0.19961451741310285
1790096829977684224,3.2766843261718734,0.1738292162732866,0.543631948048626,0.2700727980646509
1790096829987684352,3.2866843261718737,0.14486060799002304,0.594483693440751,0.3493112969231665
1790096829997684224,3.2966843261718735,0.11614806734274599,0.5872509018956926,0.41754689130625533
1790096830007684352,3.3066843261718737,0.10332845083056989,0.46480327303778995,0.4532707476521096
1790096830017684224,3.3166843261718735,0.1094934035753738,0.23815648473665027,0.47080846596086884
1790096830027684352,3.3266843261718733,0.1245364844799041,0.0995681062340736,0.4775298535823822
1790096830037684224,3.3366843261718735,0.021567484249656627,0.30696666377441206,0.46255918248331634
1790096830047684352,3.3466843261718733,-0.11893152396422385,0.6018717394864829,0.46093364359877753
1790096830057684224,3.3566843261718735,-0.1558424085378646,0.6823927164077759,0.4653128981590271
1790096830067684352,3.3666843261718733,-0.03572475425835392,0.5245595628865001,0.5754207425707429
1790096830077684224,3.3766843261718735,0.1450473782665454,0.2874385165446135,0.709185222173327
1790096830087684352,3.3866843261718733,0.1727934181690216,0.2510582208633423,0.7285880446434021
1790096830097684224,3.3966843261718735,0.23220077672636041,0.21223757995114206,0.8732831985985429
1790096830107684352,3.4066843261718733,0.1776801943778991,0.2779355049133301,1.1934428215026855
1790096830117684224,3.4166843261718736,0.1780938066814029,0.2723000350709545,1.1951489706781127
1790096830127684352,3.4266843261718734,0.18541062062331415,0.2182845457543441,1.1683689726961513
1790096830137684224,3.4366843261718736,0.2021140903234481,0.258999228477478,0.9026795625686646
1790096830147684352,3.4466843261718734,0.19460594289881145,0.33375427157213833,0.8339636709729371
1790096830157684224,3.4566843261718736,0.1740151196718216,0.5387672781944275,0.6455128192901611
1790096830167684352,3.4666843261718734,0.16522476225817784,0.5684941349006924,0.6554910781910741
1790096830177684224,3.4766843261718736,0.1253134978526654,0.46350891599818067,0.831891125585499
1790096830187684352,3.4866843261718734,0.0933832749724388,0.2779355049133301,1.02851402759552
1790096830197684224,3.496684326171873,0.1115362777246956,0.12922049822753465,1.123468207629398
1790096830207684352,3.5066843261718734,0.1405980806817961,-0.12288724862583227,1.206638816276133
1790096830217684224,3.516684326171873,0.20335912117257954,-0.2300407120104493,1.1560118707373206
1790096830227684352,3.5266843261718734,0.2750628153517446,-0.2758308067442669,1.033796392763862
1790096830237684224,3.5366843261718732,0.350420271210875,-0.3637559916939205,0.9081676310584956
1790096830247684352,3.5466843261718735,0.3639886081218719,-0.3811686933040619,0.8867974877357483
1790096830257684224,3.5566843261718732,0.36627715869799016,-0.3502734419647277,1.035552465689649
1790096830267684352,3.5666843261718735,0.35912024754065186,-0.2421625379356417,1.182713088810774
1790096830277684224,3.5766843261718733,0.3532562648443456,-0.25283812783119375,1.1977079413511054
1790096830287684352,3.5866843261718735,0.25783075404287736,-0.4378713601767298,1.4428535690211164
1790096830297684224,3.5966843261718733,0.249760165810585,-0.5002838969230652,1.5074182748794556
1790096830307684352,3.6066843261718735,0.246522504336723,-0.5167665606519362,1.5140407957520599
1790096830317684224,3.6166843261718733,0.2295007424291611,-0.5957976503620257,1.5341691100328771
1790096830327684352,3.6266843261718735,0.20862524326645782,-0.6972592168700583,1.535564335232763
1790096830337684224,3.6366843261718733,0.20872479834046134,-0.7558201310348132,1.539980137150574
1790096830347684352,3.646684326171873,0.2198668812302941,-0.7466365595087413,1.5459681737734754
1790096830357684224,3.6566843261718733,0.20595117755286718,-0.7863673257938804,1.570495020870835
1790096830367684352,3.666684326171873,0.24204206830760022,-0.7579679223044602,1.5743892063445843
1790096830377684224,3.6766843261718734,0.2723615169525146,-0.7201889157295227,1.5678921937942505
1790096830387684352,3.686684326171873,0.24168626150144618,-0.8584498483045653,1.6163501904684343
1790096830397684224,3.6966843261718734,0.14012847778614698,-1.0436032556828931,1.6041251605573066
1790096830407684352,3.706684326171873,0.1159846261143684,-1.0793671607971191,1.595991134643555
1790096830417684224,3.7166843261718734,0.08762398998440991,-1.0682452517388203,1.5387138022008182
1790096830427684352,3.726684326171873,0.08779768589456072,-0.8179831484753941,1.4310340997034394
1790096830437684224,3.7366843261718734,0.08880620638814596,-0.8028968860929918,1.4264608753064123
1790096830447684352,3.746684326171873,0.11790104503046833,-0.5339184997243742,1.373734215800151
1790096830457684224,3.7566843261718734,0.1284845934111266,-0.154649395106067,1.2956520982833637
1790096830467684352,3.766684326171873,0.11122002900766445,-0.02057218537810598,1.156520948311879
1790096830477684224,3.7766843261718734,0.0915507301688194,0.0293206684291362,1.0370659828186035
1790096830487684352,3.7866843261718732,0.08271520819545121,0.040005487943208184,0.9969978823855559
1790096830497684224,3.796684326171873,0.026461938601383378,0.08437814350651626,0.9169801369755953
1790096830507684352,3.8066843261718732,-0.0324512608349323,0.1197260618209838,0.9155073165893556
1790096830517684224,3.816684326171873,-0.034987169877176094,0.1365264650253765,0.8603512755887947
1790096830527684352,3.8266843261718733,-0.01573434913310754,0.07666513441881057,0.6519733912470891
1790096830537684224,3.836684326171873,-7.63559073675e-05,0.0219905003905296,0.5380037426948547
1790096830547684352,3.8466843261718733,0.018349806980798026,-0.05728485071505844,0.5195775631671389
1790096830557684224,3.856684326171873,0.07462057815446736,-0.23397936392149316,0.3901953611026663
1790096830567684352,3.8666843261718733,0.0897181928157806,-0.2785463631153106,0.3523061573505401
1790096830577684224,3.876684326171873,0.08809808670944992,-0.2898870795121525,0.28858208044226763
1790096830587684352,3.8866843261718733,0.02323959149192563,-0.38083967160257887,0.11918823084512034
1790096830597684224,3.896684326171873,0.019294353168727883,-0.385928458809795,0.10931292063770717
1790096830607684352,3.9066843261718733,-0.01607847829770808,-0.3603199847747563,0.012069802504384396
1790096830617684224,3.916684326171873,-0.086205817759037,-0.307867020368576,-0.1760767251253128
1790096830627684352,3.9266843261718734,-0.09299452746100807,-0.29567035757354965,-0.19645723103101229
1790096830637684224,3.936684326171873,-0.13944727161990514,-0.1718757567931038,-0.3436409171090054
1790096830647684352,3.9466843261718734,-0.1912715435028076,0.0427593067288398,-0.5225034952163696
1790096830657684224,3.956684326171873,-0.21982086812885532,0.14358826195629462,-0.6113236064488805
1790096830667684352,3.966684326171873,-0.2682383060455322,0.314586341381073,-0.7619556188583374
1790096830677684224,3.976684326171873,-0.29411901115446953,0.3693571464988821,-0.8104067196462598
1790096830687684352,3.986684326171873,-0.36540049425953836,0.5191186736526936,-0.9752563436882214
1790096830697684224,3.996684326171873,-0.40140300989151,0.5944307446479797,-1.0679900646209717
1790096830707684352,4.0066843261718725,-0.42903765846077435,0.7115686976320343,-1.1405826079342163
1790096830717684224,4.016684326171873,-0.4553687595511546,0.8218657799152395,-1.1678556330087755
1790096830727684352,4.026684326171873,-0.4600443542003631,0.841213047504425,-1.1651147603988647
1790096830737684224,4.036684326171873,-0.4862431687473614,0.8847030934570206,-1.1619708954952954
1790096830747684352,4.046684326171873,-0.5354789708738705,0.8975248816546844,-1.1715504527091951
1790096830757684224,4.056684326171873,-0.6040744595023005,0.8920384979887177,-1.1868049524448505
1790096830767684352,4.066684326171873,-0.6914804586981501,0.8675255605688464,-1.20031030310952
1790096830777684224,4.076684326171873,-0.8204442262649536,0.9267316460609436,-1.2964469194412231
1790096830787684352,4.086684326171873,-0.8301467164215747,0.9294047855400893,-1.3081295161359336
1790096830797684224,4.096684326171873,-0.891609739535063,0.9306964808686983,-1.3724760078458154
1790096830807684352,4.106684326171873,-0.9422760746043676,0.8920540483720748,-1.38901532264409
1790096830817684224,4.116684326171873,-0.9860808955635296,0.9097937332614647,-1.4061202195902702
1790096830827684352,4.126684326171873,-1.015304446220398,0.919401466846466,-1.4253357648849487
1790096830837684224,4.136684326171872,-1.0266997093816035,0.9043027862444579,-1.4281845389785508
1790096830847684352,4.146684326171872,-1.0516540212189778,0.8509577329933751,-1.3905446979599703
1790096830857684224,4.156684326171873,-1.0623397827148438,0.8186116814613342,-1.3538665771484375
1790096830867684352,4.166684326171873,-1.0278529902999731,0.7381425507326292,-1.339199776817562
1790096830877684224,4.1766843261718725,-1.0091960430145264,0.6946097016334534,-1.331265211105347
1790096830887684352,4.186684326171872,-0.9898951827121324,0.6211722572984435,-1.3364435142261673
1790096830897684224,4.196684326171873,-0.972469136468931,0.5235741150700164,-1.3288420091367337
1790096830907684352,4.206684326171873,-0.9515685721494772,0.43027628259134937,-1.285562048999499
1790096830917684224,4.2166843261718725,-0.9103206248550267,0.29801380587998805,-1.2351475236021419
1790096830927684352,4.226684326171872,-0.8662586700758933,0.12285172792598578,-1.2047511901981451
1790096830937684224,4.236684326171873,-0.8196995711224807,-0.005096310811129829,-1.2001161354899064
1790096830947684352,4.246684326171873,-0.755711010757115,-0.06719259707827341,-1.205777309904226
1790096830957684224,4.2566843261718725,-0.6361534564984918,-0.11091341085305381,-1.22802173304638
1790096830967684352,4.266684326171872,-0.5919873714447021,-0.1148392856121063,-1.2304754257202148
1790096830977684224,4.276684326171873,-0.5746798635730253,-0.10161558420523631,-1.2158904554917425
1790096830987684352,4.286684326171873,-0.5376219153404236,-0.0733016729354858,-1.184661865234375
1790096830997684224,4.296684326171873,-0.5134278770226317,-0.10986157113033967,-1.1604678269165831
1790096831007684352,4.306684326171872,-0.45418832211090343,-0.18422227675193495,-1.108878089359046
1790096831017684224,4.316684326171872,-0.40215798697766897,-0.20269834186030342,-1.0558897798989664
1790096831027684352,4.326684326171873,-0.3517397080313623,-0.1384198447587725,-0.9021728318418172
1790096831037684224,4.336684326171873,-0.3323772549629211,-0.1038440316915512,-0.8242620229721069
1790096831047684352,4.346684326171872,-0.2541698282924923,-0.1547698056341063,-0.8010726153804322
1790096831057684224,4.356684326171872,-0.11910213751784642,-0.2755497084279723,-0.8565588860623806
1790096831067684352,4.366684326171873,0.004417683152134991,-0.42644767524645466,-0.9539088727726174
1790096831077684224,4.376684326171873,0.05344373588621696,-0.5314171787463999,-1.0033934810747491
1790096831087684352,4.386684326171872,0.029572186576646634,-0.5357428242091354,-0.9803485143203272
1790096831097684224,4.396684326171872,-0.0471115931868553,-0.4911212027072906,-0.7802810072898865
1790096831107684352,4.406684326171873,-0.0428306791049719,-0.4857031714056172,-0.7501808312160823
1790096831117684224,4.416684326171873,-0.003959246779026414,-0.4240573796181707,-0.4862537414160003
1790096831127684352,4.4266843261718725,0.0158056728541851,-0.3384093940258026,-0.3930038511753082
1790096831137684224,4.436684326171872,0.02918664549230683,-0.31004172942163416,-0.3831911364566021
1790096831147684352,4.446684326171872,0.1027973298291836,-0.23417012396717035,-0.36867771985399833
1790096831157684224,4.456684326171873,0.23617421354151652,-0.20343316407095458,-0.404883835176512
1790096831167684352,4.4666843261718725,0.2949802793498862,-0.17401838237234232,-0.4338376888352572
1790096831177684224,4.476684326171872,0.2693072855472564,-0.1692046970129013,-0.4357631504535675
1790096831187684352,4.486684326171872,0.2179432475446134,-0.20053311231299004,-0.4324846069370548
1790096831197684224,4.496684326171873,0.1831778287887573,-0.2217375487089157,-0.4302655458450317
1790096831207684352,4.5066843261718725,0.16343920328238906,-0.2778829816449803,-0.4135973746219029
1790096831217684224,4.516684326171872,0.07718219436361172,-0.348457910496559,-0.33330388165452846
1790096831227684352,4.526684326171872,0.006166911288888646,-0.35299880821851565,-0.2753734238034873
1790096831237684224,4.536684326171873,-0.0031305921729654,-0.3512371778488159,-0.2683146595954895
1790096831247684352,4.546684326171873,-0.041894854583102645,-0.35711054157265787,-0.22778838972483456
1790096831257684224,4.556684326171872,-0.0623827762901783,-0.3170297145843506,-0.1064401343464851
1790096831267684352,4.566684326171872,-0.05729963355114423,-0.3152506149938121,-0.09759546602415937
1790096831277684224,4.576684326171873,0.003453743447365934,-0.28535451222134683,0.008294921469619685
1790096831287684352,4.586684326171873,0.0316877029836177,-0.2241809368133545,0.0584886260330677
1790096831297684224,4.596684326171872,0.046461980060263045,-0.20193834586471365,0.07618528641131248
1790096831307684352,4.606684326171872,0.10184078082012717,-0.119743338451906,0.14981318375769617
1790096831317684224,4.616684326171872,0.13707420524029001,-0.05779348249456029,0.2315879513316776
1790096831327684352,4.626684326171873,0.13736286640314332,-0.026666496922130935,0.3150085121902451
1790096831337684224,4.636684326171872,0.10674997342954706,-0.041208379679635004,0.3895314843612462
1790096831347684352,4.646684326171872,0.05985054172904486,-0.04296535457402958,0.44657537998741836
1790096831357684224,4.656684326171872,0.0396287143230438,-0.0329857505857944,0.4665345847606659
1790096831367684352,4.666684326171873,0.023993335159660092,-0.0038278806386418326,0.4800570910071394
1790096831377684224,4.6766843261718725,0.016107876886527154,0.056976206973265095,0.5224015892025766
1790096831387684352,4.686684326171872,0.03170671788781783,0.24561469980413786,0.6516088276336158
1790096831397684224,4.696684326171872,0.0353527851402759,0.2852656841278076,0.6784985661506653
1790096831407684352,4.706684326171873,0.04849186119709085,0.49206330991960656,0.825884761222977
1790096831417684224,4.7166843261718725,0.035408095209419954,0.47718713215922737,0.8774712977678496
1790096831427684352,4.726684326171872,0.031805881069201625,0.4630231808433969,0.8779130100722263
1790096831437684224,4.736684326171872,-0.028032704110393564,0.221944617293074,0.883456761690037
1790096831447684352,4.746684326171873,-0.0361163429915905,0.1594311296939849,0.8904625773429871
1790096831457684224,4.7566843261718725,-0.03289790554223116,0.16850127443546273,0.8964605754215371
1790096831467684352,4.766684326171872,-0.010385894940969411,0.22794146103286422,0.9307344794674627
1790096831477684224,4.776684326171872,0.035900189418971135,0.3284395215579631,0.9953319904872538
1790096831487684352,4.786684326171872,0.08155467069555442,0.3866502783978313,1.0847387618766318
1790096831497684224,4.796684326171873,0.10928922445777946,0.37488419011572194,1.1735087072438424
1790096831507684352,4.806684326171872,0.13907593270718477,0.2920042422102421,1.2548431325837246
1790096831517684224,4.816684326171872,0.1569113880395889,0.2412846684455871,1.2899566888809204
1790096831527684352,4.826684326171872,0.1808960454968197,0.22055216625090623,1.282639324665073
1790096831537684224,4.836684326171873,0.226227931565785,0.2003703394291185,1.2581081534101437
1790096831547684352,4.846684326171872,0.3022370995227749,0.18899921878262965,1.261792065046845
1790096831557684224,4.856684326171872,0.3193967640399933,0.1869192570447921,1.2649120092391968
1790096831567684352,4.866684326171872,0.36825493432566186,0.023688583861892543,1.4214801431698962
1790096831577684224,4.876684326171873,0.39269998518643967,-0.10226091035207217,1.4727139737870878
1790096831587684352,4.886684326171872,0.39557386676683604,-0.10883953165989567,1.473746895039852
1790096831597684224,4.896684326171872,0.4747096647749165,-0.2095244409236144,1.4718812384651085
1790096831607684352,4.906684326171872,0.5490753054618835,-0.2156290858983993,1.476875901222229
1790096831617684224,4.916684326171872,0.5632709017003087,-0.21432673712415248,1.48299694967443
1790096831627684352,4.9266843261718725,0.6265387803709682,-0.2249215513861315,1.5241673462966872
1790096831637684224,4.936684326171872,0.668046744454548,-0.30479348963772196,1.6079639396559753
1790096831647684352,4.946684326171872,0.7016966602780659,-0.4452463683200744,1.7211056855609328
1790096831657684224,4.956684326171872,0.7268878827222393,-0.6379996259196489,1.8328110053577285
1790096831667684352,4.9666843261718725,0.7414922118186951,-0.9014304332010329,1.9127396293701577
1790096831677684224,4.976684326171872,0.7414922118186951,-1.0396620035171509,1.9386764764785769
1790096831687684352,4.986684326171872,0.7598438972915443,-1.0267767978128324,1.9129060650699399
1790096831697684224,4.996684326171872,0.7522416150559811,-1.033188208058875,1.8718475669862598
1790096831707684352,5.0066843261718725,0.6920249725718385,-0.9763042501971742,1.8075017790914236
1790096831717684224,5.016684326171872,0.6755207180976868,-0.95658677816391,1.7908514738082886
1790096831727684352,5.026684326171872,0.6005790719560495,-0.9689872322797904,1.7800685205504336
1790096831737684224,5.036684326171872,0.5076241396078949,-0.8398137017334314,1.7359875013758577
1790096831747684352,5.046684326171873,0.5025446025204111,-0.8316895796907576,1.733200582818612
1790096831757684224,5.056684326171872,0.47694278563246745,-0.7558219956785925,1.6640413882389724
1790096831767684352,5.066684326171872,0.4586699306964874,-0.601073682308197,1.4310624599456787
1790096831777684224,5.076684326171872,0.44793730386504477,-0.5910261236381269,1.4119949030686947
1790096831787684352,5.086684326171872,0.38838612058873834,-0.5134182650001021,1.3034738727753674
1790096831797684224,5.096684326171872,0.3284022778620151,-0.35676042495912114,1.194900015739876
1790096831807684352,5.106684326171872,0.28806942015309195,-0.12761243476109063,1.0750829211167507
1790096831817684224,5.116684326171872,0.2469299706415646,0.004407367774713171,0.9428087721316302
1790096831827684352,5.126684326171872,0.1776801943778991,-0.0665823519229888,0.8819107413291931
1790096831837684224,5.136684326171872,0.18206399419954244,-0.06928007109348876,0.7942348436096214
1790096831847684352,5.146684326171872,0.1957294077417446,-0.005204311310649787,0.5186803476436134
1790096831857684224,5.156684326171872,0.2021140903234481,0.0366508364677429,0.3895678520202636
1790096831867684352,5.166684326171872,0.12941916385592683,0.15018055707196096,0.17013687909374806
1790096831877684224,5.1766843261718725,0.1031568273901939,0.1911951899528503,0.0908635333180427
1790096831887684352,5.186684326171872,0.03306268071308996,0.22519607996223914,-0.023170236621484264
1790096831897684224,5.196684326171872,-0.06217442051913524,0.28132304168919753,-0.25183583359047945
1790096831907684352,5.206684326171872,-0.0697129443287849,0.2858765125274658,-0.2707580327987671
1790096831917684224,5.2166843261718725,-0.10176912749797272,0.2899231274691833,-0.4009278787434826
1790096831927684352,5.226684326171872,-0.1240783482789993,0.4049917459487915,-0.6721610426902771
1790096831937684224,5.236684326171872,-0.12712003831649915,0.4235362486017523,-0.696298330945798
1790096831947684352,5.246684326171872,-0.16168346121730637,0.5674014776841819,-0.8672076660677642
1790096831957684224,5.256684326171872,-0.2273115366697311,0.7324821949005127,-1.0246199369430542
1790096831967684352,5.266684326171872,-0.2474367925807586,0.7507207200557359,-1.038246402444443
1790096831977684224,5.276684326171872,-0.33087056978037105,0.7895747423943826,-1.0996174762763136
1790096831987684352,5.286684326171872,-0.3971270620822906,0.7953994870185852,-1.1516761779785156
1790096831997684224,5.296684326171872,-0.4096521965954522,0.7989322007935833,-1.1969593192390167
1790096832007684352,5.306684326171872,-0.4356412208675176,0.8684079276308234,-1.379700206422121
1790096832017684224,5.316684326171872,-0.4459948539733886,0.9151255488395692,-1.4797011613845823
1790096832027684352,5.326684326171872,-0.5044061562520774,1.05834139036201,-1.5805147332851472
1790096832037684224,5.336684326171872,-0.5284592509269714,1.1173160076141355,-1.6220285892486572
1790096832047684352,5.346684326171872,-0.5649654304292605,1.1578784512720035,-1.6407886192546
1790096832057684224,5.356684326171872,-0.6290365277598396,1.201012314046707,-1.7001378464749872
1790096832067684352,5.366684326171872,-0.6359683275222778,1.2052780389785769,-1.7069363594055176
1790096832077684224,5.376684326171872,-0.6598585275764837,1.173115532874521,-1.7472170781447949
1790096832087684352,5.386684326171872,-0.7129350900650024,1.0941038131713867,-1.8401010036468504
1790096832097684224,5.396684326171872,-0.7218797642254324,1.0881133388396822,-1.8422345928568902
1790096832107684352,5.406684326171872,-0.8053889994943721,1.0214943522596753,-1.8404839555563686
1790096832117684224,5.416684326171872,-0.9120712876319884,0.9059628248214722,-1.7765729427337646
1790096832127684352,5.426684326171872,-0.9322025115256309,0.875959561892203,-1.7645716300068865
1790096832137684224,5.436684326171872,-0.9947510482529275,0.7224455498191893,-1.7100882749915134
1790096832147684352,5.446684326171872,-1.0262997150421145,0.5761052966117859,-1.6629552841186523
1790096832157684224,5.456684326171872,-1.0220284483834792,0.5092521558275156,-1.653802527321715
1790096832167684352,5.466684326171872,-0.9975544562975548,0.33307190902580436,-1.6367578577944097
1790096832177684224,5.476684326171872,-0.9817079305648804,0.2473931461572647,-1.6305804252624512
1790096832187684352,5.486684326171872,-0.9675430673248197,0.19739954467036422,-1.6105829521461865
1790096832197684224,5.496684326171872,-0.9287198116868407,0.11146809189542205,-1.573124550828303
1790096832207684352,5.506684326171872,-0.8591433035821247,-5.330020214179554e-05,-1.5344198486002942
1790096832217684224,5.516684326171872,-0.6779867105914156,-0.1915226162408764,-1.4402045429190033
1790096832227684352,5.526684326171872,-0.6518504023551941,-0.2180724740028381,-1.4265574216842651
1790096832237684224,5.536684326171872,-0.486771360944775,-0.28615249431460343,-1.346427827509299
1790096832247684352,5.546684326171872,-0.4117874205112457,-0.3237490355968475,-1.328210949897766
1790096832257684224,5.556684326171872,-0.40070151588506353,-0.32678446090537594,-1.3254394825946583
1790096832267684352,5.566684326171872,-0.30215067992832734,-0.3503007188543598,-1.301420757388305
1790096832277684224,5.576684326171872,-0.2676274478435516,-0.3426853120326996,-1.295836091041565
1790096832287684352,5.586684326171872,-0.24401907520969987,-0.3366500843953271,-1.2887358395345943
1790096832297684224,5.5966843261718715,-0.15826239573780387,-0.34510135488768723,-1.2600244600178327
1790096832307684352,5.606684326171872,-0.1063637807965278,-0.3878880143165588,-1.2390272617340088
1790096832317684224,5.616684326171872,-0.05665008411992963,-0.4321100834589905,-1.2069446175773546
1790096832327684352,5.626684326171872,0.07242403323894997,-0.454598926945382,-1.0759717181955764
1790096832337684224,5.6366843261718715,0.136753425002098,-0.4312581717967987,-0.9928558468818665
1790096832347684352,5.646684326171872,0.14997174430235577,-0.37718322742824595,-0.9243609355880155
1790096832357684224,5.656684326171872,0.13896474471338188,-0.20128113626730929,-0.7570840747113585
1790096832367684352,5.666684326171872,0.1318666487932205,-0.1429382562637329,-0.7051467895507812
1790096832377684224,5.676684326171872,0.06529836555097668,0.006584356283187348,-0.5674016480015911
1790096832387684352,5.686684326171872,0.052456509321928,0.0354291424155235,-0.5408288836479187
1790096832397684224,5.696684326171872,0.0723947965058017,0.09172549405948116,-0.4511065680743994
1790096832407684352,5.706684326171872,0.09622196566174841,0.15537197572815317,-0.3521228102321487
1790096832417684224,5.716684326171872,0.11631075111379738,0.15545381677220133,-0.2585284470885563
1790096832427684352,5.726684326171871,0.1300412298070984,0.03631313615074774,-0.14318874590939612
1790096832437684224,5.736684326171872,0.1080436110496521,0.0012216945178806,-0.1107160672545433
1790096832447684352,5.746684326171872,0.10255435491326127,0.00703384832745013,-0.10215928574600527
1790096832457684224,5.756684326171872,0.07933014970745514,0.04128628328992354,-0.06562971738442362
1790096832467684352,5.766684326171871,0.0522301085970723,0.09200385051380863,-0.020147493439973376
1790096832477684224,5.776684326171872,0.03644465580806388,0.11573642080737892,0.031796145841173074
1790096832487684352,5.786684326171872,0.03531506798642491,0.12593826176325673,0.07337526325699942
1790096832497684224,5.796684326171872,0.02735231547927685,0.16138121522874432,0.09927077073775864
1790096832507684352,5.8066843261718715,0.011985432655863475,0.23900622095165347,0.11565718754152951
1790096832517684224,5.816684326171872,-0.026625280309093814,0.3346551392067039,0.21632385014315914
1790096832527684352,5.826684326171872,-0.0410031229257583,0.3628432750701904,0.259457379579544
1790096832537684224,5.836684326171872,-0.15012441254042724,0.2457858822056046,0.4489316344391624
1790096832547684352,5.8466843261718715,-0.1753895133733749,0.2186833173036575,0.4928010404109955
1790096832557684224,5.856684326171872,-0.22501106076812105,0.131417854194786,0.5794961030036637
1790096832567684352,5.866684326171872,-0.24615145111144487,0.08694961336840809,0.7229504547706871
1790096832577684224,5.876684326171872,-0.24536713138649754,0.08995812851183249,0.7275965536953538
1790096832587684352,5.8866843261718715,-0.22319130652373304,0.15997213335016267,0.8135541730964369
1790096832597684224,5.896684326171871,-0.168670192360878,0.2754921019077301,0.9625425934791564
1790096832607684352,5.906684326171872,-0.16837941253468738,0.2752013220815395,0.9891491071771406
1790096832617684224,5.916684326171872,-0.17602873220826457,0.25236344809548417,1.080899688932623
1790096832627684352,5.926684326171872,-0.1961583197116851,0.2009687423706054,1.0963181257247925
1790096832637684224,5.936684326171871,-0.20489325654646123,0.17758994139521572,1.1035115817361822
1790096832647684352,5.946684326171872,-0.21222196968675386,0.17155408919263487,1.1478282949072183
1790096832657684224,5.956684326171872,-0.2071535736322403,0.1997470557689666,1.1848909854888916
1790096832667684352,5.966684326171872,-0.18210040422423396,0.22295808327529704,1.2272603031527292
1790096832677684224,5.976684326171871,-0.12384004595761758,0.21348935117756712,1.3768158725657629
1790096832687684352,5.986684326171872,-0.1026986986398696,0.2009687423706054,1.4383926391601562
1790096832697684224,5.996684326171872,-0.07630155254730024,0.11601794751865155,1.5003058964893885
1790096832707684352,6.006684326171872,-0.0706534276389497,-0.1026189848652455,1.572005623133021
1790096832717684224,6.016684326171871,-0.0709346383810043,-0.1380514800548553,1.5819417238235474
1790096832727684352,6.026684326171872,-0.06975170466169482,-0.16171016886944117,1.5594659759424692
1790096832737684224,6.036684326171872,-0.02007686944675401,-0.10646097720247252,1.5195870318429783
1790096832747684352,6.046684326171872,0.07887569127708913,0.02582666855540408,1.5056713370990547
1790096832757684224,6.0566843261718715,0.2039466351270675,0.1881409585475921,1.5868284702301023
1790096832767684352,6.066684326171871,0.21416393877345838,0.18206230606830395,1.6094617526176538
1790096832777684224,6.076684326171872,0.26585653686392013,0.11247819278484948,1.7223647335470051
1790096832787684352,6.086684326171872,0.35056371415490767,-0.11364630896392196,1.8362684492210986
1790096832797684224,6.0966843261718715,0.4470638334751129,-0.3151971995830536,1.9111883640289309
1790096832807684352,6.106684326171871,0.49099014243247024,-0.3963774307140995,1.883386901633344
1790096832817684224,6.116684326171872,0.5435777306556702,-0.4935645759105682,1.850103616714477
1790096832827684352,6.126684326171872,0.5636628828204557,-0.5231637466170072,1.8282565946194542
1790096832837684224,6.1366843261718715,0.5873552842087778,-0.6823811078662891,1.8145682692067724
1790096832847684352,6.146684326171871,0.5924454927444458,-0.7605048418045044,1.815896153450012
1790096832857684224,6.156684326171872,0.5511592749266829,-0.9762138099566575,1.891510270318059
1790096832867684352,6.166684326171872,0.398286398402525,-1.5020098877792252,2.043733807130721
1790096832877684224,6.176684326171872,0.3676536977291107,-1.6022523641586304,2.071841239929199
1790096832887684352,6.186684326171871,0.37110615879214515,-1.6189392780121994,1.9561839627576694
1790096832897684224,6.196684326171871,0.486768901348114,-1.2290246486663818,1.7615307569503784
1790096832907684352,6.206684326171872,0.48750835381410673,-1.2106940140181304,1.7531632681196658
1790096832917684224,6.216684326171872,0.4983749985694885,-0.9413156509399414,1.63019859790802
1790096832927684352,6.226684326171871,0.49112640498128185,-0.8972577660985798,1.595314721924642
1790096832937684224,6.236684326171871,0.4446894928230467,-0.719490720941041,1.4471721011163938
1790096832947684352,6.246684326171872,0.4000285863876343,-0.7678350210189819,1.4628264904022217
1790096832957684224,6.256684326171872,0.37417841218848363,-0.794809125371908,1.4569821062436337
1790096832967684352,6.266684326171871,0.2876061495915938,-0.7979138234424553,1.35342591798896
1790096832977684224,6.276684326171871,0.2314347624778747,-0.7403468489646912,1.2288719415664673
1790096832987684352,6.286684326171872,0.2277353942633563,-0.6475263642496565,1.1767445236190082
1790096832997684224,6.296684326171872,0.22247458341047038,-0.3581249185432904,1.0867592681337874
1790096833007684352,6.3066843261718715,0.221050351858139,-0.2223484069108963,1.0566130876541138
1790096833017684224,6.316684326171871,0.21701990332559812,-0.18025256621503227,1.0619870335967425
1790096833027684352,6.326684326171872,0.22767759434651977,-0.15619885542108977,0.8806151726786868
1790096833037684224,6.336684326171872,0.2308239042758941,-0.153933510184288,0.8330429196357727
1790096833047684352,6.3466843261718715,0.28060475929761586,-0.14050946215148988,0.500797628489732
1790096833057684224,6.356684326171871,0.26848694455188893,-0.16134416787264166,0.2703676619128453
1790096833067684352,6.366684326171871,0.2666910961148908,-0.16107439364395415,0.25850188772252664
1790096833077684224,6.376684326171872,0.22668219896696218,-0.13575291513116958,0.06162778627797358
1790096833087684352,6.3866843261718715,0.17555325091095098,-0.08358700489390744,-0.12051110529745351
1790096833097684224,6.396684326171871,0.09761155188988378,-0.02242027831490375,-0.38339613056629746
1790096833107684352,6.406684326171871,0.067116841673851,0.0323749035596847,-0.5139515995979309
1790096833117684224,6.416684326171872,0.050836641814468495,0.06660507059778689,-0.5732282293289702
1790096833127684352,6.426684326171872,-0.004626400737474737,0.18984608153111227,-0.7491504482578986
1790096833137684224,6.436684326171871,-0.07436050862453128,0.3515928608970399,-0.8902918912869374
1790096833147684352,6.446684326171871,-0.14539766458354372,0.5230827164480711,-0.988964054014589
1790096833157684224,6.456684326171872,-0.22241835396534027,0.6999580496118241,-1.1136608079781523
1790096833167684352,6.466684326171872,-0.2566322088241577,0.7721872925758362,-1.1754992008209229
1790096833177684224,6.476684326171871,-0.3088749912938264,0.7881623743059565,-1.292505800815049
1790096833187684352,6.486684326171871,-0.35868070583149364,0.7938507753189169,-1.4095030685867567
1790096833197684224,6.496684326171872,-0.3671955466270447,0.7935669422149658,-1.430222511291504
1790096833207684352,6.506684326171872,-0.4302157743549709,0.8685392811841987,-1.5975520686697957
1790096833217684224,6.516684326171871,-0.46417431664323894,0.9510012460785915,-1.6688630151087747
1790096833227684352,6.526684326171871,-0.46648535404331565,0.9551360620762741,-1.6725455346305593
1790096833237684224,6.536684326171871,-0.5551524466104537,0.975110855765781,-1.7625495584972672
1790096833247684352,6.546684326171872,-0.6158103942871094,0.8821398019790649,-1.731370210647583
1790096833257684224,6.5566843261718715,-0.6269311681684814,0.8739766809713334,-1.7377587260783878
1790096833267684352,6.566684326171871,-0.6732300519943237,0.8399913311004639,-1.7643558979034424
1790096833277684224,6.576684326171871,-0.6765053100708901,0.8135965533790488,-1.7815029091256964
1790096833287684352,6.586684326171872,-0.6944162168565942,0.663886851836382,-1.8065406540786326
1790096833297684224,6.5966843261718715,-0.7123242616653442,0.5106683373451233,-1.786346435546875
1790096833307684352,6.606684326171871,-0.7244915405197978,0.48542124782067375,-1.7495404563396637
1790096833317684224,6.616684326171871,-0.7347100509537607,0.40739962504001415,-1.6335813541420408
1790096833327684352,6.626684326171872,-0.7330930829048157,0.3658975064754486,-1.5713281631469729
1790096833337684224,6.6366843261718715,-0.6782205712606895,0.40123207652373427,-1.5759008927320677
1790096833347684352,6.646684326171871,-0.49260051341283373,0.3838547744195354,-1.715717932427688
1790096833357684224,6.656684326171871,-0.4368321597576141,0.3720059692859649,-1.7637450695037842
1790096833367684352,6.666684326171872,-0.4025628484207003,0.26023536908125383,-1.8017049600514037
1790096833377684224,6.676684326171872,-0.42647494443898576,0.05456705426340486,-1.7337920327172154
1790096833387684352,6.686684326171871,-0.428891122341156,0.0390942245721817,-1.7277051210403442
1790096833397684224,6.696684326171871,-0.4128113038544634,-0.025521663929732076,-1.6430988386700458
1790096833407684352,6.706684326171871,-0.2682383060455322,-0.0482569336891174,-1.4961940050125122
1790096833417684224,6.716684326171872,-0.23153119646182396,-0.06747959829012039,-1.4840264639430252
1790096833427684352,6.726684326171871,-0.0489441379904747,-0.1630962193012237,-1.4235031604766846
1790096833437684224,6.736684326171871,-0.018391507304554217,-0.1920594084656434,-1.4150261505170583
1790096833447684352,6.746684326171871,0.07575772503377887,-0.33403213871371884,-1.3593384885111608
1790096833457684224,6.756684326171872,0.1110978424549102,-0.4654656052589416,-1.2946144342422483
1790096833467684352,6.766684326171871,0.10936915011730741,-0.5179026377938551,-1.2669553568406031
1790096833477684224,6.776684326171871,0.13182923964240972,-0.5919282926718549,-1.2040950278945115
1790096833487684352,6.786684326171871,0.1532463133335113,-0.6053496599197388,-1.176110029220581
1790096833497684224,6.796684326171872,0.20400026172003266,-0.5294185303956681,-1.169715871529334
1790096833507684352,6.8066843261718715,0.3775905224899259,-0.3914442457609834,-1.1711413325699265
1790096833517684224,6.816684326171871,0.436068594455719,-0.3524588644504547,-1.1730557680130005
1790096833527684352,6.826684326171871,0.48871800725443604,-0.40153017222755144,-1.171011193574819
1790096833537684224,6.836684326171872,0.4978892149873614,-0.43412981998521033,-1.1300364141311734
1790096833547684352,6.8466843261718715,0.4977641701698303,-0.4367557764053345,-1.125409722328186
1790096833557684224,6.856684326171871,0.4619873425892871,-0.3889868648478862,-1.0794124965120415
1790096833567684352,6.866684326171871,0.4134672284126282,-0.3518480062484741,-0.9464314579963684
1790096833577684224,6.876684326171871,0.41243294662771485,-0.33598898243561703,-0.91454102656892
1790096833587684352,6.8866843261718715,0.40527360576568455,-0.21983902454681092,-0.6910600067605799
1790096833597684224,6.896684326171871,0.4018611311912536,-0.1423274129629135,-0.575036346912384
1790096833607684352,6.906684326171871,0.3876268292084895,-0.10812553521409174,-0.5388574803657112
1790096833617684224,6.916684326171871,0.3311047518719222,-0.04628058300488248,-0.41017024655568174
1790096833627684352,6.926684326171872,0.2882435619831085,-0.061695571988821,-0.3251998126506805
1790096833637684224,6.936684326171871,0.26597910541570446,-0.01592975863936808,-0.2611508665123047
1790096833647684352,6.946684326171871,0.244262546300888,0.0287098214030265,-0.1986780762672424
1790096833657684224,6.956684326171871,0.23889243527494644,0.10274060360254605,-0.1449769894006428
1790096833667684352,6.966684326171872,0.2277164779103164,0.25347322375074544,0.02737022229408656
1790096833677684224,6.976684326171871,0.2241045832633972,0.3017585575580597,0.0908635333180427
1790096833687684352,6.986684326171871,0.21271725889702156,0.32750381789839617,0.1661189045877253
1790096833697684224,6.996684326171871,0.15789297284495052,0.3143610150144601,0.3002786987992546
1790096833707684352,7.006684326171871,0.1501920670270919,0.3115321099758148,0.3174878656864166
1790096833717684224,7.016684326171871,0.11258143667934856,0.2636088877939672,0.33265344757114335
1790096833727684352,7.026684326171871,0.084220565855503,0.3268032968044281,0.3663556575775146
1790096833737684224,7.036684326171871,0.07868009844872724,0.3340269435332004,0.38367838365992557
1790096833747684352,7.046684326171871,0.028345689294157178,0.3809223709578199,0.5345094123366224
1790096833757684224,7.0566843261718715,-0.0074065229855477,0.3396310806274414,0.6155813336372375
1790096833767684352,7.066684326171871,-0.018850570664790938,0.31292830210914163,0.639377679505495
1790096833777684224,7.076684326171871,-0.060331624821446016,0.18550520783620153,0.7378334037854677
1790096833787684352,7.086684326171871,-0.07852632366362886,0.07920684489837594,0.8393501120044375
1790096833797684224,7.0966843261718715,-0.05175646909915918,0.1399988860231147,0.9083187471273177
1790096833807684352,7.106684326171871,-0.0342838019132614,0.1924168914556503,0.9442171454429626
1790096833817684224,7.116684326171871,-0.017745790312761734,0.25011618050066026,0.9934636916993766
1790096833827684352,7.126684326171871,0.0021073793319718826,0.3036979192018221,1.0827265086738034
1790096833837684224,7.1366843261718715,0.013712781129608075,0.28590401552852407,1.168589680079351
1790096833847684352,7.146684326171871,0.01737460520034474,0.22532442061822328,1.2368557771972961
1790096833857684224,7.156684326171871,-0.0050749693297142545,0.09004410083435906,1.2976481623343226
1790096833867684352,7.166684326171871,-0.0092390645295381,0.0678040459752082,1.30644953250885
1790096833877684224,7.176684326171871,0.03977654453103503,0.15992976781385077,1.363732908755141
1790096833887684352,7.186684326171871,0.1196497082710266,0.2919849753379822,1.4341166019439695
1790096833897684224,7.196684326171871,0.1319210612487091,0.30479691564630707,1.447847550736692
1790096833907684352,7.206684326171871,0.2635117945137422,0.41805493049415265,1.5958399991981556
1790096833917684224,7.216684326171871,0.2931303381919861,0.3115321099758148,1.6332528591156006
1790096833927684352,7.226684326171871,0.2985944090824082,0.20109166463595163,1.636398838590847
1790096833937684224,7.236684326171871,0.32241184852400606,-0.13807410270267548,1.640804050824586
1790096833947684352,7.246684326171871,0.3407764136791229,-0.2229592502117157,1.6326420307159424
1790096833957684224,7.256684326171871,0.37264338955067733,-0.23071816237292828,1.64012382704184
1790096833967684352,7.266684326171871,0.46225202641654134,-0.22906305137477295,1.6783632450818635
1790096833977684224,7.276684326171871,0.5661215806046533,-0.21938622836228544,1.7505782943842214
1790096833987684352,7.286684326171871,0.6389731303331893,-0.30890038753531723,1.8208293818649184
1790096833997684224,7.296684326171871,0.6606017320398754,-0.5088208930814363,1.8660077183026005
1790096834007684352,7.3066843261718715,0.6532855976316756,-0.7819232123904895,1.8782219958501092
1790096834017684224,7.316684326171871,0.6449744679526422,-0.9074827818145833,1.861808852868341
1790096834027684352,7.326684326171871,0.643756628036499,-0.92054682970047,1.8580446243286133
1790096834037684224,7.336684326171871,0.6414586763872131,-0.965931669074019,1.8402353729180103
1790096834047684352,7.346684326171871,0.6560353150271186,-1.0103150797211458,1.862351804550237
1790096834057684224,7.356684326171871,0.7024331886847769,-0.9960763788266753,1.8872047793642488
1790096834067684352,7.366684326171871,0.7105930789753291,-1.0771302133265959,1.906847793069183
1790096834077684224,7.376684326171871,0.699343740940094,-1.0873081684112549,1.867207407951355
1790096834087684352,7.386684326171871,0.6917182219781641,-1.0894014424048375,1.8546477056309982
1790096834097684224,7.396684326171871,0.6713642165223006,-1.053481978229024,1.7826658152632813
1790096834107684352,7.406684326171871,0.7027525285987545,-0.8468314412036074,1.6478407130097608
1790096834117684224,7.416684326171871,0.7401087929101485,-0.6030590402068159,1.5108336637182926
1790096834127684352,7.426684326171871,0.7150766464843413,-0.539204992230023,1.4336452377055808
1790096834137684224,7.436684326171871,0.6082021926790562,-0.6030535532954802,1.3421025236417177
1790096834147684352,7.446684326171871,0.4589937345810649,-0.6180357537820975,1.2112864282395976
1790096834157684224,7.456684326171871,0.33380270768728665,-0.43577011267246135,1.0877428945444945
1790096834167684352,7.466684326171871,0.2932201495426024,-0.3109864232437556,1.0297088067803266
1790096834177684224,7.4766843261718705,0.32773033799534196,-0.24166396395031517,0.9466359952567839
1790096834187684352,7.486684326171871,0.3371113240718841,-0.2278460264205932,0.92711341381073
1790096834197684224,7.496684326171871,0.347163148652153,-0.08991288510466966,0.7696351011713221
1790096834207684352,7.506684326171871,0.2980764834876006,-0.3753604818042309,0.4427620541868441
1790096834217684224,7.5166843261718705,0.29773895226865144,-0.38212351325352273,0.42603716991103485
1790096834227684352,7.526684326171871,0.3163238184936911,-0.35247945354594756,0.1560126646286623
1790096834237684224,7.536684326171871,0.253425270318985,-0.2956500649452209,-0.1766875684261322
1790096834247684352,7.546684326171871,0.23033631315606057,-0.26348568758787316,-0.2017951370456767
1790096834257684224,7.556684326171871,0.07984007607544207,-0.05186234591581805,-0.3538812069911448
1790096834267684352,7.566684326171871,-0.0953685268759727,0.1973036676645279,-0.5145624876022339
1790096834277684224,7.576684326171871,-0.1299108788812609,0.24727982902128817,-0.5660085327181186
1790096834287684352,7.586684326171871,-0.21197030097282044,0.3602890393672503,-0.7252284659711237
1790096834297684224,7.596684326171871,-0.2704612769608903,0.4512946208502927,-0.9221161222494066
1790096834307684352,7.606684326171871,-0.3067800086610452,0.5670482049412735,-1.1001520540567271
1790096834317684224,7.616684326171871,-0.34094302198743315,0.7769405612923235,-1.2618337219736573
1790096834327684352,7.626684326171871,-0.38046946798886594,0.8905269173296863,-1.3740876850206682
1790096834337684224,7.636684326171871,-0.41549843720617,0.8946666052262402,-1.4661784661139665
1790096834347684352,7.64668432617187,-0.4227826595306396,0.8925241827964783,-1.48703134059906
1790096834357684224,7.656684326171871,-0.45098611754136014,0.8773376992995622,-1.5559128472731223
1790096834367684352,7.666684326171871,-0.47135332316905787,1.1379513797625131,-1.7297773628485267
1790096834377684224,7.676684326171871,-0.47283214844035043,1.1517811840173688,-1.7385532586947774
1790096834387684352,7.6866843261718705,-0.5394342356941517,1.1136754045168926,-1.7236444433728784
1790096834397684224,7.696684326171871,-0.6439093947410583,1.0898278951644895,-1.7264834642410278
1790096834407684352,7.706684326171871,-0.6541235629829875,1.1083777749866208,-1.7345843630105342
1790096834417684224,7.716684326171871,-0.7199289600151771,1.1713487657058863,-1.7746600341890622
1790096834427684352,7.7266843261718705,-0.7880336829909562,1.1130929234762301,-1.8041507205670246
1790096834437684224,7.736684326171871,-0.7892910242080688,1.0824977159500122,-1.8297165632247925
1790096834447684352,7.746684326171871,-0.8089813650038595,1.0250231592621313,-1.7876750016119607
1790096834457684224,7.756684326171871,-0.8344936966896057,0.9505546689033508,-1.7332026958465576
1790096834467684352,7.7666843261718705,-0.8501537405064292,0.8548923147062063,-1.6903078293251144
1790096834477684224,7.776684326171871,-0.8841161745318308,0.6044059324486791,-1.6173426514507483
1790096834487684352,7.786684326171871,-0.8974109888076782,0.4966188073158264,-1.5933187007904053
1790096834497684224,7.796684326171871,-0.8924393896758855,0.4600099335631266,-1.5711725666597764
1790096834507684352,7.806684326171871,-0.8231925650470886,0.3723042188974671,-1.4709428155596558
1790096834517684224,7.81668432617187,-0.8063947558403015,0.3536805510520935,-1.4479371309280396
1790096834527684352,7.826684326171871,-0.6852464429603072,0.2116834698706548,-1.4800555193199616
1790096834537684224,7.836684326171871,-0.6750625967979431,0.1997470557689666,-1.482755422592163
1790096834547684352,7.846684326171871,-0.6085925803639632,0.019381249806514098,-1.543800414184383
1790096834557684224,7.85668432617187,-0.5449520945549011,-0.1692046970129013,-1.490085482597351
1790096834567684352,7.866684326171871,-0.5422161022359001,-0.17508202437498105,-1.4760001609746278
1790096834577684224,7.876684326171871,-0.5004804487526701,-0.2204238474407329,-1.377060405626605
1790096834587684352,7.886684326171871,-0.3843383360113189,-0.26812175875098926,-1.276783832624404
1790096834597684224,7.89668432617187,-0.3329881131649017,-0.2528907656669616,-1.2659045457839966
1790096834607684352,7.906684326171871,-0.2904833586428292,-0.29589557899482083,-1.2641543552118555
1790096834617684224,7.916684326171871,-0.2291440814733505,-0.3579564988613128,-1.2616286277770996
1790096834627684352,7.926684326171871,-0.22784657341053607,-0.4461870629585677,-1.2317859660711798
1790096834637684224,7.9366843261718705,-0.2549013554368874,-0.7037958204243003,-1.102028242058783
1790096834647684352,7.946684326171871,-0.2743467688560486,-0.8276980519294739,-1.0307283401489258
1790096834657684224,7.956684326171871,-0.2560390089404897,-0.8059030900283229,-0.9810358899642165
1790096834667684352,7.966684326171871,-0.12664013587825015,-0.5667724973987971,-0.8664786117403012
1790096834677684224,7.9766843261718705,-0.0910925939679145,-0.499673068523407,-0.838922381401062
1790096834687684352,7.98668432617187,0.12513935650589866,-0.3759555446867968,-0.7485975978851147
1790096834697684224,7.996684326171871,0.1501920670270919,-0.3616215884685516,-0.7381325364112854
1790096834707684352,8.006684326171872,0.241596486964323,-0.30187611210361376,-0.7234066454780284
1790096834717684224,8.016684326171871,0.1288124173879623,-0.2412846684455871,-0.7198071479797363
1790096834727684352,8.026684326171871,0.11721532110109951,-0.26550213484820334,-0.7156287783716492
1790096834737684224,8.036684326171871,0.05075716262171515,-0.4098677579355089,-0.6746932429172758
1790096834747684352,8.04668432617187,0.0707819238305091,-0.3903313875198364,-0.6141305565834045
1790096834757684224,8.05668432617187,0.08967442808275204,-0.3700613065577905,-0.5700480442611477
1790096834767684352,8.06668432617187,0.15048057157897152,-0.247396347816633,-0.340399005543809
1790096834777684224,8.076684326171872,0.17463848655380973,-0.07864684547882408,-0.06185489931332252
1790096834787684352,8.086684326171872,0.1624090075492859,-0.0287098214030265,0.0108425384387373
1790096834797684224,8.096684326171872,0.12924205119994567,-0.04391134552129271,0.040209117972485726
1790096834807684352,8.106684326171871,0.1037676781415939,-0.055587101727724,0.0627645552158355
1790096834817684224,8.116684326171871,0.0966303845155986,-0.07867834776979897,0.059405830008508576
1790096834827684352,8.12668432617187,0.1020664308200896,0.004959995453063928,0.11271876800196237
1790096834837684224,8.13668432617187,0.1049893721938133,0.0366508364677429,0.1311794519424438
1790096834847684352,8.14668432617187,0.12624396318809006,0.11688692216995206,0.20025687105356244
1790096834857684224,8.15668432617187,0.14818515034728594,0.16186420202052643,0.281657336416428
1790096834867684352,8.16668432617187,0.19803766644559598,0.14493533472542672,0.3929439761769271
1790096834877684224,8.17668432617187,0.2369323819875717,0.1490467339754104,0.4390464723110199
1790096834887684352,8.186684326171871,0.24530738544598468,0.16053640662050103,0.4551735440397537
1790096834897684224,8.196684326171871,0.3159511427038195,0.25640465307808874,0.6006286718072507
1790096834907684352,8.206684326171871,0.3401655554771423,0.284654825925827,0.6919372081756592
1790096834917684224,8.21668432617187,0.3426958977481389,0.26784613062546697,0.7271812492687273
1790096834927684352,8.22668432617187,0.33280982862839703,0.18012324311020217,0.8871038101425516
1790096834937684224,8.23668432617187,0.30412557721138,0.094070479273796,1.024238109588623
1790096834947684352,8.24668432617187,0.3070481784415935,0.10839124811617222,1.0739224160559904
1790096834957684224,8.25668432617187,0.3497657987314386,0.18626451148207904,1.2031924913004817
1790096834967684352,8.266684326171871,0.3835357129573822,0.2394521236419677,1.2673553228378296
1790096834977684224,8.276684326171871,0.39847567835886794,0.23622186457947392,1.2701817921300325
1790096834987684352,8.286684326171871,0.467870118263011,0.16401329334162912,1.2231267345822272
1790096834997684224,8.29668432617187,0.4916556775569916,0.1368297934532165,1.204438090324402
1790096835007684352,8.30668432617187,0.49423220821747715,0.07447764713408939,1.1724890397394283
1790096835017684224,8.31668432617187,0.5350401720267267,0.07728147618806665,1.2693249131874984
1790096835027684352,8.32668432617187,0.5711426954292718,0.09354047719229268,1.4063675926003358
1790096835037684224,8.33668432617187,0.5924454927444458,0.0177145712077617,1.5471234321594238
1790096835047684352,8.34668432617187,0.5928175909678299,-0.013010201668358878,1.5579674671660777
1790096835057684224,8.356684326171871,0.5977149557863524,-0.360283967597819,1.6708330144230137
1790096835067684352,8.366684326171871,0.6034407615661621,-0.503948986530304,1.6656277179718018
1790096835077684224,8.37668432617187,0.6131568927123782,-0.5294744433207144,1.665133692112281
1790096835087684352,8.38668432617187,0.6921647162457204,-0.5713799597037308,1.6968993562655073
1790096835097684224,8.39668432617187,0.7989118695259094,-0.5161659121513367,1.7639741897583008
1790096835107684352,8.40668432617187,0.8373039920692081,-0.45650622101535954,1.8106523954877043
1790096835117684224,8.41668432617187,0.9151569656819588,-0.4870094249277191,1.9157802617211959
1790096835127684352,8.42668432617187,0.944904327392578,-0.5845808386802673,1.9618886709213257
1790096835137684224,8.436684326171871,0.9452920775174537,-0.7947273703303569,1.9308707039117474
1790096835147684352,8.446684326171871,0.9893322297426195,-1.1705955381834754,1.8148707238263349
1790096835157684224,8.456684326171871,1.008508801460266,-1.2821683883666992,1.7719151973724363
1790096835167684352,8.46668432617187,1.0509450287039508,-1.2696871565221404,1.7294789701287518
1790096835177684224,8.47668432617187,1.0609672793709484,-1.048041337884678,1.6985366859869864
1790096835187684352,8.48668432617187,1.0031092316028312,-0.9964487234705174,1.7752881212204468
1790096835197684224,8.49668432617187,0.9137622099008371,-1.0879069728744029,1.8812437664810524
1790096835207684352,8.50668432617187,0.9066651816295982,-1.0883641878253338,1.8707948516526411
1790096835217684224,8.51668432617187,0.7955197868523837,-1.0783913336125652,1.690580584576277
1790096835227684352,8.526684326171871,0.7842515110969543,-0.95658677816391,1.5575077533721924
1790096835237684224,8.536684326171871,0.7988164764523622,-0.8891123557023873,1.5240677989107088
1790096835247684352,8.54668432617187,0.7969222274843303,-0.6603109191241159,1.4005585403228522
1790096835257684224,8.55668432617187,0.6889593601226807,-0.6169557571411133,1.3559281826019287
1790096835267684352,8.56668432617187,0.6658065444106266,-0.5350103753431007,1.3046798146688634
1790096835277684224,8.57668432617187,0.577806668057649,-0.3065045545879984,1.1288549809593902
1790096835287684352,8.58668432617187,0.5179221034049988,-0.1820324808359146,1.0162971019744873
1790096835297684224,8.59668432617187,0.47741052839186454,-0.10844261600891611,0.9237522993703742
1790096835307684352,8.60668432617187,0.34013673766192676,0.17726588531126822,0.704341819803265
1790096835317684224,8.616684326171871,0.2851893007755279,0.2950392365455627,0.6253548860549927
1790096835327684352,8.62668432617187,0.3117648236010905,0.527997787509396,0.47121687724090655
1790096835337684224,8.63668432617187,0.23292755378546948,0.2351180295155597,-0.04406797614253627
1790096835347684352,8.64668432617187,0.2179961204528808,0.1734806150197982,-0.1265980899333953
1790096835357684224,8.65668432617187,0.2233485037051317,0.17169649694071593,-0.4829036428561665
1790096835367684352,8.66668432617187,0.030033193046803824,0.2735877477181701,-0.829169796836774
1790096835377684224,8.67668432617187,-0.1329280259582454,0.4225678744439842,-0.8313894068953886
1790096835387684352,8.68668432617187,-0.2633515298366546,0.554649293422699,-0.8468633890151978
1790096835397684224,8.696684326171871,-0.28562224997781294,0.5705735224804692,-0.8693992286156013
1790096835407684352,8.706684326171871,-0.39279257187175787,0.5969439228497668,-1.0623954419243782
1790096835417684224,8.71668432617187,-0.4624877274036407,0.5161659121513367,-1.352644920349121
1790096835427684352,8.72668432617187,-0.4771328738688992,0.5066465752849239,-1.4224534383371306
1790096835437684224,8.73668432617187,-0.5494836954415011,0.6383508062053052,-1.5819112254183922
1790096835447684352,8.74668432617187,-0.6084802150726318,0.8094489574432373,-1.6458516120910645
1790096835457684224,8.75668432617187,-0.6483082985636752,0.9040406036857629,-1.6565198611329992
1790096835467684352,8.76668432617187,-0.7507371608185452,1.0783768401815934,-1.7242718943039625
1790096835477684224,8.77668432617187,-0.7917343974113464,1.1374739408493042,-1.7576366662979126
1790096835487684352,8.786684326171871,-0.8291050537319392,1.1542907703796774,-1.7959416061195734
1790096835497684224,8.79668432617187,-0.9338969153983996,1.1675331598765537,-1.9010208514812488
1790096835507684352,8.80668432617187,-0.9536089301109314,1.1692379713058472,-1.920732855796814
1790096835517684224,8.81668432617187,-1.037513363310373,1.1188953678492712,-1.9623957272947818
1790096835527684352,8.82668432617187,-1.136863112449646,1.1759573221206665,-2.0331287384033203
1790096835537684224,8.83668432617187,-1.1353452863684959,1.1649531036024212,-2.013523513653261
1790096835547684352,8.84668432617187,-1.1148725748062134,1.016526222229004,-1.749084711074829
1790096835557684224,8.85668432617187,-1.1092803219938892,0.9925260699805608,-1.727880719337335
1790096835567684352,8.866684326171871,-1.084168832466533,0.8365959937699755,-1.6202373155819567
1790096835577684224,8.87668432617187,-1.0842529637367042,0.6115245583105711,-1.5861754589980823
1790096835587684352,8.88668432617187,-1.0934929847717283,0.4703523814678192,-1.6269153356552124
1790096835597684224,8.89668432617187,-1.096675388598932,0.37302402830943565,-1.6611260991654226
1790096835607684352,8.90668432617187,-1.100823163986206,0.2461714446544647,-1.7057145833969116
1790096835617684224,8.91668432617187,-1.0675465974190326,0.2750337477807398,-1.6554602538291574
1790096835627684352,8.92668432617187,-0.782530883751165,0.2163454550193144,-1.5369516923580147
1790096835637684224,8.93668432617187,-0.6219188570976257,0.1655396074056625,-1.4882529973983765
1790096835647684352,8.94668432617187,-0.4423924425174036,0.15336068188456622,-1.5193769304006763
1790096835657684224,8.956684326171871,-0.25966849706396583,0.1470937321548706,-1.5523727357804231
1790096835667684352,8.96668432617187,-0.19665283786915905,0.10299265862605977,-1.532668904021949
1790096835677684224,8.97668432617187,-0.21715090496048,-0.050934164566218396,-1.4773728005094897
1790096835687684352,8.98668432617187,-0.17918680351013708,-0.32922048518102626,-1.3872165078220247
1790096835697684224,8.99668432617187,-0.1754940178099304,-0.336561109814586,-1.3816367107833574
1790096835707684352,9.00668432617187,-0.10252161989840092,-0.3968895919879888,-1.28147842613965
1790096835717684224,9.01668432617187,-0.03359329865037978,-0.46101989704348173,-1.1790926648089308
1790096835727684352,9.02668432617187,0.02629884201333837,-0.5027584684241174,-1.10733038334458
1790096835737684224,9.036684326171871,0.0707819238305091,-0.4251496791839599,-1.03256094455719
1790096835747684352,9.04668432617187,0.07184182247155273,-0.4041637103953832,-1.00966715666341
1790096835757684224,9.05668432617187,0.085545837842505,-0.34200389078611765,-0.9426718014745539
1790096835767684352,9.06668432617187,0.1025459840893745,-0.3090887069702148,-0.907948076725006
1790096835777684224,9.07668432617187,0.12648487984317042,-0.2812678333466655,-0.8856266674757082
1790096835787684352,9.08668432617187,0.19968521737407893,-0.2947869185453411,-0.8250438747845472
1790096835797684224,9.09668432617187,0.27072145810737575,-0.3662626660130596,-0.7466448460920032
1790096835807684352,9.10668432617187,0.2429183522510618,-0.3433494869514668,-0.6140978504770446
1790096835817684224,9.11668432617187,0.17688535304154646,-0.26911338775837096,-0.5161247512646882
1790096835827684352,9.12668432617187,0.1630198657512664,-0.2528907656669616,-0.4999021291732788
1790096835837684224,9.13668432617187,0.10289926539933358,-0.22064425947831,-0.4075350292990439
1790096835847684352,9.14668432617187,0.03803887720373938,-0.09018461612555687,-0.1350916445670306
1790096835857684224,9.15668432617187,0.03520209439698841,-0.0815844861488184,-0.11908537095333832
1790096835867684352,9.16668432617187,0.0261900760233402,0.0806318372488021,0.111021488904953
1790096835877684224,9.17668432617187,0.01732779915999895,0.07666491338812828,0.11878653039187499
1790096835887684352,9.18668432617187,-0.042690049428104795,0.032592663204480773,0.16332924752093494
1790096835897684224,9.19668432617187,-0.0617719292640686,-0.0452026985585689,0.1476723253726959
1790096835907684352,9.206684326171871,-0.06745365736493532,-0.09006876329251817,0.1821545396024761
1790096835917684224,9.21668432617187,-0.07016288941175594,-0.17133439419432092,0.31158925884664723
1790096835927684352,9.22668432617187,-0.0550526082515716,-0.1490467339754104,0.4030064642429352
1790096835937684224,9.23668432617187,-0.05536005684671221,-0.1330593995281177,0.4909367962030642
1790096835947684352,9.24668432617187,-0.06014350532307109,-0.04008800824575927,0.7648369271601307
1790096835957684224,9.25668432617187,-0.0636044740676879,0.0195471122860908,0.9093988537788392
1790096835967684352,9.26668432617187,-0.021707406016767822,0.12177594968125861,0.9722444336576245
1790096835977684224,9.27668432617187,0.07639214373617342,0.3008738873929999,1.0347801606072127
1790096835987684352,9.28668432617187,0.1031568273901939,0.3457395434379577,1.0462286472320557
1790096835997684224,9.29668432617187,0.09626040234766615,0.2534334710596976,1.061613035765167
1790096836007684352,9.30668432617187,0.012337871790475186,-0.27598058637929,1.09005546537714
1790096836017684224,9.31668432617187,0.0060321167111396,-0.3151971995830536,1.0920422077178955
1790096836027684352,9.32668432617187,-0.0849841237068176,-0.5625903010368347,1.019962191581726
1790096836037684224,9.33668432617187,-0.07958363652778028,-0.5383906531310538,1.016270719923814
1790096836047684352,9.34668432617187,0.022576776609930856,-0.31553766436602754,1.0427981443202547
1790096836057684224,9.35668432617187,0.30656898021698,-0.1679829955101013,1.3101146221160889
1790096836067684352,9.36668432617187,0.35297504889387477,-0.04081597496559236,1.4176759943475776
1790096836077684224,9.37668432617187,0.442246309423191,0.36939562296960493,1.7856587146915461
1790096836087684352,9.38668432617187,0.4024719893932342,0.5608341693878174,1.985711693763733
1790096836097684224,9.39668432617187,0.30805880720509277,0.20937088743492477,1.7683282558504005
1790096836107684352,9.40668432617187,0.15625898476231237,-0.3145768220015328,1.419623093132666
1790096836117684224,9.41668432617187,0.114762932062149,-0.4337015450000763,1.324774980545044
1790096836127684352,9.42668432617187,0.22073029694297225,-0.389380602355345,1.4037468627147422
1790096836137684224,9.43668432617187,0.41800543889181074,-0.242842610113697,1.6685077276446885
1790096836147684352,9.44668432617187,0.4733302593231201,-0.1948602795600891,1.7554223537445068
1790096836157684224,9.45668432617187,0.6153148572416809,-0.1876581604556257,1.982803438634071
1790096836167684352,9.46668432617187,0.7417661872776483,-0.2828407981178408,2.098781345829776
1790096836177684224,9.47668432617187,0.8125443347066406,-0.3491420082649296,2.001265530436849
1790096836187684352,9.48668432617187,0.8187580746401628,-0.40062603487984394,1.7859510271885364
1790096836197684224,9.49668432617187,0.7776071149051933,-0.5349613471122975,1.5846208485840927
1790096836207684352,9.50668432617187,0.7232686004253469,-0.7747023888306468,1.5088744350153458
1790096836217684224,9.51668432617187,0.7193610012623498,-1.1486876402081863,1.6386941247761562
1790096836227684352,9.52668432617187,0.7874037712094174,-1.4364081772149533,1.9041193359195019
1790096836237684224,9.53668432617187,0.858461000846689,-1.343272501051537,2.0541060670408924
1790096836247684352,9.54668432617187,0.907642662525177,-1.0531007051467896,2.025416851043701
1790096836257684224,9.55668432617187,0.9329740181088395,-0.8631154979689182,1.8648930922067777
1790096836267684352,9.56668432617187,0.9088386149658255,-0.6763051814456422,1.6692928075790403
1790096836277684224,9.57668432617187,0.8563315272331238,-0.7189671993255615,1.6692928075790403
1790096836287684352,9.58668432617187,0.7708332697551185,-0.6853095352649976,1.72190715471899
1790096836297684224,9.59668432617187,0.6119324068473642,-0.6904177204955602,1.8804276484664868
1790096836307684352,9.60668432617187,0.5637356638908386,-0.7012526392936707,1.936843991279602
1790096836317684224,9.61668432617187,0.5831729305466493,-0.5133589157260776,1.7364904177990312
1790096836327684352,9.626684326171869,0.6143365591800509,-0.34885619148011837,1.4154714053429842
1790096836337684224,9.63668432617187,0.7017224620122181,-0.13237327362712722,1.001546163696799
1790096836347684352,9.64668432617187,0.673129615926407,-0.1416820333973579,0.6954217725372924
1790096836357684224,9.65668432617187,0.6730773448944092,-0.13645876762180736,0.6816837926286454
1790096836367684352,9.66668432617187,0.654134163656271,-0.023554171304416168,0.4490772709295726
1790096836377684224,9.67668432617187,0.5154787302017212,0.1930277347564697,0.2899997234344482
1790096836387684352,9.68668432617187,0.4879916930269675,0.20913572857458515,0.2712316967842401
1790096836397684224,9.69668432617187,0.3694954093211416,0.25295199197181434,0.17265852360310954
1790096836407684352,9.70668432617187,0.2651979598132495,0.22295924750243576,0.003345776688086055
1790096836417684224,9.716684326171869,0.19055034164223492,0.1773376553943812,-0.2489048484418292
1790096836427684352,9.72668432617187,0.14484570612334183,0.16509187408552203,-0.559716946356518
1790096836437684224,9.73668432617187,0.07075762552266206,0.15411893038578367,-0.8553761536701286
1790096836447684352,9.74668432617187,-0.040886508468298194,0.2261331773616276,-1.1154220177066423
1790096836457684224,9.75668432617187,-0.1647531147528124,0.6527137617039982,-1.4540917188246467
1790096836467684352,9.76668432617187,-0.2059318870306015,0.8344936966896057,-1.5743824243545532
1790096836477684224,9.77668432617187,-0.324586767933706,1.0447926477380864,-1.6380509102354242
1790096836487684352,9.78668432617187,-0.42477601672566445,1.2468062309055654,-1.6763143557552327
1790096836497684224,9.796684326171869,-0.495841521661465,1.4405922319504438,-1.775810095952597
1790096836507684352,9.80668432617187,-0.5930381735551404,1.3738051137786282,-1.7875001908830632
1790096836517684224,9.81668432617187,-0.5999354634963298,1.374741756061699,-1.7881337741832106
1790096836527684352,9.82668432617187,-0.7314050537938731,1.4831381645945516,-1.8096627978579292
1790096836537684224,9.83668432617187,-0.7917343974113464,1.5943876504898071,-1.8578156232833865
1790096836547684352,9.84668432617187,-0.8079366117831178,1.5615880580123451,-1.8754668099062783
1790096836557684224,9.85668432617187,-0.8736246285196683,1.3806381510805537,-1.93341982027816
1790096836567684352,9.86668432617187,-0.8913025259971619,1.219327449798584,-1.9170677661895752
1790096836577684224,9.876684326171869,-0.9049248885019552,1.1405122659815916,-1.9019858368700961
1790096836587684352,9.886684326171869,-0.9431763442288382,0.9448585237324975,-1.8076883232531882
1790096836597684224,9.89668432617187,-0.9639933109283448,0.854651689529419,-1.7234292030334473
1790096836607684352,9.90668432617187,-0.9253227617699495,0.7602813229849699,-1.7202361806227986
1790096836617684224,9.91668432617187,-0.8907478412548192,0.6066725714779719,-1.7829950096445586
1790096836627684352,9.92668432617187,-0.8870265483856201,0.5589252710342407,-1.819332242012024
1790096836637684224,9.93668432617187,-0.9495100914059116,0.2982664086596848,-1.8897427809716123
1790096836647684352,9.94668432617187,-0.9688801169395448,0.2174616307020187,-1.9115701913833616
1790096836657684224,9.95668432617187,-1.0072664001280953,0.12501022029517173,-1.8104683210552242
1790096836667684352,9.966684326171869,-1.0024271776348341,0.06273562667734686,-1.6309269272889975
1790096836677684224,9.97668432617187,-0.8867711410070086,0.053821938594667024,-1.4769414992506782
1790096836687684352,9.98668432617187,-0.6406825572170946,0.15519215458523508,-1.4423256089107321
1790096836697684224,9.99668432617187,-0.217537984251976,0.1893626451492309,-1.6006488800048828
1790096836707684352,10.00668432617187,-0.2038874051255484,0.14898932854301372,-1.6133739853300062
1790096836717684224,10.01668432617187,-0.18504826450354223,-0.10621359047068114,-1.6395632798650641
1790096836727684352,10.02668432617187,-0.3036674559116363,-0.3530697226524353,-1.554835319519043
1790096836737684224,10.03668432617187,-0.3209357751256551,-0.4337309482262406,-1.459405148391634
1790096836747684352,10.046684326171869,-0.28373144370193626,-0.5643684316255825,-1.2694616223456505
1790096836757684224,10.056684326171869,-0.1967691779136657,-0.5570927262306213,-1.2316970825195312
1790096836767684352,10.06668432617187,-0.03824175906300073,-0.5682709269635136,-1.1995173736792308
1790096836777684224,10.07668432617187,0.10113602269728605,-0.5738675874499944,-1.1623897630510036
1790096836787684352,10.08668432617187,0.1086544543504715,-0.5717530250549316,-1.1553412675857544
1790096836797684224,10.09668432617187,0.09424636298630729,-0.6005691967996789,-1.1112164441919143
1790096836807684352,10.10668432617187,0.0891073420643806,-0.6108472347259521,-1.0954781770706177
1790096836817684224,10.11668432617187,0.15835579380688056,-0.5998304694692684,-0.8809129369093349
1790096836827684352,10.126684326171869,0.2377153468008827,-0.44184284198483115,-0.6956447134578425
1790096836837684224,10.136684326171869,0.2436517030000686,-0.4282039403915405,-0.6825454831123352
1790096836847684352,10.14668432617187,0.40709700561412404,-0.20094675342833052,-0.3393505581617175
1790096836857684224,10.15668432617187,0.3444415032863617,-0.1014006435871124,-0.2426590770483017
1790096836867684352,10.16668432617187,0.31425045932006784,-0.07977867604536365,-0.23648137064742888
1790096836877684224,10.17668432617187,0.15087217678281828,0.015556172268409208,-0.21244824204957957
1790096836887684352,10.18668432617187,0.1214822456240654,-0.038483377546072,-0.2389939874410629
1790096836897684224,10.19668432617187,0.10944540231174685,-0.07248218512749521,-0.24575151649352586
1790096836907684352,10.20668432617187,0.08517394348072661,-0.04047574308729014,-0.21384077462742754
1790096836917684224,10.216684326171869,0.0829988718032836,0.100178949534893,-0.1485885977745056
1790096836927684352,10.226684326171869,0.10429652770913483,0.19956801698871857,-0.08663177791027118
1790096836937684224,10.23668432617187,0.1233147904276847,0.2883199155330658,-0.0313059203326702
1790096836947684352,10.24668432617187,0.1233147904276847,0.2970549806414811,-0.044408517995293176
1790096836957684224,10.25668432617187,0.11766990310662655,0.3152194284491112,-0.07447764925605031
1790096836967684352,10.26668432617187,0.1153737753629684,0.3206948041915893,-0.0838387832045555
1790096836977684224,10.27668432617187,0.09553913120833352,0.32222054843549236,-0.11130213617226371
1790096836987684352,10.28668432617187,0.039159146740424575,0.26740703147345857,-0.10645536992743433
1790096836997684224,10.296684326171869,0.0329093970358371,0.2608317732810974,-0.1052184402942657
1790096837007684352,10.306684326171869,0.008207110118419078,0.3075800376913089,-0.017117689371958955
1790096837017684224,10.31668432617187,-0.0092390645295381,0.4477510452270508,0.1904316395521164
1790096837027684352,10.32668432617187,-0.009740734236148872,0.45753360310370667,0.200130586363407
1790096837037684224,10.33668432617187,-0.007106842597343615,0.520307170020206,0.29438287688785697
1790096837047684352,10.34668432617187,0.0164165198802948,0.5247178077697754,0.4286620616912842
1790096837057684224,10.35668432617187,0.009782077283113814,0.42754273336623844,0.48505481536283046
1790096837067684352,10.36668432617187,-0.003190791069398468,0.2021642289201203,0.6209932466085306
1790096837077684224,10.376684326171869,-0.0012980503961443,0.1722589284181594,0.6467345356941223
1790096837087684352,10.386684326171869,0.015261464179328658,0.16704574450098642,0.6586941744341823
1790096837097684224,10.396684326171869,0.05610012338131391,0.1556854597925142,0.6739959222314472
1790096837107684352,10.40668432617187,0.09296561713350504,0.13792472910161122,0.6854294202513528
1790096837117684224,10.41668432617187,0.11004044730291634,0.09874662153345726,0.7400613204835061
1790096837127684352,10.42668432617187,0.1129303872585296,0.0842969194054603,0.7627955079078674
1790096837137684224,10.43668432617187,0.11588563324498818,0.11237177129578314,0.7898853018330505
1790096837147684352,10.44668432617187,0.1393727277017567,0.29179861614918007,0.8091049998661252
1790096837157684224,10.45668432617187,0.1428619027137756,0.3182514309883117,0.8110524415969849
1790096837167684352,10.466684326171869,0.17729333449017798,0.29831743951704814,0.8587732010208964
1790096837177684224,10.476684326171869,0.1856212168931961,0.208298921585083,0.9429954290390016
1790096837187684352,10.48668432617187,0.18474278883925505,0.2010012185722914,0.9534014206264317
1790096837197684224,10.49668432617187,0.1717095666006482,0.11593095140809134,1.0574917985497527
1790096837207684352,10.50668432617187,0.1428619027137756,-0.011606098152697,1.1561810970306396
1790096837217684224,10.51668432617187,0.1319372144211265,-0.013217937744710247,1.156897482925113
1790096837227684352,10.52668432617187,0.10149104265861902,0.013823246381163092,1.1519200776531764
1790096837237684224,10.53668432617187,0.11832485864434746,0.18759257051561923,1.132084884478326
1790096837247684352,10.546684326171869,0.17007236823888927,0.3859092343033749,1.147227611324971
1790096837257684224,10.556684326171869,0.1892862915992736,0.4220954477787018,1.1757283210754397
1790096837267684352,10.566684326171869,0.21373953279920313,0.44253398624145884,1.2224449397182648
1790096837277684224,10.57668432617187,0.25233089592651525,0.40482866306204396,1.3242916350276375
1790096837287684352,10.58668432617187,0.2638096511363983,0.3781144618988037,1.360814929008484
1790096837297684224,10.59668432617187,0.272386649961629,0.29663311254518837,1.3131650905195091
1790096837307684352,10.60668432617187,0.29997499102261205,0.2572219705526204,1.2581226134850103
1790096837317684224,10.61668432617187,0.3047364354133606,0.2541124522686004,1.2502516508102417
1790096837327684352,10.626684326171869,0.3376662952144566,0.2153022531878482,1.2437832532167403
1790096837337684224,10.636684326171869,0.3963635265827179,-0.0238230433315038,1.3150014877319336
1790096837347684352,10.646684326171869,0.3964150538579749,-0.03572621174785622,1.3179901602014203
1790096837357684224,10.65668432617187,0.4005225909285325,-0.19748380056357898,1.3607204773249661
1790096837367684352,10.66668432617187,0.4214082658290863,-0.3891097009181976,1.4212888479232788
1790096837377684224,10.67668432617187,0.42907219317675943,-0.4688472156802681,1.4379212093539424
1790096837387684352,10.68668432617187,0.4501180648803711,-0.6878139972686768,1.4835952520370483
1790096837397684224,10.69668432617187,0.46531288635030066,-0.80913511102994,1.520632630093959
1790096837407684352,10.70668432617187,0.489212304353714,-0.9999569654464722,1.5788874626159668
1790096837417684224,10.716684326171869,0.48422402090528055,-1.0557633884271564,1.577016852520133
1790096837427684352,10.726684326171869,0.45431520471144016,-1.0820814418964713,1.5556818324953992
1790096837437684224,10.736684326171869,0.41422165372203273,-1.0226553765581115,1.5688148380807612
1790096837447684352,10.74668432617187,0.4018611311912536,-0.9999569654464722,1.5849958658218384
1790096837457684224,10.75668432617187,0.3779167392245696,-0.9709474132086513,1.5965075957531125
1790096837467684352,10.76668432617187,0.3128690184110965,-1.1610253379416982,1.6316180862390608
1790096837477684224,10.77668432617187,0.299849659204483,-1.206423282623291,1.638750433921814
1790096837487684352,10.78668432617187,0.2844058779278927,-1.1869755973287703,1.528928014094178
1790096837497684224,10.796684326171869,0.2833567857742309,-1.1856545209884644,1.5214678049087524
1790096837507684352,10.806684326171869,0.2726810375849373,-1.0867077185558442,1.4204952390785475
1790096837517684224,10.816684326171869,0.27618747552699974,-0.9199114239423188,1.3216806875613096
1790096837527684352,10.82668432617187,0.2666660334387047,-0.8445429114411567,1.2573493561329
1790096837537684224,10.83668432617187,0.28366167274518084,-0.7877896859702028,1.1378177601785102
1790096837547684352,10.84668432617187,0.2961845695972442,-0.7794411182403564,0.9662076234817504
1790096837557684224,10.85668432617187,0.3026046638351592,-0.7150187568015849,0.9130757979256301
1790096837567684352,10.86668432617187,0.28571660709732083,-0.49774535217656285,0.7443647361457909
1790096837577684224,10.876684326171869,0.2473167777061462,-0.3561239540576935,0.6418477296829224
1790096837587684352,10.886684326171869,0.163755908460537,-0.27589220189540514,0.5879160207514221
1790096837597684224,10.896684326171869,0.073269421433798,-0.13896390656390734,0.49996076493155484
1790096837607684352,10.906684326171868,0.0597866736352443,-0.093459628522396,0.472032219171524
1790096837617684224,10.91668432617187,0.06200888480559689,-0.00012672413161007867,0.4071436367344699
1790096837627684352,10.92668432617187,0.09366389663001473,0.23661253763803342,0.23162323982325886
1790096837637684224,10.93668432617187,0.1019351333379745,0.2907632887363434,0.1910424828529358
1790096837647684352,10.94668432617187,0.07802861091819814,0.4080720792870575,-0.002433607904133578
1790096837657684224,10.95668432617187,0.0756687074899673,0.4196520745754242,-0.0215323660522699
1790096837667684352,10.966684326171869,-0.0062218962344431274,0.2745625422457218,-0.05451246874141776
1790096837677684224,10.976684326171869,-0.062993623316288,0.2834331393241882,-0.2212794125080108
1790096837687684352,10.986684326171869,-0.07031249405007836,0.29713256318000536,-0.24634420051081232
1790096837697684224,10.99668432617187,-0.1184995592960169,0.3870265601953579,-0.40108867791978153
1790096837707684352,11.00668432617187,-0.1472905427217483,0.439810037612915,-0.4620296061038971
1790096837717684224,11.01668432617187,-0.16659401238301455,0.44597071952628736,-0.4809223512808208
1790096837727684352,11.02668432617187,-0.2430297728709481,0.47705271614091943,-0.5647930977894093
1790096837737684224,11.03668432617187,-0.3012240529060364,0.5057815313339233,-0.6355102062225342
1790096837747684352,11.046684326171869,-0.315167022513676,0.5527202175915897,-0.735962937827837
1790096837757684224,11.056684326171869,-0.3281013369560241,0.5962632894515991,-0.8291487693786621
1790096837767684352,11.066684326171869,-0.33866487480611296,0.6346050250817351,-0.872576687503949
1790096837777684224,11.076684326171868,-0.37115598329989613,0.6741197706673522,-0.935081864446869
1790096837787684352,11.08668432617187,-0.4164551659727463,0.6710732149926598,-0.9946186275841291
1790096837797684224,11.09668432617187,-0.4527000837600986,0.6536547307784829,-1.0563934060243154
1790096837807684352,11.10668432617187,-0.4965475195477895,0.6052737412300879,-1.2190312972876214
1790096837817684224,11.11668432617187,-0.5015819668769836,0.5993174910545349,-1.2390272617340088
1790096837827684352,11.126684326171869,-0.531288898533607,0.6084729405333864,-1.3161388774724576
1790096837837684224,11.136684326171869,-0.5993174910545349,0.7147676348686218,-1.3416496515274048
1790096837847684352,11.146684326171869,-0.6100546478119317,0.7240264878749002,-1.3400935447131825
1790096837857684224,11.156684326171868,-0.6903977205255343,0.7846991728853407,-1.336560926935058
1790096837867684352,11.166684326171868,-0.7269576462878442,0.750888504751427,-1.3752170809251778
1790096837877684224,11.17668432617187,-0.7489750981330872,0.6848361492156982,-1.3990693092346191
1790096837887684352,11.18668432617187,-0.7571291908548744,0.629088141018201,-1.3922742135485748
1790096837897684224,11.19668432617187,-0.770965576171875,0.5344913601875305,-1.3807438611984253
1790096837907684352,11.20668432617187,-0.7953351985286873,0.5215543943720458,-1.3425347226899842
1790096837917684224,11.216684326171869,-0.8204442262649536,0.5082249045372009,-1.3031662702560425
1790096837927684352,11.226684326171869,-0.8133151229576301,0.4406860436247109,-1.2784020474937197
1790096837937684224,11.236684326171869,-0.790280627383081,0.351672442341967,-1.2805830721532667
1790096837947684352,11.246684326171868,-0.7813500165939331,0.3292466700077057,-1.2891167402267456
1790096837957684224,11.25668432617187,-0.7633403396273138,0.19393082143770524,-1.2920372309508124
1790096837967684352,11.26668432617187,-0.7472225551557641,0.0960376178015282,-1.2482492419804343
1790096837977684224,11.27668432617187,-0.7453100085258484,0.0855186134576797,-1.240859866142273
1790096837987684352,11.28668432617187,-0.6310404788064914,0.11303903395734294,-1.1947931033841337
1790096837997684224,11.296684326171869,-0.5418978929519653,0.1637070626020431,-1.1938246488571167
1790096838007684352,11.306684326171869,-0.5341752842281395,0.16154473336504988,-1.1956780653054109
1790096838017684224,11.316684326171869,-0.4589116337833131,0.12807715802713046,-1.2176917462081958
1790096838027684352,11.326684326171868,-0.4263850145005224,0.02986032237605058,-1.248399547995196
1790096838037684224,11.336684326171868,-0.46236623449784664,-0.10082209041553418,-1.2383621146618764
1790096838047684352,11.34668432617187,-0.5376219153404236,-0.2150182425975799,-1.195046305656433
1790096838057684224,11.35668432617187,-0.5225140092126789,-0.20362538515207784,-1.1967799954442624
1790096838067684352,11.36668432617187,-0.45962805712792887,-0.16783493806418992,-1.2041645304584223
1790096838077684224,11.376684326171869,-0.36406209797669226,-0.13504381415929373,-1.2080965518704436
1790096838087684352,11.386684326171869,-0.3201603293418884,-0.1252236813306808,-1.2066524028778076
1790096838097684224,11.396684326171869,-0.2690288422979515,-0.14821303464306687,-1.1765284320110552
1790096838107684352,11.406684326171868,-0.2413610219955444,-0.1606528311967849,-1.1602280139923096
1790096838117684224,11.416684326171868,-0.2455975393323497,-0.24114675245988598,-1.0674952737985295
1790096838127684352,11.42668432617187,-0.21841623703918314,-0.27424991633091217,-0.9779272706775775
1790096838137684224,11.43668432617187,-0.13634006318825903,-0.27174232554031524,-0.906499154448576
1790096838147684352,11.44668432617187,-0.023490521807901454,-0.3276952751256456,-0.8539800373191662
1790096838157684224,11.45668432617187,-0.017207655019057213,-0.33172261091790295,-0.8515611382029171
1790096838167684352,11.466684326171869,0.06613984742254017,-0.4175467076568143,-0.8391353340820805
1790096838177684224,11.476684326171869,0.0616192184388637,-0.3915531039237976,-0.8493067622184753
1790096838187684352,11.486684326171869,0.05429156666170726,-0.38182293919987514,-0.8484658866797364
1790096838197684224,11.496684326171868,0.0347388056770145,-0.3522984393548562,-0.8377954061770702
1790096838207684352,11.506684326171868,0.0646734535694122,-0.3817795515060425,-0.8169318437576294
1790096838217684224,11.51668432617187,0.09525131839706136,-0.4086510041947794,-0.7958516441426733
1790096838227684352,11.52668432617187,0.19853220528287605,-0.3878515233445985,-0.7169889764508353
1790096838237684224,11.53668432617187,0.2662530541419983,-0.3054236173629761,-0.6605549454689026
1790096838247684352,11.546684326171869,0.2501236193308891,-0.2343854955535242,-0.66021177669199
1790096838257684224,11.556684326171869,0.2375432252883911,-0.1789782494306564,-0.6599441170692444
1790096838267684352,11.566684326171869,0.21750149677841144,-0.1869114321471413,-0.6035767511787804
1790096838277684224,11.576684326171868,0.23050335307435288,-0.15511694743294901,-0.5029072414128198
1790096838287684352,11.586684326171868,0.2563539807454672,-0.12277079300908109,-0.4015497968570245
1790096838297684224,11.59668432617187,0.2607554197311401,-0.1178935244679451,-0.3832302987575531
1790096838307684352,11.60668432617187,0.2630203659115902,0.03725440487130122,-0.20706095768002797
1790096838317684224,11.61668432617187,0.2631988227367401,0.0494786277413368,-0.1931804418563842
1790096838327684352,11.626684326171869,0.22677216491484348,0.13632415522569044,-0.045760267047291456
1790096838337684224,11.636684326171869,0.2192178070545196,0.1264453828334808,-0.0178672820329666
1790096838347684352,11.646684326171869,0.2174480757976445,0.1250920578108021,-0.012453982418405774
1790096838357684224,11.656684326171868,0.20078059362700626,0.10409406185071196,0.04158716824767824
1790096838367684352,11.666684326171868,0.1740151196718216,0.0561979487538337,0.1336228400468826
1790096838377684224,11.676684326171868,0.1645272177371266,0.03808468423340369,0.17265261128701576
1790096838387684352,11.68668432617187,0.1471378356218338,0.0048867780715227,0.2441861927509308
1790096838397684224,11.69668432617187,0.12335859807888604,0.04722541843400208,0.260715660679827
1790096838407684352,11.70668432617187,0.08199892397436334,0.12547799159755038,0.29372676604229464
1790096838417684224,11.716684326171869,0.0689493864774704,0.152711808681488,0.3064926266670227
1790096838427684352,11.726684326171869,0.0360242895654445,0.12099129411484577,0.36350923947973
1790096838437684224,11.736684326171869,0.009647222049542539,0.11366756890306945,0.4305223649198023
1790096838447684352,11.746684326171868,0.0060321167111396,0.1172826737165451,0.4451549351215362
1790096838457684224,11.756684326171868,0.007058232523631742,0.16756234813754467,0.4990260291619366
1790096838467684352,11.76668432617187,-0.002650201169935607,0.18209770558343863,0.6000806830496889
1790096838477684224,11.77668432617187,-0.0037414394319057,0.182643324136734,0.6100836992263794
1790096838487684352,11.78668432617187,-0.03652832079595492,0.11054250407725684,0.7090414835825259
1790096838497684224,11.796684326171869,-0.0544417612254619,0.0830752253532409,0.7621846795082092
1790096838507684352,11.806684326171869,-0.05488228481169609,0.0724145638081347,0.7688806320010779
1790096838517684224,11.816684326171869,-0.0574960000813007,0.0091627091169357,0.8086090683937073
1790096838527684352,11.826684326171868,-0.0490480159402556,0.024109142406711657,0.8102336780800925
1790096838537684224,11.836684326171868,0.013794576162966248,0.14481295237433728,0.8548429421332785
1790096838547684352,11.846684326171868,0.0952158197760582,0.3084778785705566,0.937497854232788
1790096838557684224,11.85668432617187,0.11384695801236427,0.3430002789227151,0.9799658706045097
1790096838567684352,11.86668432617187,0.14671050332124058,0.3344146162360848,1.089432289073527
1790096838577684224,11.876684326171869,0.1563005447387695,0.2852656841278076,1.1445749998092651
1790096838587684352,11.886684326171869,0.15861363014027702,0.15226294438875065,1.1094931496943388
1790096838597684224,11.896684326171869,0.17983198819597618,0.08170907274968536,1.0644720231551437
1790096838607684352,11.906684326171868,0.21764712515454482,0.12951495319878636,1.040222622121884
1790096838617684224,11.916684326171868,0.27089896937415825,0.20927311753632646,1.0497615807879435
1790096838627684352,11.926684326171868,0.32044613718504456,0.2578372003561917,1.0866042615897122
1790096838637684224,11.93668432617187,0.3261160850524902,0.2626643180847168,1.0914313793182373
1790096838647684352,11.94668432617187,0.38149585573066547,0.08131072868506922,1.2052337316108508
1790096838657684224,11.95668432617187,0.3852995128146852,0.07151877310454997,1.2114208788308032
1790096838667684352,11.966684326171869,0.45182848858013364,-0.08305203687899457,1.3083236185326657
1790096838677684224,11.976684326171869,0.5057051777839661,-0.1148392856121063,1.3223315477371216
1790096838687684352,11.986684326171869,0.5279638746771518,-0.12933672616373304,1.3150096335395225
1790096838697684224,11.996684326171868,0.6064495391933222,-0.20303948635692234,1.2844445468230403
1790096838707684352,12.006684326171868,0.6248204112052917,-0.2675510942935943,1.2673553228378296
1790096838717684224,12.016684326171868,0.6279161099972554,-0.3000561455761481,1.2745786955368201
1790096838727684352,12.02668432617187,0.6466128060300778,-0.37727930157263784,1.3316828052263041
1790096838737684224,12.03668432617187,0.6620820760726929,-0.4123218953609466,1.3821946382522583
1790096838747684352,12.046684326171869,0.6824053501409549,-0.4537075034403335,1.4172984982240484
1790096838757684224,12.056684326171869,0.7164200191669237,-0.5539416407463541,1.4813011789901895
1790096838767684352,12.066684326171869,0.7445867822349778,-0.6732496578190552,1.53254793392377
1790096838777684224,12.076684326171868,0.7733936088351939,-0.7235484555209516,1.481052951528626
1790096838787684352,12.086684326171868,0.7793647646903992,-0.7287407517433167,1.464048147201538
1790096838797684224,12.096684326171868,0.7976928163894823,-0.7159666534623224,1.387958828211412
1790096838807684352,12.10668432617187,0.8149296101341815,-0.7336536437018201,1.424212547448941
1790096838817684224,12.11668432617187,0.8149509691213417,-0.7364503936163866,1.427077250957955
1790096838827684352,12.126684326171869,0.7900884834679862,-0.8243834343529827,1.47151622990254
1790096838837684224,12.136684326171869,0.6684577420905252,-1.0090263815865277,1.4331569239088822
1790096838847684352,12.146684326171869,0.551264409377003,-0.9856817299943533,1.363013456984303
1790096838857684224,12.156684326171868,0.4513397812843323,-0.901610553264618,1.2991193532943726
1790096838867684352,12.166684326171868,0.4025968240391312,-0.8805159055964857,1.2858072134905973
1790096838877684224,12.176684326171868,0.26240256449722466,-0.7927179543685431,1.2553007202312034
1790096838887684352,12.186684326171868,0.1960056126117706,-0.7226322889328003,1.2490298748016355
1790096838897684224,12.19668432617187,0.19505659076902707,-0.6846714769580955,1.2468155007910735
1790096838907684352,12.20668432617187,0.22598898584463117,-0.5319652513092383,1.1524878169103492
1790096838917684224,12.216684326171869,0.2491493225097656,-0.446529358625412,1.0853228569030762
1790096838927684352,12.226684326171869,0.256850916337411,-0.33100532596085824,0.9860577816524029
1790096838937684224,12.236684326171869,0.2145705264973928,-0.36065760124249785,0.8817558287741204
1790096838947684352,12.246684326171868,0.17466829198149023,-0.3216626106149575,0.766941737971291
1790096838957684224,12.256684326171868,0.15240693771062347,-0.28089702069313727,0.6869686755205756
1790096838967684352,12.266684326171868,0.1236694333459955,-0.2709822759530158,0.633559708198871
1790096838977684224,12.276684326171868,0.05899243480046884,-0.2000406021142168,0.4189171711707316
1790096838987684352,12.28668432617187,0.0206924509257078,-0.1337755471467971,0.2973299026489258
1790096838997684224,12.296684326171869,0.014974502967625073,-0.12828940851059945,0.2847349636575847
1790096839007684352,12.306684326171869,-0.03824374853018556,-0.07163627567811019,0.17544486074630475
1790096839017684224,12.316684326171869,-0.0978119149804115,0.0097735561430454,0.0786465853452682
1790096839027684352,12.326684326171868,-0.1089512584197951,0.07679842606051732,0.026348308552825724
1790096839037684224,12.336684326171868,-0.1460543258519215,0.2858286835929476,-0.13010298891597927
1790096839047684352,12.346684326171868,-0.18210036128957527,0.4335070239064197,-0.2359091725285645
1790096839057684224,12.356684326171868,-0.21217766539383923,0.5128162233276872,-0.31885166861820136
1790096839067684352,12.36668432617187,-0.2224247604608535,0.5308262705802917,-0.3520770967006683
1790096839077684224,12.376684326171869,-0.22467291848158996,0.5045977024493111,-0.4236436355513407
1790096839087684352,12.386684326171869,-0.21744063298448701,0.502070460639681,-0.5445324550079302
1790096839097684224,12.396684326171869,-0.20383207436417455,0.539370918537879,-0.6745464489175639
1790096839107684352,12.406684326171868,-0.2004342526197433,0.550373375415802,-0.7082010507583618
1790096839117684224,12.416684326171868,-0.19677041712642143,0.5818430886339953,-0.8018904799408867
1790096839127684352,12.426684326171868,-0.2213846034832584,0.6022363603114972,-0.8921004036228155
1790096839137684224,12.436684326171868,-0.284020559992179,0.5976157866559272,-0.9412265812847113
1790096839147684352,12.446684326171868,-0.3647521734237671,0.6811710596084595,-1.0032402276992798
1790096839157684224,12.45668432617187,-0.36683545355729397,0.6787201379356523,-1.0150659204359187
